Instruction,Stimulus,Key,RT,START,END,Phase,Block,TrialN,NbackLevel,ISI,LetterN,Letter,Letter_isSame,Letter_Resp,Letter_RT,Letter_Accuracy,Letter_Timeout,Trial_A_measure,Trial_HR,Trial_FAR,Trial_CDR,Trial_MSR,Trial_ACC,Trial_RT,Trial_HitsCount,Trial_FAsCount,Trial_SameNoRespCount,Trial_DiffNoRespCount,Trial_NoRespCount,Trial_CDsCount,Trial_CorrectRespCount,Trial_SameLetterCount,Trial_DiffLetterCount,Trial_InvalidLetterCount,TrialCountCali,CaliEnd_A_measure,ISI_calibrated,Run,TrialIndex,TrialNumber_total,TrialNumber_valid,CueLearning,TrialDemandLearning,CueMapping,OnlineRating,OnlineRatingRT,OnlineRatingTimeOut,CueSTART,RatingSTART,OfflineRatingTimePoint,OfflineRatingQuesIndex,CueFigure,TrialDemand,OfflineRating,OfflineRatingRT,CueStart,OfflineRatingStart,PhaseType,CueLeft,CueDemandLeft,CueRight,CueDemandRight,Choice,ChoiceDemand,TaskDemand,ChoiceRT,ChoiceTimeOut,ChoiceSTART,CueCheck,CueDemandCheck,CorrectAnswer,Answer,AnswerDemand,AnswerRT,AnswerACC,AnswerTimeOut,CheckSTART,DemandRatingQuesIndex,QuesTLX,DemandLevel,DemandRating,DemandRatingRT,QuesStart,PID,SONA,Age,Gender,Run,TIME,EXPERIMENTER,frameRate,
-1,./instructions/inst_begin/Slide2.png,left,26.150347994000185,0.10673253200002364,26.25708052600021,,,,,,,,,,,,,,,,,,,,,,,,,,,,,,,,,1,,,,,,,,,,,,,,,,,,,,,,,,,,,,,,,,,,,,,,,,,,,,,,125,157324,19,Female,1,2024/03/26_11:58:35,YZ,None,
0,./instructions/inst_begin/Slide4.png,right,11.850297201001013,26.28656802399928,38.13686522500029,,,,,,,,,,,,,,,,,,,,,,,,,,,,,,,,,1,,,,,,,,,,,,,,,,,,,,,,,,,,,,,,,,,,,,,,,,,,,,,,125,157324,19,Female,1,2024/03/26_11:58:35,YZ,None,
1,./instructions/inst_begin/Slide2.png,right,4.7394926449997,38.165519894999306,42.90501253999901,,,,,,,,,,,,,,,,,,,,,,,,,,,,,,,,,1,,,,,,,,,,,,,,,,,,,,,,,,,,,,,,,,,,,,,,,,,,,,,,125,157324,19,Female,1,2024/03/26_11:58:35,YZ,None,
2,./instructions/inst_begin/Slide3.png,right,12.859622538999247,42.93336218500008,55.792984723999325,,,,,,,,,,,,,,,,,,,,,,,,,,,,,,,,,1,,,,,,,,,,,,,,,,,,,,,,,,,,,,,,,,,,,,,,,,,,,,,,125,157324,19,Female,1,2024/03/26_11:58:35,YZ,None,
3,./instructions/inst_begin/Slide4.png,right,6.757727809001153,55.81912607999948,62.57685388900063,,,,,,,,,,,,,,,,,,,,,,,,,,,,,,,,,1,,,,,,,,,,,,,,,,,,,,,,,,,,,,,,,,,,,,,,,,,,,,,,125,157324,19,Female,1,2024/03/26_11:58:35,YZ,None,
1,./instructions/inst_prac_2/Slide6.png,right,20.505658570999003,62.60745855700043,83.11311712799943,,,,,,,,,,,,,,,,,,,,,,,,,,,,,,,,,1,,,,,,,,,,,,,,,,,,,,,,,,,,,,,,,,,,,,,,,,,,,,,,125,157324,19,Female,1,2024/03/26_11:58:35,YZ,None,
2,./instructions/inst_prac_2/Slide7.png,right,22.32547180199981,83.13945969499946,105.46493149699927,,,,,,,,,,,,,,,,,,,,,,,,,,,,,,,,,1,,,,,,,,,,,,,,,,,,,,,,,,,,,,,,,,,,,,,,,,,,,,,,125,157324,19,Female,1,2024/03/26_11:58:35,YZ,None,
3,./instructions/inst_prac_2/Slide8.png,right,17.651397060999443,105.49357297899951,123.14497003999895,,,,,,,,,,,,,,,,,,,,,,,,,,,,,,,,,1,,,,,,,,,,,,,,,,,,,,,,,,,,,,,,,,,,,,,,,,,,,,,,125,157324,19,Female,1,2024/03/26_11:58:35,YZ,None,
4,./instructions/inst_prac_2/Slide9.png,right,5.803401831999508,123.173652898,128.9770547299995,,,,,,,,,,,,,,,,,,,,,,,,,,,,,,,,,1,,,,,,,,,,,,,,,,,,,,,,,,,,,,,,,,,,,,,,,,,,,,,,125,157324,19,Female,1,2024/03/26_11:58:35,YZ,None,
5,./instructions/inst_prac_2/Slide10.png,right,2.9166126680011075,129.0043230329993,131.92093570100042,,,,,,,,,,,,,,,,,,,,,,,,,,,,,,,,,1,,,,,,,,,,,,,,,,,,,,,,,,,,,,,,,,,,,,,,,,,,,,,,125,157324,19,Female,1,2024/03/26_11:58:35,YZ,None,
6,./instructions/inst_prac_2/Slide11.png,right,3.203876894000132,131.9490270440001,135.15290393800024,,,,,,,,,,,,,,,,,,,,,,,,,,,,,,,,,1,,,,,,,,,,,,,,,,,,,,,,,,,,,,,,,,,,,,,,,,,,,,,,125,157324,19,Female,1,2024/03/26_11:58:35,YZ,None,
7,./instructions/inst_prac_2/Slide12.png,right,0.5952432800004317,135.181694461,135.77693774100044,,,,,,,,,,,,,,,,,,,,,,,,,,,,,,,,,1,,,,,,,,,,,,,,,,,,,,,,,,,,,,,,,,,,,,,,,,,,,,,,125,157324,19,Female,1,2024/03/26_11:58:35,YZ,None,
8,./instructions/inst_prac_2/Slide13.png,right,1.8599141310005507,135.80521555199994,137.6651296830005,,,,,,,,,,,,,,,,,,,,,,,,,,,,,,,,,1,,,,,,,,,,,,,,,,,,,,,,,,,,,,,,,,,,,,,,,,,,,,,,125,157324,19,Female,1,2024/03/26_11:58:35,YZ,None,
9,./instructions/inst_prac_2/Slide14.png,right,0.20052631399994425,137.6933562209997,137.89388253499965,,,,,,,,,,,,,,,,,,,,,,,,,,,,,,,,,1,,,,,,,,,,,,,,,,,,,,,,,,,,,,,,,,,,,,,,,,,,,,,,125,157324,19,Female,1,2024/03/26_11:58:35,YZ,None,
8,./instructions/inst_prac_2/Slide15.png,left,2.6844483480017516,137.91643111699887,140.60087946500062,,,,,,,,,,,,,,,,,,,,,,,,,,,,,,,,,1,,,,,,,,,,,,,,,,,,,,,,,,,,,,,,,,,,,,,,,,,,,,,,125,157324,19,Female,1,2024/03/26_11:58:35,YZ,None,
9,./instructions/inst_prac_2/Slide14.png,right,11.459639322998555,140.6292101910003,152.08884951399887,,,,,,,,,,,,,,,,,,,,,,,,,,,,,,,,,1,,,,,,,,,,,,,,,,,,,,,,,,,,,,,,,,,,,,,,,,,,,,,,125,157324,19,Female,1,2024/03/26_11:58:35,YZ,None,
8,./instructions/inst_prac_2/Slide15.png,left,1.1153926189999765,152.11759209999946,153.23298471899943,,,,,,,,,,,,,,,,,,,,,,,,,,,,,,,,,1,,,,,,,,,,,,,,,,,,,,,,,,,,,,,,,,,,,,,,,,,,,,,,125,157324,19,Female,1,2024/03/26_11:58:35,YZ,None,
9,./instructions/inst_prac_2/Slide14.png,right,1.6675664459999098,153.2613027360003,154.9288691820002,,,,,,,,,,,,,,,,,,,,,,,,,,,,,,,,,1,,,,,,,,,,,,,,,,,,,,,,,,,,,,,,,,,,,,,,,,,,,,,,125,157324,19,Female,1,2024/03/26_11:58:35,YZ,None,
10,./instructions/inst_prac_2/Slide15.png,right,14.460494761999144,154.95662954900035,169.4171243109995,,,,,,,,,,,,,,,,,,,,,,,,,,,,,,,,,1,,,,,,,,,,,,,,,,,,,,,,,,,,,,,,,,,,,,,,,,,,,,,,125,157324,19,Female,1,2024/03/26_11:58:35,YZ,None,
,,,,,,practice,0,29,2,2583,1,F,0,left,1.915687237999009,0,0,,,,,,,,,,,,,,,,,,,,,1,,,,,,,,,,,,,,,,,,,,,,,,,,,,,,,,,,,,,,,,,,,,,,125,157324,19,Female,1,2024/03/26_11:58:35,YZ,None,
,,,,,,practice,0,29,2,2583,2,J,0,right,1.986303878000399,1,0,,,,,,,,,,,,,,,,,,,,,1,,,,,,,,,,,,,,,,,,,,,,,,,,,,,,,,,,,,,,,,,,,,,,125,157324,19,Female,1,2024/03/26_11:58:35,YZ,None,
,,,,,,practice,0,29,2,2583,3,N,0,right,1.146564249000221,1,0,,,,,,,,,,,,,,,,,,,,,1,,,,,,,,,,,,,,,,,,,,,,,,,,,,,,,,,,,,,,,,,,,,,,125,157324,19,Female,1,2024/03/26_11:58:35,YZ,None,
,,,,,,practice,0,29,2,2583,4,J,1,left,1.4131582760001038,1,0,,,,,,,,,,,,,,,,,,,,,1,,,,,,,,,,,,,,,,,,,,,,,,,,,,,,,,,,,,,,,,,,,,,,125,157324,19,Female,1,2024/03/26_11:58:35,YZ,None,
,,,,,,practice,0,29,2,2583,5,F,0,right,1.09418263400039,1,0,,,,,,,,,,,,,,,,,,,,,1,,,,,,,,,,,,,,,,,,,,,,,,,,,,,,,,,,,,,,,,,,,,,,125,157324,19,Female,1,2024/03/26_11:58:35,YZ,None,
,,,,,,practice,0,29,2,2583,6,J,1,left,0.8461581069987005,1,0,,,,,,,,,,,,,,,,,,,,,1,,,,,,,,,,,,,,,,,,,,,,,,,,,,,,,,,,,,,,,,,,,,,,125,157324,19,Female,1,2024/03/26_11:58:35,YZ,None,
,,,,,,practice,0,29,2,2583,,,,,,,,0.9375,1.0,0.25,0.75,0.0,0.75,1.400342396999804,2,1,0,0,0,3,5,2,4,0,,,,1,,,,,,,,,,,,,,,,,,,,,,,,,,,,,,,,,,,,,,,,,,,,,,125,157324,19,Female,1,2024/03/26_11:58:35,YZ,None,
1,./instructions/inst_to_cali/Slide20.png,right,6.465024454999366,184.6879219780003,191.15294643299967,,,,,,,,,,,,,,,,,,,,,,,,,,,,,,,,,1,,,,,,,,,,,,,,,,,,,,,,,,,,,,,,,,,,,,,,,,,,,,,,125,157324,19,Female,1,2024/03/26_11:58:35,YZ,None,
1,./instructions/inst_cali/Slide22.png,right,11.601383270000952,191.18367460899935,202.7850578790003,,,,,,,,,,,,,,,,,,,,,,,,,,,,,,,,,1,,,,,,,,,,,,,,,,,,,,,,,,,,,,,,,,,,,,,,,,,,,,,,125,157324,19,Female,1,2024/03/26_11:58:35,YZ,None,
,,,,,,calibration,0,4,2,583,1,F,0,right,0.7463495689989941,1,0,,,,,,,,,,,,,,,,,,,,,1,,,,,,,,,,,,,,,,,,,,,,,,,,,,,,,,,,,,,,,,,,,,,,125,157324,19,Female,1,2024/03/26_11:58:35,YZ,None,
,,,,,,calibration,0,4,2,583,2,N,0,left,0.4505203619992244,0,0,,,,,,,,,,,,,,,,,,,,,1,,,,,,,,,,,,,,,,,,,,,,,,,,,,,,,,,,,,,,,,,,,,,,125,157324,19,Female,1,2024/03/26_11:58:35,YZ,None,
,,,,,,calibration,0,4,2,583,3,S,0,left,nan,0,1,,,,,,,,,,,,,,,,,,,,,1,,,,,,,,,,,,,,,,,,,,,,,,,,,,,,,,,,,,,,,,,,,,,,125,157324,19,Female,1,2024/03/26_11:58:35,YZ,None,
,,,,,,calibration,0,4,2,583,4,N,1,left,nan,0,1,,,,,,,,,,,,,,,,,,,,,1,,,,,,,,,,,,,,,,,,,,,,,,,,,,,,,,,,,,,,,,,,,,,,125,157324,19,Female,1,2024/03/26_11:58:35,YZ,None,
,,,,,,calibration,0,4,2,583,5,C,0,left,nan,0,1,,,,,,,,,,,,,,,,,,,,,1,,,,,,,,,,,,,,,,,,,,,,,,,,,,,,,,,,,,,,,,,,,,,,125,157324,19,Female,1,2024/03/26_11:58:35,YZ,None,
,,,,,,calibration,0,4,2,583,6,N,1,left,nan,0,1,,,,,,,,,,,,,,,,,,,,,1,,,,,,,,,,,,,,,,,,,,,,,,,,,,,,,,,,,,,,,,,,,,,,125,157324,19,Female,1,2024/03/26_11:58:35,YZ,None,
,,,,,,calibration,0,4,2,583,7,S,0,left,nan,0,1,,,,,,,,,,,,,,,,,,,,,1,,,,,,,,,,,,,,,,,,,,,,,,,,,,,,,,,,,,,,,,,,,,,,125,157324,19,Female,1,2024/03/26_11:58:35,YZ,None,
,,,,,,calibration,0,4,2,583,8,V,0,left,nan,0,1,,,,,,,,,,,,,,,,,,,,,1,,,,,,,,,,,,,,,,,,,,,,,,,,,,,,,,,,,,,,,,,,,,,,125,157324,19,Female,1,2024/03/26_11:58:35,YZ,None,
,,,,,,calibration,0,4,2,583,9,Q,0,left,nan,0,1,,,,,,,,,,,,,,,,,,,,,1,,,,,,,,,,,,,,,,,,,,,,,,,,,,,,,,,,,,,,,,,,,,,,125,157324,19,Female,1,2024/03/26_11:58:35,YZ,None,
,,,,,,calibration,0,4,2,583,10,V,1,left,nan,0,1,,,,,,,,,,,,,,,,,,,,,1,,,,,,,,,,,,,,,,,,,,,,,,,,,,,,,,,,,,,,,,,,,,,,125,157324,19,Female,1,2024/03/26_11:58:35,YZ,None,
,,,,,,calibration,0,4,2,583,11,S,0,left,nan,0,1,,,,,,,,,,,,,,,,,,,,,1,,,,,,,,,,,,,,,,,,,,,,,,,,,,,,,,,,,,,,,,,,,,,,125,157324,19,Female,1,2024/03/26_11:58:35,YZ,None,
,,,,,,calibration,0,4,2,583,12,Q,0,left,nan,0,1,,,,,,,,,,,,,,,,,,,,,1,,,,,,,,,,,,,,,,,,,,,,,,,,,,,,,,,,,,,,,,,,,,,,125,157324,19,Female,1,2024/03/26_11:58:35,YZ,None,
,,,,,,calibration,0,4,2,583,13,X,0,left,nan,0,1,,,,,,,,,,,,,,,,,,,,,1,,,,,,,,,,,,,,,,,,,,,,,,,,,,,,,,,,,,,,,,,,,,,,125,157324,19,Female,1,2024/03/26_11:58:35,YZ,None,
,,,,,,calibration,0,4,2,583,14,Q,1,right,0.7750798280012532,0,0,,,,,,,,,,,,,,,,,,,,,1,,,,,,,,,,,,,,,,,,,,,,,,,,,,,,,,,,,,,,,,,,,,,,125,157324,19,Female,1,2024/03/26_11:58:35,YZ,None,
,,,,,,calibration,0,4,2,583,15,S,0,left,1.2954862879996654,0,0,,,,,,,,,,,,,,,,,,,,,1,,,,,,,,,,,,,,,,,,,,,,,,,,,,,,,,,,,,,,,,,,,,,,125,157324,19,Female,1,2024/03/26_11:58:35,YZ,None,
,,,,,,calibration,0,4,2,583,,,,,,,,0.20454545454545453,0.0,0.18181818181818182,0.3333333333333333,0.7333333333333333,0.08484848484848484,0.8168590117497843,0,2,3,8,11,1,1,4,11,0,,,,1,,,,,,,,,,,,,,,,,,,,,,,,,,,,,,,,,,,,,,,,,,,,,,125,157324,19,Female,1,2024/03/26_11:58:35,YZ,None,
,,,,,,Calibration,0,,2,583,,,,,,,,,,,,,,,,,,,,,,,,,1,,,1,,,,,,,,,,,,,,,,,,,,,,,,,,,,,,,,,,,,,,,,,,,,,,125,157324,19,Female,1,2024/03/26_11:58:35,YZ,None,
,,,,,,calibration,0,26,2,679,1,S,0,None,nan,0,1,,,,,,,,,,,,,,,,,,,,,1,,,,,,,,,,,,,,,,,,,,,,,,,,,,,,,,,,,,,,,,,,,,,,125,157324,19,Female,1,2024/03/26_11:58:35,YZ,None,
,,,,,,calibration,0,26,2,679,2,N,0,right,0.3086947459996736,1,0,,,,,,,,,,,,,,,,,,,,,1,,,,,,,,,,,,,,,,,,,,,,,,,,,,,,,,,,,,,,,,,,,,,,125,157324,19,Female,1,2024/03/26_11:58:35,YZ,None,
,,,,,,calibration,0,26,2,679,3,S,1,left,0.4132282809987373,1,0,,,,,,,,,,,,,,,,,,,,,1,,,,,,,,,,,,,,,,,,,,,,,,,,,,,,,,,,,,,,,,,,,,,,125,157324,19,Female,1,2024/03/26_11:58:35,YZ,None,
,,,,,,calibration,0,26,2,679,4,C,0,left,nan,0,1,,,,,,,,,,,,,,,,,,,,,1,,,,,,,,,,,,,,,,,,,,,,,,,,,,,,,,,,,,,,,,,,,,,,125,157324,19,Female,1,2024/03/26_11:58:35,YZ,None,
,,,,,,calibration,0,26,2,679,5,S,1,left,nan,0,1,,,,,,,,,,,,,,,,,,,,,1,,,,,,,,,,,,,,,,,,,,,,,,,,,,,,,,,,,,,,,,,,,,,,125,157324,19,Female,1,2024/03/26_11:58:35,YZ,None,
,,,,,,calibration,0,26,2,679,6,N,0,left,nan,0,1,,,,,,,,,,,,,,,,,,,,,1,,,,,,,,,,,,,,,,,,,,,,,,,,,,,,,,,,,,,,,,,,,,,,125,157324,19,Female,1,2024/03/26_11:58:35,YZ,None,
,,,,,,calibration,0,26,2,679,7,J,0,left,nan,0,1,,,,,,,,,,,,,,,,,,,,,1,,,,,,,,,,,,,,,,,,,,,,,,,,,,,,,,,,,,,,,,,,,,,,125,157324,19,Female,1,2024/03/26_11:58:35,YZ,None,
,,,,,,calibration,0,26,2,679,8,N,1,left,nan,0,1,,,,,,,,,,,,,,,,,,,,,1,,,,,,,,,,,,,,,,,,,,,,,,,,,,,,,,,,,,,,,,,,,,,,125,157324,19,Female,1,2024/03/26_11:58:35,YZ,None,
,,,,,,calibration,0,26,2,679,9,X,0,left,nan,0,1,,,,,,,,,,,,,,,,,,,,,1,,,,,,,,,,,,,,,,,,,,,,,,,,,,,,,,,,,,,,,,,,,,,,125,157324,19,Female,1,2024/03/26_11:58:35,YZ,None,
,,,,,,calibration,0,26,2,679,10,S,0,left,nan,0,1,,,,,,,,,,,,,,,,,,,,,1,,,,,,,,,,,,,,,,,,,,,,,,,,,,,,,,,,,,,,,,,,,,,,125,157324,19,Female,1,2024/03/26_11:58:35,YZ,None,
,,,,,,calibration,0,26,2,679,11,X,1,left,nan,0,1,,,,,,,,,,,,,,,,,,,,,1,,,,,,,,,,,,,,,,,,,,,,,,,,,,,,,,,,,,,,,,,,,,,,125,157324,19,Female,1,2024/03/26_11:58:35,YZ,None,
,,,,,,calibration,0,26,2,679,12,V,0,left,nan,0,1,,,,,,,,,,,,,,,,,,,,,1,,,,,,,,,,,,,,,,,,,,,,,,,,,,,,,,,,,,,,,,,,,,,,125,157324,19,Female,1,2024/03/26_11:58:35,YZ,None,
,,,,,,calibration,0,26,2,679,13,Q,0,left,nan,0,1,,,,,,,,,,,,,,,,,,,,,1,,,,,,,,,,,,,,,,,,,,,,,,,,,,,,,,,,,,,,,,,,,,,,125,157324,19,Female,1,2024/03/26_11:58:35,YZ,None,
,,,,,,calibration,0,26,2,679,14,N,0,left,nan,0,1,,,,,,,,,,,,,,,,,,,,,1,,,,,,,,,,,,,,,,,,,,,,,,,,,,,,,,,,,,,,,,,,,,,,125,157324,19,Female,1,2024/03/26_11:58:35,YZ,None,
,,,,,,calibration,0,26,2,679,,,,,,,,0.8125,0.25,0.0,1.0,0.8571428571428571,0.1428571428571429,0.36096151349920547,1,0,3,9,12,1,2,4,10,0,,,,1,,,,,,,,,,,,,,,,,,,,,,,,,,,,,,,,,,,,,,,,,,,,,,125,157324,19,Female,1,2024/03/26_11:58:35,YZ,None,
,,,,,,Calibration,0,,2,679,,,,,,,,,,,,,,,,,,,,,,,,,2,,,1,,,,,,,,,,,,,,,,,,,,,,,,,,,,,,,,,,,,,,,,,,,,,,125,157324,19,Female,1,2024/03/26_11:58:35,YZ,None,
,,,,,,calibration,0,33,2,679,1,S,0,None,nan,0,1,,,,,,,,,,,,,,,,,,,,,1,,,,,,,,,,,,,,,,,,,,,,,,,,,,,,,,,,,,,,,,,,,,,,125,157324,19,Female,1,2024/03/26_11:58:35,YZ,None,
,,,,,,calibration,0,33,2,679,2,S,0,None,nan,0,1,,,,,,,,,,,,,,,,,,,,,1,,,,,,,,,,,,,,,,,,,,,,,,,,,,,,,,,,,,,,,,,,,,,,125,157324,19,Female,1,2024/03/26_11:58:35,YZ,None,
,,,,,,calibration,0,33,2,679,3,S,1,None,nan,0,1,,,,,,,,,,,,,,,,,,,,,1,,,,,,,,,,,,,,,,,,,,,,,,,,,,,,,,,,,,,,,,,,,,,,125,157324,19,Female,1,2024/03/26_11:58:35,YZ,None,
,,,,,,calibration,0,33,2,679,4,J,0,right,0.0,1,0,,,,,,,,,,,,,,,,,,,,,1,,,,,,,,,,,,,,,,,,,,,,,,,,,,,,,,,,,,,,,,,,,,,,125,157324,19,Female,1,2024/03/26_11:58:35,YZ,None,
,,,,,,calibration,0,33,2,679,5,X,0,right,nan,0,1,,,,,,,,,,,,,,,,,,,,,1,,,,,,,,,,,,,,,,,,,,,,,,,,,,,,,,,,,,,,,,,,,,,,125,157324,19,Female,1,2024/03/26_11:58:35,YZ,None,
,,,,,,calibration,0,33,2,679,6,N,0,left,0.0,0,0,,,,,,,,,,,,,,,,,,,,,1,,,,,,,,,,,,,,,,,,,,,,,,,,,,,,,,,,,,,,,,,,,,,,125,157324,19,Female,1,2024/03/26_11:58:35,YZ,None,
,,,,,,calibration,0,33,2,679,7,S,0,left,nan,0,1,,,,,,,,,,,,,,,,,,,,,1,,,,,,,,,,,,,,,,,,,,,,,,,,,,,,,,,,,,,,,,,,,,,,125,157324,19,Female,1,2024/03/26_11:58:35,YZ,None,
,,,,,,calibration,0,33,2,679,8,N,1,right,0.483668212998964,0,0,,,,,,,,,,,,,,,,,,,,,1,,,,,,,,,,,,,,,,,,,,,,,,,,,,,,,,,,,,,,,,,,,,,,125,157324,19,Female,1,2024/03/26_11:58:35,YZ,None,
,,,,,,calibration,0,33,2,679,9,X,0,left,0.6004245530002663,0,0,,,,,,,,,,,,,,,,,,,,,1,,,,,,,,,,,,,,,,,,,,,,,,,,,,,,,,,,,,,,,,,,,,,,125,157324,19,Female,1,2024/03/26_11:58:35,YZ,None,
,,,,,,calibration,0,33,2,679,10,F,0,left,nan,0,1,,,,,,,,,,,,,,,,,,,,,1,,,,,,,,,,,,,,,,,,,,,,,,,,,,,,,,,,,,,,,,,,,,,,125,157324,19,Female,1,2024/03/26_11:58:35,YZ,None,
,,,,,,calibration,0,33,2,679,11,X,1,left,0.0,1,0,,,,,,,,,,,,,,,,,,,,,1,,,,,,,,,,,,,,,,,,,,,,,,,,,,,,,,,,,,,,,,,,,,,,125,157324,19,Female,1,2024/03/26_11:58:35,YZ,None,
,,,,,,calibration,0,33,2,679,12,Q,0,left,nan,0,1,,,,,,,,,,,,,,,,,,,,,1,,,,,,,,,,,,,,,,,,,,,,,,,,,,,,,,,,,,,,,,,,,,,,125,157324,19,Female,1,2024/03/26_11:58:35,YZ,None,
,,,,,,calibration,0,33,2,679,13,X,1,left,nan,0,1,,,,,,,,,,,,,,,,,,,,,1,,,,,,,,,,,,,,,,,,,,,,,,,,,,,,,,,,,,,,,,,,,,,,125,157324,19,Female,1,2024/03/26_11:58:35,YZ,None,
,,,,,,calibration,0,33,2,679,14,C,0,left,0.6754083579999133,0,0,,,,,,,,,,,,,,,,,,,,,1,,,,,,,,,,,,,,,,,,,,,,,,,,,,,,,,,,,,,,,,,,,,,,125,157324,19,Female,1,2024/03/26_11:58:35,YZ,None,
,,,,,,calibration,0,33,2,679,,,,,,,,0.029166666666666646,0.25,0.3,0.25,0.5714285714285714,0.12857142857142856,0.2932501873331906,1,3,2,6,8,1,2,4,10,0,,,,1,,,,,,,,,,,,,,,,,,,,,,,,,,,,,,,,,,,,,,,,,,,,,,125,157324,19,Female,1,2024/03/26_11:58:35,YZ,None,
,,,,,,Calibration,0,,2,679,,,,,,,,,,,,,,,,,,,,,,,,,3,,,1,,,,,,,,,,,,,,,,,,,,,,,,,,,,,,,,,,,,,,,,,,,,,,125,157324,19,Female,1,2024/03/26_11:58:35,YZ,None,
,,,,,,calibration,0,25,2,788,1,X,0,right,0.2579706039996381,1,0,,,,,,,,,,,,,,,,,,,,,1,,,,,,,,,,,,,,,,,,,,,,,,,,,,,,,,,,,,,,,,,,,,,,125,157324,19,Female,1,2024/03/26_11:58:35,YZ,None,
,,,,,,calibration,0,25,2,788,2,F,0,right,nan,0,1,,,,,,,,,,,,,,,,,,,,,1,,,,,,,,,,,,,,,,,,,,,,,,,,,,,,,,,,,,,,,,,,,,,,125,157324,19,Female,1,2024/03/26_11:58:35,YZ,None,
,,,,,,calibration,0,25,2,788,3,X,1,right,0.0030173760005709482,0,0,,,,,,,,,,,,,,,,,,,,,1,,,,,,,,,,,,,,,,,,,,,,,,,,,,,,,,,,,,,,,,,,,,,,125,157324,19,Female,1,2024/03/26_11:58:35,YZ,None,
,,,,,,calibration,0,25,2,788,4,V,0,right,nan,0,1,,,,,,,,,,,,,,,,,,,,,1,,,,,,,,,,,,,,,,,,,,,,,,,,,,,,,,,,,,,,,,,,,,,,125,157324,19,Female,1,2024/03/26_11:58:35,YZ,None,
,,,,,,calibration,0,25,2,788,5,J,0,right,0.4645666819997132,1,0,,,,,,,,,,,,,,,,,,,,,1,,,,,,,,,,,,,,,,,,,,,,,,,,,,,,,,,,,,,,,,,,,,,,125,157324,19,Female,1,2024/03/26_11:58:35,YZ,None,
,,,,,,calibration,0,25,2,788,6,V,1,left,0.6102390989999549,1,0,,,,,,,,,,,,,,,,,,,,,1,,,,,,,,,,,,,,,,,,,,,,,,,,,,,,,,,,,,,,,,,,,,,,125,157324,19,Female,1,2024/03/26_11:58:35,YZ,None,
,,,,,,calibration,0,25,2,788,7,X,0,left,nan,0,1,,,,,,,,,,,,,,,,,,,,,1,,,,,,,,,,,,,,,,,,,,,,,,,,,,,,,,,,,,,,,,,,,,,,125,157324,19,Female,1,2024/03/26_11:58:35,YZ,None,
,,,,,,calibration,0,25,2,788,8,N,0,left,0.676910002999648,0,0,,,,,,,,,,,,,,,,,,,,,1,,,,,,,,,,,,,,,,,,,,,,,,,,,,,,,,,,,,,,,,,,,,,,125,157324,19,Female,1,2024/03/26_11:58:35,YZ,None,
,,,,,,calibration,0,25,2,788,9,C,0,left,nan,0,1,,,,,,,,,,,,,,,,,,,,,1,,,,,,,,,,,,,,,,,,,,,,,,,,,,,,,,,,,,,,,,,,,,,,125,157324,19,Female,1,2024/03/26_11:58:35,YZ,None,
,,,,,,calibration,0,25,2,788,10,N,1,left,0.6977913360005914,1,0,,,,,,,,,,,,,,,,,,,,,1,,,,,,,,,,,,,,,,,,,,,,,,,,,,,,,,,,,,,,,,,,,,,,125,157324,19,Female,1,2024/03/26_11:58:35,YZ,None,
,,,,,,calibration,0,25,2,788,11,S,0,left,nan,0,1,,,,,,,,,,,,,,,,,,,,,1,,,,,,,,,,,,,,,,,,,,,,,,,,,,,,,,,,,,,,,,,,,,,,125,157324,19,Female,1,2024/03/26_11:58:35,YZ,None,
,,,,,,calibration,0,25,2,788,12,C,0,left,nan,0,1,,,,,,,,,,,,,,,,,,,,,1,,,,,,,,,,,,,,,,,,,,,,,,,,,,,,,,,,,,,,,,,,,,,,125,157324,19,Female,1,2024/03/26_11:58:35,YZ,None,
,,,,,,calibration,0,25,2,788,13,S,1,right,0.642165670000395,0,0,,,,,,,,,,,,,,,,,,,,,1,,,,,,,,,,,,,,,,,,,,,,,,,,,,,,,,,,,,,,,,,,,,,,125,157324,19,Female,1,2024/03/26_11:58:35,YZ,None,
,,,,,,calibration,0,25,2,788,,,,,,,,0.7916666666666666,0.5,0.1111111111111111,0.6666666666666666,0.46153846153846156,0.4273504273504273,0.47895153857150163,2,1,0,6,6,2,4,4,9,0,,,,1,,,,,,,,,,,,,,,,,,,,,,,,,,,,,,,,,,,,,,,,,,,,,,125,157324,19,Female,1,2024/03/26_11:58:35,YZ,None,
,,,,,,Calibration,0,,2,788,,,,,,,,,,,,,,,,,,,,,,,,,4,,,1,,,,,,,,,,,,,,,,,,,,,,,,,,,,,,,,,,,,,,,,,,,,,,125,157324,19,Female,1,2024/03/26_11:58:35,YZ,None,
,,,,,,calibration,0,19,2,788,1,F,0,None,nan,0,1,,,,,,,,,,,,,,,,,,,,,1,,,,,,,,,,,,,,,,,,,,,,,,,,,,,,,,,,,,,,,,,,,,,,125,157324,19,Female,1,2024/03/26_11:58:35,YZ,None,
,,,,,,calibration,0,19,2,788,2,N,0,None,nan,0,1,,,,,,,,,,,,,,,,,,,,,1,,,,,,,,,,,,,,,,,,,,,,,,,,,,,,,,,,,,,,,,,,,,,,125,157324,19,Female,1,2024/03/26_11:58:35,YZ,None,
,,,,,,calibration,0,19,2,788,3,F,1,left,0.4191114919995016,1,0,,,,,,,,,,,,,,,,,,,,,1,,,,,,,,,,,,,,,,,,,,,,,,,,,,,,,,,,,,,,,,,,,,,,125,157324,19,Female,1,2024/03/26_11:58:35,YZ,None,
,,,,,,calibration,0,19,2,788,4,V,0,left,nan,0,1,,,,,,,,,,,,,,,,,,,,,1,,,,,,,,,,,,,,,,,,,,,,,,,,,,,,,,,,,,,,,,,,,,,,125,157324,19,Female,1,2024/03/26_11:58:35,YZ,None,
,,,,,,calibration,0,19,2,788,5,F,1,right,1.0392007299997204,0,0,,,,,,,,,,,,,,,,,,,,,1,,,,,,,,,,,,,,,,,,,,,,,,,,,,,,,,,,,,,,,,,,,,,,125,157324,19,Female,1,2024/03/26_11:58:35,YZ,None,
,,,,,,calibration,0,19,2,788,6,C,0,right,nan,0,1,,,,,,,,,,,,,,,,,,,,,1,,,,,,,,,,,,,,,,,,,,,,,,,,,,,,,,,,,,,,,,,,,,,,125,157324,19,Female,1,2024/03/26_11:58:35,YZ,None,
,,,,,,calibration,0,19,2,788,7,F,1,right,nan,0,1,,,,,,,,,,,,,,,,,,,,,1,,,,,,,,,,,,,,,,,,,,,,,,,,,,,,,,,,,,,,,,,,,,,,125,157324,19,Female,1,2024/03/26_11:58:35,YZ,None,
,,,,,,calibration,0,19,2,788,8,S,0,left,0.22415929499948106,0,0,,,,,,,,,,,,,,,,,,,,,1,,,,,,,,,,,,,,,,,,,,,,,,,,,,,,,,,,,,,,,,,,,,,,125,157324,19,Female,1,2024/03/26_11:58:35,YZ,None,
,,,,,,calibration,0,19,2,788,9,X,0,left,0.5242534000008163,0,0,,,,,,,,,,,,,,,,,,,,,1,,,,,,,,,,,,,,,,,,,,,,,,,,,,,,,,,,,,,,,,,,,,,,125,157324,19,Female,1,2024/03/26_11:58:35,YZ,None,
,,,,,,calibration,0,19,2,788,10,F,0,left,nan,0,1,,,,,,,,,,,,,,,,,,,,,1,,,,,,,,,,,,,,,,,,,,,,,,,,,,,,,,,,,,,,,,,,,,,,125,157324,19,Female,1,2024/03/26_11:58:35,YZ,None,
,,,,,,calibration,0,19,2,788,11,J,0,right,0.047307253000326455,1,0,,,,,,,,,,,,,,,,,,,,,1,,,,,,,,,,,,,,,,,,,,,,,,,,,,,,,,,,,,,,,,,,,,,,125,157324,19,Female,1,2024/03/26_11:58:35,YZ,None,
,,,,,,calibration,0,19,2,788,12,F,1,right,nan,0,1,,,,,,,,,,,,,,,,,,,,,1,,,,,,,,,,,,,,,,,,,,,,,,,,,,,,,,,,,,,,,,,,,,,,125,157324,19,Female,1,2024/03/26_11:58:35,YZ,None,
,,,,,,calibration,0,19,2,788,13,N,0,left,0.08098011299989594,0,0,,,,,,,,,,,,,,,,,,,,,1,,,,,,,,,,,,,,,,,,,,,,,,,,,,,,,,,,,,,,,,,,,,,,125,157324,19,Female,1,2024/03/26_11:58:35,YZ,None,
,,,,,,calibration,0,19,2,788,,,,,,,,0.041666666666666685,0.25,0.3333333333333333,0.25,0.5384615384615384,0.1282051282051283,0.38916871383329027,1,3,2,5,7,1,2,4,9,0,,,,1,,,,,,,,,,,,,,,,,,,,,,,,,,,,,,,,,,,,,,,,,,,,,,125,157324,19,Female,1,2024/03/26_11:58:35,YZ,None,
,,,,,,Calibration,0,,2,788,,,,,,,,,,,,,,,,,,,,,,,,,5,,,1,,,,,,,,,,,,,,,,,,,,,,,,,,,,,,,,,,,,,,,,,,,,,,125,157324,19,Female,1,2024/03/26_11:58:35,YZ,None,
,,,,,,calibration,0,7,2,917,1,S,0,None,nan,0,1,,,,,,,,,,,,,,,,,,,,,1,,,,,,,,,,,,,,,,,,,,,,,,,,,,,,,,,,,,,,,,,,,,,,125,157324,19,Female,1,2024/03/26_11:58:35,YZ,None,
,,,,,,calibration,0,7,2,917,2,N,0,None,nan,0,1,,,,,,,,,,,,,,,,,,,,,1,,,,,,,,,,,,,,,,,,,,,,,,,,,,,,,,,,,,,,,,,,,,,,125,157324,19,Female,1,2024/03/26_11:58:35,YZ,None,
,,,,,,calibration,0,7,2,917,3,J,0,left,0.26716349399976025,0,0,,,,,,,,,,,,,,,,,,,,,1,,,,,,,,,,,,,,,,,,,,,,,,,,,,,,,,,,,,,,,,,,,,,,125,157324,19,Female,1,2024/03/26_11:58:35,YZ,None,
,,,,,,calibration,0,7,2,917,4,N,1,left,0.24021794899999804,1,0,,,,,,,,,,,,,,,,,,,,,1,,,,,,,,,,,,,,,,,,,,,,,,,,,,,,,,,,,,,,,,,,,,,,125,157324,19,Female,1,2024/03/26_11:58:35,YZ,None,
,,,,,,calibration,0,7,2,917,5,J,1,right,0.3519072569997661,0,0,,,,,,,,,,,,,,,,,,,,,1,,,,,,,,,,,,,,,,,,,,,,,,,,,,,,,,,,,,,,,,,,,,,,125,157324,19,Female,1,2024/03/26_11:58:35,YZ,None,
,,,,,,calibration,0,7,2,917,6,Q,0,left,0.31740092700056266,0,0,,,,,,,,,,,,,,,,,,,,,1,,,,,,,,,,,,,,,,,,,,,,,,,,,,,,,,,,,,,,,,,,,,,,125,157324,19,Female,1,2024/03/26_11:58:35,YZ,None,
,,,,,,calibration,0,7,2,917,7,J,1,right,0.6356197050008632,0,0,,,,,,,,,,,,,,,,,,,,,1,,,,,,,,,,,,,,,,,,,,,,,,,,,,,,,,,,,,,,,,,,,,,,125,157324,19,Female,1,2024/03/26_11:58:35,YZ,None,
,,,,,,calibration,0,7,2,917,8,N,0,right,0.4934609169995383,1,0,,,,,,,,,,,,,,,,,,,,,1,,,,,,,,,,,,,,,,,,,,,,,,,,,,,,,,,,,,,,,,,,,,,,125,157324,19,Female,1,2024/03/26_11:58:35,YZ,None,
,,,,,,calibration,0,7,2,917,9,J,1,left,0.42914698499953374,1,0,,,,,,,,,,,,,,,,,,,,,1,,,,,,,,,,,,,,,,,,,,,,,,,,,,,,,,,,,,,,,,,,,,,,125,157324,19,Female,1,2024/03/26_11:58:35,YZ,None,
,,,,,,calibration,0,7,2,917,10,F,0,left,0.46901208300005237,0,0,,,,,,,,,,,,,,,,,,,,,1,,,,,,,,,,,,,,,,,,,,,,,,,,,,,,,,,,,,,,,,,,,,,,125,157324,19,Female,1,2024/03/26_11:58:35,YZ,None,
,,,,,,calibration,0,7,2,917,11,Q,0,left,nan,0,1,,,,,,,,,,,,,,,,,,,,,1,,,,,,,,,,,,,,,,,,,,,,,,,,,,,,,,,,,,,,,,,,,,,,125,157324,19,Female,1,2024/03/26_11:58:35,YZ,None,
,,,,,,calibration,0,7,2,917,12,X,0,left,0.29306793499927153,0,0,,,,,,,,,,,,,,,,,,,,,1,,,,,,,,,,,,,,,,,,,,,,,,,,,,,,,,,,,,,,,,,,,,,,125,157324,19,Female,1,2024/03/26_11:58:35,YZ,None,
,,,,,,calibration,0,7,2,917,,,,,,,,0.5,0.5,0.5,0.2,0.25,0.25,0.3885552502221496,2,4,0,3,3,1,3,4,8,0,,,,1,,,,,,,,,,,,,,,,,,,,,,,,,,,,,,,,,,,,,,,,,,,,,,125,157324,19,Female,1,2024/03/26_11:58:35,YZ,None,
,,,,,,Calibration,0,,2,917,,,,,,,,,,,,,,,,,,,,,,,,,6,,,1,,,,,,,,,,,,,,,,,,,,,,,,,,,,,,,,,,,,,,,,,,,,,,125,157324,19,Female,1,2024/03/26_11:58:35,YZ,None,
,,,,,,calibration,0,19,2,1068,1,S,0,None,nan,0,1,,,,,,,,,,,,,,,,,,,,,1,,,,,,,,,,,,,,,,,,,,,,,,,,,,,,,,,,,,,,,,,,,,,,125,157324,19,Female,1,2024/03/26_11:58:35,YZ,None,
,,,,,,calibration,0,19,2,1068,2,X,0,None,nan,0,1,,,,,,,,,,,,,,,,,,,,,1,,,,,,,,,,,,,,,,,,,,,,,,,,,,,,,,,,,,,,,,,,,,,,125,157324,19,Female,1,2024/03/26_11:58:35,YZ,None,
,,,,,,calibration,0,19,2,1068,3,C,0,left,0.3133387079997192,0,0,,,,,,,,,,,,,,,,,,,,,1,,,,,,,,,,,,,,,,,,,,,,,,,,,,,,,,,,,,,,,,,,,,,,125,157324,19,Female,1,2024/03/26_11:58:35,YZ,None,
,,,,,,calibration,0,19,2,1068,4,X,1,left,0.6225419620004686,1,0,,,,,,,,,,,,,,,,,,,,,1,,,,,,,,,,,,,,,,,,,,,,,,,,,,,,,,,,,,,,,,,,,,,,125,157324,19,Female,1,2024/03/26_11:58:35,YZ,None,
,,,,,,calibration,0,19,2,1068,5,S,0,right,0.45348070399995777,1,0,,,,,,,,,,,,,,,,,,,,,1,,,,,,,,,,,,,,,,,,,,,,,,,,,,,,,,,,,,,,,,,,,,,,125,157324,19,Female,1,2024/03/26_11:58:35,YZ,None,
,,,,,,calibration,0,19,2,1068,6,V,0,right,nan,0,1,,,,,,,,,,,,,,,,,,,,,1,,,,,,,,,,,,,,,,,,,,,,,,,,,,,,,,,,,,,,,,,,,,,,125,157324,19,Female,1,2024/03/26_11:58:35,YZ,None,
,,,,,,calibration,0,19,2,1068,7,N,0,right,nan,0,1,,,,,,,,,,,,,,,,,,,,,1,,,,,,,,,,,,,,,,,,,,,,,,,,,,,,,,,,,,,,,,,,,,,,125,157324,19,Female,1,2024/03/26_11:58:35,YZ,None,
,,,,,,calibration,0,19,2,1068,8,F,0,left,0.6250590100007685,0,0,,,,,,,,,,,,,,,,,,,,,1,,,,,,,,,,,,,,,,,,,,,,,,,,,,,,,,,,,,,,,,,,,,,,125,157324,19,Female,1,2024/03/26_11:58:35,YZ,None,
,,,,,,calibration,0,19,2,1068,9,S,0,left,0.5122444779990474,0,0,,,,,,,,,,,,,,,,,,,,,1,,,,,,,,,,,,,,,,,,,,,,,,,,,,,,,,,,,,,,,,,,,,,,125,157324,19,Female,1,2024/03/26_11:58:35,YZ,None,
,,,,,,calibration,0,19,2,1068,10,F,1,right,0.3611491259998729,0,0,,,,,,,,,,,,,,,,,,,,,1,,,,,,,,,,,,,,,,,,,,,,,,,,,,,,,,,,,,,,,,,,,,,,125,157324,19,Female,1,2024/03/26_11:58:35,YZ,None,
,,,,,,calibration,0,19,2,1068,11,S,1,left,0.5419689539994579,1,0,,,,,,,,,,,,,,,,,,,,,1,,,,,,,,,,,,,,,,,,,,,,,,,,,,,,,,,,,,,,,,,,,,,,125,157324,19,Female,1,2024/03/26_11:58:35,YZ,None,
,,,,,,calibration,0,19,2,1068,,,,,,,,0.6979166666666666,0.6666666666666666,0.375,0.25,0.36363636363636365,0.26136363636363635,0.4899689917141846,2,3,0,4,4,1,3,3,8,0,,,,1,,,,,,,,,,,,,,,,,,,,,,,,,,,,,,,,,,,,,,,,,,,,,,125,157324,19,Female,1,2024/03/26_11:58:35,YZ,None,
,,,,,,Calibration,0,,2,1068,,,,,,,,,,,,,,,,,,,,,,,,,7,,,1,,,,,,,,,,,,,,,,,,,,,,,,,,,,,,,,,,,,,,,,,,,,,,125,157324,19,Female,1,2024/03/26_11:58:35,YZ,None,
,,,,,,calibration,0,20,2,1250,1,C,0,None,nan,0,1,,,,,,,,,,,,,,,,,,,,,1,,,,,,,,,,,,,,,,,,,,,,,,,,,,,,,,,,,,,,,,,,,,,,125,157324,19,Female,1,2024/03/26_11:58:35,YZ,None,
,,,,,,calibration,0,20,2,1250,2,C,0,None,nan,0,1,,,,,,,,,,,,,,,,,,,,,1,,,,,,,,,,,,,,,,,,,,,,,,,,,,,,,,,,,,,,,,,,,,,,125,157324,19,Female,1,2024/03/26_11:58:35,YZ,None,
,,,,,,calibration,0,20,2,1250,3,C,1,left,0.330760097998791,1,0,,,,,,,,,,,,,,,,,,,,,1,,,,,,,,,,,,,,,,,,,,,,,,,,,,,,,,,,,,,,,,,,,,,,125,157324,19,Female,1,2024/03/26_11:58:35,YZ,None,
,,,,,,calibration,0,20,2,1250,4,C,1,left,0.4599693069994828,1,0,,,,,,,,,,,,,,,,,,,,,1,,,,,,,,,,,,,,,,,,,,,,,,,,,,,,,,,,,,,,,,,,,,,,125,157324,19,Female,1,2024/03/26_11:58:35,YZ,None,
,,,,,,calibration,0,20,2,1250,5,N,0,right,0.7220439829998213,1,0,,,,,,,,,,,,,,,,,,,,,1,,,,,,,,,,,,,,,,,,,,,,,,,,,,,,,,,,,,,,,,,,,,,,125,157324,19,Female,1,2024/03/26_11:58:35,YZ,None,
,,,,,,calibration,0,20,2,1250,6,C,1,left,0.3549544240013347,1,0,,,,,,,,,,,,,,,,,,,,,1,,,,,,,,,,,,,,,,,,,,,,,,,,,,,,,,,,,,,,,,,,,,,,125,157324,19,Female,1,2024/03/26_11:58:35,YZ,None,
,,,,,,calibration,0,20,2,1250,7,J,0,right,0.5241462710000633,1,0,,,,,,,,,,,,,,,,,,,,,1,,,,,,,,,,,,,,,,,,,,,,,,,,,,,,,,,,,,,,,,,,,,,,125,157324,19,Female,1,2024/03/26_11:58:35,YZ,None,
,,,,,,calibration,0,20,2,1250,8,Q,0,left,0.24563681200015708,0,0,,,,,,,,,,,,,,,,,,,,,1,,,,,,,,,,,,,,,,,,,,,,,,,,,,,,,,,,,,,,,,,,,,,,125,157324,19,Female,1,2024/03/26_11:58:35,YZ,None,
,,,,,,calibration,0,20,2,1250,9,V,0,left,0.4926782499987894,0,0,,,,,,,,,,,,,,,,,,,,,1,,,,,,,,,,,,,,,,,,,,,,,,,,,,,,,,,,,,,,,,,,,,,,125,157324,19,Female,1,2024/03/26_11:58:35,YZ,None,
,,,,,,calibration,0,20,2,1250,10,F,0,left,nan,0,1,,,,,,,,,,,,,,,,,,,,,1,,,,,,,,,,,,,,,,,,,,,,,,,,,,,,,,,,,,,,,,,,,,,,125,157324,19,Female,1,2024/03/26_11:58:35,YZ,None,
,,,,,,calibration,0,20,2,1250,,,,,,,,0.9285714285714286,1.0,0.2857142857142857,0.5,0.3,0.4142857142857143,0.4471698778569199,3,2,0,3,3,2,5,3,7,0,,,,1,,,,,,,,,,,,,,,,,,,,,,,,,,,,,,,,,,,,,,,,,,,,,,125,157324,19,Female,1,2024/03/26_11:58:35,YZ,None,
,,,,,,Calibration,0,,2,1250,,,,,,,,,,,,,,,,,,,,,,,,,8,,,1,,,,,,,,,,,,,,,,,,,,,,,,,,,,,,,,,,,,,,,,,,,,,,125,157324,19,Female,1,2024/03/26_11:58:35,YZ,None,
,,,,,,calibration,0,14,2,1068,1,N,0,right,1.4151848220008105,1,0,,,,,,,,,,,,,,,,,,,,,1,,,,,,,,,,,,,,,,,,,,,,,,,,,,,,,,,,,,,,,,,,,,,,125,157324,19,Female,1,2024/03/26_11:58:35,YZ,None,
,,,,,,calibration,0,14,2,1068,2,N,0,right,0.4763584609991085,1,0,,,,,,,,,,,,,,,,,,,,,1,,,,,,,,,,,,,,,,,,,,,,,,,,,,,,,,,,,,,,,,,,,,,,125,157324,19,Female,1,2024/03/26_11:58:35,YZ,None,
,,,,,,calibration,0,14,2,1068,3,C,0,right,0.6781021709994093,1,0,,,,,,,,,,,,,,,,,,,,,1,,,,,,,,,,,,,,,,,,,,,,,,,,,,,,,,,,,,,,,,,,,,,,125,157324,19,Female,1,2024/03/26_11:58:35,YZ,None,
,,,,,,calibration,0,14,2,1068,4,V,0,right,0.574193758000547,1,0,,,,,,,,,,,,,,,,,,,,,1,,,,,,,,,,,,,,,,,,,,,,,,,,,,,,,,,,,,,,,,,,,,,,125,157324,19,Female,1,2024/03/26_11:58:35,YZ,None,
,,,,,,calibration,0,14,2,1068,5,S,0,right,0.407692433000193,1,0,,,,,,,,,,,,,,,,,,,,,1,,,,,,,,,,,,,,,,,,,,,,,,,,,,,,,,,,,,,,,,,,,,,,125,157324,19,Female,1,2024/03/26_11:58:35,YZ,None,
,,,,,,calibration,0,14,2,1068,6,Q,0,right,0.5120713470005285,1,0,,,,,,,,,,,,,,,,,,,,,1,,,,,,,,,,,,,,,,,,,,,,,,,,,,,,,,,,,,,,,,,,,,,,125,157324,19,Female,1,2024/03/26_11:58:35,YZ,None,
,,,,,,calibration,0,14,2,1068,7,S,1,left,0.5929836409995914,1,0,,,,,,,,,,,,,,,,,,,,,1,,,,,,,,,,,,,,,,,,,,,,,,,,,,,,,,,,,,,,,,,,,,,,125,157324,19,Female,1,2024/03/26_11:58:35,YZ,None,
,,,,,,calibration,0,14,2,1068,8,C,0,right,1.7077584750004462,1,0,,,,,,,,,,,,,,,,,,,,,1,,,,,,,,,,,,,,,,,,,,,,,,,,,,,,,,,,,,,,,,,,,,,,125,157324,19,Female,1,2024/03/26_11:58:35,YZ,None,
,,,,,,calibration,0,14,2,1068,9,Q,0,left,0.36977786499846843,0,0,,,,,,,,,,,,,,,,,,,,,1,,,,,,,,,,,,,,,,,,,,,,,,,,,,,,,,,,,,,,,,,,,,,,125,157324,19,Female,1,2024/03/26_11:58:35,YZ,None,
,,,,,,calibration,0,14,2,1068,10,C,1,right,0.3568087160001596,0,0,,,,,,,,,,,,,,,,,,,,,1,,,,,,,,,,,,,,,,,,,,,,,,,,,,,,,,,,,,,,,,,,,,,,125,157324,19,Female,1,2024/03/26_11:58:35,YZ,None,
,,,,,,calibration,0,14,2,1068,11,Q,1,left,0.46486487399852194,1,0,,,,,,,,,,,,,,,,,,,,,1,,,,,,,,,,,,,,,,,,,,,,,,,,,,,,,,,,,,,,,,,,,,,,125,157324,19,Female,1,2024/03/26_11:58:35,YZ,None,
,,,,,,calibration,0,14,2,1068,,,,,,,,0.84375,0.6666666666666666,0.125,0.875,0.0,0.875,0.6868905966361623,2,1,0,0,0,7,9,3,8,0,,,,1,,,,,,,,,,,,,,,,,,,,,,,,,,,,,,,,,,,,,,,,,,,,,,125,157324,19,Female,1,2024/03/26_11:58:35,YZ,None,
,,,,,,Calibration,0,,2,1068,,,,,,,,,,,,,,,,,,,,,,,,,9,,,1,,,,,,,,,,,,,,,,,,,,,,,,,,,,,,,,,,,,,,,,,,,,,,125,157324,19,Female,1,2024/03/26_11:58:35,YZ,None,
,,,,,,calibration,0,10,2,1068,1,C,0,left,0.43183787999987544,0,0,,,,,,,,,,,,,,,,,,,,,1,,,,,,,,,,,,,,,,,,,,,,,,,,,,,,,,,,,,,,,,,,,,,,125,157324,19,Female,1,2024/03/26_11:58:35,YZ,None,
,,,,,,calibration,0,10,2,1068,2,X,0,right,0.43334182600119675,1,0,,,,,,,,,,,,,,,,,,,,,1,,,,,,,,,,,,,,,,,,,,,,,,,,,,,,,,,,,,,,,,,,,,,,125,157324,19,Female,1,2024/03/26_11:58:35,YZ,None,
,,,,,,calibration,0,10,2,1068,3,C,1,right,0.306112745000064,0,0,,,,,,,,,,,,,,,,,,,,,1,,,,,,,,,,,,,,,,,,,,,,,,,,,,,,,,,,,,,,,,,,,,,,125,157324,19,Female,1,2024/03/26_11:58:35,YZ,None,
,,,,,,calibration,0,10,2,1068,4,N,0,right,0.9914301690005232,1,0,,,,,,,,,,,,,,,,,,,,,1,,,,,,,,,,,,,,,,,,,,,,,,,,,,,,,,,,,,,,,,,,,,,,125,157324,19,Female,1,2024/03/26_11:58:35,YZ,None,
,,,,,,calibration,0,10,2,1068,5,S,0,right,0.5575081530005264,1,0,,,,,,,,,,,,,,,,,,,,,1,,,,,,,,,,,,,,,,,,,,,,,,,,,,,,,,,,,,,,,,,,,,,,125,157324,19,Female,1,2024/03/26_11:58:35,YZ,None,
,,,,,,calibration,0,10,2,1068,6,F,0,right,0.809038822999355,1,0,,,,,,,,,,,,,,,,,,,,,1,,,,,,,,,,,,,,,,,,,,,,,,,,,,,,,,,,,,,,,,,,,,,,125,157324,19,Female,1,2024/03/26_11:58:35,YZ,None,
,,,,,,calibration,0,10,2,1068,7,N,0,left,0.5932760080013395,0,0,,,,,,,,,,,,,,,,,,,,,1,,,,,,,,,,,,,,,,,,,,,,,,,,,,,,,,,,,,,,,,,,,,,,125,157324,19,Female,1,2024/03/26_11:58:35,YZ,None,
,,,,,,calibration,0,10,2,1068,8,S,0,left,0.4801981849996082,0,0,,,,,,,,,,,,,,,,,,,,,1,,,,,,,,,,,,,,,,,,,,,,,,,,,,,,,,,,,,,,,,,,,,,,125,157324,19,Female,1,2024/03/26_11:58:35,YZ,None,
,,,,,,calibration,0,10,2,1068,9,V,0,right,0.5126256910007214,1,0,,,,,,,,,,,,,,,,,,,,,1,,,,,,,,,,,,,,,,,,,,,,,,,,,,,,,,,,,,,,,,,,,,,,125,157324,19,Female,1,2024/03/26_11:58:35,YZ,None,
,,,,,,calibration,0,10,2,1068,10,S,1,left,0.341064104999532,1,0,,,,,,,,,,,,,,,,,,,,,1,,,,,,,,,,,,,,,,,,,,,,,,,,,,,,,,,,,,,,,,,,,,,,125,157324,19,Female,1,2024/03/26_11:58:35,YZ,None,
,,,,,,calibration,0,10,2,1068,11,V,1,right,0.37812883100014005,0,0,,,,,,,,,,,,,,,,,,,,,1,,,,,,,,,,,,,,,,,,,,,,,,,,,,,,,,,,,,,,,,,,,,,,125,157324,19,Female,1,2024/03/26_11:58:35,YZ,None,
,,,,,,calibration,0,10,2,1068,,,,,,,,0.017361111111111105,0.3333333333333333,0.375,0.625,0.0,0.625,0.5304147650911711,1,3,0,0,0,5,6,3,8,0,,,,1,,,,,,,,,,,,,,,,,,,,,,,,,,,,,,,,,,,,,,,,,,,,,,125,157324,19,Female,1,2024/03/26_11:58:35,YZ,None,
,,,,,,Calibration,0,,2,1068,,,,,,,,,,,,,,,,,,,,,,,,,10,,,1,,,,,,,,,,,,,,,,,,,,,,,,,,,,,,,,,,,,,,,,,,,,,,125,157324,19,Female,1,2024/03/26_11:58:35,YZ,None,
,,,,,,calibration,0,10,2,1250,1,J,0,left,0.36902673300028255,0,0,,,,,,,,,,,,,,,,,,,,,1,,,,,,,,,,,,,,,,,,,,,,,,,,,,,,,,,,,,,,,,,,,,,,125,157324,19,Female,1,2024/03/26_11:58:35,YZ,None,
,,,,,,calibration,0,10,2,1250,2,F,0,right,0.4251677270003711,1,0,,,,,,,,,,,,,,,,,,,,,1,,,,,,,,,,,,,,,,,,,,,,,,,,,,,,,,,,,,,,,,,,,,,,125,157324,19,Female,1,2024/03/26_11:58:35,YZ,None,
,,,,,,calibration,0,10,2,1250,3,J,1,right,0.6365298929995333,0,0,,,,,,,,,,,,,,,,,,,,,1,,,,,,,,,,,,,,,,,,,,,,,,,,,,,,,,,,,,,,,,,,,,,,125,157324,19,Female,1,2024/03/26_11:58:35,YZ,None,
,,,,,,calibration,0,10,2,1250,4,F,1,right,0.3883753739992244,0,0,,,,,,,,,,,,,,,,,,,,,1,,,,,,,,,,,,,,,,,,,,,,,,,,,,,,,,,,,,,,,,,,,,,,125,157324,19,Female,1,2024/03/26_11:58:35,YZ,None,
,,,,,,calibration,0,10,2,1250,5,N,0,right,nan,0,1,,,,,,,,,,,,,,,,,,,,,1,,,,,,,,,,,,,,,,,,,,,,,,,,,,,,,,,,,,,,,,,,,,,,125,157324,19,Female,1,2024/03/26_11:58:35,YZ,None,
,,,,,,calibration,0,10,2,1250,6,F,1,left,0.5611112710012094,1,0,,,,,,,,,,,,,,,,,,,,,1,,,,,,,,,,,,,,,,,,,,,,,,,,,,,,,,,,,,,,,,,,,,,,125,157324,19,Female,1,2024/03/26_11:58:35,YZ,None,
,,,,,,calibration,0,10,2,1250,7,V,0,left,0.6746632979993592,0,0,,,,,,,,,,,,,,,,,,,,,1,,,,,,,,,,,,,,,,,,,,,,,,,,,,,,,,,,,,,,,,,,,,,,125,157324,19,Female,1,2024/03/26_11:58:35,YZ,None,
,,,,,,calibration,0,10,2,1250,8,N,0,right,0.2138936309984274,1,0,,,,,,,,,,,,,,,,,,,,,1,,,,,,,,,,,,,,,,,,,,,,,,,,,,,,,,,,,,,,,,,,,,,,125,157324,19,Female,1,2024/03/26_11:58:35,YZ,None,
,,,,,,calibration,0,10,2,1250,9,C,0,left,0.4082856500008347,0,0,,,,,,,,,,,,,,,,,,,,,1,,,,,,,,,,,,,,,,,,,,,,,,,,,,,,,,,,,,,,,,,,,,,,125,157324,19,Female,1,2024/03/26_11:58:35,YZ,None,
,,,,,,calibration,0,10,2,1250,10,Q,0,right,1.0506394189997081,1,0,,,,,,,,,,,,,,,,,,,,,1,,,,,,,,,,,,,,,,,,,,,,,,,,,,,,,,,,,,,,,,,,,,,,125,157324,19,Female,1,2024/03/26_11:58:35,YZ,None,
,,,,,,calibration,0,10,2,1250,,,,,,,,0.031746031746031744,0.3333333333333333,0.42857142857142855,0.5,0.1,0.4714285714285714,0.5252992217776611,1,3,0,1,1,3,4,3,7,0,,,,1,,,,,,,,,,,,,,,,,,,,,,,,,,,,,,,,,,,,,,,,,,,,,,125,157324,19,Female,1,2024/03/26_11:58:35,YZ,None,
,,,,,,Calibration,0,,2,1250,,,,,,,,,,,,,,,,,,,,,,,,,11,,,1,,,,,,,,,,,,,,,,,,,,,,,,,,,,,,,,,,,,,,,,,,,,,,125,157324,19,Female,1,2024/03/26_11:58:35,YZ,None,
,,,,,,calibration,0,13,2,1472,1,V,0,None,nan,0,1,,,,,,,,,,,,,,,,,,,,,1,,,,,,,,,,,,,,,,,,,,,,,,,,,,,,,,,,,,,,,,,,,,,,125,157324,19,Female,1,2024/03/26_11:58:35,YZ,None,
,,,,,,calibration,0,13,2,1472,2,N,0,right,0.0,1,0,,,,,,,,,,,,,,,,,,,,,1,,,,,,,,,,,,,,,,,,,,,,,,,,,,,,,,,,,,,,,,,,,,,,125,157324,19,Female,1,2024/03/26_11:58:35,YZ,None,
,,,,,,calibration,0,13,2,1472,3,S,0,right,0.05341220000082103,1,0,,,,,,,,,,,,,,,,,,,,,1,,,,,,,,,,,,,,,,,,,,,,,,,,,,,,,,,,,,,,,,,,,,,,125,157324,19,Female,1,2024/03/26_11:58:35,YZ,None,
,,,,,,calibration,0,13,2,1472,4,V,0,right,0.25030538799910573,1,0,,,,,,,,,,,,,,,,,,,,,1,,,,,,,,,,,,,,,,,,,,,,,,,,,,,,,,,,,,,,,,,,,,,,125,157324,19,Female,1,2024/03/26_11:58:35,YZ,None,
,,,,,,calibration,0,13,2,1472,5,Q,0,right,0.9135390910014394,1,0,,,,,,,,,,,,,,,,,,,,,1,,,,,,,,,,,,,,,,,,,,,,,,,,,,,,,,,,,,,,,,,,,,,,125,157324,19,Female,1,2024/03/26_11:58:35,YZ,None,
,,,,,,calibration,0,13,2,1472,6,V,1,left,0.27900736199990206,1,0,,,,,,,,,,,,,,,,,,,,,1,,,,,,,,,,,,,,,,,,,,,,,,,,,,,,,,,,,,,,,,,,,,,,125,157324,19,Female,1,2024/03/26_11:58:35,YZ,None,
,,,,,,calibration,0,13,2,1472,7,Q,1,left,0.5388992470016092,1,0,,,,,,,,,,,,,,,,,,,,,1,,,,,,,,,,,,,,,,,,,,,,,,,,,,,,,,,,,,,,,,,,,,,,125,157324,19,Female,1,2024/03/26_11:58:35,YZ,None,
,,,,,,calibration,0,13,2,1472,8,F,0,right,0.5610013850000541,1,0,,,,,,,,,,,,,,,,,,,,,1,,,,,,,,,,,,,,,,,,,,,,,,,,,,,,,,,,,,,,,,,,,,,,125,157324,19,Female,1,2024/03/26_11:58:35,YZ,None,
,,,,,,calibration,0,13,2,1472,9,Q,1,left,0.5417141679990891,1,0,,,,,,,,,,,,,,,,,,,,,1,,,,,,,,,,,,,,,,,,,,,,,,,,,,,,,,,,,,,,,,,,,,,,125,157324,19,Female,1,2024/03/26_11:58:35,YZ,None,
,,,,,,calibration,0,13,2,1472,,,,,,,,1.0,1.0,0.0,1.0,0.1111111111111111,0.8888888888888888,0.3922348551252526,3,0,0,1,1,5,8,3,6,0,,,,1,,,,,,,,,,,,,,,,,,,,,,,,,,,,,,,,,,,,,,,,,,,,,,125,157324,19,Female,1,2024/03/26_11:58:35,YZ,None,
,,,,,,Calibration,0,,2,1472,,,,,,,,,,,,,,,,,,,,,,,,,12,,,1,,,,,,,,,,,,,,,,,,,,,,,,,,,,,,,,,,,,,,,,,,,,,,125,157324,19,Female,1,2024/03/26_11:58:35,YZ,None,
,,,,,,calibration,0,27,2,1250,1,N,0,right,0.8103604079988145,1,0,,,,,,,,,,,,,,,,,,,,,1,,,,,,,,,,,,,,,,,,,,,,,,,,,,,,,,,,,,,,,,,,,,,,125,157324,19,Female,1,2024/03/26_11:58:35,YZ,None,
,,,,,,calibration,0,27,2,1250,2,Q,0,right,0.4599668599985307,1,0,,,,,,,,,,,,,,,,,,,,,1,,,,,,,,,,,,,,,,,,,,,,,,,,,,,,,,,,,,,,,,,,,,,,125,157324,19,Female,1,2024/03/26_11:58:35,YZ,None,
,,,,,,calibration,0,27,2,1250,3,V,0,right,0.4524743000001763,1,0,,,,,,,,,,,,,,,,,,,,,1,,,,,,,,,,,,,,,,,,,,,,,,,,,,,,,,,,,,,,,,,,,,,,125,157324,19,Female,1,2024/03/26_11:58:35,YZ,None,
,,,,,,calibration,0,27,2,1250,4,Q,1,right,0.6000596489993768,0,0,,,,,,,,,,,,,,,,,,,,,1,,,,,,,,,,,,,,,,,,,,,,,,,,,,,,,,,,,,,,,,,,,,,,125,157324,19,Female,1,2024/03/26_11:58:35,YZ,None,
,,,,,,calibration,0,27,2,1250,5,J,0,right,0.6253393390015844,1,0,,,,,,,,,,,,,,,,,,,,,1,,,,,,,,,,,,,,,,,,,,,,,,,,,,,,,,,,,,,,,,,,,,,,125,157324,19,Female,1,2024/03/26_11:58:35,YZ,None,
,,,,,,calibration,0,27,2,1250,6,C,0,right,0.8554216609991272,1,0,,,,,,,,,,,,,,,,,,,,,1,,,,,,,,,,,,,,,,,,,,,,,,,,,,,,,,,,,,,,,,,,,,,,125,157324,19,Female,1,2024/03/26_11:58:35,YZ,None,
,,,,,,calibration,0,27,2,1250,7,S,0,left,0.3506458770007157,0,0,,,,,,,,,,,,,,,,,,,,,1,,,,,,,,,,,,,,,,,,,,,,,,,,,,,,,,,,,,,,,,,,,,,,125,157324,19,Female,1,2024/03/26_11:58:35,YZ,None,
,,,,,,calibration,0,27,2,1250,8,C,1,left,0.8024716830004763,1,0,,,,,,,,,,,,,,,,,,,,,1,,,,,,,,,,,,,,,,,,,,,,,,,,,,,,,,,,,,,,,,,,,,,,125,157324,19,Female,1,2024/03/26_11:58:35,YZ,None,
,,,,,,calibration,0,27,2,1250,9,S,1,left,0.414340307999737,1,0,,,,,,,,,,,,,,,,,,,,,1,,,,,,,,,,,,,,,,,,,,,,,,,,,,,,,,,,,,,,,,,,,,,,125,157324,19,Female,1,2024/03/26_11:58:35,YZ,None,
,,,,,,calibration,0,27,2,1250,10,V,0,right,0.46573671600162925,1,0,,,,,,,,,,,,,,,,,,,,,1,,,,,,,,,,,,,,,,,,,,,,,,,,,,,,,,,,,,,,,,,,,,,,125,157324,19,Female,1,2024/03/26_11:58:35,YZ,None,
,,,,,,calibration,0,27,2,1250,,,,,,,,0.8333333333333333,0.6666666666666666,0.14285714285714285,0.8571428571428571,0.0,0.8571428571428572,0.5836816801000169,2,1,0,0,0,6,8,3,7,0,,,,1,,,,,,,,,,,,,,,,,,,,,,,,,,,,,,,,,,,,,,,,,,,,,,125,157324,19,Female,1,2024/03/26_11:58:35,YZ,None,
,,,,,,Calibration,0,,2,1250,,,,,,,,,,,,,,,,,,,,,,,,,13,,,1,,,,,,,,,,,,,,,,,,,,,,,,,,,,,,,,,,,,,,,,,,,,,,125,157324,19,Female,1,2024/03/26_11:58:35,YZ,None,
,,,,,,calibration,0,25,2,1250,1,X,0,right,1.3820964120004646,1,0,,,,,,,,,,,,,,,,,,,,,1,,,,,,,,,,,,,,,,,,,,,,,,,,,,,,,,,,,,,,,,,,,,,,125,157324,19,Female,1,2024/03/26_11:58:35,YZ,None,
,,,,,,calibration,0,25,2,1250,2,S,0,right,0.4621931340006995,1,0,,,,,,,,,,,,,,,,,,,,,1,,,,,,,,,,,,,,,,,,,,,,,,,,,,,,,,,,,,,,,,,,,,,,125,157324,19,Female,1,2024/03/26_11:58:35,YZ,None,
,,,,,,calibration,0,25,2,1250,3,X,1,left,0.5967666550004651,1,0,,,,,,,,,,,,,,,,,,,,,1,,,,,,,,,,,,,,,,,,,,,,,,,,,,,,,,,,,,,,,,,,,,,,125,157324,19,Female,1,2024/03/26_11:58:35,YZ,None,
,,,,,,calibration,0,25,2,1250,4,N,0,right,0.4912287589995685,1,0,,,,,,,,,,,,,,,,,,,,,1,,,,,,,,,,,,,,,,,,,,,,,,,,,,,,,,,,,,,,,,,,,,,,125,157324,19,Female,1,2024/03/26_11:58:35,YZ,None,
,,,,,,calibration,0,25,2,1250,5,X,1,left,0.6324318500010122,1,0,,,,,,,,,,,,,,,,,,,,,1,,,,,,,,,,,,,,,,,,,,,,,,,,,,,,,,,,,,,,,,,,,,,,125,157324,19,Female,1,2024/03/26_11:58:35,YZ,None,
,,,,,,calibration,0,25,2,1250,6,J,0,right,0.5417073389999132,1,0,,,,,,,,,,,,,,,,,,,,,1,,,,,,,,,,,,,,,,,,,,,,,,,,,,,,,,,,,,,,,,,,,,,,125,157324,19,Female,1,2024/03/26_11:58:35,YZ,None,
,,,,,,calibration,0,25,2,1250,7,C,0,right,0.5779406009987724,1,0,,,,,,,,,,,,,,,,,,,,,1,,,,,,,,,,,,,,,,,,,,,,,,,,,,,,,,,,,,,,,,,,,,,,125,157324,19,Female,1,2024/03/26_11:58:35,YZ,None,
,,,,,,calibration,0,25,2,1250,8,J,1,right,0.5319752029990923,0,0,,,,,,,,,,,,,,,,,,,,,1,,,,,,,,,,,,,,,,,,,,,,,,,,,,,,,,,,,,,,,,,,,,,,125,157324,19,Female,1,2024/03/26_11:58:35,YZ,None,
,,,,,,calibration,0,25,2,1250,9,V,0,left,0.5639844710003672,0,0,,,,,,,,,,,,,,,,,,,,,1,,,,,,,,,,,,,,,,,,,,,,,,,,,,,,,,,,,,,,,,,,,,,,125,157324,19,Female,1,2024/03/26_11:58:35,YZ,None,
,,,,,,calibration,0,25,2,1250,10,F,0,right,0.8917664849996072,1,0,,,,,,,,,,,,,,,,,,,,,1,,,,,,,,,,,,,,,,,,,,,,,,,,,,,,,,,,,,,,,,,,,,,,125,157324,19,Female,1,2024/03/26_11:58:35,YZ,None,
,,,,,,calibration,0,25,2,1250,,,,,,,,0.8333333333333333,0.6666666666666666,0.14285714285714285,0.8571428571428571,0.0,0.8571428571428572,0.6672090908999962,2,1,0,0,0,6,8,3,7,0,,,,1,,,,,,,,,,,,,,,,,,,,,,,,,,,,,,,,,,,,,,,,,,,,,,125,157324,19,Female,1,2024/03/26_11:58:35,YZ,None,
,,,,,,Calibration,0,,2,1250,,,,,,,,,,,,,,,,,,,,,,,,,14,,,1,,,,,,,,,,,,,,,,,,,,,,,,,,,,,,,,,,,,,,,,,,,,,,125,157324,19,Female,1,2024/03/26_11:58:35,YZ,None,
,,,,,,calibration,0,30,2,1250,1,J,0,right,0.6156689309991634,1,0,,,,,,,,,,,,,,,,,,,,,1,,,,,,,,,,,,,,,,,,,,,,,,,,,,,,,,,,,,,,,,,,,,,,125,157324,19,Female,1,2024/03/26_11:58:35,YZ,None,
,,,,,,calibration,0,30,2,1250,2,Q,0,right,0.40321258699987084,1,0,,,,,,,,,,,,,,,,,,,,,1,,,,,,,,,,,,,,,,,,,,,,,,,,,,,,,,,,,,,,,,,,,,,,125,157324,19,Female,1,2024/03/26_11:58:35,YZ,None,
,,,,,,calibration,0,30,2,1250,3,C,0,right,0.41588368200063996,1,0,,,,,,,,,,,,,,,,,,,,,1,,,,,,,,,,,,,,,,,,,,,,,,,,,,,,,,,,,,,,,,,,,,,,125,157324,19,Female,1,2024/03/26_11:58:35,YZ,None,
,,,,,,calibration,0,30,2,1250,4,Q,1,left,0.5390637710006558,1,0,,,,,,,,,,,,,,,,,,,,,1,,,,,,,,,,,,,,,,,,,,,,,,,,,,,,,,,,,,,,,,,,,,,,125,157324,19,Female,1,2024/03/26_11:58:35,YZ,None,
,,,,,,calibration,0,30,2,1250,5,C,1,left,0.5120693869994284,1,0,,,,,,,,,,,,,,,,,,,,,1,,,,,,,,,,,,,,,,,,,,,,,,,,,,,,,,,,,,,,,,,,,,,,125,157324,19,Female,1,2024/03/26_11:58:35,YZ,None,
,,,,,,calibration,0,30,2,1250,6,F,0,right,0.5672586079999746,1,0,,,,,,,,,,,,,,,,,,,,,1,,,,,,,,,,,,,,,,,,,,,,,,,,,,,,,,,,,,,,,,,,,,,,125,157324,19,Female,1,2024/03/26_11:58:35,YZ,None,
,,,,,,calibration,0,30,2,1250,7,S,0,right,0.5421760469998844,1,0,,,,,,,,,,,,,,,,,,,,,1,,,,,,,,,,,,,,,,,,,,,,,,,,,,,,,,,,,,,,,,,,,,,,125,157324,19,Female,1,2024/03/26_11:58:35,YZ,None,
,,,,,,calibration,0,30,2,1250,8,N,0,right,0.5195615590000671,1,0,,,,,,,,,,,,,,,,,,,,,1,,,,,,,,,,,,,,,,,,,,,,,,,,,,,,,,,,,,,,,,,,,,,,125,157324,19,Female,1,2024/03/26_11:58:35,YZ,None,
,,,,,,calibration,0,30,2,1250,9,S,1,right,0.5120774210008676,0,0,,,,,,,,,,,,,,,,,,,,,1,,,,,,,,,,,,,,,,,,,,,,,,,,,,,,,,,,,,,,,,,,,,,,125,157324,19,Female,1,2024/03/26_11:58:35,YZ,None,
,,,,,,calibration,0,30,2,1250,10,Q,0,left,0.4693862029998854,0,0,,,,,,,,,,,,,,,,,,,,,1,,,,,,,,,,,,,,,,,,,,,,,,,,,,,,,,,,,,,,,,,,,,,,125,157324,19,Female,1,2024/03/26_11:58:35,YZ,None,
,,,,,,calibration,0,30,2,1250,,,,,,,,0.8333333333333333,0.6666666666666666,0.14285714285714285,0.8571428571428571,0.0,0.8571428571428572,0.5096358196000438,2,1,0,0,0,6,8,3,7,0,,,,1,,,,,,,,,,,,,,,,,,,,,,,,,,,,,,,,,,,,,,,,,,,,,,125,157324,19,Female,1,2024/03/26_11:58:35,YZ,None,
,,,,,,Calibration,0,,2,1250,,,,,,,,,,,,,,,,,,,,,,,,,15,,,1,,,,,,,,,,,,,,,,,,,,,,,,,,,,,,,,,,,,,,,,,,,,,,125,157324,19,Female,1,2024/03/26_11:58:35,YZ,None,
,,,,,,CALIBRATION,0,,,,,,,,,,,,,,,,,,,,,,,,,,,,15,0.8333333333333333,1250,1,,,,,,,,,,,,,,,,,,,,,,,,,,,,,,,,,,,,,,,,,,,,,,125,157324,19,Female,1,2024/03/26_11:58:35,YZ,None,
1,./instructions/inst_prac_1/Slide24.png,right,11.65835927199987,506.8386699980001,518.49702927,,,,,,,,,,,,,,,,,,,,,,,,,,,,,,,,,1,,,,,,,,,,,,,,,,,,,,,,,,,,,,,,,,,,,,,,,,,,,,,,125,157324,19,Female,1,2024/03/26_11:58:35,YZ,None,
2,./instructions/inst_prac_1/Slide25.png,right,3.4379347559988673,518.5230374410003,521.9609721969991,,,,,,,,,,,,,,,,,,,,,,,,,,,,,,,,,1,,,,,,,,,,,,,,,,,,,,,,,,,,,,,,,,,,,,,,,,,,,,,,125,157324,19,Female,1,2024/03/26_11:58:35,YZ,None,
3,./instructions/inst_prac_1/Slide26.png,right,1.1149256720000267,521.9900524969999,523.1049781689999,,,,,,,,,,,,,,,,,,,,,,,,,,,,,,,,,1,,,,,,,,,,,,,,,,,,,,,,,,,,,,,,,,,,,,,,,,,,,,,,125,157324,19,Female,1,2024/03/26_11:58:35,YZ,None,
4,./instructions/inst_prac_1/Slide27.png,right,0.7634992099992814,523.1334099140004,523.8969091239996,,,,,,,,,,,,,,,,,,,,,,,,,,,,,,,,,1,,,,,,,,,,,,,,,,,,,,,,,,,,,,,,,,,,,,,,,,,,,,,,125,157324,19,Female,1,2024/03/26_11:58:35,YZ,None,
5,./instructions/inst_prac_1/Slide28.png,right,2.8917155170001934,523.9251761319993,526.8168916489994,,,,,,,,,,,,,,,,,,,,,,,,,,,,,,,,,1,,,,,,,,,,,,,,,,,,,,,,,,,,,,,,,,,,,,,,,,,,,,,,125,157324,19,Female,1,2024/03/26_11:58:35,YZ,None,
6,./instructions/inst_prac_1/Slide29.png,right,32.87683212999946,526.8441482359995,559.7209803659989,,,,,,,,,,,,,,,,,,,,,,,,,,,,,,,,,1,,,,,,,,,,,,,,,,,,,,,,,,,,,,,,,,,,,,,,,,,,,,,,125,157324,19,Female,1,2024/03/26_11:58:35,YZ,None,
7,./instructions/inst_prac_1/Slide30.png,right,15.963461732999349,559.7496095810002,575.7130713139995,,,,,,,,,,,,,,,,,,,,,,,,,,,,,,,,,1,,,,,,,,,,,,,,,,,,,,,,,,,,,,,,,,,,,,,,,,,,,,,,125,157324,19,Female,1,2024/03/26_11:58:35,YZ,None,
,,,,,,practice,0,14,1,1250,1,N,0,right,1.6677271360003942,1,0,,,,,,,,,,,,,,,,,,,,,1,,,,,,,,,,,,,,,,,,,,,,,,,,,,,,,,,,,,,,,,,,,,,,125,157324,19,Female,1,2024/03/26_11:58:35,YZ,None,
,,,,,,practice,0,14,1,1250,2,F,0,right,1.3894971539994003,1,0,,,,,,,,,,,,,,,,,,,,,1,,,,,,,,,,,,,,,,,,,,,,,,,,,,,,,,,,,,,,,,,,,,,,125,157324,19,Female,1,2024/03/26_11:58:35,YZ,None,
,,,,,,practice,0,14,1,1250,3,Q,0,right,0.7853868090005562,1,0,,,,,,,,,,,,,,,,,,,,,1,,,,,,,,,,,,,,,,,,,,,,,,,,,,,,,,,,,,,,,,,,,,,,125,157324,19,Female,1,2024/03/26_11:58:35,YZ,None,
,,,,,,practice,0,14,1,1250,4,Q,1,left,0.9355842669992853,1,0,,,,,,,,,,,,,,,,,,,,,1,,,,,,,,,,,,,,,,,,,,,,,,,,,,,,,,,,,,,,,,,,,,,,125,157324,19,Female,1,2024/03/26_11:58:35,YZ,None,
,,,,,,practice,0,14,1,1250,5,C,0,right,1.078779546000078,1,0,,,,,,,,,,,,,,,,,,,,,1,,,,,,,,,,,,,,,,,,,,,,,,,,,,,,,,,,,,,,,,,,,,,,125,157324,19,Female,1,2024/03/26_11:58:35,YZ,None,
,,,,,,practice,0,14,1,1250,6,N,0,right,1.197533790000307,1,0,,,,,,,,,,,,,,,,,,,,,1,,,,,,,,,,,,,,,,,,,,,,,,,,,,,,,,,,,,,,,,,,,,,,125,157324,19,Female,1,2024/03/26_11:58:35,YZ,None,
,,,,,,practice,0,14,1,1250,7,J,0,right,0.9584019209996768,1,0,,,,,,,,,,,,,,,,,,,,,1,,,,,,,,,,,,,,,,,,,,,,,,,,,,,,,,,,,,,,,,,,,,,,125,157324,19,Female,1,2024/03/26_11:58:35,YZ,None,
,,,,,,practice,0,14,1,1250,8,J,1,left,0.9485963570004969,1,0,,,,,,,,,,,,,,,,,,,,,1,,,,,,,,,,,,,,,,,,,,,,,,,,,,,,,,,,,,,,,,,,,,,,125,157324,19,Female,1,2024/03/26_11:58:35,YZ,None,
,,,,,,practice,0,14,1,1250,9,C,0,right,0.9325372170005721,1,0,,,,,,,,,,,,,,,,,,,,,1,,,,,,,,,,,,,,,,,,,,,,,,,,,,,,,,,,,,,,,,,,,,,,125,157324,19,Female,1,2024/03/26_11:58:35,YZ,None,
,,,,,,practice,0,14,1,1250,10,C,1,left,0.9420868530014559,1,0,,,,,,,,,,,,,,,,,,,,,1,,,,,,,,,,,,,,,,,,,,,,,,,,,,,,,,,,,,,,,,,,,,,,125,157324,19,Female,1,2024/03/26_11:58:35,YZ,None,
,,,,,,practice,0,14,1,1250,,,,,,,,1.0,1.0,0.0,1.0,0.0,1.0,1.0836131050002222,3,0,0,0,0,7,10,3,7,0,,,,1,,,,,,,,,,,,,,,,,,,,,,,,,,,,,,,,,,,,,,,,,,,,,,125,157324,19,Female,1,2024/03/26_11:58:35,YZ,None,
1,./instructions/inst_prac_1_next/Slide35.png,right,2.4135353269994084,597.0754468979994,599.4889822249988,,,,,,,,,,,,,,,,,,,,,,,,,,,,,,,,,1,,,,,,,,,,,,,,,,,,,,,,,,,,,,,,,,,,,,,,,,,,,,,,125,157324,19,Female,1,2024/03/26_11:58:35,YZ,None,
,,,,,,practice,0,30,1,1250,1,N,0,right,0.8319772909999301,1,0,,,,,,,,,,,,,,,,,,,,,1,,,,,,,,,,,,,,,,,,,,,,,,,,,,,,,,,,,,,,,,,,,,,,125,157324,19,Female,1,2024/03/26_11:58:35,YZ,None,
,,,,,,practice,0,30,1,1250,2,N,1,left,0.43770883599972876,1,0,,,,,,,,,,,,,,,,,,,,,1,,,,,,,,,,,,,,,,,,,,,,,,,,,,,,,,,,,,,,,,,,,,,,125,157324,19,Female,1,2024/03/26_11:58:35,YZ,None,
,,,,,,practice,0,30,1,1250,3,J,0,right,0.496811250999599,1,0,,,,,,,,,,,,,,,,,,,,,1,,,,,,,,,,,,,,,,,,,,,,,,,,,,,,,,,,,,,,,,,,,,,,125,157324,19,Female,1,2024/03/26_11:58:35,YZ,None,
,,,,,,practice,0,30,1,1250,4,X,0,right,0.7568002650004928,1,0,,,,,,,,,,,,,,,,,,,,,1,,,,,,,,,,,,,,,,,,,,,,,,,,,,,,,,,,,,,,,,,,,,,,125,157324,19,Female,1,2024/03/26_11:58:35,YZ,None,
,,,,,,practice,0,30,1,1250,5,X,1,left,0.6107638749999751,1,0,,,,,,,,,,,,,,,,,,,,,1,,,,,,,,,,,,,,,,,,,,,,,,,,,,,,,,,,,,,,,,,,,,,,125,157324,19,Female,1,2024/03/26_11:58:35,YZ,None,
,,,,,,practice,0,30,1,1250,6,J,0,right,0.5447903250005766,1,0,,,,,,,,,,,,,,,,,,,,,1,,,,,,,,,,,,,,,,,,,,,,,,,,,,,,,,,,,,,,,,,,,,,,125,157324,19,Female,1,2024/03/26_11:58:35,YZ,None,
,,,,,,practice,0,30,1,1250,7,N,0,right,0.7176303889991686,1,0,,,,,,,,,,,,,,,,,,,,,1,,,,,,,,,,,,,,,,,,,,,,,,,,,,,,,,,,,,,,,,,,,,,,125,157324,19,Female,1,2024/03/26_11:58:35,YZ,None,
,,,,,,practice,0,30,1,1250,8,S,0,right,0.6845608300009189,1,0,,,,,,,,,,,,,,,,,,,,,1,,,,,,,,,,,,,,,,,,,,,,,,,,,,,,,,,,,,,,,,,,,,,,125,157324,19,Female,1,2024/03/26_11:58:35,YZ,None,
,,,,,,practice,0,30,1,1250,9,S,1,left,0.6213655789997574,1,0,,,,,,,,,,,,,,,,,,,,,1,,,,,,,,,,,,,,,,,,,,,,,,,,,,,,,,,,,,,,,,,,,,,,125,157324,19,Female,1,2024/03/26_11:58:35,YZ,None,
,,,,,,practice,0,30,1,1250,10,F,0,right,0.6284261260007042,1,0,,,,,,,,,,,,,,,,,,,,,1,,,,,,,,,,,,,,,,,,,,,,,,,,,,,,,,,,,,,,,,,,,,,,125,157324,19,Female,1,2024/03/26_11:58:35,YZ,None,
,,,,,,practice,0,30,1,1250,,,,,,,,1.0,1.0,0.0,1.0,0.0,1.0,0.6330834767000851,3,0,0,0,0,7,10,3,7,0,,,,1,,,,,,,,,,,,,,,,,,,,,,,,,,,,,,,,,,,,,,,,,,,,,,125,157324,19,Female,1,2024/03/26_11:58:35,YZ,None,
,,,,,,practice,0,23,1,1250,1,V,0,right,0.8004677409990109,1,0,,,,,,,,,,,,,,,,,,,,,1,,,,,,,,,,,,,,,,,,,,,,,,,,,,,,,,,,,,,,,,,,,,,,125,157324,19,Female,1,2024/03/26_11:58:35,YZ,None,
,,,,,,practice,0,23,1,1250,2,V,1,left,0.48846912500084727,1,0,,,,,,,,,,,,,,,,,,,,,1,,,,,,,,,,,,,,,,,,,,,,,,,,,,,,,,,,,,,,,,,,,,,,125,157324,19,Female,1,2024/03/26_11:58:35,YZ,None,
,,,,,,practice,0,23,1,1250,3,F,0,right,0.7045504830002756,1,0,,,,,,,,,,,,,,,,,,,,,1,,,,,,,,,,,,,,,,,,,,,,,,,,,,,,,,,,,,,,,,,,,,,,125,157324,19,Female,1,2024/03/26_11:58:35,YZ,None,
,,,,,,practice,0,23,1,1250,4,N,0,left,0.5178655149993574,0,0,,,,,,,,,,,,,,,,,,,,,1,,,,,,,,,,,,,,,,,,,,,,,,,,,,,,,,,,,,,,,,,,,,,,125,157324,19,Female,1,2024/03/26_11:58:35,YZ,None,
,,,,,,practice,0,23,1,1250,5,V,0,right,0.8609105049999926,1,0,,,,,,,,,,,,,,,,,,,,,1,,,,,,,,,,,,,,,,,,,,,,,,,,,,,,,,,,,,,,,,,,,,,,125,157324,19,Female,1,2024/03/26_11:58:35,YZ,None,
,,,,,,practice,0,23,1,1250,6,V,1,left,0.5995627640004386,1,0,,,,,,,,,,,,,,,,,,,,,1,,,,,,,,,,,,,,,,,,,,,,,,,,,,,,,,,,,,,,,,,,,,,,125,157324,19,Female,1,2024/03/26_11:58:35,YZ,None,
,,,,,,practice,0,23,1,1250,7,Q,0,right,0.6331403280000814,1,0,,,,,,,,,,,,,,,,,,,,,1,,,,,,,,,,,,,,,,,,,,,,,,,,,,,,,,,,,,,,,,,,,,,,125,157324,19,Female,1,2024/03/26_11:58:35,YZ,None,
,,,,,,practice,0,23,1,1250,8,J,0,right,0.6289427720003005,1,0,,,,,,,,,,,,,,,,,,,,,1,,,,,,,,,,,,,,,,,,,,,,,,,,,,,,,,,,,,,,,,,,,,,,125,157324,19,Female,1,2024/03/26_11:58:35,YZ,None,
,,,,,,practice,0,23,1,1250,9,V,0,right,0.7020053349988302,1,0,,,,,,,,,,,,,,,,,,,,,1,,,,,,,,,,,,,,,,,,,,,,,,,,,,,,,,,,,,,,,,,,,,,,125,157324,19,Female,1,2024/03/26_11:58:35,YZ,None,
,,,,,,practice,0,23,1,1250,10,V,1,left,0.5338194409996504,1,0,,,,,,,,,,,,,,,,,,,,,1,,,,,,,,,,,,,,,,,,,,,,,,,,,,,,,,,,,,,,,,,,,,,,125,157324,19,Female,1,2024/03/26_11:58:35,YZ,None,
,,,,,,practice,0,23,1,1250,,,,,,,,0.9642857142857143,1.0,0.14285714285714285,0.8571428571428571,0.0,0.8571428571428572,0.6469734008998784,3,1,0,0,0,6,9,3,7,0,,,,1,,,,,,,,,,,,,,,,,,,,,,,,,,,,,,,,,,,,,,,,,,,,,,125,157324,19,Female,1,2024/03/26_11:58:35,YZ,None,
1,./instructions/inst_prac_3/Slide37.png,right,12.397566097999515,626.8355306960002,639.2330967939997,,,,,,,,,,,,,,,,,,,,,,,,,,,,,,,,,1,,,,,,,,,,,,,,,,,,,,,,,,,,,,,,,,,,,,,,,,,,,,,,125,157324,19,Female,1,2024/03/26_11:58:35,YZ,None,
2,./instructions/inst_prac_3/Slide38.png,right,3.228958674999376,639.2599641409997,642.4889228159991,,,,,,,,,,,,,,,,,,,,,,,,,,,,,,,,,1,,,,,,,,,,,,,,,,,,,,,,,,,,,,,,,,,,,,,,,,,,,,,,125,157324,19,Female,1,2024/03/26_11:58:35,YZ,None,
3,./instructions/inst_prac_3/Slide39.png,right,1.8709850949999236,642.5140778900004,644.3850629850003,,,,,,,,,,,,,,,,,,,,,,,,,,,,,,,,,1,,,,,,,,,,,,,,,,,,,,,,,,,,,,,,,,,,,,,,,,,,,,,,125,157324,19,Female,1,2024/03/26_11:58:35,YZ,None,
4,./instructions/inst_prac_3/Slide40.png,right,2.9238584979993902,644.4130238039997,647.3368823019991,,,,,,,,,,,,,,,,,,,,,,,,,,,,,,,,,1,,,,,,,,,,,,,,,,,,,,,,,,,,,,,,,,,,,,,,,,,,,,,,125,157324,19,Female,1,2024/03/26_11:58:35,YZ,None,
5,./instructions/inst_prac_3/Slide41.png,right,3.62013689000014,647.3648842439998,650.9850211339999,,,,,,,,,,,,,,,,,,,,,,,,,,,,,,,,,1,,,,,,,,,,,,,,,,,,,,,,,,,,,,,,,,,,,,,,,,,,,,,,125,157324,19,Female,1,2024/03/26_11:58:35,YZ,None,
6,./instructions/inst_prac_3/Slide42.png,right,2.6743740500005515,651.0146223779993,653.6889964279999,,,,,,,,,,,,,,,,,,,,,,,,,,,,,,,,,1,,,,,,,,,,,,,,,,,,,,,,,,,,,,,,,,,,,,,,,,,,,,,,125,157324,19,Female,1,2024/03/26_11:58:35,YZ,None,
7,./instructions/inst_prac_3/Slide43.png,right,2.019560034999813,653.717380738999,655.7369407739989,,,,,,,,,,,,,,,,,,,,,,,,,,,,,,,,,1,,,,,,,,,,,,,,,,,,,,,,,,,,,,,,,,,,,,,,,,,,,,,,125,157324,19,Female,1,2024/03/26_11:58:35,YZ,None,
8,./instructions/inst_prac_3/Slide44.png,right,2.7478769210010796,655.765145117999,658.5130220390001,,,,,,,,,,,,,,,,,,,,,,,,,,,,,,,,,1,,,,,,,,,,,,,,,,,,,,,,,,,,,,,,,,,,,,,,,,,,,,,,125,157324,19,Female,1,2024/03/26_11:58:35,YZ,None,
,,,,,,practice,0,7,3,788,1,X,0,right,0.7802903379997588,1,0,,,,,,,,,,,,,,,,,,,,,1,,,,,,,,,,,,,,,,,,,,,,,,,,,,,,,,,,,,,,,,,,,,,,125,157324,19,Female,1,2024/03/26_11:58:35,YZ,None,
,,,,,,practice,0,7,3,788,2,N,0,right,0.8078238519992738,1,0,,,,,,,,,,,,,,,,,,,,,1,,,,,,,,,,,,,,,,,,,,,,,,,,,,,,,,,,,,,,,,,,,,,,125,157324,19,Female,1,2024/03/26_11:58:35,YZ,None,
,,,,,,practice,0,7,3,788,3,X,0,right,0.9661796670006879,1,0,,,,,,,,,,,,,,,,,,,,,1,,,,,,,,,,,,,,,,,,,,,,,,,,,,,,,,,,,,,,,,,,,,,,125,157324,19,Female,1,2024/03/26_11:58:35,YZ,None,
,,,,,,practice,0,7,3,788,4,C,0,right,1.0545731799993519,1,0,,,,,,,,,,,,,,,,,,,,,1,,,,,,,,,,,,,,,,,,,,,,,,,,,,,,,,,,,,,,,,,,,,,,125,157324,19,Female,1,2024/03/26_11:58:35,YZ,None,
,,,,,,practice,0,7,3,788,5,S,0,right,1.0378891630007274,1,0,,,,,,,,,,,,,,,,,,,,,1,,,,,,,,,,,,,,,,,,,,,,,,,,,,,,,,,,,,,,,,,,,,,,125,157324,19,Female,1,2024/03/26_11:58:35,YZ,None,
,,,,,,practice,0,7,3,788,6,S,0,right,1.4290593000005174,1,0,,,,,,,,,,,,,,,,,,,,,1,,,,,,,,,,,,,,,,,,,,,,,,,,,,,,,,,,,,,,,,,,,,,,125,157324,19,Female,1,2024/03/26_11:58:35,YZ,None,
,,,,,,practice,0,7,3,788,7,C,1,left,1.0183201660001941,1,0,,,,,,,,,,,,,,,,,,,,,1,,,,,,,,,,,,,,,,,,,,,,,,,,,,,,,,,,,,,,,,,,,,,,125,157324,19,Female,1,2024/03/26_11:58:35,YZ,None,
,,,,,,practice,0,7,3,788,8,Q,0,right,1.10252471000058,1,0,,,,,,,,,,,,,,,,,,,,,1,,,,,,,,,,,,,,,,,,,,,,,,,,,,,,,,,,,,,,,,,,,,,,125,157324,19,Female,1,2024/03/26_11:58:35,YZ,None,
,,,,,,practice,0,7,3,788,9,S,1,left,0.8069762899995112,1,0,,,,,,,,,,,,,,,,,,,,,1,,,,,,,,,,,,,,,,,,,,,,,,,,,,,,,,,,,,,,,,,,,,,,125,157324,19,Female,1,2024/03/26_11:58:35,YZ,None,
,,,,,,practice,0,7,3,788,10,Q,0,right,1.2236308539995662,1,0,,,,,,,,,,,,,,,,,,,,,1,,,,,,,,,,,,,,,,,,,,,,,,,,,,,,,,,,,,,,,,,,,,,,125,157324,19,Female,1,2024/03/26_11:58:35,YZ,None,
,,,,,,practice,0,7,3,788,11,Q,1,left,0.9405615180003224,1,0,,,,,,,,,,,,,,,,,,,,,1,,,,,,,,,,,,,,,,,,,,,,,,,,,,,,,,,,,,,,,,,,,,,,125,157324,19,Female,1,2024/03/26_11:58:35,YZ,None,
,,,,,,practice,0,7,3,788,12,V,0,right,1.0140248410007189,1,0,,,,,,,,,,,,,,,,,,,,,1,,,,,,,,,,,,,,,,,,,,,,,,,,,,,,,,,,,,,,,,,,,,,,125,157324,19,Female,1,2024/03/26_11:58:35,YZ,None,
,,,,,,practice,0,7,3,788,13,Q,1,left,0.9563723529990966,1,0,,,,,,,,,,,,,,,,,,,,,1,,,,,,,,,,,,,,,,,,,,,,,,,,,,,,,,,,,,,,,,,,,,,,125,157324,19,Female,1,2024/03/26_11:58:35,YZ,None,
,,,,,,practice,0,7,3,788,,,,,,,,1.0,1.0,0.0,1.0,0.0,1.0,1.0106327870769467,4,0,0,0,0,9,13,4,9,0,,,,1,,,,,,,,,,,,,,,,,,,,,,,,,,,,,,,,,,,,,,,,,,,,,,125,157324,19,Female,1,2024/03/26_11:58:35,YZ,None,
1,./instructions/inst_prac_3_next/Slide49.png,right,8.2748408009993,685.3260861180006,693.6009269189999,,,,,,,,,,,,,,,,,,,,,,,,,,,,,,,,,1,,,,,,,,,,,,,,,,,,,,,,,,,,,,,,,,,,,,,,,,,,,,,,125,157324,19,Female,1,2024/03/26_11:58:35,YZ,None,
,,,,,,practice,0,28,3,1250,1,S,0,right,0.5321647760010819,1,0,,,,,,,,,,,,,,,,,,,,,1,,,,,,,,,,,,,,,,,,,,,,,,,,,,,,,,,,,,,,,,,,,,,,125,157324,19,Female,1,2024/03/26_11:58:35,YZ,None,
,,,,,,practice,0,28,3,1250,2,N,0,right,0.4527920250002353,1,0,,,,,,,,,,,,,,,,,,,,,1,,,,,,,,,,,,,,,,,,,,,,,,,,,,,,,,,,,,,,,,,,,,,,125,157324,19,Female,1,2024/03/26_11:58:35,YZ,None,
,,,,,,practice,0,28,3,1250,3,J,0,right,0.385086162999869,1,0,,,,,,,,,,,,,,,,,,,,,1,,,,,,,,,,,,,,,,,,,,,,,,,,,,,,,,,,,,,,,,,,,,,,125,157324,19,Female,1,2024/03/26_11:58:35,YZ,None,
,,,,,,practice,0,28,3,1250,4,S,1,left,0.4827656979996391,1,0,,,,,,,,,,,,,,,,,,,,,1,,,,,,,,,,,,,,,,,,,,,,,,,,,,,,,,,,,,,,,,,,,,,,125,157324,19,Female,1,2024/03/26_11:58:35,YZ,None,
,,,,,,practice,0,28,3,1250,5,C,0,right,0.7198186469995562,1,0,,,,,,,,,,,,,,,,,,,,,1,,,,,,,,,,,,,,,,,,,,,,,,,,,,,,,,,,,,,,,,,,,,,,125,157324,19,Female,1,2024/03/26_11:58:35,YZ,None,
,,,,,,practice,0,28,3,1250,6,S,0,right,0.8244238839997706,1,0,,,,,,,,,,,,,,,,,,,,,1,,,,,,,,,,,,,,,,,,,,,,,,,,,,,,,,,,,,,,,,,,,,,,125,157324,19,Female,1,2024/03/26_11:58:35,YZ,None,
,,,,,,practice,0,28,3,1250,7,X,0,right,0.9484187229991221,1,0,,,,,,,,,,,,,,,,,,,,,1,,,,,,,,,,,,,,,,,,,,,,,,,,,,,,,,,,,,,,,,,,,,,,125,157324,19,Female,1,2024/03/26_11:58:35,YZ,None,
,,,,,,practice,0,28,3,1250,8,Q,0,right,0.8325319790001231,1,0,,,,,,,,,,,,,,,,,,,,,1,,,,,,,,,,,,,,,,,,,,,,,,,,,,,,,,,,,,,,,,,,,,,,125,157324,19,Female,1,2024/03/26_11:58:35,YZ,None,
,,,,,,practice,0,28,3,1250,9,S,1,left,0.6584340709996468,1,0,,,,,,,,,,,,,,,,,,,,,1,,,,,,,,,,,,,,,,,,,,,,,,,,,,,,,,,,,,,,,,,,,,,,125,157324,19,Female,1,2024/03/26_11:58:35,YZ,None,
,,,,,,practice,0,28,3,1250,10,X,1,right,0.9344820980004442,0,0,,,,,,,,,,,,,,,,,,,,,1,,,,,,,,,,,,,,,,,,,,,,,,,,,,,,,,,,,,,,,,,,,,,,125,157324,19,Female,1,2024/03/26_11:58:35,YZ,None,
,,,,,,practice,0,28,3,1250,,,,,,,,0.9166666666666666,0.6666666666666666,0.0,1.0,0.0,1.0,0.6770918063999488,2,0,0,0,0,7,9,3,7,0,,,,1,,,,,,,,,,,,,,,,,,,,,,,,,,,,,,,,,,,,,,,,,,,,,,125,157324,19,Female,1,2024/03/26_11:58:35,YZ,None,
,,,,,,practice,0,28,3,1250,1,S,0,right,1.0081823620002979,1,0,,,,,,,,,,,,,,,,,,,,,1,,,,,,,,,,,,,,,,,,,,,,,,,,,,,,,,,,,,,,,,,,,,,,125,157324,19,Female,1,2024/03/26_11:58:35,YZ,None,
,,,,,,practice,0,28,3,1250,2,N,0,right,0.38015708300008555,1,0,,,,,,,,,,,,,,,,,,,,,1,,,,,,,,,,,,,,,,,,,,,,,,,,,,,,,,,,,,,,,,,,,,,,125,157324,19,Female,1,2024/03/26_11:58:35,YZ,None,
,,,,,,practice,0,28,3,1250,3,J,0,right,0.5171783049991063,1,0,,,,,,,,,,,,,,,,,,,,,1,,,,,,,,,,,,,,,,,,,,,,,,,,,,,,,,,,,,,,,,,,,,,,125,157324,19,Female,1,2024/03/26_11:58:35,YZ,None,
,,,,,,practice,0,28,3,1250,4,S,1,right,0.8031801460001589,0,0,,,,,,,,,,,,,,,,,,,,,1,,,,,,,,,,,,,,,,,,,,,,,,,,,,,,,,,,,,,,,,,,,,,,125,157324,19,Female,1,2024/03/26_11:58:35,YZ,None,
,,,,,,practice,0,28,3,1250,5,C,0,right,1.1759103129988944,1,0,,,,,,,,,,,,,,,,,,,,,1,,,,,,,,,,,,,,,,,,,,,,,,,,,,,,,,,,,,,,,,,,,,,,125,157324,19,Female,1,2024/03/26_11:58:35,YZ,None,
,,,,,,practice,0,28,3,1250,6,S,0,left,0.6092373160008719,0,0,,,,,,,,,,,,,,,,,,,,,1,,,,,,,,,,,,,,,,,,,,,,,,,,,,,,,,,,,,,,,,,,,,,,125,157324,19,Female,1,2024/03/26_11:58:35,YZ,None,
,,,,,,practice,0,28,3,1250,7,X,0,right,0.6628921779993107,1,0,,,,,,,,,,,,,,,,,,,,,1,,,,,,,,,,,,,,,,,,,,,,,,,,,,,,,,,,,,,,,,,,,,,,125,157324,19,Female,1,2024/03/26_11:58:35,YZ,None,
,,,,,,practice,0,28,3,1250,8,Q,0,right,0.8068598480003857,1,0,,,,,,,,,,,,,,,,,,,,,1,,,,,,,,,,,,,,,,,,,,,,,,,,,,,,,,,,,,,,,,,,,,,,125,157324,19,Female,1,2024/03/26_11:58:35,YZ,None,
,,,,,,practice,0,28,3,1250,9,S,1,left,0.8082556029985426,1,0,,,,,,,,,,,,,,,,,,,,,1,,,,,,,,,,,,,,,,,,,,,,,,,,,,,,,,,,,,,,,,,,,,,,125,157324,19,Female,1,2024/03/26_11:58:35,YZ,None,
,,,,,,practice,0,28,3,1250,10,X,1,right,1.0881399429999874,0,0,,,,,,,,,,,,,,,,,,,,,1,,,,,,,,,,,,,,,,,,,,,,,,,,,,,,,,,,,,,,,,,,,,,,125,157324,19,Female,1,2024/03/26_11:58:35,YZ,None,
,,,,,,practice,0,28,3,1250,,,,,,,,0.6904761904761906,0.3333333333333333,0.14285714285714285,0.8571428571428571,0.0,0.8571428571428572,0.7859993096997642,1,1,0,0,0,6,7,3,7,0,,,,1,,,,,,,,,,,,,,,,,,,,,,,,,,,,,,,,,,,,,,,,,,,,,,125,157324,19,Female,1,2024/03/26_11:58:35,YZ,None,
1,./instructions/inst_redo_3/Slide47.png,right,15.859088624998549,721.2860013770005,737.145090001999,,,,,,,,,,,,,,,,,,,,,,,,,,,,,,,,,1,,,,,,,,,,,,,,,,,,,,,,,,,,,,,,,,,,,,,,,,,,,,,,125,157324,19,Female,1,2024/03/26_11:58:35,YZ,None,
,,,,,,practice,0,36,3,1250,1,F,0,right,0.7138795490009215,1,0,,,,,,,,,,,,,,,,,,,,,1,,,,,,,,,,,,,,,,,,,,,,,,,,,,,,,,,,,,,,,,,,,,,,125,157324,19,Female,1,2024/03/26_11:58:35,YZ,None,
,,,,,,practice,0,36,3,1250,2,V,0,right,0.5803158999988227,1,0,,,,,,,,,,,,,,,,,,,,,1,,,,,,,,,,,,,,,,,,,,,,,,,,,,,,,,,,,,,,,,,,,,,,125,157324,19,Female,1,2024/03/26_11:58:35,YZ,None,
,,,,,,practice,0,36,3,1250,3,X,0,right,0.4049411259984481,1,0,,,,,,,,,,,,,,,,,,,,,1,,,,,,,,,,,,,,,,,,,,,,,,,,,,,,,,,,,,,,,,,,,,,,125,157324,19,Female,1,2024/03/26_11:58:35,YZ,None,
,,,,,,practice,0,36,3,1250,4,V,0,right,0.8085721050010761,1,0,,,,,,,,,,,,,,,,,,,,,1,,,,,,,,,,,,,,,,,,,,,,,,,,,,,,,,,,,,,,,,,,,,,,125,157324,19,Female,1,2024/03/26_11:58:35,YZ,None,
,,,,,,practice,0,36,3,1250,5,V,1,left,1.2168709750003472,1,0,,,,,,,,,,,,,,,,,,,,,1,,,,,,,,,,,,,,,,,,,,,,,,,,,,,,,,,,,,,,,,,,,,,,125,157324,19,Female,1,2024/03/26_11:58:35,YZ,None,
,,,,,,practice,0,36,3,1250,6,S,0,right,0.6096983839997847,1,0,,,,,,,,,,,,,,,,,,,,,1,,,,,,,,,,,,,,,,,,,,,,,,,,,,,,,,,,,,,,,,,,,,,,125,157324,19,Female,1,2024/03/26_11:58:35,YZ,None,
,,,,,,practice,0,36,3,1250,7,V,1,right,1.0014540090014634,0,0,,,,,,,,,,,,,,,,,,,,,1,,,,,,,,,,,,,,,,,,,,,,,,,,,,,,,,,,,,,,,,,,,,,,125,157324,19,Female,1,2024/03/26_11:58:35,YZ,None,
,,,,,,practice,0,36,3,1250,8,X,0,left,0.9610799099991709,0,0,,,,,,,,,,,,,,,,,,,,,1,,,,,,,,,,,,,,,,,,,,,,,,,,,,,,,,,,,,,,,,,,,,,,125,157324,19,Female,1,2024/03/26_11:58:35,YZ,None,
,,,,,,practice,0,36,3,1250,9,S,1,right,0.8680525609997858,0,0,,,,,,,,,,,,,,,,,,,,,1,,,,,,,,,,,,,,,,,,,,,,,,,,,,,,,,,,,,,,,,,,,,,,125,157324,19,Female,1,2024/03/26_11:58:35,YZ,None,
,,,,,,practice,0,36,3,1250,10,S,0,left,0.893580354999358,0,0,,,,,,,,,,,,,,,,,,,,,1,,,,,,,,,,,,,,,,,,,,,,,,,,,,,,,,,,,,,,,,,,,,,,125,157324,19,Female,1,2024/03/26_11:58:35,YZ,None,
,,,,,,practice,0,36,3,1250,,,,,,,,0.5476190476190476,0.3333333333333333,0.2857142857142857,0.7142857142857143,0.0,0.7142857142857143,0.8058444873999179,1,2,0,0,0,5,6,3,7,0,,,,1,,,,,,,,,,,,,,,,,,,,,,,,,,,,,,,,,,,,,,,,,,,,,,125,157324,19,Female,1,2024/03/26_11:58:35,YZ,None,
1,./instructions/inst_redo_3/Slide47.png,right,7.38856826799929,751.5004144499999,758.8889827179992,,,,,,,,,,,,,,,,,,,,,,,,,,,,,,,,,1,,,,,,,,,,,,,,,,,,,,,,,,,,,,,,,,,,,,,,,,,,,,,,125,157324,19,Female,1,2024/03/26_11:58:35,YZ,None,
,,,,,,practice,0,10,3,1250,1,S,0,right,0.6869048309999926,1,0,,,,,,,,,,,,,,,,,,,,,1,,,,,,,,,,,,,,,,,,,,,,,,,,,,,,,,,,,,,,,,,,,,,,125,157324,19,Female,1,2024/03/26_11:58:35,YZ,None,
,,,,,,practice,0,10,3,1250,2,V,0,right,0.509081394999157,1,0,,,,,,,,,,,,,,,,,,,,,1,,,,,,,,,,,,,,,,,,,,,,,,,,,,,,,,,,,,,,,,,,,,,,125,157324,19,Female,1,2024/03/26_11:58:35,YZ,None,
,,,,,,practice,0,10,3,1250,3,V,0,right,0.8771877060007682,1,0,,,,,,,,,,,,,,,,,,,,,1,,,,,,,,,,,,,,,,,,,,,,,,,,,,,,,,,,,,,,,,,,,,,,125,157324,19,Female,1,2024/03/26_11:58:35,YZ,None,
,,,,,,practice,0,10,3,1250,4,J,0,right,0.6501932230003149,1,0,,,,,,,,,,,,,,,,,,,,,1,,,,,,,,,,,,,,,,,,,,,,,,,,,,,,,,,,,,,,,,,,,,,,125,157324,19,Female,1,2024/03/26_11:58:35,YZ,None,
,,,,,,practice,0,10,3,1250,5,V,1,left,0.8807659989997774,1,0,,,,,,,,,,,,,,,,,,,,,1,,,,,,,,,,,,,,,,,,,,,,,,,,,,,,,,,,,,,,,,,,,,,,125,157324,19,Female,1,2024/03/26_11:58:35,YZ,None,
,,,,,,practice,0,10,3,1250,6,N,0,right,0.7134371560005093,1,0,,,,,,,,,,,,,,,,,,,,,1,,,,,,,,,,,,,,,,,,,,,,,,,,,,,,,,,,,,,,,,,,,,,,125,157324,19,Female,1,2024/03/26_11:58:35,YZ,None,
,,,,,,practice,0,10,3,1250,7,V,0,left,1.1654702340001677,0,0,,,,,,,,,,,,,,,,,,,,,1,,,,,,,,,,,,,,,,,,,,,,,,,,,,,,,,,,,,,,,,,,,,,,125,157324,19,Female,1,2024/03/26_11:58:35,YZ,None,
,,,,,,practice,0,10,3,1250,8,V,1,right,0.946273851001024,0,0,,,,,,,,,,,,,,,,,,,,,1,,,,,,,,,,,,,,,,,,,,,,,,,,,,,,,,,,,,,,,,,,,,,,125,157324,19,Female,1,2024/03/26_11:58:35,YZ,None,
,,,,,,practice,0,10,3,1250,9,N,1,right,0.8526960089984641,0,0,,,,,,,,,,,,,,,,,,,,,1,,,,,,,,,,,,,,,,,,,,,,,,,,,,,,,,,,,,,,,,,,,,,,125,157324,19,Female,1,2024/03/26_11:58:35,YZ,None,
,,,,,,practice,0,10,3,1250,10,N,0,left,0.8479575179990206,0,0,,,,,,,,,,,,,,,,,,,,,1,,,,,,,,,,,,,,,,,,,,,,,,,,,,,,,,,,,,,,,,,,,,,,125,157324,19,Female,1,2024/03/26_11:58:35,YZ,None,
,,,,,,practice,0,10,3,1250,,,,,,,,0.5476190476190476,0.3333333333333333,0.2857142857142857,0.7142857142857143,0.0,0.7142857142857143,0.8129967921999196,1,2,0,0,0,5,6,3,7,0,,,,1,,,,,,,,,,,,,,,,,,,,,,,,,,,,,,,,,,,,,,,,,,,,,,125,157324,19,Female,1,2024/03/26_11:58:35,YZ,None,
1,./instructions/inst_redo_3/Slide47.png,right,10.548939442000119,773.3161599430005,783.8650993850006,,,,,,,,,,,,,,,,,,,,,,,,,,,,,,,,,1,,,,,,,,,,,,,,,,,,,,,,,,,,,,,,,,,,,,,,,,,,,,,,125,157324,19,Female,1,2024/03/26_11:58:35,YZ,None,
,,,,,,practice,0,28,3,1250,1,S,0,right,0.8253184400000464,1,0,,,,,,,,,,,,,,,,,,,,,1,,,,,,,,,,,,,,,,,,,,,,,,,,,,,,,,,,,,,,,,,,,,,,125,157324,19,Female,1,2024/03/26_11:58:35,YZ,None,
,,,,,,practice,0,28,3,1250,2,N,0,right,0.9452402410006471,1,0,,,,,,,,,,,,,,,,,,,,,1,,,,,,,,,,,,,,,,,,,,,,,,,,,,,,,,,,,,,,,,,,,,,,125,157324,19,Female,1,2024/03/26_11:58:35,YZ,None,
,,,,,,practice,0,28,3,1250,3,J,0,right,0.9167405779990077,1,0,,,,,,,,,,,,,,,,,,,,,1,,,,,,,,,,,,,,,,,,,,,,,,,,,,,,,,,,,,,,,,,,,,,,125,157324,19,Female,1,2024/03/26_11:58:35,YZ,None,
,,,,,,practice,0,28,3,1250,4,S,1,left,1.0099022159993183,1,0,,,,,,,,,,,,,,,,,,,,,1,,,,,,,,,,,,,,,,,,,,,,,,,,,,,,,,,,,,,,,,,,,,,,125,157324,19,Female,1,2024/03/26_11:58:35,YZ,None,
,,,,,,practice,0,28,3,1250,5,C,0,right,0.9606562659992051,1,0,,,,,,,,,,,,,,,,,,,,,1,,,,,,,,,,,,,,,,,,,,,,,,,,,,,,,,,,,,,,,,,,,,,,125,157324,19,Female,1,2024/03/26_11:58:35,YZ,None,
,,,,,,practice,0,28,3,1250,6,S,0,right,1.8159089509990736,1,0,,,,,,,,,,,,,,,,,,,,,1,,,,,,,,,,,,,,,,,,,,,,,,,,,,,,,,,,,,,,,,,,,,,,125,157324,19,Female,1,2024/03/26_11:58:35,YZ,None,
,,,,,,practice,0,28,3,1250,7,X,0,right,1.3243141169987211,1,0,,,,,,,,,,,,,,,,,,,,,1,,,,,,,,,,,,,,,,,,,,,,,,,,,,,,,,,,,,,,,,,,,,,,125,157324,19,Female,1,2024/03/26_11:58:35,YZ,None,
,,,,,,practice,0,28,3,1250,8,Q,0,right,0.900350949001222,1,0,,,,,,,,,,,,,,,,,,,,,1,,,,,,,,,,,,,,,,,,,,,,,,,,,,,,,,,,,,,,,,,,,,,,125,157324,19,Female,1,2024/03/26_11:58:35,YZ,None,
,,,,,,practice,0,28,3,1250,9,S,1,left,1.6825254780014802,1,0,,,,,,,,,,,,,,,,,,,,,1,,,,,,,,,,,,,,,,,,,,,,,,,,,,,,,,,,,,,,,,,,,,,,125,157324,19,Female,1,2024/03/26_11:58:35,YZ,None,
,,,,,,practice,0,28,3,1250,10,X,1,right,1.8486210219998611,0,0,,,,,,,,,,,,,,,,,,,,,1,,,,,,,,,,,,,,,,,,,,,,,,,,,,,,,,,,,,,,,,,,,,,,125,157324,19,Female,1,2024/03/26_11:58:35,YZ,None,
,,,,,,practice,0,28,3,1250,,,,,,,,0.9166666666666666,0.6666666666666666,0.0,1.0,0.0,1.0,1.2229578257998583,2,0,0,0,0,7,9,3,7,0,,,,1,,,,,,,,,,,,,,,,,,,,,,,,,,,,,,,,,,,,,,,,,,,,,,125,157324,19,Female,1,2024/03/26_11:58:35,YZ,None,
1,./instructions/inst_prac_main/Slide51.png,right,3.4876361959995847,803.9133133840005,807.4009495800001,,,,,,,,,,,,,,,,,,,,,,,,,,,,,,,,,1,,,,,,,,,,,,,,,,,,,,,,,,,,,,,,,,,,,,,,,,,,,,,,125,157324,19,Female,1,2024/03/26_11:58:35,YZ,None,
2,./instructions/inst_prac_main/Slide52.png,right,19.547202571000525,807.4296680019997,826.9768705730003,,,,,,,,,,,,,,,,,,,,,,,,,,,,,,,,,1,,,,,,,,,,,,,,,,,,,,,,,,,,,,,,,,,,,,,,,,,,,,,,125,157324,19,Female,1,2024/03/26_11:58:35,YZ,None,
3,./instructions/inst_prac_main/Slide53.png,right,10.123475275999226,827.0055111399997,837.128986415999,,,,,,,,,,,,,,,,,,,,,,,,,,,,,,,,,1,,,,,,,,,,,,,,,,,,,,,,,,,,,,,,,,,,,,,,,,,,,,,,125,157324,19,Female,1,2024/03/26_11:58:35,YZ,None,
4,./instructions/inst_prac_main/Slide54.png,right,12.109953601999223,837.1550091440004,849.2649627459996,,,,,,,,,,,,,,,,,,,,,,,,,,,,,,,,,1,,,,,,,,,,,,,,,,,,,,,,,,,,,,,,,,,,,,,,,,,,,,,,125,157324,19,Female,1,2024/03/26_11:58:35,YZ,None,
,,,,,,practice_main,0,1,3,1250,1,C,0,right,1.8912792500013893,1,0,,,,,,,,,,,,,,,,,,,,,1,,,,,,,,,,,,,,,,,,,,,,,,,,,,,,,,,,,,,,,,,,,,,,125,157324,19,Female,1,2024/03/26_11:58:35,YZ,None,
,,,,,,practice_main,0,1,3,1250,2,F,0,right,0.5627172330005124,1,0,,,,,,,,,,,,,,,,,,,,,1,,,,,,,,,,,,,,,,,,,,,,,,,,,,,,,,,,,,,,,,,,,,,,125,157324,19,Female,1,2024/03/26_11:58:35,YZ,None,
,,,,,,practice_main,0,1,3,1250,3,J,0,right,0.4575228949997836,1,0,,,,,,,,,,,,,,,,,,,,,1,,,,,,,,,,,,,,,,,,,,,,,,,,,,,,,,,,,,,,,,,,,,,,125,157324,19,Female,1,2024/03/26_11:58:35,YZ,None,
,,,,,,practice_main,0,1,3,1250,4,C,1,left,0.5494755309991888,1,0,,,,,,,,,,,,,,,,,,,,,1,,,,,,,,,,,,,,,,,,,,,,,,,,,,,,,,,,,,,,,,,,,,,,125,157324,19,Female,1,2024/03/26_11:58:35,YZ,None,
,,,,,,practice_main,0,1,3,1250,5,V,0,right,0.45946184800050105,1,0,,,,,,,,,,,,,,,,,,,,,1,,,,,,,,,,,,,,,,,,,,,,,,,,,,,,,,,,,,,,,,,,,,,,125,157324,19,Female,1,2024/03/26_11:58:35,YZ,None,
,,,,,,practice_main,0,1,3,1250,6,N,0,right,0.6436392900013743,1,0,,,,,,,,,,,,,,,,,,,,,1,,,,,,,,,,,,,,,,,,,,,,,,,,,,,,,,,,,,,,,,,,,,,,125,157324,19,Female,1,2024/03/26_11:58:35,YZ,None,
,,,,,,practice_main,0,1,3,1250,7,C,1,right,0.5180137529987405,0,0,,,,,,,,,,,,,,,,,,,,,1,,,,,,,,,,,,,,,,,,,,,,,,,,,,,,,,,,,,,,,,,,,,,,125,157324,19,Female,1,2024/03/26_11:58:35,YZ,None,
,,,,,,practice_main,0,1,3,1250,8,C,0,left,0.590153029999783,0,0,,,,,,,,,,,,,,,,,,,,,1,,,,,,,,,,,,,,,,,,,,,,,,,,,,,,,,,,,,,,,,,,,,,,125,157324,19,Female,1,2024/03/26_11:58:35,YZ,None,
,,,,,,practice_main,0,1,3,1250,9,X,0,right,0.4053132209992327,1,0,,,,,,,,,,,,,,,,,,,,,1,,,,,,,,,,,,,,,,,,,,,,,,,,,,,,,,,,,,,,,,,,,,,,125,157324,19,Female,1,2024/03/26_11:58:35,YZ,None,
,,,,,,practice_main,0,1,3,1250,10,C,1,left,0.7473775849994126,1,0,,,,,,,,,,,,,,,,,,,,,1,,,,,,,,,,,,,,,,,,,,,,,,,,,,,,,,,,,,,,,,,,,,,,125,157324,19,Female,1,2024/03/26_11:58:35,YZ,None,
,,,,,,practice_main,0,1,3,1250,,,,,,,,0.8333333333333333,0.6666666666666666,0.14285714285714285,0.8571428571428571,0.0,0.8571428571428572,0.6824953635999919,2,1,0,0,0,6,8,3,7,0,,,,1,,,,,,,,,,,,,,,,,,,,,,,,,,,,,,,,,,,,,,,,,,,,,,125,157324,19,Female,1,2024/03/26_11:58:35,YZ,None,
,,,,,240326_130720,PRACTICE,0,1,3,1250,,,,,,,,,,,,,,,,,,,,,,,,,,,,1,8,1,1,cue2.png,hard,A,49,2.4486520859991288,0,852.3252501850002,854.8028198949996,,,,,,,,,,,,,,,,,,,,,,,,,,,,,,,,,,,125,157324,19,Female,1,2024/03/26_11:58:35,YZ,None,
,,,,,,practice_main,0,2,1,1250,1,N,0,right,0.48963482700128225,1,0,,,,,,,,,,,,,,,,,,,,,1,,,,,,,,,,,,,,,,,,,,,,,,,,,,,,,,,,,,,,,,,,,,,,125,157324,19,Female,1,2024/03/26_11:58:35,YZ,None,
,,,,,,practice_main,0,2,1,1250,2,N,1,left,0.5306993930007593,1,0,,,,,,,,,,,,,,,,,,,,,1,,,,,,,,,,,,,,,,,,,,,,,,,,,,,,,,,,,,,,,,,,,,,,125,157324,19,Female,1,2024/03/26_11:58:35,YZ,None,
,,,,,,practice_main,0,2,1,1250,3,J,0,right,0.48560022200035746,1,0,,,,,,,,,,,,,,,,,,,,,1,,,,,,,,,,,,,,,,,,,,,,,,,,,,,,,,,,,,,,,,,,,,,,125,157324,19,Female,1,2024/03/26_11:58:35,YZ,None,
,,,,,,practice_main,0,2,1,1250,4,N,0,right,0.6140036310007417,1,0,,,,,,,,,,,,,,,,,,,,,1,,,,,,,,,,,,,,,,,,,,,,,,,,,,,,,,,,,,,,,,,,,,,,125,157324,19,Female,1,2024/03/26_11:58:35,YZ,None,
,,,,,,practice_main,0,2,1,1250,5,F,0,right,0.4794655040004727,1,0,,,,,,,,,,,,,,,,,,,,,1,,,,,,,,,,,,,,,,,,,,,,,,,,,,,,,,,,,,,,,,,,,,,,125,157324,19,Female,1,2024/03/26_11:58:35,YZ,None,
,,,,,,practice_main,0,2,1,1250,6,F,1,left,0.6628798609999649,1,0,,,,,,,,,,,,,,,,,,,,,1,,,,,,,,,,,,,,,,,,,,,,,,,,,,,,,,,,,,,,,,,,,,,,125,157324,19,Female,1,2024/03/26_11:58:35,YZ,None,
,,,,,,practice_main,0,2,1,1250,7,N,0,right,0.5549239940010011,1,0,,,,,,,,,,,,,,,,,,,,,1,,,,,,,,,,,,,,,,,,,,,,,,,,,,,,,,,,,,,,,,,,,,,,125,157324,19,Female,1,2024/03/26_11:58:35,YZ,None,
,,,,,,practice_main,0,2,1,1250,8,N,1,left,0.3904249309998704,1,0,,,,,,,,,,,,,,,,,,,,,1,,,,,,,,,,,,,,,,,,,,,,,,,,,,,,,,,,,,,,,,,,,,,,125,157324,19,Female,1,2024/03/26_11:58:35,YZ,None,
,,,,,,practice_main,0,2,1,1250,9,J,0,right,0.5121344090002822,1,0,,,,,,,,,,,,,,,,,,,,,1,,,,,,,,,,,,,,,,,,,,,,,,,,,,,,,,,,,,,,,,,,,,,,125,157324,19,Female,1,2024/03/26_11:58:35,YZ,None,
,,,,,,practice_main,0,2,1,1250,10,S,0,right,0.5425702049997199,1,0,,,,,,,,,,,,,,,,,,,,,1,,,,,,,,,,,,,,,,,,,,,,,,,,,,,,,,,,,,,,,,,,,,,,125,157324,19,Female,1,2024/03/26_11:58:35,YZ,None,
,,,,,,practice_main,0,2,1,1250,,,,,,,,1.0,1.0,0.0,1.0,0.0,1.0,0.5262336977004451,3,0,0,0,0,7,10,3,7,0,,,,1,,,,,,,,,,,,,,,,,,,,,,,,,,,,,,,,,,,,,,,,,,,,,,125,157324,19,Female,1,2024/03/26_11:58:35,YZ,None,
,,,,,240326_130743,PRACTICE,0,2,1,1250,,,,,,,,,,,,,,,,,,,,,,,,,,,,1,44,2,2,cue1.png,easy,A,55,2.479904343999806,0,876.0093679860001,878.508900163999,,,,,,,,,,,,,,,,,,,,,,,,,,,,,,,,,,,125,157324,19,Female,1,2024/03/26_11:58:35,YZ,None,
,,,,,,practice_main,0,3,3,1250,1,J,0,right,0.49731193799925677,1,0,,,,,,,,,,,,,,,,,,,,,1,,,,,,,,,,,,,,,,,,,,,,,,,,,,,,,,,,,,,,,,,,,,,,125,157324,19,Female,1,2024/03/26_11:58:35,YZ,None,
,,,,,,practice_main,0,3,3,1250,2,S,0,right,0.5962540000000445,1,0,,,,,,,,,,,,,,,,,,,,,1,,,,,,,,,,,,,,,,,,,,,,,,,,,,,,,,,,,,,,,,,,,,,,125,157324,19,Female,1,2024/03/26_11:58:35,YZ,None,
,,,,,,practice_main,0,3,3,1250,3,S,0,right,0.9332264029999351,1,0,,,,,,,,,,,,,,,,,,,,,1,,,,,,,,,,,,,,,,,,,,,,,,,,,,,,,,,,,,,,,,,,,,,,125,157324,19,Female,1,2024/03/26_11:58:35,YZ,None,
,,,,,,practice_main,0,3,3,1250,4,J,1,left,0.7480435819998092,1,0,,,,,,,,,,,,,,,,,,,,,1,,,,,,,,,,,,,,,,,,,,,,,,,,,,,,,,,,,,,,,,,,,,,,125,157324,19,Female,1,2024/03/26_11:58:35,YZ,None,
,,,,,,practice_main,0,3,3,1250,5,N,0,right,0.5576228720001382,1,0,,,,,,,,,,,,,,,,,,,,,1,,,,,,,,,,,,,,,,,,,,,,,,,,,,,,,,,,,,,,,,,,,,,,125,157324,19,Female,1,2024/03/26_11:58:35,YZ,None,
,,,,,,practice_main,0,3,3,1250,6,S,1,right,0.655268074999185,0,0,,,,,,,,,,,,,,,,,,,,,1,,,,,,,,,,,,,,,,,,,,,,,,,,,,,,,,,,,,,,,,,,,,,,125,157324,19,Female,1,2024/03/26_11:58:35,YZ,None,
,,,,,,practice_main,0,3,3,1250,7,J,1,right,0.6804244779996225,0,0,,,,,,,,,,,,,,,,,,,,,1,,,,,,,,,,,,,,,,,,,,,,,,,,,,,,,,,,,,,,,,,,,,,,125,157324,19,Female,1,2024/03/26_11:58:35,YZ,None,
,,,,,,practice_main,0,3,3,1250,8,X,0,right,0.7652658940005495,1,0,,,,,,,,,,,,,,,,,,,,,1,,,,,,,,,,,,,,,,,,,,,,,,,,,,,,,,,,,,,,,,,,,,,,125,157324,19,Female,1,2024/03/26_11:58:35,YZ,None,
,,,,,,practice_main,0,3,3,1250,9,C,0,right,0.6977671950007789,1,0,,,,,,,,,,,,,,,,,,,,,1,,,,,,,,,,,,,,,,,,,,,,,,,,,,,,,,,,,,,,,,,,,,,,125,157324,19,Female,1,2024/03/26_11:58:35,YZ,None,
,,,,,,practice_main,0,3,3,1250,10,F,0,right,0.6738284599996405,1,0,,,,,,,,,,,,,,,,,,,,,1,,,,,,,,,,,,,,,,,,,,,,,,,,,,,,,,,,,,,,,,,,,,,,125,157324,19,Female,1,2024/03/26_11:58:35,YZ,None,
,,,,,,practice_main,0,3,3,1250,,,,,,,,0.8333333333333334,0.3333333333333333,0.0,1.0,0.0,1.0,0.680501289699896,1,0,0,0,0,7,8,3,7,0,,,,1,,,,,,,,,,,,,,,,,,,,,,,,,,,,,,,,,,,,,,,,,,,,,,125,157324,19,Female,1,2024/03/26_11:58:35,YZ,None,
,,,,,240326_130806,PRACTICE,0,3,3,1250,,,,,,,,,,,,,,,,,,,,,,,,,,,,1,36,3,3,cue2.png,hard,A,47,2.163876705999428,0,898.1517218150002,900.3280362120004,,,,,,,,,,,,,,,,,,,,,,,,,,,,,,,,,,,125,157324,19,Female,1,2024/03/26_11:58:35,YZ,None,
1,./instructions/inst_prac_end/Slide56.png,right,28.40580166199834,920.0751250230005,948.4809266849988,,,,,,,,,,,,,,,,,,,,,,,,,,,,,,,,,1,,,,,,,,,,,,,,,,,,,,,,,,,,,,,,,,,,,,,,,,,,,,,,125,157324,19,Female,1,2024/03/26_11:58:35,YZ,None,
1,./instructions/inst_test/Slide57.png,right,36.359439661999204,948.5133885539999,984.8728282159991,,,,,,,,,,,,,,,,,,,,,,,,,,,,,,,,,1,,,,,,,,,,,,,,,,,,,,,,,,,,,,,,,,,,,,,,,,,,,,,,125,157324,19,Female,1,2024/03/26_11:58:35,YZ,None,
,,,,,,test,1,1,1,1250,1,Q,0,right,0.49078099800135533,1,0,,,,,,,,,,,,,,,,,,,,,1,,,,,,,,,,,,,,,,,,,,,,,,,,,,,,,,,,,,,,,,,,,,,,125,157324,19,Female,1,2024/03/26_11:58:35,YZ,None,
,,,,,,test,1,1,1,1250,2,Q,1,left,0.3967730929998652,1,0,,,,,,,,,,,,,,,,,,,,,1,,,,,,,,,,,,,,,,,,,,,,,,,,,,,,,,,,,,,,,,,,,,,,125,157324,19,Female,1,2024/03/26_11:58:35,YZ,None,
,,,,,,test,1,1,1,1250,3,C,0,right,0.4195676770013961,1,0,,,,,,,,,,,,,,,,,,,,,1,,,,,,,,,,,,,,,,,,,,,,,,,,,,,,,,,,,,,,,,,,,,,,125,157324,19,Female,1,2024/03/26_11:58:35,YZ,None,
,,,,,,test,1,1,1,1250,4,C,1,left,0.525846210999589,1,0,,,,,,,,,,,,,,,,,,,,,1,,,,,,,,,,,,,,,,,,,,,,,,,,,,,,,,,,,,,,,,,,,,,,125,157324,19,Female,1,2024/03/26_11:58:35,YZ,None,
,,,,,,test,1,1,1,1250,5,Q,0,right,0.4753661499998998,1,0,,,,,,,,,,,,,,,,,,,,,1,,,,,,,,,,,,,,,,,,,,,,,,,,,,,,,,,,,,,,,,,,,,,,125,157324,19,Female,1,2024/03/26_11:58:35,YZ,None,
,,,,,,test,1,1,1,1250,6,C,0,right,0.576374243999453,1,0,,,,,,,,,,,,,,,,,,,,,1,,,,,,,,,,,,,,,,,,,,,,,,,,,,,,,,,,,,,,,,,,,,,,125,157324,19,Female,1,2024/03/26_11:58:35,YZ,None,
,,,,,,test,1,1,1,1250,7,X,0,right,0.4649767669998255,1,0,,,,,,,,,,,,,,,,,,,,,1,,,,,,,,,,,,,,,,,,,,,,,,,,,,,,,,,,,,,,,,,,,,,,125,157324,19,Female,1,2024/03/26_11:58:35,YZ,None,
,,,,,,test,1,1,1,1250,8,F,0,right,0.48057635499935714,1,0,,,,,,,,,,,,,,,,,,,,,1,,,,,,,,,,,,,,,,,,,,,,,,,,,,,,,,,,,,,,,,,,,,,,125,157324,19,Female,1,2024/03/26_11:58:35,YZ,None,
,,,,,,test,1,1,1,1250,9,S,0,right,0.5121149490005337,1,0,,,,,,,,,,,,,,,,,,,,,1,,,,,,,,,,,,,,,,,,,,,,,,,,,,,,,,,,,,,,,,,,,,,,125,157324,19,Female,1,2024/03/26_11:58:35,YZ,None,
,,,,,,test,1,1,1,1250,10,S,1,left,0.5429566220009292,1,0,,,,,,,,,,,,,,,,,,,,,1,,,,,,,,,,,,,,,,,,,,,,,,,,,,,,,,,,,,,,,,,,,,,,125,157324,19,Female,1,2024/03/26_11:58:35,YZ,None,
,,,,,,Test,1,1,1,1250,,,,,,,,1.0,1.0,0.0,1.0,0.0,1.0,0.4885333066002204,3,0,0,0,0,7,10,3,7,0,,,,1,,,,,,,,,,,,,,,,,,,,,,,,,,,,,,,,,,,,,,,,,,,,,,125,157324,19,Female,1,2024/03/26_11:58:35,YZ,None,
,,,,,240326_130935,TEST,1,1,1,1250,,,,,,,,,,,,,,,,,,,,,,,,,,,,1,1,1,1,cue1.png,easy,A,53,1.6945872270007385,0,989.9263178849997,991.6420185219995,,,,,,,,,,,,,,,,,,,,,,,,,,,,,,,,,,,125,157324,19,Female,1,2024/03/26_11:58:35,YZ,None,
,,,,,,test,1,2,3,1250,1,V,0,right,0.542772992999744,1,0,,,,,,,,,,,,,,,,,,,,,1,,,,,,,,,,,,,,,,,,,,,,,,,,,,,,,,,,,,,,,,,,,,,,125,157324,19,Female,1,2024/03/26_11:58:35,YZ,None,
,,,,,,test,1,2,3,1250,2,C,0,right,0.3958831679992727,1,0,,,,,,,,,,,,,,,,,,,,,1,,,,,,,,,,,,,,,,,,,,,,,,,,,,,,,,,,,,,,,,,,,,,,125,157324,19,Female,1,2024/03/26_11:58:35,YZ,None,
,,,,,,test,1,2,3,1250,3,S,0,right,0.48838541000077385,1,0,,,,,,,,,,,,,,,,,,,,,1,,,,,,,,,,,,,,,,,,,,,,,,,,,,,,,,,,,,,,,,,,,,,,125,157324,19,Female,1,2024/03/26_11:58:35,YZ,None,
,,,,,,test,1,2,3,1250,4,S,0,right,0.6819435569996131,1,0,,,,,,,,,,,,,,,,,,,,,1,,,,,,,,,,,,,,,,,,,,,,,,,,,,,,,,,,,,,,,,,,,,,,125,157324,19,Female,1,2024/03/26_11:58:35,YZ,None,
,,,,,,test,1,2,3,1250,5,C,1,right,0.4868818039994949,0,0,,,,,,,,,,,,,,,,,,,,,1,,,,,,,,,,,,,,,,,,,,,,,,,,,,,,,,,,,,,,,,,,,,,,125,157324,19,Female,1,2024/03/26_11:58:35,YZ,None,
,,,,,,test,1,2,3,1250,6,F,0,right,0.9765241799996147,1,0,,,,,,,,,,,,,,,,,,,,,1,,,,,,,,,,,,,,,,,,,,,,,,,,,,,,,,,,,,,,,,,,,,,,125,157324,19,Female,1,2024/03/26_11:58:35,YZ,None,
,,,,,,test,1,2,3,1250,7,V,0,left,0.4853209769989917,0,0,,,,,,,,,,,,,,,,,,,,,1,,,,,,,,,,,,,,,,,,,,,,,,,,,,,,,,,,,,,,,,,,,,,,125,157324,19,Female,1,2024/03/26_11:58:35,YZ,None,
,,,,,,test,1,2,3,1250,8,C,1,right,0.7081083100001706,0,0,,,,,,,,,,,,,,,,,,,,,1,,,,,,,,,,,,,,,,,,,,,,,,,,,,,,,,,,,,,,,,,,,,,,125,157324,19,Female,1,2024/03/26_11:58:35,YZ,None,
,,,,,,test,1,2,3,1250,9,F,1,right,0.4287051400006021,0,0,,,,,,,,,,,,,,,,,,,,,1,,,,,,,,,,,,,,,,,,,,,,,,,,,,,,,,,,,,,,,,,,,,,,125,157324,19,Female,1,2024/03/26_11:58:35,YZ,None,
,,,,,,test,1,2,3,1250,10,S,0,right,0.822776838000209,1,0,,,,,,,,,,,,,,,,,,,,,1,,,,,,,,,,,,,,,,,,,,,,,,,,,,,,,,,,,,,,,,,,,,,,125,157324,19,Female,1,2024/03/26_11:58:35,YZ,None,
,,,,,,Test,1,2,3,1250,,,,,,,,0.2142857142857143,0.0,0.14285714285714285,0.8571428571428571,0.0,0.8571428571428572,0.6017302376998487,0,1,0,0,0,6,6,3,7,0,,,,1,,,,,,,,,,,,,,,,,,,,,,,,,,,,,,,,,,,,,,,,,,,,,,125,157324,19,Female,1,2024/03/26_11:58:35,YZ,None,
,,,,,240326_130957,TEST,1,2,3,1250,,,,,,,,,,,,,,,,,,,,,,,,,,,,1,2,2,2,cue2.png,hard,A,47,1.3977921360001346,0,1010.8849673749992,1012.2996238439991,,,,,,,,,,,,,,,,,,,,,,,,,,,,,,,,,,,125,157324,19,Female,1,2024/03/26_11:58:35,YZ,None,
,,,,,,test,1,3,1,1250,1,F,0,right,0.49287986700073816,1,0,,,,,,,,,,,,,,,,,,,,,1,,,,,,,,,,,,,,,,,,,,,,,,,,,,,,,,,,,,,,,,,,,,,,125,157324,19,Female,1,2024/03/26_11:58:35,YZ,None,
,,,,,,test,1,3,1,1250,2,X,0,right,0.45019524000053934,1,0,,,,,,,,,,,,,,,,,,,,,1,,,,,,,,,,,,,,,,,,,,,,,,,,,,,,,,,,,,,,,,,,,,,,125,157324,19,Female,1,2024/03/26_11:58:35,YZ,None,
,,,,,,test,1,3,1,1250,3,C,0,right,0.4169239759994525,1,0,,,,,,,,,,,,,,,,,,,,,1,,,,,,,,,,,,,,,,,,,,,,,,,,,,,,,,,,,,,,,,,,,,,,125,157324,19,Female,1,2024/03/26_11:58:35,YZ,None,
,,,,,,test,1,3,1,1250,4,X,0,right,0.6430284819998633,1,0,,,,,,,,,,,,,,,,,,,,,1,,,,,,,,,,,,,,,,,,,,,,,,,,,,,,,,,,,,,,,,,,,,,,125,157324,19,Female,1,2024/03/26_11:58:35,YZ,None,
,,,,,,test,1,3,1,1250,5,X,1,left,0.6093171849988721,1,0,,,,,,,,,,,,,,,,,,,,,1,,,,,,,,,,,,,,,,,,,,,,,,,,,,,,,,,,,,,,,,,,,,,,125,157324,19,Female,1,2024/03/26_11:58:35,YZ,None,
,,,,,,test,1,3,1,1250,6,J,0,right,0.4292103390016564,1,0,,,,,,,,,,,,,,,,,,,,,1,,,,,,,,,,,,,,,,,,,,,,,,,,,,,,,,,,,,,,,,,,,,,,125,157324,19,Female,1,2024/03/26_11:58:35,YZ,None,
,,,,,,test,1,3,1,1250,7,J,1,left,0.46869415500077594,1,0,,,,,,,,,,,,,,,,,,,,,1,,,,,,,,,,,,,,,,,,,,,,,,,,,,,,,,,,,,,,,,,,,,,,125,157324,19,Female,1,2024/03/26_11:58:35,YZ,None,
,,,,,,test,1,3,1,1250,8,C,0,right,0.6107737509992148,1,0,,,,,,,,,,,,,,,,,,,,,1,,,,,,,,,,,,,,,,,,,,,,,,,,,,,,,,,,,,,,,,,,,,,,125,157324,19,Female,1,2024/03/26_11:58:35,YZ,None,
,,,,,,test,1,3,1,1250,9,F,0,right,0.44280663700010336,1,0,,,,,,,,,,,,,,,,,,,,,1,,,,,,,,,,,,,,,,,,,,,,,,,,,,,,,,,,,,,,,,,,,,,,125,157324,19,Female,1,2024/03/26_11:58:35,YZ,None,
,,,,,,test,1,3,1,1250,10,F,1,left,0.41189978100010194,1,0,,,,,,,,,,,,,,,,,,,,,1,,,,,,,,,,,,,,,,,,,,,,,,,,,,,,,,,,,,,,,,,,,,,,125,157324,19,Female,1,2024/03/26_11:58:35,YZ,None,
,,,,,,Test,1,3,1,1250,,,,,,,,1.0,1.0,0.0,1.0,0.0,1.0,0.4975729413001318,3,0,0,0,0,7,10,3,7,0,,,,1,,,,,,,,,,,,,,,,,,,,,,,,,,,,,,,,,,,,,,,,,,,,,,125,157324,19,Female,1,2024/03/26_11:58:35,YZ,None,
,,,,,240326_131018,TEST,1,3,1,1250,,,,,,,,,,,,,,,,,,,,,,,,,,,,1,3,3,3,cue1.png,easy,A,52,2.031981848000214,0,1032.6832841939995,1034.7407416299993,,,,,,,,,,,,,,,,,,,,,,,,,,,,,,,,,,,125,157324,19,Female,1,2024/03/26_11:58:35,YZ,None,
,,,,,,test,1,4,3,1250,1,C,0,right,0.3703004159997363,1,0,,,,,,,,,,,,,,,,,,,,,1,,,,,,,,,,,,,,,,,,,,,,,,,,,,,,,,,,,,,,,,,,,,,,125,157324,19,Female,1,2024/03/26_11:58:35,YZ,None,
,,,,,,test,1,4,3,1250,2,N,0,right,0.43291416500142077,1,0,,,,,,,,,,,,,,,,,,,,,1,,,,,,,,,,,,,,,,,,,,,,,,,,,,,,,,,,,,,,,,,,,,,,125,157324,19,Female,1,2024/03/26_11:58:35,YZ,None,
,,,,,,test,1,4,3,1250,3,N,0,right,0.630048834000263,1,0,,,,,,,,,,,,,,,,,,,,,1,,,,,,,,,,,,,,,,,,,,,,,,,,,,,,,,,,,,,,,,,,,,,,125,157324,19,Female,1,2024/03/26_11:58:35,YZ,None,
,,,,,,test,1,4,3,1250,4,J,0,right,0.4792143720005697,1,0,,,,,,,,,,,,,,,,,,,,,1,,,,,,,,,,,,,,,,,,,,,,,,,,,,,,,,,,,,,,,,,,,,,,125,157324,19,Female,1,2024/03/26_11:58:35,YZ,None,
,,,,,,test,1,4,3,1250,5,V,0,right,0.6062345600003027,1,0,,,,,,,,,,,,,,,,,,,,,1,,,,,,,,,,,,,,,,,,,,,,,,,,,,,,,,,,,,,,,,,,,,,,125,157324,19,Female,1,2024/03/26_11:58:35,YZ,None,
,,,,,,test,1,4,3,1250,6,N,1,left,0.22279567500117992,1,0,,,,,,,,,,,,,,,,,,,,,1,,,,,,,,,,,,,,,,,,,,,,,,,,,,,,,,,,,,,,,,,,,,,,125,157324,19,Female,1,2024/03/26_11:58:35,YZ,None,
,,,,,,test,1,4,3,1250,7,F,0,right,0.5241288130000612,1,0,,,,,,,,,,,,,,,,,,,,,1,,,,,,,,,,,,,,,,,,,,,,,,,,,,,,,,,,,,,,,,,,,,,,125,157324,19,Female,1,2024/03/26_11:58:35,YZ,None,
,,,,,,test,1,4,3,1250,8,V,1,right,0.4776046139995742,0,0,,,,,,,,,,,,,,,,,,,,,1,,,,,,,,,,,,,,,,,,,,,,,,,,,,,,,,,,,,,,,,,,,,,,125,157324,19,Female,1,2024/03/26_11:58:35,YZ,None,
,,,,,,test,1,4,3,1250,9,X,0,right,1.8302849550000246,1,0,,,,,,,,,,,,,,,,,,,,,1,,,,,,,,,,,,,,,,,,,,,,,,,,,,,,,,,,,,,,,,,,,,,,125,157324,19,Female,1,2024/03/26_11:58:35,YZ,None,
,,,,,,test,1,4,3,1250,10,F,1,left,0.7747014809992834,1,0,,,,,,,,,,,,,,,,,,,,,1,,,,,,,,,,,,,,,,,,,,,,,,,,,,,,,,,,,,,,,,,,,,,,125,157324,19,Female,1,2024/03/26_11:58:35,YZ,None,
,,,,,,Test,1,4,3,1250,,,,,,,,0.9166666666666666,0.6666666666666666,0.0,1.0,0.0,1.0,0.6348227885002415,2,0,0,0,0,7,9,3,7,0,,,,1,,,,,,,,,,,,,,,,,,,,,,,,,,,,,,,,,,,,,,,,,,,,,,125,157324,19,Female,1,2024/03/26_11:58:35,YZ,None,
,,,,,240326_131041,TEST,1,4,3,1250,,,,,,,,,,,,,,,,,,,,,,,,,,,,1,4,4,4,cue2.png,hard,A,47,1.9164185059999,0,1054.0654467879995,1055.9983028779989,,,,,,,,,,,,,,,,,,,,,,,,,,,,,,,,,,,125,157324,19,Female,1,2024/03/26_11:58:35,YZ,None,
,,,,,,test,1,5,3,1250,1,V,0,right,0.3692700669998885,1,0,,,,,,,,,,,,,,,,,,,,,1,,,,,,,,,,,,,,,,,,,,,,,,,,,,,,,,,,,,,,,,,,,,,,125,157324,19,Female,1,2024/03/26_11:58:35,YZ,None,
,,,,,,test,1,5,3,1250,2,V,0,right,0.609422731999075,1,0,,,,,,,,,,,,,,,,,,,,,1,,,,,,,,,,,,,,,,,,,,,,,,,,,,,,,,,,,,,,,,,,,,,,125,157324,19,Female,1,2024/03/26_11:58:35,YZ,None,
,,,,,,test,1,5,3,1250,3,Q,0,right,0.5199524780000502,1,0,,,,,,,,,,,,,,,,,,,,,1,,,,,,,,,,,,,,,,,,,,,,,,,,,,,,,,,,,,,,,,,,,,,,125,157324,19,Female,1,2024/03/26_11:58:35,YZ,None,
,,,,,,test,1,5,3,1250,4,N,0,right,0.5594172629989771,1,0,,,,,,,,,,,,,,,,,,,,,1,,,,,,,,,,,,,,,,,,,,,,,,,,,,,,,,,,,,,,,,,,,,,,125,157324,19,Female,1,2024/03/26_11:58:35,YZ,None,
,,,,,,test,1,5,3,1250,5,Q,0,right,0.6243297240016545,1,0,,,,,,,,,,,,,,,,,,,,,1,,,,,,,,,,,,,,,,,,,,,,,,,,,,,,,,,,,,,,,,,,,,,,125,157324,19,Female,1,2024/03/26_11:58:35,YZ,None,
,,,,,,test,1,5,3,1250,6,Q,1,left,0.4760230709998723,1,0,,,,,,,,,,,,,,,,,,,,,1,,,,,,,,,,,,,,,,,,,,,,,,,,,,,,,,,,,,,,,,,,,,,,125,157324,19,Female,1,2024/03/26_11:58:35,YZ,None,
,,,,,,test,1,5,3,1250,7,C,0,right,0.6053417030016135,1,0,,,,,,,,,,,,,,,,,,,,,1,,,,,,,,,,,,,,,,,,,,,,,,,,,,,,,,,,,,,,,,,,,,,,125,157324,19,Female,1,2024/03/26_11:58:35,YZ,None,
,,,,,,test,1,5,3,1250,8,N,0,left,0.5784366280004178,0,0,,,,,,,,,,,,,,,,,,,,,1,,,,,,,,,,,,,,,,,,,,,,,,,,,,,,,,,,,,,,,,,,,,,,125,157324,19,Female,1,2024/03/26_11:58:35,YZ,None,
,,,,,,test,1,5,3,1250,9,Q,1,right,0.5426217320000433,0,0,,,,,,,,,,,,,,,,,,,,,1,,,,,,,,,,,,,,,,,,,,,,,,,,,,,,,,,,,,,,,,,,,,,,125,157324,19,Female,1,2024/03/26_11:58:35,YZ,None,
,,,,,,test,1,5,3,1250,10,C,1,right,0.48269273600089946,0,0,,,,,,,,,,,,,,,,,,,,,1,,,,,,,,,,,,,,,,,,,,,,,,,,,,,,,,,,,,,,,,,,,,,,125,157324,19,Female,1,2024/03/26_11:58:35,YZ,None,
,,,,,,Test,1,5,3,1250,,,,,,,,0.6904761904761906,0.3333333333333333,0.14285714285714285,0.8571428571428571,0.0,0.8571428571428572,0.5367508134002492,1,1,0,0,0,6,7,3,7,0,,,,1,,,,,,,,,,,,,,,,,,,,,,,,,,,,,,,,,,,,,,,,,,,,,,125,157324,19,Female,1,2024/03/26_11:58:35,YZ,None,
,,,,,240326_131102,TEST,1,5,3,1250,,,,,,,,,,,,,,,,,,,,,,,,,,,,1,5,5,5,cue2.png,hard,A,46,1.5291177199997037,0,1076.715760813,1078.2564390789994,,,,,,,,,,,,,,,,,,,,,,,,,,,,,,,,,,,125,157324,19,Female,1,2024/03/26_11:58:35,YZ,None,
,,,,,,test,1,6,1,1250,1,S,0,right,0.5484787999994296,1,0,,,,,,,,,,,,,,,,,,,,,1,,,,,,,,,,,,,,,,,,,,,,,,,,,,,,,,,,,,,,,,,,,,,,125,157324,19,Female,1,2024/03/26_11:58:35,YZ,None,
,,,,,,test,1,6,1,1250,2,Q,0,right,0.37024556699907407,1,0,,,,,,,,,,,,,,,,,,,,,1,,,,,,,,,,,,,,,,,,,,,,,,,,,,,,,,,,,,,,,,,,,,,,125,157324,19,Female,1,2024/03/26_11:58:35,YZ,None,
,,,,,,test,1,6,1,1250,3,V,0,right,0.41779441600010614,1,0,,,,,,,,,,,,,,,,,,,,,1,,,,,,,,,,,,,,,,,,,,,,,,,,,,,,,,,,,,,,,,,,,,,,125,157324,19,Female,1,2024/03/26_11:58:35,YZ,None,
,,,,,,test,1,6,1,1250,4,X,0,right,0.45732353499988676,1,0,,,,,,,,,,,,,,,,,,,,,1,,,,,,,,,,,,,,,,,,,,,,,,,,,,,,,,,,,,,,,,,,,,,,125,157324,19,Female,1,2024/03/26_11:58:35,YZ,None,
,,,,,,test,1,6,1,1250,5,X,1,left,0.3937792039996566,1,0,,,,,,,,,,,,,,,,,,,,,1,,,,,,,,,,,,,,,,,,,,,,,,,,,,,,,,,,,,,,,,,,,,,,125,157324,19,Female,1,2024/03/26_11:58:35,YZ,None,
,,,,,,test,1,6,1,1250,6,S,0,right,0.5257504090004659,1,0,,,,,,,,,,,,,,,,,,,,,1,,,,,,,,,,,,,,,,,,,,,,,,,,,,,,,,,,,,,,,,,,,,,,125,157324,19,Female,1,2024/03/26_11:58:35,YZ,None,
,,,,,,test,1,6,1,1250,7,X,0,right,0.7346121170012339,1,0,,,,,,,,,,,,,,,,,,,,,1,,,,,,,,,,,,,,,,,,,,,,,,,,,,,,,,,,,,,,,,,,,,,,125,157324,19,Female,1,2024/03/26_11:58:35,YZ,None,
,,,,,,test,1,6,1,1250,8,X,1,left,0.3738436419989739,1,0,,,,,,,,,,,,,,,,,,,,,1,,,,,,,,,,,,,,,,,,,,,,,,,,,,,,,,,,,,,,,,,,,,,,125,157324,19,Female,1,2024/03/26_11:58:35,YZ,None,
,,,,,,test,1,6,1,1250,9,C,0,right,0.4571949439996388,1,0,,,,,,,,,,,,,,,,,,,,,1,,,,,,,,,,,,,,,,,,,,,,,,,,,,,,,,,,,,,,,,,,,,,,125,157324,19,Female,1,2024/03/26_11:58:35,YZ,None,
,,,,,,test,1,6,1,1250,10,C,1,left,0.5240203930006828,1,0,,,,,,,,,,,,,,,,,,,,,1,,,,,,,,,,,,,,,,,,,,,,,,,,,,,,,,,,,,,,,,,,,,,,125,157324,19,Female,1,2024/03/26_11:58:35,YZ,None,
,,,,,,Test,1,6,1,1250,,,,,,,,1.0,1.0,0.0,1.0,0.0,1.0,0.48030430269991486,3,0,0,0,0,7,10,3,7,0,,,,1,,,,,,,,,,,,,,,,,,,,,,,,,,,,,,,,,,,,,,,,,,,,,,125,157324,19,Female,1,2024/03/26_11:58:35,YZ,None,
,,,,,240326_131123,TEST,1,6,1,1250,,,,,,,,,,,,,,,,,,,,,,,,,,,,1,6,6,6,cue1.png,easy,A,54,1.8709558560003643,0,1097.9873859300005,1099.872928241999,,,,,,,,,,,,,,,,,,,,,,,,,,,,,,,,,,,125,157324,19,Female,1,2024/03/26_11:58:35,YZ,None,
,,,,,,test,1,7,3,1250,1,Q,0,right,0.3514352570000483,1,0,,,,,,,,,,,,,,,,,,,,,1,,,,,,,,,,,,,,,,,,,,,,,,,,,,,,,,,,,,,,,,,,,,,,125,157324,19,Female,1,2024/03/26_11:58:35,YZ,None,
,,,,,,test,1,7,3,1250,2,J,0,right,0.615650198998992,1,0,,,,,,,,,,,,,,,,,,,,,1,,,,,,,,,,,,,,,,,,,,,,,,,,,,,,,,,,,,,,,,,,,,,,125,157324,19,Female,1,2024/03/26_11:58:35,YZ,None,
,,,,,,test,1,7,3,1250,3,J,0,right,0.5120109900017269,1,0,,,,,,,,,,,,,,,,,,,,,1,,,,,,,,,,,,,,,,,,,,,,,,,,,,,,,,,,,,,,,,,,,,,,125,157324,19,Female,1,2024/03/26_11:58:35,YZ,None,
,,,,,,test,1,7,3,1250,4,Q,1,right,0.7919251809998968,0,0,,,,,,,,,,,,,,,,,,,,,1,,,,,,,,,,,,,,,,,,,,,,,,,,,,,,,,,,,,,,,,,,,,,,125,157324,19,Female,1,2024/03/26_11:58:35,YZ,None,
,,,,,,test,1,7,3,1250,5,X,0,right,0.5957723610008543,1,0,,,,,,,,,,,,,,,,,,,,,1,,,,,,,,,,,,,,,,,,,,,,,,,,,,,,,,,,,,,,,,,,,,,,125,157324,19,Female,1,2024/03/26_11:58:35,YZ,None,
,,,,,,test,1,7,3,1250,6,J,1,left,0.32812950200059277,1,0,,,,,,,,,,,,,,,,,,,,,1,,,,,,,,,,,,,,,,,,,,,,,,,,,,,,,,,,,,,,,,,,,,,,125,157324,19,Female,1,2024/03/26_11:58:35,YZ,None,
,,,,,,test,1,7,3,1250,7,Q,1,right,0.5301584509998065,0,0,,,,,,,,,,,,,,,,,,,,,1,,,,,,,,,,,,,,,,,,,,,,,,,,,,,,,,,,,,,,,,,,,,,,125,157324,19,Female,1,2024/03/26_11:58:35,YZ,None,
,,,,,,test,1,7,3,1250,8,Q,0,right,0.43332881000060297,1,0,,,,,,,,,,,,,,,,,,,,,1,,,,,,,,,,,,,,,,,,,,,,,,,,,,,,,,,,,,,,,,,,,,,,125,157324,19,Female,1,2024/03/26_11:58:35,YZ,None,
,,,,,,test,1,7,3,1250,9,F,0,left,0.480759454998406,0,0,,,,,,,,,,,,,,,,,,,,,1,,,,,,,,,,,,,,,,,,,,,,,,,,,,,,,,,,,,,,,,,,,,,,125,157324,19,Female,1,2024/03/26_11:58:35,YZ,None,
,,,,,,test,1,7,3,1250,10,N,0,right,0.5970579090007959,1,0,,,,,,,,,,,,,,,,,,,,,1,,,,,,,,,,,,,,,,,,,,,,,,,,,,,,,,,,,,,,,,,,,,,,125,157324,19,Female,1,2024/03/26_11:58:35,YZ,None,
,,,,,,Test,1,7,3,1250,,,,,,,,0.6904761904761906,0.3333333333333333,0.14285714285714285,0.8571428571428571,0.0,0.8571428571428572,0.5236228115001722,1,1,0,0,0,6,7,3,7,0,,,,1,,,,,,,,,,,,,,,,,,,,,,,,,,,,,,,,,,,,,,,,,,,,,,125,157324,19,Female,1,2024/03/26_11:58:35,YZ,None,
,,,,,240326_131145,TEST,1,7,3,1250,,,,,,,,,,,,,,,,,,,,,,,,,,,,1,7,7,7,cue2.png,hard,A,46,1.6474826769990614,0,1119.0457254199991,1120.7050598379992,,,,,,,,,,,,,,,,,,,,,,,,,,,,,,,,,,,125,157324,19,Female,1,2024/03/26_11:58:35,YZ,None,
,,,,,,test,1,8,3,1250,1,C,0,right,0.47634634699898015,1,0,,,,,,,,,,,,,,,,,,,,,1,,,,,,,,,,,,,,,,,,,,,,,,,,,,,,,,,,,,,,,,,,,,,,125,157324,19,Female,1,2024/03/26_11:58:35,YZ,None,
,,,,,,test,1,8,3,1250,2,J,0,right,0.6331015819996537,1,0,,,,,,,,,,,,,,,,,,,,,1,,,,,,,,,,,,,,,,,,,,,,,,,,,,,,,,,,,,,,,,,,,,,,125,157324,19,Female,1,2024/03/26_11:58:35,YZ,None,
,,,,,,test,1,8,3,1250,3,C,0,right,0.6312514340006601,1,0,,,,,,,,,,,,,,,,,,,,,1,,,,,,,,,,,,,,,,,,,,,,,,,,,,,,,,,,,,,,,,,,,,,,125,157324,19,Female,1,2024/03/26_11:58:35,YZ,None,
,,,,,,test,1,8,3,1250,4,J,0,right,0.6908056159991247,1,0,,,,,,,,,,,,,,,,,,,,,1,,,,,,,,,,,,,,,,,,,,,,,,,,,,,,,,,,,,,,,,,,,,,,125,157324,19,Female,1,2024/03/26_11:58:35,YZ,None,
,,,,,,test,1,8,3,1250,5,J,1,left,0.564026219999505,1,0,,,,,,,,,,,,,,,,,,,,,1,,,,,,,,,,,,,,,,,,,,,,,,,,,,,,,,,,,,,,,,,,,,,,125,157324,19,Female,1,2024/03/26_11:58:35,YZ,None,
,,,,,,test,1,8,3,1250,6,C,1,right,0.46253832599904854,0,0,,,,,,,,,,,,,,,,,,,,,1,,,,,,,,,,,,,,,,,,,,,,,,,,,,,,,,,,,,,,,,,,,,,,125,157324,19,Female,1,2024/03/26_11:58:35,YZ,None,
,,,,,,test,1,8,3,1250,7,V,0,right,0.5565688189999491,1,0,,,,,,,,,,,,,,,,,,,,,1,,,,,,,,,,,,,,,,,,,,,,,,,,,,,,,,,,,,,,,,,,,,,,125,157324,19,Female,1,2024/03/26_11:58:35,YZ,None,
,,,,,,test,1,8,3,1250,8,C,0,left,0.5125177160007297,0,0,,,,,,,,,,,,,,,,,,,,,1,,,,,,,,,,,,,,,,,,,,,,,,,,,,,,,,,,,,,,,,,,,,,,125,157324,19,Female,1,2024/03/26_11:58:35,YZ,None,
,,,,,,test,1,8,3,1250,9,S,0,right,0.4569010649993288,1,0,,,,,,,,,,,,,,,,,,,,,1,,,,,,,,,,,,,,,,,,,,,,,,,,,,,,,,,,,,,,,,,,,,,,125,157324,19,Female,1,2024/03/26_11:58:35,YZ,None,
,,,,,,test,1,8,3,1250,10,V,1,right,0.8106338979996508,0,0,,,,,,,,,,,,,,,,,,,,,1,,,,,,,,,,,,,,,,,,,,,,,,,,,,,,,,,,,,,,,,,,,,,,125,157324,19,Female,1,2024/03/26_11:58:35,YZ,None,
,,,,,,Test,1,8,3,1250,,,,,,,,0.6904761904761906,0.3333333333333333,0.14285714285714285,0.8571428571428571,0.0,0.8571428571428572,0.5794691022996631,1,1,0,0,0,6,7,3,7,0,,,,1,,,,,,,,,,,,,,,,,,,,,,,,,,,,,,,,,,,,,,,,,,,,,,125,157324,19,Female,1,2024/03/26_11:58:35,YZ,None,
,,,,,240326_131207,TEST,1,8,3,1250,,,,,,,,,,,,,,,,,,,,,,,,,,,,1,8,8,8,cue2.png,hard,A,47,1.8788874239999132,0,1140.3357103130002,1142.2346814840002,,,,,,,,,,,,,,,,,,,,,,,,,,,,,,,,,,,125,157324,19,Female,1,2024/03/26_11:58:35,YZ,None,
,,,,,,test,1,9,1,1250,1,J,0,right,0.46460572499927366,1,0,,,,,,,,,,,,,,,,,,,,,1,,,,,,,,,,,,,,,,,,,,,,,,,,,,,,,,,,,,,,,,,,,,,,125,157324,19,Female,1,2024/03/26_11:58:35,YZ,None,
,,,,,,test,1,9,1,1250,2,J,1,left,0.8996894400006568,1,0,,,,,,,,,,,,,,,,,,,,,1,,,,,,,,,,,,,,,,,,,,,,,,,,,,,,,,,,,,,,,,,,,,,,125,157324,19,Female,1,2024/03/26_11:58:35,YZ,None,
,,,,,,test,1,9,1,1250,3,F,0,right,0.5411074109997571,1,0,,,,,,,,,,,,,,,,,,,,,1,,,,,,,,,,,,,,,,,,,,,,,,,,,,,,,,,,,,,,,,,,,,,,125,157324,19,Female,1,2024/03/26_11:58:35,YZ,None,
,,,,,,test,1,9,1,1250,4,F,1,left,0.47129075300108525,1,0,,,,,,,,,,,,,,,,,,,,,1,,,,,,,,,,,,,,,,,,,,,,,,,,,,,,,,,,,,,,,,,,,,,,125,157324,19,Female,1,2024/03/26_11:58:35,YZ,None,
,,,,,,test,1,9,1,1250,5,N,0,right,0.6105411289991025,1,0,,,,,,,,,,,,,,,,,,,,,1,,,,,,,,,,,,,,,,,,,,,,,,,,,,,,,,,,,,,,,,,,,,,,125,157324,19,Female,1,2024/03/26_11:58:35,YZ,None,
,,,,,,test,1,9,1,1250,6,F,0,right,0.6112034859997948,1,0,,,,,,,,,,,,,,,,,,,,,1,,,,,,,,,,,,,,,,,,,,,,,,,,,,,,,,,,,,,,,,,,,,,,125,157324,19,Female,1,2024/03/26_11:58:35,YZ,None,
,,,,,,test,1,9,1,1250,7,J,0,right,0.5575840180008527,1,0,,,,,,,,,,,,,,,,,,,,,1,,,,,,,,,,,,,,,,,,,,,,,,,,,,,,,,,,,,,,,,,,,,,,125,157324,19,Female,1,2024/03/26_11:58:35,YZ,None,
,,,,,,test,1,9,1,1250,8,J,1,left,0.35784927300119307,1,0,,,,,,,,,,,,,,,,,,,,,1,,,,,,,,,,,,,,,,,,,,,,,,,,,,,,,,,,,,,,,,,,,,,,125,157324,19,Female,1,2024/03/26_11:58:35,YZ,None,
,,,,,,test,1,9,1,1250,9,F,0,right,0.550212095000461,1,0,,,,,,,,,,,,,,,,,,,,,1,,,,,,,,,,,,,,,,,,,,,,,,,,,,,,,,,,,,,,,,,,,,,,125,157324,19,Female,1,2024/03/26_11:58:35,YZ,None,
,,,,,,test,1,9,1,1250,10,Q,0,right,0.7756104069994763,1,0,,,,,,,,,,,,,,,,,,,,,1,,,,,,,,,,,,,,,,,,,,,,,,,,,,,,,,,,,,,,,,,,,,,,125,157324,19,Female,1,2024/03/26_11:58:35,YZ,None,
,,,,,,Test,1,9,1,1250,,,,,,,,1.0,1.0,0.0,1.0,0.0,1.0,0.5839693737001653,3,0,0,0,0,7,10,3,7,0,,,,1,,,,,,,,,,,,,,,,,,,,,,,,,,,,,,,,,,,,,,,,,,,,,,125,157324,19,Female,1,2024/03/26_11:58:35,YZ,None,
,,,,,240326_131228,TEST,1,9,1,1250,,,,,,,,,,,,,,,,,,,,,,,,,,,,1,9,9,9,cue1.png,easy,A,50,0.9616096499994455,0,1162.4114467620002,1163.3852474510004,,,,,,,,,,,,,,,,,,,,,,,,,,,,,,,,,,,125,157324,19,Female,1,2024/03/26_11:58:35,YZ,None,
,,,,,,test,1,10,1,1250,1,X,0,right,0.4754688459997851,1,0,,,,,,,,,,,,,,,,,,,,,1,,,,,,,,,,,,,,,,,,,,,,,,,,,,,,,,,,,,,,,,,,,,,,125,157324,19,Female,1,2024/03/26_11:58:35,YZ,None,
,,,,,,test,1,10,1,1250,2,X,1,left,0.5411482859999523,1,0,,,,,,,,,,,,,,,,,,,,,1,,,,,,,,,,,,,,,,,,,,,,,,,,,,,,,,,,,,,,,,,,,,,,125,157324,19,Female,1,2024/03/26_11:58:35,YZ,None,
,,,,,,test,1,10,1,1250,3,Q,0,right,0.47725613199872896,1,0,,,,,,,,,,,,,,,,,,,,,1,,,,,,,,,,,,,,,,,,,,,,,,,,,,,,,,,,,,,,,,,,,,,,125,157324,19,Female,1,2024/03/26_11:58:35,YZ,None,
,,,,,,test,1,10,1,1250,4,J,0,right,0.5412367389999417,1,0,,,,,,,,,,,,,,,,,,,,,1,,,,,,,,,,,,,,,,,,,,,,,,,,,,,,,,,,,,,,,,,,,,,,125,157324,19,Female,1,2024/03/26_11:58:35,YZ,None,
,,,,,,test,1,10,1,1250,5,J,1,left,0.5778104630007874,1,0,,,,,,,,,,,,,,,,,,,,,1,,,,,,,,,,,,,,,,,,,,,,,,,,,,,,,,,,,,,,,,,,,,,,125,157324,19,Female,1,2024/03/26_11:58:35,YZ,None,
,,,,,,test,1,10,1,1250,6,F,0,right,0.6575785069999256,1,0,,,,,,,,,,,,,,,,,,,,,1,,,,,,,,,,,,,,,,,,,,,,,,,,,,,,,,,,,,,,,,,,,,,,125,157324,19,Female,1,2024/03/26_11:58:35,YZ,None,
,,,,,,test,1,10,1,1250,7,X,0,right,0.4931257860007463,1,0,,,,,,,,,,,,,,,,,,,,,1,,,,,,,,,,,,,,,,,,,,,,,,,,,,,,,,,,,,,,,,,,,,,,125,157324,19,Female,1,2024/03/26_11:58:35,YZ,None,
,,,,,,test,1,10,1,1250,8,X,1,left,0.43532987700018566,1,0,,,,,,,,,,,,,,,,,,,,,1,,,,,,,,,,,,,,,,,,,,,,,,,,,,,,,,,,,,,,,,,,,,,,125,157324,19,Female,1,2024/03/26_11:58:35,YZ,None,
,,,,,,test,1,10,1,1250,9,J,0,right,0.5161440470001253,1,0,,,,,,,,,,,,,,,,,,,,,1,,,,,,,,,,,,,,,,,,,,,,,,,,,,,,,,,,,,,,,,,,,,,,125,157324,19,Female,1,2024/03/26_11:58:35,YZ,None,
,,,,,,test,1,10,1,1250,10,F,0,right,0.5748771830003534,1,0,,,,,,,,,,,,,,,,,,,,,1,,,,,,,,,,,,,,,,,,,,,,,,,,,,,,,,,,,,,,,,,,,,,,125,157324,19,Female,1,2024/03/26_11:58:35,YZ,None,
,,,,,,Test,1,10,1,1250,,,,,,,,1.0,1.0,0.0,1.0,0.0,1.0,0.5289975866000531,3,0,0,0,0,7,10,3,7,0,,,,1,,,,,,,,,,,,,,,,,,,,,,,,,,,,,,,,,,,,,,,,,,,,,,125,157324,19,Female,1,2024/03/26_11:58:35,YZ,None,
,,,,,240326_131249,TEST,1,10,1,1250,,,,,,,,,,,,,,,,,,,,,,,,,,,,1,10,10,10,cue1.png,easy,A,51,1.3007130309997592,0,1183.609176464999,1184.926325982,,,,,,,,,,,,,,,,,,,,,,,,,,,,,,,,,,,125,157324,19,Female,1,2024/03/26_11:58:35,YZ,None,
,,,,,,test,1,11,3,1250,1,N,0,right,0.664028129000144,1,0,,,,,,,,,,,,,,,,,,,,,1,,,,,,,,,,,,,,,,,,,,,,,,,,,,,,,,,,,,,,,,,,,,,,125,157324,19,Female,1,2024/03/26_11:58:35,YZ,None,
,,,,,,test,1,11,3,1250,2,V,0,right,0.3505298469990521,1,0,,,,,,,,,,,,,,,,,,,,,1,,,,,,,,,,,,,,,,,,,,,,,,,,,,,,,,,,,,,,,,,,,,,,125,157324,19,Female,1,2024/03/26_11:58:35,YZ,None,
,,,,,,test,1,11,3,1250,3,X,0,right,0.5121254860005138,1,0,,,,,,,,,,,,,,,,,,,,,1,,,,,,,,,,,,,,,,,,,,,,,,,,,,,,,,,,,,,,,,,,,,,,125,157324,19,Female,1,2024/03/26_11:58:35,YZ,None,
,,,,,,test,1,11,3,1250,4,N,1,right,0.4441413820004527,0,0,,,,,,,,,,,,,,,,,,,,,1,,,,,,,,,,,,,,,,,,,,,,,,,,,,,,,,,,,,,,,,,,,,,,125,157324,19,Female,1,2024/03/26_11:58:35,YZ,None,
,,,,,,test,1,11,3,1250,5,V,1,left,0.6581982600000629,1,0,,,,,,,,,,,,,,,,,,,,,1,,,,,,,,,,,,,,,,,,,,,,,,,,,,,,,,,,,,,,,,,,,,,,125,157324,19,Female,1,2024/03/26_11:58:35,YZ,None,
,,,,,,test,1,11,3,1250,6,Q,0,right,0.4231413369998336,1,0,,,,,,,,,,,,,,,,,,,,,1,,,,,,,,,,,,,,,,,,,,,,,,,,,,,,,,,,,,,,,,,,,,,,125,157324,19,Female,1,2024/03/26_11:58:35,YZ,None,
,,,,,,test,1,11,3,1250,7,C,0,right,0.5928539249998721,1,0,,,,,,,,,,,,,,,,,,,,,1,,,,,,,,,,,,,,,,,,,,,,,,,,,,,,,,,,,,,,,,,,,,,,125,157324,19,Female,1,2024/03/26_11:58:35,YZ,None,
,,,,,,test,1,11,3,1250,8,J,0,right,0.6630810879996716,1,0,,,,,,,,,,,,,,,,,,,,,1,,,,,,,,,,,,,,,,,,,,,,,,,,,,,,,,,,,,,,,,,,,,,,125,157324,19,Female,1,2024/03/26_11:58:35,YZ,None,
