Instruction,Stimulus,Key,RT,START,END,Phase,Block,TrialN,NbackLevel,ISI,LetterN,Letter,Letter_isSame,Letter_Resp,Letter_RT,Letter_Accuracy,Letter_Timeout,Trial_A_measure,Trial_HR,Trial_FAR,Trial_CDR,Trial_MSR,Trial_ACC,Trial_RT,Trial_HitsCount,Trial_FAsCount,Trial_SameNoRespCount,Trial_DiffNoRespCount,Trial_NoRespCount,Trial_CDsCount,Trial_CorrectRespCount,Trial_SameLetterCount,Trial_DiffLetterCount,Trial_InvalidLetterCount,TrialCountCali,CaliEnd_A_measure,ISI_calibrated,Run,TrialIndex,TrialNumber_total,TrialNumber_valid,CueLearning,TrialDemandLearning,CueMapping,OnlineRating,OnlineRatingRT,OnlineRatingTimeOut,CueSTART,RatingSTART,OfflineRatingTimePoint,OfflineRatingQuesIndex,CueFigure,TrialDemand,OfflineRating,OfflineRatingRT,CueStart,OfflineRatingStart,PhaseType,CueLeft,CueDemandLeft,CueRight,CueDemandRight,Choice,ChoiceDemand,TaskDemand,ChoiceRT,ChoiceTimeOut,ChoiceSTART,CueCheck,CueDemandCheck,CorrectAnswer,Answer,AnswerDemand,AnswerRT,AnswerACC,AnswerTimeOut,CheckSTART,DemandRatingQuesIndex,QuesTLX,DemandLevel,DemandRating,DemandRatingRT,QuesStart,PID,SONA,Age,Gender,Run,TIME,EXPERIMENTER,frameRate,
1,./instructions/inst_begin/Slide2.png,right,15.461268165000007,0.2274388859999874,15.688707050999994,,,,,,,,,,,,,,,,,,,,,,,,,,,,,,,,,1,,,,,,,,,,,,,,,,,,,,,,,,,,,,,,,,,,,,,,,,,,,,,,110,159550,18,Male,1,2024/03/21_10:59:08,YZ,None,
2,./instructions/inst_begin/Slide3.png,right,1.7156729890000122,15.741292537999982,17.456965526999994,,,,,,,,,,,,,,,,,,,,,,,,,,,,,,,,,1,,,,,,,,,,,,,,,,,,,,,,,,,,,,,,,,,,,,,,,,,,,,,,110,159550,18,Male,1,2024/03/21_10:59:08,YZ,None,
3,./instructions/inst_begin/Slide4.png,right,2.3510065360000283,17.505837690999982,19.85684422700001,,,,,,,,,,,,,,,,,,,,,,,,,,,,,,,,,1,,,,,,,,,,,,,,,,,,,,,,,,,,,,,,,,,,,,,,,,,,,,,,110,159550,18,Male,1,2024/03/21_10:59:08,YZ,None,
1,./instructions/inst_prac_2/Slide6.png,right,10.387600544999998,20.005019748999985,30.392620293999983,,,,,,,,,,,,,,,,,,,,,,,,,,,,,,,,,1,,,,,,,,,,,,,,,,,,,,,,,,,,,,,,,,,,,,,,,,,,,,,,110,159550,18,Male,1,2024/03/21_10:59:08,YZ,None,
2,./instructions/inst_prac_2/Slide7.png,right,16.008288581999977,30.480479290999995,46.48876787299997,,,,,,,,,,,,,,,,,,,,,,,,,,,,,,,,,1,,,,,,,,,,,,,,,,,,,,,,,,,,,,,,,,,,,,,,,,,,,,,,110,159550,18,Male,1,2024/03/21_10:59:08,YZ,None,
3,./instructions/inst_prac_2/Slide8.png,right,14.032216593999976,46.53654096899999,60.56875756299996,,,,,,,,,,,,,,,,,,,,,,,,,,,,,,,,,1,,,,,,,,,,,,,,,,,,,,,,,,,,,,,,,,,,,,,,,,,,,,,,110,159550,18,Male,1,2024/03/21_10:59:08,YZ,None,
4,./instructions/inst_prac_2/Slide9.png,right,11.857454378,60.623458435999964,72.48091281399996,,,,,,,,,,,,,,,,,,,,,,,,,,,,,,,,,1,,,,,,,,,,,,,,,,,,,,,,,,,,,,,,,,,,,,,,,,,,,,,,110,159550,18,Male,1,2024/03/21_10:59:08,YZ,None,
5,./instructions/inst_prac_2/Slide10.png,right,1.8609452329999954,72.531886961,74.392832194,,,,,,,,,,,,,,,,,,,,,,,,,,,,,,,,,1,,,,,,,,,,,,,,,,,,,,,,,,,,,,,,,,,,,,,,,,,,,,,,110,159550,18,Male,1,2024/03/21_10:59:08,YZ,None,
6,./instructions/inst_prac_2/Slide11.png,right,1.3629494140000133,74.42213400099996,75.78508341499997,,,,,,,,,,,,,,,,,,,,,,,,,,,,,,,,,1,,,,,,,,,,,,,,,,,,,,,,,,,,,,,,,,,,,,,,,,,,,,,,110,159550,18,Male,1,2024/03/21_10:59:08,YZ,None,
7,./instructions/inst_prac_2/Slide12.png,right,1.0057762210000192,75.84294301099999,76.84871923200001,,,,,,,,,,,,,,,,,,,,,,,,,,,,,,,,,1,,,,,,,,,,,,,,,,,,,,,,,,,,,,,,,,,,,,,,,,,,,,,,110,159550,18,Male,1,2024/03/21_10:59:08,YZ,None,
8,./instructions/inst_prac_2/Slide13.png,right,2.228374927999994,76.90033550499999,79.12871043299998,,,,,,,,,,,,,,,,,,,,,,,,,,,,,,,,,1,,,,,,,,,,,,,,,,,,,,,,,,,,,,,,,,,,,,,,,,,,,,,,110,159550,18,Male,1,2024/03/21_10:59:08,YZ,None,
7,./instructions/inst_prac_2/Slide14.png,left,1.2052432720000184,79.17975961799999,80.38500289000001,,,,,,,,,,,,,,,,,,,,,,,,,,,,,,,,,1,,,,,,,,,,,,,,,,,,,,,,,,,,,,,,,,,,,,,,,,,,,,,,110,159550,18,Male,1,2024/03/21_10:59:08,YZ,None,
8,./instructions/inst_prac_2/Slide13.png,right,3.0592190929999674,80.413497307,83.47271639999997,,,,,,,,,,,,,,,,,,,,,,,,,,,,,,,,,1,,,,,,,,,,,,,,,,,,,,,,,,,,,,,,,,,,,,,,,,,,,,,,110,159550,18,Male,1,2024/03/21_10:59:08,YZ,None,
9,./instructions/inst_prac_2/Slide14.png,right,14.114982198000007,83.50195902299998,97.61694122099999,,,,,,,,,,,,,,,,,,,,,,,,,,,,,,,,,1,,,,,,,,,,,,,,,,,,,,,,,,,,,,,,,,,,,,,,,,,,,,,,110,159550,18,Male,1,2024/03/21_10:59:08,YZ,None,
10,./instructions/inst_prac_2/Slide15.png,right,5.115893911000001,97.700869012,102.816762923,,,,,,,,,,,,,,,,,,,,,,,,,,,,,,,,,1,,,,,,,,,,,,,,,,,,,,,,,,,,,,,,,,,,,,,,,,,,,,,,110,159550,18,Male,1,2024/03/21_10:59:08,YZ,None,
,,,,,,practice,0,29,2,2583,1,F,0,right,4.201910659000021,1,0,,,,,,,,,,,,,,,,,,,,,1,,,,,,,,,,,,,,,,,,,,,,,,,,,,,,,,,,,,,,,,,,,,,,110,159550,18,Male,1,2024/03/21_10:59:08,YZ,None,
,,,,,,practice,0,29,2,2583,2,J,0,right,2.090914027999986,1,0,,,,,,,,,,,,,,,,,,,,,1,,,,,,,,,,,,,,,,,,,,,,,,,,,,,,,,,,,,,,,,,,,,,,110,159550,18,Male,1,2024/03/21_10:59:08,YZ,None,
,,,,,,practice,0,29,2,2583,3,N,0,right,1.5918385180000314,1,0,,,,,,,,,,,,,,,,,,,,,1,,,,,,,,,,,,,,,,,,,,,,,,,,,,,,,,,,,,,,,,,,,,,,110,159550,18,Male,1,2024/03/21_10:59:08,YZ,None,
,,,,,,practice,0,29,2,2583,4,J,1,left,1.0678183890000241,1,0,,,,,,,,,,,,,,,,,,,,,1,,,,,,,,,,,,,,,,,,,,,,,,,,,,,,,,,,,,,,,,,,,,,,110,159550,18,Male,1,2024/03/21_10:59:08,YZ,None,
,,,,,,practice,0,29,2,2583,5,F,0,right,2.0438500129999966,1,0,,,,,,,,,,,,,,,,,,,,,1,,,,,,,,,,,,,,,,,,,,,,,,,,,,,,,,,,,,,,,,,,,,,,110,159550,18,Male,1,2024/03/21_10:59:08,YZ,None,
,,,,,,practice,0,29,2,2583,6,J,1,left,2.9506784179999954,1,0,,,,,,,,,,,,,,,,,,,,,1,,,,,,,,,,,,,,,,,,,,,,,,,,,,,,,,,,,,,,,,,,,,,,110,159550,18,Male,1,2024/03/21_10:59:08,YZ,None,
,,,,,,practice,0,29,2,2583,,,,,,,,1.0,1.0,0.0,1.0,0.0,1.0,2.3245016708333424,2,0,0,0,0,4,6,2,4,0,,,,1,,,,,,,,,,,,,,,,,,,,,,,,,,,,,,,,,,,,,,,,,,,,,,110,159550,18,Male,1,2024/03/21_10:59:08,YZ,None,
1,./instructions/inst_to_cali/Slide20.png,right,6.049823651999986,123.15093927800001,129.20076293,,,,,,,,,,,,,,,,,,,,,,,,,,,,,,,,,1,,,,,,,,,,,,,,,,,,,,,,,,,,,,,,,,,,,,,,,,,,,,,,110,159550,18,Male,1,2024/03/21_10:59:08,YZ,None,
1,./instructions/inst_cali/Slide22.png,right,12.220814857999983,129.251966257,141.47278111499998,,,,,,,,,,,,,,,,,,,,,,,,,,,,,,,,,1,,,,,,,,,,,,,,,,,,,,,,,,,,,,,,,,,,,,,,,,,,,,,,110,159550,18,Male,1,2024/03/21_10:59:08,YZ,None,
,,,,,,calibration,0,16,2,583,1,S,0,right,1.2636589909999998,1,0,,,,,,,,,,,,,,,,,,,,,1,,,,,,,,,,,,,,,,,,,,,,,,,,,,,,,,,,,,,,,,,,,,,,110,159550,18,Male,1,2024/03/21_10:59:08,YZ,None,
,,,,,,calibration,0,16,2,583,2,N,0,right,1.2473209870000233,1,0,,,,,,,,,,,,,,,,,,,,,1,,,,,,,,,,,,,,,,,,,,,,,,,,,,,,,,,,,,,,,,,,,,,,110,159550,18,Male,1,2024/03/21_10:59:08,YZ,None,
,,,,,,calibration,0,16,2,583,3,C,0,right,1.080384117000051,1,0,,,,,,,,,,,,,,,,,,,,,1,,,,,,,,,,,,,,,,,,,,,,,,,,,,,,,,,,,,,,,,,,,,,,110,159550,18,Male,1,2024/03/21_10:59:08,YZ,None,
,,,,,,calibration,0,16,2,583,4,N,1,left,0.7521323720000055,1,0,,,,,,,,,,,,,,,,,,,,,1,,,,,,,,,,,,,,,,,,,,,,,,,,,,,,,,,,,,,,,,,,,,,,110,159550,18,Male,1,2024/03/21_10:59:08,YZ,None,
,,,,,,calibration,0,16,2,583,5,V,0,right,0.9769328549999727,1,0,,,,,,,,,,,,,,,,,,,,,1,,,,,,,,,,,,,,,,,,,,,,,,,,,,,,,,,,,,,,,,,,,,,,110,159550,18,Male,1,2024/03/21_10:59:08,YZ,None,
,,,,,,calibration,0,16,2,583,6,X,0,right,1.5347761769999693,1,0,,,,,,,,,,,,,,,,,,,,,1,,,,,,,,,,,,,,,,,,,,,,,,,,,,,,,,,,,,,,,,,,,,,,110,159550,18,Male,1,2024/03/21_10:59:08,YZ,None,
,,,,,,calibration,0,16,2,583,7,C,0,left,1.3821927569999843,0,0,,,,,,,,,,,,,,,,,,,,,1,,,,,,,,,,,,,,,,,,,,,,,,,,,,,,,,,,,,,,,,,,,,,,110,159550,18,Male,1,2024/03/21_10:59:08,YZ,None,
,,,,,,calibration,0,16,2,583,8,S,0,right,1.2481631759999914,1,0,,,,,,,,,,,,,,,,,,,,,1,,,,,,,,,,,,,,,,,,,,,,,,,,,,,,,,,,,,,,,,,,,,,,110,159550,18,Male,1,2024/03/21_10:59:08,YZ,None,
,,,,,,calibration,0,16,2,583,9,Q,0,right,1.3076374219999707,1,0,,,,,,,,,,,,,,,,,,,,,1,,,,,,,,,,,,,,,,,,,,,,,,,,,,,,,,,,,,,,,,,,,,,,110,159550,18,Male,1,2024/03/21_10:59:08,YZ,None,
,,,,,,calibration,0,16,2,583,10,S,1,left,0.80704892600005,1,0,,,,,,,,,,,,,,,,,,,,,1,,,,,,,,,,,,,,,,,,,,,,,,,,,,,,,,,,,,,,,,,,,,,,110,159550,18,Male,1,2024/03/21_10:59:08,YZ,None,
,,,,,,calibration,0,16,2,583,11,F,0,right,1.1189981630000148,1,0,,,,,,,,,,,,,,,,,,,,,1,,,,,,,,,,,,,,,,,,,,,,,,,,,,,,,,,,,,,,,,,,,,,,110,159550,18,Male,1,2024/03/21_10:59:08,YZ,None,
,,,,,,calibration,0,16,2,583,12,S,1,left,1.171785624999984,1,0,,,,,,,,,,,,,,,,,,,,,1,,,,,,,,,,,,,,,,,,,,,,,,,,,,,,,,,,,,,,,,,,,,,,110,159550,18,Male,1,2024/03/21_10:59:08,YZ,None,
,,,,,,calibration,0,16,2,583,13,X,0,right,1.0466314389999525,1,0,,,,,,,,,,,,,,,,,,,,,1,,,,,,,,,,,,,,,,,,,,,,,,,,,,,,,,,,,,,,,,,,,,,,110,159550,18,Male,1,2024/03/21_10:59:08,YZ,None,
,,,,,,calibration,0,16,2,583,14,V,0,right,1.0416078740000216,1,0,,,,,,,,,,,,,,,,,,,,,1,,,,,,,,,,,,,,,,,,,,,,,,,,,,,,,,,,,,,,,,,,,,,,110,159550,18,Male,1,2024/03/21_10:59:08,YZ,None,
,,,,,,calibration,0,16,2,583,15,X,1,left,0.7386659819999863,1,0,,,,,,,,,,,,,,,,,,,,,1,,,,,,,,,,,,,,,,,,,,,,,,,,,,,,,,,,,,,,,,,,,,,,110,159550,18,Male,1,2024/03/21_10:59:08,YZ,None,
,,,,,,calibration,0,16,2,583,,,,,,,,0.9772727272727273,1.0,0.09090909090909091,0.9090909090909091,0.0,0.9090909090909091,1.1145291241999984,4,1,0,0,0,10,14,4,11,0,,,,1,,,,,,,,,,,,,,,,,,,,,,,,,,,,,,,,,,,,,,,,,,,,,,110,159550,18,Male,1,2024/03/21_10:59:08,YZ,None,
,,,,,,Calibration,0,,2,583,,,,,,,,,,,,,,,,,,,,,,,,,1,,,1,,,,,,,,,,,,,,,,,,,,,,,,,,,,,,,,,,,,,,,,,,,,,,110,159550,18,Male,1,2024/03/21_10:59:08,YZ,None,
,,,,,,calibration,0,15,2,500,1,C,0,None,nan,0,1,,,,,,,,,,,,,,,,,,,,,1,,,,,,,,,,,,,,,,,,,,,,,,,,,,,,,,,,,,,,,,,,,,,,110,159550,18,Male,1,2024/03/21_10:59:08,YZ,None,
,,,,,,calibration,0,15,2,500,2,V,0,None,nan,0,1,,,,,,,,,,,,,,,,,,,,,1,,,,,,,,,,,,,,,,,,,,,,,,,,,,,,,,,,,,,,,,,,,,,,110,159550,18,Male,1,2024/03/21_10:59:08,YZ,None,
,,,,,,calibration,0,15,2,500,3,C,1,right,0.0,0,0,,,,,,,,,,,,,,,,,,,,,1,,,,,,,,,,,,,,,,,,,,,,,,,,,,,,,,,,,,,,,,,,,,,,110,159550,18,Male,1,2024/03/21_10:59:08,YZ,None,
,,,,,,calibration,0,15,2,500,4,S,0,left,0.1956208650000235,0,0,,,,,,,,,,,,,,,,,,,,,1,,,,,,,,,,,,,,,,,,,,,,,,,,,,,,,,,,,,,,,,,,,,,,110,159550,18,Male,1,2024/03/21_10:59:08,YZ,None,
,,,,,,calibration,0,15,2,500,5,X,0,left,nan,0,1,,,,,,,,,,,,,,,,,,,,,1,,,,,,,,,,,,,,,,,,,,,,,,,,,,,,,,,,,,,,,,,,,,,,110,159550,18,Male,1,2024/03/21_10:59:08,YZ,None,
,,,,,,calibration,0,15,2,500,6,S,1,left,nan,0,1,,,,,,,,,,,,,,,,,,,,,1,,,,,,,,,,,,,,,,,,,,,,,,,,,,,,,,,,,,,,,,,,,,,,110,159550,18,Male,1,2024/03/21_10:59:08,YZ,None,
,,,,,,calibration,0,15,2,500,7,X,1,left,0.7300132960000383,1,0,,,,,,,,,,,,,,,,,,,,,1,,,,,,,,,,,,,,,,,,,,,,,,,,,,,,,,,,,,,,,,,,,,,,110,159550,18,Male,1,2024/03/21_10:59:08,YZ,None,
,,,,,,calibration,0,15,2,500,8,N,0,right,0.7587295199999744,1,0,,,,,,,,,,,,,,,,,,,,,1,,,,,,,,,,,,,,,,,,,,,,,,,,,,,,,,,,,,,,,,,,,,,,110,159550,18,Male,1,2024/03/21_10:59:08,YZ,None,
,,,,,,calibration,0,15,2,500,9,S,0,left,0.7388503729999911,0,0,,,,,,,,,,,,,,,,,,,,,1,,,,,,,,,,,,,,,,,,,,,,,,,,,,,,,,,,,,,,,,,,,,,,110,159550,18,Male,1,2024/03/21_10:59:08,YZ,None,
,,,,,,calibration,0,15,2,500,10,J,0,right,0.7704756210000028,1,0,,,,,,,,,,,,,,,,,,,,,1,,,,,,,,,,,,,,,,,,,,,,,,,,,,,,,,,,,,,,,,,,,,,,110,159550,18,Male,1,2024/03/21_10:59:08,YZ,None,
,,,,,,calibration,0,15,2,500,11,S,1,left,0.6115552820000403,1,0,,,,,,,,,,,,,,,,,,,,,1,,,,,,,,,,,,,,,,,,,,,,,,,,,,,,,,,,,,,,,,,,,,,,110,159550,18,Male,1,2024/03/21_10:59:08,YZ,None,
,,,,,,calibration,0,15,2,500,12,V,0,right,0.9587304540000332,1,0,,,,,,,,,,,,,,,,,,,,,1,,,,,,,,,,,,,,,,,,,,,,,,,,,,,,,,,,,,,,,,,,,,,,110,159550,18,Male,1,2024/03/21_10:59:08,YZ,None,
,,,,,,calibration,0,15,2,500,13,F,0,right,0.8872628409999948,1,0,,,,,,,,,,,,,,,,,,,,,1,,,,,,,,,,,,,,,,,,,,,,,,,,,,,,,,,,,,,,,,,,,,,,110,159550,18,Male,1,2024/03/21_10:59:08,YZ,None,
,,,,,,calibration,0,15,2,500,14,V,1,left,0.6950065969999741,1,0,,,,,,,,,,,,,,,,,,,,,1,,,,,,,,,,,,,,,,,,,,,,,,,,,,,,,,,,,,,,,,,,,,,,110,159550,18,Male,1,2024/03/21_10:59:08,YZ,None,
,,,,,,calibration,0,15,2,500,15,X,0,right,0.792440967999994,1,0,,,,,,,,,,,,,,,,,,,,,1,,,,,,,,,,,,,,,,,,,,,,,,,,,,,,,,,,,,,,,,,,,,,,110,159550,18,Male,1,2024/03/21_10:59:08,YZ,None,
,,,,,,calibration,0,15,2,500,16,J,0,right,0.8193457950000038,1,0,,,,,,,,,,,,,,,,,,,,,1,,,,,,,,,,,,,,,,,,,,,,,,,,,,,,,,,,,,,,,,,,,,,,110,159550,18,Male,1,2024/03/21_10:59:08,YZ,None,
,,,,,,calibration,0,15,2,500,,,,,,,,0.7818181818181817,0.6,0.18181818181818182,0.75,0.25,0.5681818181818181,0.6631693010000058,3,2,1,3,4,6,9,5,11,0,,,,1,,,,,,,,,,,,,,,,,,,,,,,,,,,,,,,,,,,,,,,,,,,,,,110,159550,18,Male,1,2024/03/21_10:59:08,YZ,None,
,,,,,,Calibration,0,,2,500,,,,,,,,,,,,,,,,,,,,,,,,,2,,,1,,,,,,,,,,,,,,,,,,,,,,,,,,,,,,,,,,,,,,,,,,,,,,110,159550,18,Male,1,2024/03/21_10:59:08,YZ,None,
,,,,,,calibration,0,20,2,500,1,Q,0,right,0.8256249799999864,1,0,,,,,,,,,,,,,,,,,,,,,1,,,,,,,,,,,,,,,,,,,,,,,,,,,,,,,,,,,,,,,,,,,,,,110,159550,18,Male,1,2024/03/21_10:59:08,YZ,None,
,,,,,,calibration,0,20,2,500,2,V,0,right,0.759219158999997,1,0,,,,,,,,,,,,,,,,,,,,,1,,,,,,,,,,,,,,,,,,,,,,,,,,,,,,,,,,,,,,,,,,,,,,110,159550,18,Male,1,2024/03/21_10:59:08,YZ,None,
,,,,,,calibration,0,20,2,500,3,S,0,right,0.7410731429999942,1,0,,,,,,,,,,,,,,,,,,,,,1,,,,,,,,,,,,,,,,,,,,,,,,,,,,,,,,,,,,,,,,,,,,,,110,159550,18,Male,1,2024/03/21_10:59:08,YZ,None,
,,,,,,calibration,0,20,2,500,4,F,0,right,0.48697297699999353,1,0,,,,,,,,,,,,,,,,,,,,,1,,,,,,,,,,,,,,,,,,,,,,,,,,,,,,,,,,,,,,,,,,,,,,110,159550,18,Male,1,2024/03/21_10:59:08,YZ,None,
,,,,,,calibration,0,20,2,500,5,X,0,right,0.7923404649999952,1,0,,,,,,,,,,,,,,,,,,,,,1,,,,,,,,,,,,,,,,,,,,,,,,,,,,,,,,,,,,,,,,,,,,,,110,159550,18,Male,1,2024/03/21_10:59:08,YZ,None,
,,,,,,calibration,0,20,2,500,6,F,1,right,0.6515631039999903,0,0,,,,,,,,,,,,,,,,,,,,,1,,,,,,,,,,,,,,,,,,,,,,,,,,,,,,,,,,,,,,,,,,,,,,110,159550,18,Male,1,2024/03/21_10:59:08,YZ,None,
,,,,,,calibration,0,20,2,500,7,C,0,right,0.5125084959999526,1,0,,,,,,,,,,,,,,,,,,,,,1,,,,,,,,,,,,,,,,,,,,,,,,,,,,,,,,,,,,,,,,,,,,,,110,159550,18,Male,1,2024/03/21_10:59:08,YZ,None,
,,,,,,calibration,0,20,2,500,8,V,0,right,0.5413325039999677,1,0,,,,,,,,,,,,,,,,,,,,,1,,,,,,,,,,,,,,,,,,,,,,,,,,,,,,,,,,,,,,,,,,,,,,110,159550,18,Male,1,2024/03/21_10:59:08,YZ,None,
,,,,,,calibration,0,20,2,500,9,C,1,left,0.5549976499999616,1,0,,,,,,,,,,,,,,,,,,,,,1,,,,,,,,,,,,,,,,,,,,,,,,,,,,,,,,,,,,,,,,,,,,,,110,159550,18,Male,1,2024/03/21_10:59:08,YZ,None,
,,,,,,calibration,0,20,2,500,10,V,1,right,0.6972290929999758,0,0,,,,,,,,,,,,,,,,,,,,,1,,,,,,,,,,,,,,,,,,,,,,,,,,,,,,,,,,,,,,,,,,,,,,110,159550,18,Male,1,2024/03/21_10:59:08,YZ,None,
,,,,,,calibration,0,20,2,500,11,N,0,left,0.7747377150000148,0,0,,,,,,,,,,,,,,,,,,,,,1,,,,,,,,,,,,,,,,,,,,,,,,,,,,,,,,,,,,,,,,,,,,,,110,159550,18,Male,1,2024/03/21_10:59:08,YZ,None,
,,,,,,calibration,0,20,2,500,12,V,1,right,0.7287397350000333,0,0,,,,,,,,,,,,,,,,,,,,,1,,,,,,,,,,,,,,,,,,,,,,,,,,,,,,,,,,,,,,,,,,,,,,110,159550,18,Male,1,2024/03/21_10:59:08,YZ,None,
,,,,,,calibration,0,20,2,500,13,C,0,right,0.5126524919999724,1,0,,,,,,,,,,,,,,,,,,,,,1,,,,,,,,,,,,,,,,,,,,,,,,,,,,,,,,,,,,,,,,,,,,,,110,159550,18,Male,1,2024/03/21_10:59:08,YZ,None,
,,,,,,calibration,0,20,2,500,14,S,0,right,0.6590871529999731,1,0,,,,,,,,,,,,,,,,,,,,,1,,,,,,,,,,,,,,,,,,,,,,,,,,,,,,,,,,,,,,,,,,,,,,110,159550,18,Male,1,2024/03/21_10:59:08,YZ,None,
,,,,,,calibration,0,20,2,500,15,J,0,right,0.7258999240000321,1,0,,,,,,,,,,,,,,,,,,,,,1,,,,,,,,,,,,,,,,,,,,,,,,,,,,,,,,,,,,,,,,,,,,,,110,159550,18,Male,1,2024/03/21_10:59:08,YZ,None,
,,,,,,calibration,0,20,2,500,16,C,0,right,0.6140804799999842,1,0,,,,,,,,,,,,,,,,,,,,,1,,,,,,,,,,,,,,,,,,,,,,,,,,,,,,,,,,,,,,,,,,,,,,110,159550,18,Male,1,2024/03/21_10:59:08,YZ,None,
,,,,,,calibration,0,20,2,500,,,,,,,,0.7083333333333333,0.25,0.08333333333333333,0.9166666666666666,0.0,0.9166666666666666,0.661128691874989,1,1,0,0,0,11,12,4,12,0,,,,1,,,,,,,,,,,,,,,,,,,,,,,,,,,,,,,,,,,,,,,,,,,,,,110,159550,18,Male,1,2024/03/21_10:59:08,YZ,None,
,,,,,,Calibration,0,,2,500,,,,,,,,,,,,,,,,,,,,,,,,,3,,,1,,,,,,,,,,,,,,,,,,,,,,,,,,,,,,,,,,,,,,,,,,,,,,110,159550,18,Male,1,2024/03/21_10:59:08,YZ,None,
,,,,,,calibration,0,3,2,583,1,F,0,right,0.5645964619999972,1,0,,,,,,,,,,,,,,,,,,,,,1,,,,,,,,,,,,,,,,,,,,,,,,,,,,,,,,,,,,,,,,,,,,,,110,159550,18,Male,1,2024/03/21_10:59:08,YZ,None,
,,,,,,calibration,0,3,2,583,2,S,0,right,0.7473449940000023,1,0,,,,,,,,,,,,,,,,,,,,,1,,,,,,,,,,,,,,,,,,,,,,,,,,,,,,,,,,,,,,,,,,,,,,110,159550,18,Male,1,2024/03/21_10:59:08,YZ,None,
,,,,,,calibration,0,3,2,583,3,V,0,right,nan,0,1,,,,,,,,,,,,,,,,,,,,,1,,,,,,,,,,,,,,,,,,,,,,,,,,,,,,,,,,,,,,,,,,,,,,110,159550,18,Male,1,2024/03/21_10:59:08,YZ,None,
,,,,,,calibration,0,3,2,583,4,S,1,right,0.5983105730000489,0,0,,,,,,,,,,,,,,,,,,,,,1,,,,,,,,,,,,,,,,,,,,,,,,,,,,,,,,,,,,,,,,,,,,,,110,159550,18,Male,1,2024/03/21_10:59:08,YZ,None,
,,,,,,calibration,0,3,2,583,5,F,0,right,0.529995826000004,1,0,,,,,,,,,,,,,,,,,,,,,1,,,,,,,,,,,,,,,,,,,,,,,,,,,,,,,,,,,,,,,,,,,,,,110,159550,18,Male,1,2024/03/21_10:59:08,YZ,None,
,,,,,,calibration,0,3,2,583,6,C,0,right,0.6308254749999946,1,0,,,,,,,,,,,,,,,,,,,,,1,,,,,,,,,,,,,,,,,,,,,,,,,,,,,,,,,,,,,,,,,,,,,,110,159550,18,Male,1,2024/03/21_10:59:08,YZ,None,
,,,,,,calibration,0,3,2,583,7,Q,0,right,0.5304308999999989,1,0,,,,,,,,,,,,,,,,,,,,,1,,,,,,,,,,,,,,,,,,,,,,,,,,,,,,,,,,,,,,,,,,,,,,110,159550,18,Male,1,2024/03/21_10:59:08,YZ,None,
,,,,,,calibration,0,3,2,583,8,C,1,left,0.3788357760000167,1,0,,,,,,,,,,,,,,,,,,,,,1,,,,,,,,,,,,,,,,,,,,,,,,,,,,,,,,,,,,,,,,,,,,,,110,159550,18,Male,1,2024/03/21_10:59:08,YZ,None,
,,,,,,calibration,0,3,2,583,9,V,0,left,0.7717042149999997,0,0,,,,,,,,,,,,,,,,,,,,,1,,,,,,,,,,,,,,,,,,,,,,,,,,,,,,,,,,,,,,,,,,,,,,110,159550,18,Male,1,2024/03/21_10:59:08,YZ,None,
,,,,,,calibration,0,3,2,583,10,C,1,left,0.5939518179999936,1,0,,,,,,,,,,,,,,,,,,,,,1,,,,,,,,,,,,,,,,,,,,,,,,,,,,,,,,,,,,,,,,,,,,,,110,159550,18,Male,1,2024/03/21_10:59:08,YZ,None,
,,,,,,calibration,0,3,2,583,11,V,1,left,0.6074325209999643,1,0,,,,,,,,,,,,,,,,,,,,,1,,,,,,,,,,,,,,,,,,,,,,,,,,,,,,,,,,,,,,,,,,,,,,110,159550,18,Male,1,2024/03/21_10:59:08,YZ,None,
,,,,,,calibration,0,3,2,583,12,J,0,right,0.5798066059999769,1,0,,,,,,,,,,,,,,,,,,,,,1,,,,,,,,,,,,,,,,,,,,,,,,,,,,,,,,,,,,,,,,,,,,,,110,159550,18,Male,1,2024/03/21_10:59:08,YZ,None,
,,,,,,calibration,0,3,2,583,13,Q,0,right,0.5302556810000283,1,0,,,,,,,,,,,,,,,,,,,,,1,,,,,,,,,,,,,,,,,,,,,,,,,,,,,,,,,,,,,,,,,,,,,,110,159550,18,Male,1,2024/03/21_10:59:08,YZ,None,
,,,,,,calibration,0,3,2,583,14,F,0,right,0.5577607969999576,1,0,,,,,,,,,,,,,,,,,,,,,1,,,,,,,,,,,,,,,,,,,,,,,,,,,,,,,,,,,,,,,,,,,,,,110,159550,18,Male,1,2024/03/21_10:59:08,YZ,None,
,,,,,,calibration,0,3,2,583,15,C,0,right,0.5622996840000383,1,0,,,,,,,,,,,,,,,,,,,,,1,,,,,,,,,,,,,,,,,,,,,,,,,,,,,,,,,,,,,,,,,,,,,,110,159550,18,Male,1,2024/03/21_10:59:08,YZ,None,
,,,,,,calibration,0,3,2,583,,,,,,,,0.8920454545454546,0.75,0.09090909090909091,0.9,0.06666666666666667,0.8424242424242424,0.5845393805714301,3,1,0,1,1,9,12,4,11,0,,,,1,,,,,,,,,,,,,,,,,,,,,,,,,,,,,,,,,,,,,,,,,,,,,,110,159550,18,Male,1,2024/03/21_10:59:08,YZ,None,
,,,,,,Calibration,0,,2,583,,,,,,,,,,,,,,,,,,,,,,,,,4,,,1,,,,,,,,,,,,,,,,,,,,,,,,,,,,,,,,,,,,,,,,,,,,,,110,159550,18,Male,1,2024/03/21_10:59:08,YZ,None,
,,,,,,calibration,0,22,2,500,1,X,0,right,0.8315188650000209,1,0,,,,,,,,,,,,,,,,,,,,,1,,,,,,,,,,,,,,,,,,,,,,,,,,,,,,,,,,,,,,,,,,,,,,110,159550,18,Male,1,2024/03/21_10:59:08,YZ,None,
,,,,,,calibration,0,22,2,500,2,N,0,right,0.512198125999987,1,0,,,,,,,,,,,,,,,,,,,,,1,,,,,,,,,,,,,,,,,,,,,,,,,,,,,,,,,,,,,,,,,,,,,,110,159550,18,Male,1,2024/03/21_10:59:08,YZ,None,
,,,,,,calibration,0,22,2,500,3,X,1,left,0.46694251900004247,1,0,,,,,,,,,,,,,,,,,,,,,1,,,,,,,,,,,,,,,,,,,,,,,,,,,,,,,,,,,,,,,,,,,,,,110,159550,18,Male,1,2024/03/21_10:59:08,YZ,None,
,,,,,,calibration,0,22,2,500,4,N,1,left,0.5545504620000088,1,0,,,,,,,,,,,,,,,,,,,,,1,,,,,,,,,,,,,,,,,,,,,,,,,,,,,,,,,,,,,,,,,,,,,,110,159550,18,Male,1,2024/03/21_10:59:08,YZ,None,
,,,,,,calibration,0,22,2,500,5,C,0,right,0.5477573650000522,1,0,,,,,,,,,,,,,,,,,,,,,1,,,,,,,,,,,,,,,,,,,,,,,,,,,,,,,,,,,,,,,,,,,,,,110,159550,18,Male,1,2024/03/21_10:59:08,YZ,None,
,,,,,,calibration,0,22,2,500,6,S,0,right,0.5239909379999972,1,0,,,,,,,,,,,,,,,,,,,,,1,,,,,,,,,,,,,,,,,,,,,,,,,,,,,,,,,,,,,,,,,,,,,,110,159550,18,Male,1,2024/03/21_10:59:08,YZ,None,
,,,,,,calibration,0,22,2,500,7,J,0,right,0.5125888039999609,1,0,,,,,,,,,,,,,,,,,,,,,1,,,,,,,,,,,,,,,,,,,,,,,,,,,,,,,,,,,,,,,,,,,,,,110,159550,18,Male,1,2024/03/21_10:59:08,YZ,None,
,,,,,,calibration,0,22,2,500,8,S,1,left,0.5774215850000246,1,0,,,,,,,,,,,,,,,,,,,,,1,,,,,,,,,,,,,,,,,,,,,,,,,,,,,,,,,,,,,,,,,,,,,,110,159550,18,Male,1,2024/03/21_10:59:08,YZ,None,
,,,,,,calibration,0,22,2,500,9,Q,0,right,0.559150413999987,1,0,,,,,,,,,,,,,,,,,,,,,1,,,,,,,,,,,,,,,,,,,,,,,,,,,,,,,,,,,,,,,,,,,,,,110,159550,18,Male,1,2024/03/21_10:59:08,YZ,None,
,,,,,,calibration,0,22,2,500,10,F,0,right,0.6144352070000423,1,0,,,,,,,,,,,,,,,,,,,,,1,,,,,,,,,,,,,,,,,,,,,,,,,,,,,,,,,,,,,,,,,,,,,,110,159550,18,Male,1,2024/03/21_10:59:08,YZ,None,
,,,,,,calibration,0,22,2,500,11,S,0,right,0.5246443340000155,1,0,,,,,,,,,,,,,,,,,,,,,1,,,,,,,,,,,,,,,,,,,,,,,,,,,,,,,,,,,,,,,,,,,,,,110,159550,18,Male,1,2024/03/21_10:59:08,YZ,None,
,,,,,,calibration,0,22,2,500,12,C,0,right,0.5683475879999946,1,0,,,,,,,,,,,,,,,,,,,,,1,,,,,,,,,,,,,,,,,,,,,,,,,,,,,,,,,,,,,,,,,,,,,,110,159550,18,Male,1,2024/03/21_10:59:08,YZ,None,
,,,,,,calibration,0,22,2,500,13,N,0,right,0.6636472069999968,1,0,,,,,,,,,,,,,,,,,,,,,1,,,,,,,,,,,,,,,,,,,,,,,,,,,,,,,,,,,,,,,,,,,,,,110,159550,18,Male,1,2024/03/21_10:59:08,YZ,None,
,,,,,,calibration,0,22,2,500,14,C,1,right,0.558303608000017,0,0,,,,,,,,,,,,,,,,,,,,,1,,,,,,,,,,,,,,,,,,,,,,,,,,,,,,,,,,,,,,,,,,,,,,110,159550,18,Male,1,2024/03/21_10:59:08,YZ,None,
,,,,,,calibration,0,22,2,500,15,Q,0,left,0.6227744070000085,0,0,,,,,,,,,,,,,,,,,,,,,1,,,,,,,,,,,,,,,,,,,,,,,,,,,,,,,,,,,,,,,,,,,,,,110,159550,18,Male,1,2024/03/21_10:59:08,YZ,None,
,,,,,,calibration,0,22,2,500,16,F,0,right,0.48542441900002586,1,0,,,,,,,,,,,,,,,,,,,,,1,,,,,,,,,,,,,,,,,,,,,,,,,,,,,,,,,,,,,,,,,,,,,,110,159550,18,Male,1,2024/03/21_10:59:08,YZ,None,
,,,,,,calibration,0,22,2,500,,,,,,,,0.8958333333333333,0.75,0.08333333333333333,0.9166666666666666,0.0,0.9166666666666666,0.5702309905000114,3,1,0,0,0,11,14,4,12,0,,,,1,,,,,,,,,,,,,,,,,,,,,,,,,,,,,,,,,,,,,,,,,,,,,,110,159550,18,Male,1,2024/03/21_10:59:08,YZ,None,
,,,,,,Calibration,0,,2,500,,,,,,,,,,,,,,,,,,,,,,,,,5,,,1,,,,,,,,,,,,,,,,,,,,,,,,,,,,,,,,,,,,,,,,,,,,,,110,159550,18,Male,1,2024/03/21_10:59:08,YZ,None,
,,,,,,calibration,0,7,2,426,1,N,0,right,0.4417188990000227,1,0,,,,,,,,,,,,,,,,,,,,,1,,,,,,,,,,,,,,,,,,,,,,,,,,,,,,,,,,,,,,,,,,,,,,110,159550,18,Male,1,2024/03/21_10:59:08,YZ,None,
,,,,,,calibration,0,7,2,426,2,S,0,right,0.6513355370000227,1,0,,,,,,,,,,,,,,,,,,,,,1,,,,,,,,,,,,,,,,,,,,,,,,,,,,,,,,,,,,,,,,,,,,,,110,159550,18,Male,1,2024/03/21_10:59:08,YZ,None,
,,,,,,calibration,0,7,2,426,3,Q,0,right,0.4792005649999851,1,0,,,,,,,,,,,,,,,,,,,,,1,,,,,,,,,,,,,,,,,,,,,,,,,,,,,,,,,,,,,,,,,,,,,,110,159550,18,Male,1,2024/03/21_10:59:08,YZ,None,
,,,,,,calibration,0,7,2,426,4,C,0,right,0.7254506930000275,1,0,,,,,,,,,,,,,,,,,,,,,1,,,,,,,,,,,,,,,,,,,,,,,,,,,,,,,,,,,,,,,,,,,,,,110,159550,18,Male,1,2024/03/21_10:59:08,YZ,None,
,,,,,,calibration,0,7,2,426,5,Q,1,left,0.5306567289999862,1,0,,,,,,,,,,,,,,,,,,,,,1,,,,,,,,,,,,,,,,,,,,,,,,,,,,,,,,,,,,,,,,,,,,,,110,159550,18,Male,1,2024/03/21_10:59:08,YZ,None,
,,,,,,calibration,0,7,2,426,6,X,0,right,0.4971362829999748,1,0,,,,,,,,,,,,,,,,,,,,,1,,,,,,,,,,,,,,,,,,,,,,,,,,,,,,,,,,,,,,,,,,,,,,110,159550,18,Male,1,2024/03/21_10:59:08,YZ,None,
,,,,,,calibration,0,7,2,426,7,N,0,right,0.6854787820000183,1,0,,,,,,,,,,,,,,,,,,,,,1,,,,,,,,,,,,,,,,,,,,,,,,,,,,,,,,,,,,,,,,,,,,,,110,159550,18,Male,1,2024/03/21_10:59:08,YZ,None,
,,,,,,calibration,0,7,2,426,8,Q,0,right,0.5799847010000008,1,0,,,,,,,,,,,,,,,,,,,,,1,,,,,,,,,,,,,,,,,,,,,,,,,,,,,,,,,,,,,,,,,,,,,,110,159550,18,Male,1,2024/03/21_10:59:08,YZ,None,
,,,,,,calibration,0,7,2,426,9,N,1,right,0.6417353960000014,0,0,,,,,,,,,,,,,,,,,,,,,1,,,,,,,,,,,,,,,,,,,,,,,,,,,,,,,,,,,,,,,,,,,,,,110,159550,18,Male,1,2024/03/21_10:59:08,YZ,None,
,,,,,,calibration,0,7,2,426,10,Q,1,left,0.655695752999975,1,0,,,,,,,,,,,,,,,,,,,,,1,,,,,,,,,,,,,,,,,,,,,,,,,,,,,,,,,,,,,,,,,,,,,,110,159550,18,Male,1,2024/03/21_10:59:08,YZ,None,
,,,,,,calibration,0,7,2,426,11,X,0,right,0.6373665319999873,1,0,,,,,,,,,,,,,,,,,,,,,1,,,,,,,,,,,,,,,,,,,,,,,,,,,,,,,,,,,,,,,,,,,,,,110,159550,18,Male,1,2024/03/21_10:59:08,YZ,None,
,,,,,,calibration,0,7,2,426,12,C,0,left,0.4810384070000282,0,0,,,,,,,,,,,,,,,,,,,,,1,,,,,,,,,,,,,,,,,,,,,,,,,,,,,,,,,,,,,,,,,,,,,,110,159550,18,Male,1,2024/03/21_10:59:08,YZ,None,
,,,,,,calibration,0,7,2,426,13,Q,0,left,0.6421332859999893,0,0,,,,,,,,,,,,,,,,,,,,,1,,,,,,,,,,,,,,,,,,,,,,,,,,,,,,,,,,,,,,,,,,,,,,110,159550,18,Male,1,2024/03/21_10:59:08,YZ,None,
,,,,,,calibration,0,7,2,426,14,S,0,right,0.5473732560000144,1,0,,,,,,,,,,,,,,,,,,,,,1,,,,,,,,,,,,,,,,,,,,,,,,,,,,,,,,,,,,,,,,,,,,,,110,159550,18,Male,1,2024/03/21_10:59:08,YZ,None,
,,,,,,calibration,0,7,2,426,15,Q,1,left,0.7241581840000322,1,0,,,,,,,,,,,,,,,,,,,,,1,,,,,,,,,,,,,,,,,,,,,,,,,,,,,,,,,,,,,,,,,,,,,,110,159550,18,Male,1,2024/03/21_10:59:08,YZ,None,
,,,,,,calibration,0,7,2,426,16,S,1,right,0.46285950099996853,0,0,,,,,,,,,,,,,,,,,,,,,1,,,,,,,,,,,,,,,,,,,,,,,,,,,,,,,,,,,,,,,,,,,,,,110,159550,18,Male,1,2024/03/21_10:59:08,YZ,None,
,,,,,,calibration,0,7,2,426,17,X,0,right,0.5848199299999806,1,0,,,,,,,,,,,,,,,,,,,,,1,,,,,,,,,,,,,,,,,,,,,,,,,,,,,,,,,,,,,,,,,,,,,,110,159550,18,Male,1,2024/03/21_10:59:08,YZ,None,
,,,,,,calibration,0,7,2,426,,,,,,,,0.7916666666666667,0.6,0.16666666666666666,0.8333333333333334,0.0,0.8333333333333334,0.5863613196470597,3,2,0,0,0,10,13,5,12,0,,,,1,,,,,,,,,,,,,,,,,,,,,,,,,,,,,,,,,,,,,,,,,,,,,,110,159550,18,Male,1,2024/03/21_10:59:08,YZ,None,
,,,,,,Calibration,0,,2,426,,,,,,,,,,,,,,,,,,,,,,,,,6,,,1,,,,,,,,,,,,,,,,,,,,,,,,,,,,,,,,,,,,,,,,,,,,,,110,159550,18,Male,1,2024/03/21_10:59:08,YZ,None,
,,,,,,calibration,0,33,2,426,1,S,0,None,nan,0,1,,,,,,,,,,,,,,,,,,,,,1,,,,,,,,,,,,,,,,,,,,,,,,,,,,,,,,,,,,,,,,,,,,,,110,159550,18,Male,1,2024/03/21_10:59:08,YZ,None,
,,,,,,calibration,0,33,2,426,2,Q,0,right,0.858858218000023,1,0,,,,,,,,,,,,,,,,,,,,,1,,,,,,,,,,,,,,,,,,,,,,,,,,,,,,,,,,,,,,,,,,,,,,110,159550,18,Male,1,2024/03/21_10:59:08,YZ,None,
,,,,,,calibration,0,33,2,426,3,J,0,right,0.4889874810000947,1,0,,,,,,,,,,,,,,,,,,,,,1,,,,,,,,,,,,,,,,,,,,,,,,,,,,,,,,,,,,,,,,,,,,,,110,159550,18,Male,1,2024/03/21_10:59:08,YZ,None,
,,,,,,calibration,0,33,2,426,4,S,0,right,0.9084632300000521,1,0,,,,,,,,,,,,,,,,,,,,,1,,,,,,,,,,,,,,,,,,,,,,,,,,,,,,,,,,,,,,,,,,,,,,110,159550,18,Male,1,2024/03/21_10:59:08,YZ,None,
,,,,,,calibration,0,33,2,426,5,V,0,right,0.5396755130000201,1,0,,,,,,,,,,,,,,,,,,,,,1,,,,,,,,,,,,,,,,,,,,,,,,,,,,,,,,,,,,,,,,,,,,,,110,159550,18,Male,1,2024/03/21_10:59:08,YZ,None,
,,,,,,calibration,0,33,2,426,6,F,0,left,0.7405328809999219,0,0,,,,,,,,,,,,,,,,,,,,,1,,,,,,,,,,,,,,,,,,,,,,,,,,,,,,,,,,,,,,,,,,,,,,110,159550,18,Male,1,2024/03/21_10:59:08,YZ,None,
,,,,,,calibration,0,33,2,426,7,V,1,right,0.5583417279999594,0,0,,,,,,,,,,,,,,,,,,,,,1,,,,,,,,,,,,,,,,,,,,,,,,,,,,,,,,,,,,,,,,,,,,,,110,159550,18,Male,1,2024/03/21_10:59:08,YZ,None,
,,,,,,calibration,0,33,2,426,8,F,1,left,0.5882996599999615,1,0,,,,,,,,,,,,,,,,,,,,,1,,,,,,,,,,,,,,,,,,,,,,,,,,,,,,,,,,,,,,,,,,,,,,110,159550,18,Male,1,2024/03/21_10:59:08,YZ,None,
,,,,,,calibration,0,33,2,426,9,Q,0,right,0.5452588089999608,1,0,,,,,,,,,,,,,,,,,,,,,1,,,,,,,,,,,,,,,,,,,,,,,,,,,,,,,,,,,,,,,,,,,,,,110,159550,18,Male,1,2024/03/21_10:59:08,YZ,None,
,,,,,,calibration,0,33,2,426,10,N,0,right,0.512625218999915,1,0,,,,,,,,,,,,,,,,,,,,,1,,,,,,,,,,,,,,,,,,,,,,,,,,,,,,,,,,,,,,,,,,,,,,110,159550,18,Male,1,2024/03/21_10:59:08,YZ,None,
,,,,,,calibration,0,33,2,426,11,X,0,right,0.6147147159999804,1,0,,,,,,,,,,,,,,,,,,,,,1,,,,,,,,,,,,,,,,,,,,,,,,,,,,,,,,,,,,,,,,,,,,,,110,159550,18,Male,1,2024/03/21_10:59:08,YZ,None,
,,,,,,calibration,0,33,2,426,12,J,0,right,0.8640477430000146,1,0,,,,,,,,,,,,,,,,,,,,,1,,,,,,,,,,,,,,,,,,,,,,,,,,,,,,,,,,,,,,,,,,,,,,110,159550,18,Male,1,2024/03/21_10:59:08,YZ,None,
,,,,,,calibration,0,33,2,426,13,X,1,right,0.4408658629999991,0,0,,,,,,,,,,,,,,,,,,,,,1,,,,,,,,,,,,,,,,,,,,,,,,,,,,,,,,,,,,,,,,,,,,,,110,159550,18,Male,1,2024/03/21_10:59:08,YZ,None,
,,,,,,calibration,0,33,2,426,14,C,0,right,0.6435932680000178,1,0,,,,,,,,,,,,,,,,,,,,,1,,,,,,,,,,,,,,,,,,,,,,,,,,,,,,,,,,,,,,,,,,,,,,110,159550,18,Male,1,2024/03/21_10:59:08,YZ,None,
,,,,,,calibration,0,33,2,426,15,Q,0,left,0.6066551549999986,0,0,,,,,,,,,,,,,,,,,,,,,1,,,,,,,,,,,,,,,,,,,,,,,,,,,,,,,,,,,,,,,,,,,,,,110,159550,18,Male,1,2024/03/21_10:59:08,YZ,None,
,,,,,,calibration,0,33,2,426,16,C,1,left,0.9191082639999877,1,0,,,,,,,,,,,,,,,,,,,,,1,,,,,,,,,,,,,,,,,,,,,,,,,,,,,,,,,,,,,,,,,,,,,,110,159550,18,Male,1,2024/03/21_10:59:08,YZ,None,
,,,,,,calibration,0,33,2,426,17,Q,1,left,0.5712279570000192,1,0,,,,,,,,,,,,,,,,,,,,,1,,,,,,,,,,,,,,,,,,,,,,,,,,,,,,,,,,,,,,,,,,,,,,110,159550,18,Male,1,2024/03/21_10:59:08,YZ,None,
,,,,,,calibration,0,33,2,426,,,,,,,,0.7916666666666667,0.6,0.16666666666666666,0.8181818181818182,0.058823529411764705,0.7745098039215687,0.6500784815624954,3,2,0,1,1,9,12,5,12,0,,,,1,,,,,,,,,,,,,,,,,,,,,,,,,,,,,,,,,,,,,,,,,,,,,,110,159550,18,Male,1,2024/03/21_10:59:08,YZ,None,
,,,,,,Calibration,0,,2,426,,,,,,,,,,,,,,,,,,,,,,,,,7,,,1,,,,,,,,,,,,,,,,,,,,,,,,,,,,,,,,,,,,,,,,,,,,,,110,159550,18,Male,1,2024/03/21_10:59:08,YZ,None,
,,,,,,calibration,0,24,2,426,1,V,0,None,nan,0,1,,,,,,,,,,,,,,,,,,,,,1,,,,,,,,,,,,,,,,,,,,,,,,,,,,,,,,,,,,,,,,,,,,,,110,159550,18,Male,1,2024/03/21_10:59:08,YZ,None,
,,,,,,calibration,0,24,2,426,2,S,0,None,nan,0,1,,,,,,,,,,,,,,,,,,,,,1,,,,,,,,,,,,,,,,,,,,,,,,,,,,,,,,,,,,,,,,,,,,,,110,159550,18,Male,1,2024/03/21_10:59:08,YZ,None,
,,,,,,calibration,0,24,2,426,3,X,0,None,nan,0,1,,,,,,,,,,,,,,,,,,,,,1,,,,,,,,,,,,,,,,,,,,,,,,,,,,,,,,,,,,,,,,,,,,,,110,159550,18,Male,1,2024/03/21_10:59:08,YZ,None,
,,,,,,calibration,0,24,2,426,4,S,1,right,0.377852976999975,0,0,,,,,,,,,,,,,,,,,,,,,1,,,,,,,,,,,,,,,,,,,,,,,,,,,,,,,,,,,,,,,,,,,,,,110,159550,18,Male,1,2024/03/21_10:59:08,YZ,None,
,,,,,,calibration,0,24,2,426,5,V,0,left,0.7300400340000124,0,0,,,,,,,,,,,,,,,,,,,,,1,,,,,,,,,,,,,,,,,,,,,,,,,,,,,,,,,,,,,,,,,,,,,,110,159550,18,Male,1,2024/03/21_10:59:08,YZ,None,
,,,,,,calibration,0,24,2,426,6,Q,0,right,0.6407399920000216,1,0,,,,,,,,,,,,,,,,,,,,,1,,,,,,,,,,,,,,,,,,,,,,,,,,,,,,,,,,,,,,,,,,,,,,110,159550,18,Male,1,2024/03/21_10:59:08,YZ,None,
,,,,,,calibration,0,24,2,426,7,N,0,right,0.4963641000000507,1,0,,,,,,,,,,,,,,,,,,,,,1,,,,,,,,,,,,,,,,,,,,,,,,,,,,,,,,,,,,,,,,,,,,,,110,159550,18,Male,1,2024/03/21_10:59:08,YZ,None,
,,,,,,calibration,0,24,2,426,8,S,0,right,0.4980495059999157,1,0,,,,,,,,,,,,,,,,,,,,,1,,,,,,,,,,,,,,,,,,,,,,,,,,,,,,,,,,,,,,,,,,,,,,110,159550,18,Male,1,2024/03/21_10:59:08,YZ,None,
,,,,,,calibration,0,24,2,426,9,F,0,right,0.6130799080000315,1,0,,,,,,,,,,,,,,,,,,,,,1,,,,,,,,,,,,,,,,,,,,,,,,,,,,,,,,,,,,,,,,,,,,,,110,159550,18,Male,1,2024/03/21_10:59:08,YZ,None,
,,,,,,calibration,0,24,2,426,10,S,1,right,0.5866538010000113,0,0,,,,,,,,,,,,,,,,,,,,,1,,,,,,,,,,,,,,,,,,,,,,,,,,,,,,,,,,,,,,,,,,,,,,110,159550,18,Male,1,2024/03/21_10:59:08,YZ,None,
,,,,,,calibration,0,24,2,426,11,F,1,left,0.48828067099998407,1,0,,,,,,,,,,,,,,,,,,,,,1,,,,,,,,,,,,,,,,,,,,,,,,,,,,,,,,,,,,,,,,,,,,,,110,159550,18,Male,1,2024/03/21_10:59:08,YZ,None,
,,,,,,calibration,0,24,2,426,12,C,0,right,0.5647204570000213,1,0,,,,,,,,,,,,,,,,,,,,,1,,,,,,,,,,,,,,,,,,,,,,,,,,,,,,,,,,,,,,,,,,,,,,110,159550,18,Male,1,2024/03/21_10:59:08,YZ,None,
,,,,,,calibration,0,24,2,426,13,S,0,left,0.5422211439999955,0,0,,,,,,,,,,,,,,,,,,,,,1,,,,,,,,,,,,,,,,,,,,,,,,,,,,,,,,,,,,,,,,,,,,,,110,159550,18,Male,1,2024/03/21_10:59:08,YZ,None,
,,,,,,calibration,0,24,2,426,14,C,1,left,0.5936425849999978,1,0,,,,,,,,,,,,,,,,,,,,,1,,,,,,,,,,,,,,,,,,,,,,,,,,,,,,,,,,,,,,,,,,,,,,110,159550,18,Male,1,2024/03/21_10:59:08,YZ,None,
,,,,,,calibration,0,24,2,426,15,S,1,left,0.8076169180000079,1,0,,,,,,,,,,,,,,,,,,,,,1,,,,,,,,,,,,,,,,,,,,,,,,,,,,,,,,,,,,,,,,,,,,,,110,159550,18,Male,1,2024/03/21_10:59:08,YZ,None,
,,,,,,calibration,0,24,2,426,16,Q,0,right,0.4503392100000383,1,0,,,,,,,,,,,,,,,,,,,,,1,,,,,,,,,,,,,,,,,,,,,,,,,,,,,,,,,,,,,,,,,,,,,,110,159550,18,Male,1,2024/03/21_10:59:08,YZ,None,
,,,,,,calibration,0,24,2,426,17,X,0,right,0.5260816249999607,1,0,,,,,,,,,,,,,,,,,,,,,1,,,,,,,,,,,,,,,,,,,,,,,,,,,,,,,,,,,,,,,,,,,,,,110,159550,18,Male,1,2024/03/21_10:59:08,YZ,None,
,,,,,,calibration,0,24,2,426,,,,,,,,0.7916666666666667,0.6,0.16666666666666666,0.7777777777777778,0.17647058823529413,0.6568627450980392,0.5654059234285731,3,2,0,3,3,7,10,5,12,0,,,,1,,,,,,,,,,,,,,,,,,,,,,,,,,,,,,,,,,,,,,,,,,,,,,110,159550,18,Male,1,2024/03/21_10:59:08,YZ,None,
,,,,,,Calibration,0,,2,426,,,,,,,,,,,,,,,,,,,,,,,,,8,,,1,,,,,,,,,,,,,,,,,,,,,,,,,,,,,,,,,,,,,,,,,,,,,,110,159550,18,Male,1,2024/03/21_10:59:08,YZ,None,
,,,,,,calibration,0,17,2,426,1,Q,0,right,0.5703735499999993,1,0,,,,,,,,,,,,,,,,,,,,,1,,,,,,,,,,,,,,,,,,,,,,,,,,,,,,,,,,,,,,,,,,,,,,110,159550,18,Male,1,2024/03/21_10:59:08,YZ,None,
,,,,,,calibration,0,17,2,426,2,Q,0,left,0.5420253409999987,0,0,,,,,,,,,,,,,,,,,,,,,1,,,,,,,,,,,,,,,,,,,,,,,,,,,,,,,,,,,,,,,,,,,,,,110,159550,18,Male,1,2024/03/21_10:59:08,YZ,None,
,,,,,,calibration,0,17,2,426,3,V,0,right,0.500211873000012,1,0,,,,,,,,,,,,,,,,,,,,,1,,,,,,,,,,,,,,,,,,,,,,,,,,,,,,,,,,,,,,,,,,,,,,110,159550,18,Male,1,2024/03/21_10:59:08,YZ,None,
,,,,,,calibration,0,17,2,426,4,C,0,right,0.6255842349999057,1,0,,,,,,,,,,,,,,,,,,,,,1,,,,,,,,,,,,,,,,,,,,,,,,,,,,,,,,,,,,,,,,,,,,,,110,159550,18,Male,1,2024/03/21_10:59:08,YZ,None,
,,,,,,calibration,0,17,2,426,5,J,0,right,0.4937105059999567,1,0,,,,,,,,,,,,,,,,,,,,,1,,,,,,,,,,,,,,,,,,,,,,,,,,,,,,,,,,,,,,,,,,,,,,110,159550,18,Male,1,2024/03/21_10:59:08,YZ,None,
,,,,,,calibration,0,17,2,426,6,Q,0,right,0.8298028660000227,1,0,,,,,,,,,,,,,,,,,,,,,1,,,,,,,,,,,,,,,,,,,,,,,,,,,,,,,,,,,,,,,,,,,,,,110,159550,18,Male,1,2024/03/21_10:59:08,YZ,None,
,,,,,,calibration,0,17,2,426,7,J,1,right,0.6480548920000047,0,0,,,,,,,,,,,,,,,,,,,,,1,,,,,,,,,,,,,,,,,,,,,,,,,,,,,,,,,,,,,,,,,,,,,,110,159550,18,Male,1,2024/03/21_10:59:08,YZ,None,
,,,,,,calibration,0,17,2,426,8,Q,1,right,0.602080376999993,0,0,,,,,,,,,,,,,,,,,,,,,1,,,,,,,,,,,,,,,,,,,,,,,,,,,,,,,,,,,,,,,,,,,,,,110,159550,18,Male,1,2024/03/21_10:59:08,YZ,None,
,,,,,,calibration,0,17,2,426,9,F,0,right,0.5250212909999163,1,0,,,,,,,,,,,,,,,,,,,,,1,,,,,,,,,,,,,,,,,,,,,,,,,,,,,,,,,,,,,,,,,,,,,,110,159550,18,Male,1,2024/03/21_10:59:08,YZ,None,
,,,,,,calibration,0,17,2,426,10,X,0,right,0.5468440429999646,1,0,,,,,,,,,,,,,,,,,,,,,1,,,,,,,,,,,,,,,,,,,,,,,,,,,,,,,,,,,,,,,,,,,,,,110,159550,18,Male,1,2024/03/21_10:59:08,YZ,None,
,,,,,,calibration,0,17,2,426,11,F,1,left,0.42620020399999703,1,0,,,,,,,,,,,,,,,,,,,,,1,,,,,,,,,,,,,,,,,,,,,,,,,,,,,,,,,,,,,,,,,,,,,,110,159550,18,Male,1,2024/03/21_10:59:08,YZ,None,
,,,,,,calibration,0,17,2,426,12,X,1,left,0.5640928189999386,1,0,,,,,,,,,,,,,,,,,,,,,1,,,,,,,,,,,,,,,,,,,,,,,,,,,,,,,,,,,,,,,,,,,,,,110,159550,18,Male,1,2024/03/21_10:59:08,YZ,None,
,,,,,,calibration,0,17,2,426,13,C,0,right,0.4549815249999938,1,0,,,,,,,,,,,,,,,,,,,,,1,,,,,,,,,,,,,,,,,,,,,,,,,,,,,,,,,,,,,,,,,,,,,,110,159550,18,Male,1,2024/03/21_10:59:08,YZ,None,
,,,,,,calibration,0,17,2,426,14,N,0,right,0.5815297139999984,1,0,,,,,,,,,,,,,,,,,,,,,1,,,,,,,,,,,,,,,,,,,,,,,,,,,,,,,,,,,,,,,,,,,,,,110,159550,18,Male,1,2024/03/21_10:59:08,YZ,None,
,,,,,,calibration,0,17,2,426,15,Q,0,right,0.576150924999979,1,0,,,,,,,,,,,,,,,,,,,,,1,,,,,,,,,,,,,,,,,,,,,,,,,,,,,,,,,,,,,,,,,,,,,,110,159550,18,Male,1,2024/03/21_10:59:08,YZ,None,
,,,,,,calibration,0,17,2,426,16,F,0,left,0.629151001000082,0,0,,,,,,,,,,,,,,,,,,,,,1,,,,,,,,,,,,,,,,,,,,,,,,,,,,,,,,,,,,,,,,,,,,,,110,159550,18,Male,1,2024/03/21_10:59:08,YZ,None,
,,,,,,calibration,0,17,2,426,17,Q,1,right,0.5125817210000605,0,0,,,,,,,,,,,,,,,,,,,,,1,,,,,,,,,,,,,,,,,,,,,,,,,,,,,,,,,,,,,,,,,,,,,,110,159550,18,Male,1,2024/03/21_10:59:08,YZ,None,
,,,,,,calibration,0,17,2,426,,,,,,,,0.7041666666666667,0.4,0.16666666666666666,0.8333333333333334,0.0,0.8333333333333334,0.5663762872352837,2,2,0,0,0,10,12,5,12,0,,,,1,,,,,,,,,,,,,,,,,,,,,,,,,,,,,,,,,,,,,,,,,,,,,,110,159550,18,Male,1,2024/03/21_10:59:08,YZ,None,
,,,,,,Calibration,0,,2,426,,,,,,,,,,,,,,,,,,,,,,,,,9,,,1,,,,,,,,,,,,,,,,,,,,,,,,,,,,,,,,,,,,,,,,,,,,,,110,159550,18,Male,1,2024/03/21_10:59:08,YZ,None,
,,,,,,calibration,0,35,2,500,1,X,0,right,0.9128238130000454,1,0,,,,,,,,,,,,,,,,,,,,,1,,,,,,,,,,,,,,,,,,,,,,,,,,,,,,,,,,,,,,,,,,,,,,110,159550,18,Male,1,2024/03/21_10:59:08,YZ,None,
,,,,,,calibration,0,35,2,500,2,N,0,right,0.5189396389999956,1,0,,,,,,,,,,,,,,,,,,,,,1,,,,,,,,,,,,,,,,,,,,,,,,,,,,,,,,,,,,,,,,,,,,,,110,159550,18,Male,1,2024/03/21_10:59:08,YZ,None,
,,,,,,calibration,0,35,2,500,3,C,0,right,0.4685004469999967,1,0,,,,,,,,,,,,,,,,,,,,,1,,,,,,,,,,,,,,,,,,,,,,,,,,,,,,,,,,,,,,,,,,,,,,110,159550,18,Male,1,2024/03/21_10:59:08,YZ,None,
,,,,,,calibration,0,35,2,500,4,N,1,left,0.45648972699996193,1,0,,,,,,,,,,,,,,,,,,,,,1,,,,,,,,,,,,,,,,,,,,,,,,,,,,,,,,,,,,,,,,,,,,,,110,159550,18,Male,1,2024/03/21_10:59:08,YZ,None,
,,,,,,calibration,0,35,2,500,5,S,0,right,0.5619426219999468,1,0,,,,,,,,,,,,,,,,,,,,,1,,,,,,,,,,,,,,,,,,,,,,,,,,,,,,,,,,,,,,,,,,,,,,110,159550,18,Male,1,2024/03/21_10:59:08,YZ,None,
,,,,,,calibration,0,35,2,500,6,C,0,right,0.6192183800000066,1,0,,,,,,,,,,,,,,,,,,,,,1,,,,,,,,,,,,,,,,,,,,,,,,,,,,,,,,,,,,,,,,,,,,,,110,159550,18,Male,1,2024/03/21_10:59:08,YZ,None,
,,,,,,calibration,0,35,2,500,7,N,0,right,0.6444961790000434,1,0,,,,,,,,,,,,,,,,,,,,,1,,,,,,,,,,,,,,,,,,,,,,,,,,,,,,,,,,,,,,,,,,,,,,110,159550,18,Male,1,2024/03/21_10:59:08,YZ,None,
,,,,,,calibration,0,35,2,500,8,C,1,left,0.5242461999999932,1,0,,,,,,,,,,,,,,,,,,,,,1,,,,,,,,,,,,,,,,,,,,,,,,,,,,,,,,,,,,,,,,,,,,,,110,159550,18,Male,1,2024/03/21_10:59:08,YZ,None,
,,,,,,calibration,0,35,2,500,9,Q,0,right,0.5623317030000408,1,0,,,,,,,,,,,,,,,,,,,,,1,,,,,,,,,,,,,,,,,,,,,,,,,,,,,,,,,,,,,,,,,,,,,,110,159550,18,Male,1,2024/03/21_10:59:08,YZ,None,
,,,,,,calibration,0,35,2,500,10,C,1,right,0.9482956360000117,0,0,,,,,,,,,,,,,,,,,,,,,1,,,,,,,,,,,,,,,,,,,,,,,,,,,,,,,,,,,,,,,,,,,,,,110,159550,18,Male,1,2024/03/21_10:59:08,YZ,None,
,,,,,,calibration,0,35,2,500,11,N,0,right,0.5418077299999595,1,0,,,,,,,,,,,,,,,,,,,,,1,,,,,,,,,,,,,,,,,,,,,,,,,,,,,,,,,,,,,,,,,,,,,,110,159550,18,Male,1,2024/03/21_10:59:08,YZ,None,
,,,,,,calibration,0,35,2,500,12,C,1,left,0.4617941899999778,1,0,,,,,,,,,,,,,,,,,,,,,1,,,,,,,,,,,,,,,,,,,,,,,,,,,,,,,,,,,,,,,,,,,,,,110,159550,18,Male,1,2024/03/21_10:59:08,YZ,None,
,,,,,,calibration,0,35,2,500,13,N,1,right,0.6364036789999545,0,0,,,,,,,,,,,,,,,,,,,,,1,,,,,,,,,,,,,,,,,,,,,,,,,,,,,,,,,,,,,,,,,,,,,,110,159550,18,Male,1,2024/03/21_10:59:08,YZ,None,
,,,,,,calibration,0,35,2,500,14,V,0,right,nan,0,1,,,,,,,,,,,,,,,,,,,,,1,,,,,,,,,,,,,,,,,,,,,,,,,,,,,,,,,,,,,,,,,,,,,,110,159550,18,Male,1,2024/03/21_10:59:08,YZ,None,
,,,,,,calibration,0,35,2,500,15,J,0,right,0.2435621889999311,1,0,,,,,,,,,,,,,,,,,,,,,1,,,,,,,,,,,,,,,,,,,,,,,,,,,,,,,,,,,,,,,,,,,,,,110,159550,18,Male,1,2024/03/21_10:59:08,YZ,None,
,,,,,,calibration,0,35,2,500,16,S,0,right,0.42813773999989735,1,0,,,,,,,,,,,,,,,,,,,,,1,,,,,,,,,,,,,,,,,,,,,,,,,,,,,,,,,,,,,,,,,,,,,,110,159550,18,Male,1,2024/03/21_10:59:08,YZ,None,
,,,,,,calibration,0,35,2,500,,,,,,,,0.9,0.6,0.0,1.0,0.0625,0.9375,0.5685993249333176,3,0,0,1,1,10,13,5,11,0,,,,1,,,,,,,,,,,,,,,,,,,,,,,,,,,,,,,,,,,,,,,,,,,,,,110,159550,18,Male,1,2024/03/21_10:59:08,YZ,None,
,,,,,,Calibration,0,,2,500,,,,,,,,,,,,,,,,,,,,,,,,,10,,,1,,,,,,,,,,,,,,,,,,,,,,,,,,,,,,,,,,,,,,,,,,,,,,110,159550,18,Male,1,2024/03/21_10:59:08,YZ,None,
,,,,,,calibration,0,33,2,426,1,S,0,right,0.3918757829999322,1,0,,,,,,,,,,,,,,,,,,,,,1,,,,,,,,,,,,,,,,,,,,,,,,,,,,,,,,,,,,,,,,,,,,,,110,159550,18,Male,1,2024/03/21_10:59:08,YZ,None,
,,,,,,calibration,0,33,2,426,2,Q,0,right,0.47348317700004827,1,0,,,,,,,,,,,,,,,,,,,,,1,,,,,,,,,,,,,,,,,,,,,,,,,,,,,,,,,,,,,,,,,,,,,,110,159550,18,Male,1,2024/03/21_10:59:08,YZ,None,
,,,,,,calibration,0,33,2,426,3,J,0,right,0.5241885959999308,1,0,,,,,,,,,,,,,,,,,,,,,1,,,,,,,,,,,,,,,,,,,,,,,,,,,,,,,,,,,,,,,,,,,,,,110,159550,18,Male,1,2024/03/21_10:59:08,YZ,None,
,,,,,,calibration,0,33,2,426,4,S,0,left,0.6218801779999694,0,0,,,,,,,,,,,,,,,,,,,,,1,,,,,,,,,,,,,,,,,,,,,,,,,,,,,,,,,,,,,,,,,,,,,,110,159550,18,Male,1,2024/03/21_10:59:08,YZ,None,
,,,,,,calibration,0,33,2,426,5,V,0,right,0.4215736849999985,1,0,,,,,,,,,,,,,,,,,,,,,1,,,,,,,,,,,,,,,,,,,,,,,,,,,,,,,,,,,,,,,,,,,,,,110,159550,18,Male,1,2024/03/21_10:59:08,YZ,None,
,,,,,,calibration,0,33,2,426,6,F,0,right,0.5240767320000259,1,0,,,,,,,,,,,,,,,,,,,,,1,,,,,,,,,,,,,,,,,,,,,,,,,,,,,,,,,,,,,,,,,,,,,,110,159550,18,Male,1,2024/03/21_10:59:08,YZ,None,
,,,,,,calibration,0,33,2,426,7,V,1,left,0.37985275599999113,1,0,,,,,,,,,,,,,,,,,,,,,1,,,,,,,,,,,,,,,,,,,,,,,,,,,,,,,,,,,,,,,,,,,,,,110,159550,18,Male,1,2024/03/21_10:59:08,YZ,None,
,,,,,,calibration,0,33,2,426,8,F,1,left,0.42423999499999354,1,0,,,,,,,,,,,,,,,,,,,,,1,,,,,,,,,,,,,,,,,,,,,,,,,,,,,,,,,,,,,,,,,,,,,,110,159550,18,Male,1,2024/03/21_10:59:08,YZ,None,
,,,,,,calibration,0,33,2,426,9,Q,0,right,0.5694233269999813,1,0,,,,,,,,,,,,,,,,,,,,,1,,,,,,,,,,,,,,,,,,,,,,,,,,,,,,,,,,,,,,,,,,,,,,110,159550,18,Male,1,2024/03/21_10:59:08,YZ,None,
,,,,,,calibration,0,33,2,426,10,N,0,right,nan,0,1,,,,,,,,,,,,,,,,,,,,,1,,,,,,,,,,,,,,,,,,,,,,,,,,,,,,,,,,,,,,,,,,,,,,110,159550,18,Male,1,2024/03/21_10:59:08,YZ,None,
,,,,,,calibration,0,33,2,426,11,X,0,right,0.5577723999999762,1,0,,,,,,,,,,,,,,,,,,,,,1,,,,,,,,,,,,,,,,,,,,,,,,,,,,,,,,,,,,,,,,,,,,,,110,159550,18,Male,1,2024/03/21_10:59:08,YZ,None,
,,,,,,calibration,0,33,2,426,12,J,0,right,0.4799997950000261,1,0,,,,,,,,,,,,,,,,,,,,,1,,,,,,,,,,,,,,,,,,,,,,,,,,,,,,,,,,,,,,,,,,,,,,110,159550,18,Male,1,2024/03/21_10:59:08,YZ,None,
,,,,,,calibration,0,33,2,426,13,X,1,right,0.5654341599999952,0,0,,,,,,,,,,,,,,,,,,,,,1,,,,,,,,,,,,,,,,,,,,,,,,,,,,,,,,,,,,,,,,,,,,,,110,159550,18,Male,1,2024/03/21_10:59:08,YZ,None,
,,,,,,calibration,0,33,2,426,14,C,0,right,0.4584098269999686,1,0,,,,,,,,,,,,,,,,,,,,,1,,,,,,,,,,,,,,,,,,,,,,,,,,,,,,,,,,,,,,,,,,,,,,110,159550,18,Male,1,2024/03/21_10:59:08,YZ,None,
,,,,,,calibration,0,33,2,426,15,Q,0,right,0.5650840869999456,1,0,,,,,,,,,,,,,,,,,,,,,1,,,,,,,,,,,,,,,,,,,,,,,,,,,,,,,,,,,,,,,,,,,,,,110,159550,18,Male,1,2024/03/21_10:59:08,YZ,None,
,,,,,,calibration,0,33,2,426,16,C,1,left,0.7250956199999337,1,0,,,,,,,,,,,,,,,,,,,,,1,,,,,,,,,,,,,,,,,,,,,,,,,,,,,,,,,,,,,,,,,,,,,,110,159550,18,Male,1,2024/03/21_10:59:08,YZ,None,
,,,,,,calibration,0,33,2,426,17,Q,1,left,0.7540561110000681,1,0,,,,,,,,,,,,,,,,,,,,,1,,,,,,,,,,,,,,,,,,,,,,,,,,,,,,,,,,,,,,,,,,,,,,110,159550,18,Male,1,2024/03/21_10:59:08,YZ,None,
,,,,,,calibration,0,33,2,426,,,,,,,,0.9125000000000001,0.8,0.08333333333333333,0.9090909090909091,0.058823529411764705,0.8578431372549019,0.5272778893124865,4,1,0,1,1,10,14,5,12,0,,,,1,,,,,,,,,,,,,,,,,,,,,,,,,,,,,,,,,,,,,,,,,,,,,,110,159550,18,Male,1,2024/03/21_10:59:08,YZ,None,
,,,,,,Calibration,0,,2,426,,,,,,,,,,,,,,,,,,,,,,,,,11,,,1,,,,,,,,,,,,,,,,,,,,,,,,,,,,,,,,,,,,,,,,,,,,,,110,159550,18,Male,1,2024/03/21_10:59:08,YZ,None,
,,,,,,calibration,0,4,2,361,1,V,0,right,0.5437081269999453,1,0,,,,,,,,,,,,,,,,,,,,,1,,,,,,,,,,,,,,,,,,,,,,,,,,,,,,,,,,,,,,,,,,,,,,110,159550,18,Male,1,2024/03/21_10:59:08,YZ,None,
,,,,,,calibration,0,4,2,361,2,N,0,right,0.441538047999984,1,0,,,,,,,,,,,,,,,,,,,,,1,,,,,,,,,,,,,,,,,,,,,,,,,,,,,,,,,,,,,,,,,,,,,,110,159550,18,Male,1,2024/03/21_10:59:08,YZ,None,
,,,,,,calibration,0,4,2,361,3,V,1,left,0.6714623739999297,1,0,,,,,,,,,,,,,,,,,,,,,1,,,,,,,,,,,,,,,,,,,,,,,,,,,,,,,,,,,,,,,,,,,,,,110,159550,18,Male,1,2024/03/21_10:59:08,YZ,None,
,,,,,,calibration,0,4,2,361,4,N,1,left,0.41993237999997746,1,0,,,,,,,,,,,,,,,,,,,,,1,,,,,,,,,,,,,,,,,,,,,,,,,,,,,,,,,,,,,,,,,,,,,,110,159550,18,Male,1,2024/03/21_10:59:08,YZ,None,
,,,,,,calibration,0,4,2,361,5,J,0,right,0.610175548999905,1,0,,,,,,,,,,,,,,,,,,,,,1,,,,,,,,,,,,,,,,,,,,,,,,,,,,,,,,,,,,,,,,,,,,,,110,159550,18,Male,1,2024/03/21_10:59:08,YZ,None,
,,,,,,calibration,0,4,2,361,6,X,0,right,0.49727102399992873,1,0,,,,,,,,,,,,,,,,,,,,,1,,,,,,,,,,,,,,,,,,,,,,,,,,,,,,,,,,,,,,,,,,,,,,110,159550,18,Male,1,2024/03/21_10:59:08,YZ,None,
,,,,,,calibration,0,4,2,361,7,S,0,right,0.6094513979999192,1,0,,,,,,,,,,,,,,,,,,,,,1,,,,,,,,,,,,,,,,,,,,,,,,,,,,,,,,,,,,,,,,,,,,,,110,159550,18,Male,1,2024/03/21_10:59:08,YZ,None,
,,,,,,calibration,0,4,2,361,8,C,0,right,0.4609388600000557,1,0,,,,,,,,,,,,,,,,,,,,,1,,,,,,,,,,,,,,,,,,,,,,,,,,,,,,,,,,,,,,,,,,,,,,110,159550,18,Male,1,2024/03/21_10:59:08,YZ,None,
,,,,,,calibration,0,4,2,361,9,Q,0,right,0.4911118790000728,1,0,,,,,,,,,,,,,,,,,,,,,1,,,,,,,,,,,,,,,,,,,,,,,,,,,,,,,,,,,,,,,,,,,,,,110,159550,18,Male,1,2024/03/21_10:59:08,YZ,None,
,,,,,,calibration,0,4,2,361,10,S,0,right,0.47728578099997776,1,0,,,,,,,,,,,,,,,,,,,,,1,,,,,,,,,,,,,,,,,,,,,,,,,,,,,,,,,,,,,,,,,,,,,,110,159550,18,Male,1,2024/03/21_10:59:08,YZ,None,
,,,,,,calibration,0,4,2,361,11,X,0,right,0.5732948500000248,1,0,,,,,,,,,,,,,,,,,,,,,1,,,,,,,,,,,,,,,,,,,,,,,,,,,,,,,,,,,,,,,,,,,,,,110,159550,18,Male,1,2024/03/21_10:59:08,YZ,None,
,,,,,,calibration,0,4,2,361,12,S,1,right,0.4474714309999399,0,0,,,,,,,,,,,,,,,,,,,,,1,,,,,,,,,,,,,,,,,,,,,,,,,,,,,,,,,,,,,,,,,,,,,,110,159550,18,Male,1,2024/03/21_10:59:08,YZ,None,
,,,,,,calibration,0,4,2,361,13,X,1,right,0.5636266179999438,0,0,,,,,,,,,,,,,,,,,,,,,1,,,,,,,,,,,,,,,,,,,,,,,,,,,,,,,,,,,,,,,,,,,,,,110,159550,18,Male,1,2024/03/21_10:59:08,YZ,None,
,,,,,,calibration,0,4,2,361,14,V,0,right,0.4439513809999198,1,0,,,,,,,,,,,,,,,,,,,,,1,,,,,,,,,,,,,,,,,,,,,,,,,,,,,,,,,,,,,,,,,,,,,,110,159550,18,Male,1,2024/03/21_10:59:08,YZ,None,
,,,,,,calibration,0,4,2,361,15,N,0,right,0.5564785550000124,1,0,,,,,,,,,,,,,,,,,,,,,1,,,,,,,,,,,,,,,,,,,,,,,,,,,,,,,,,,,,,,,,,,,,,,110,159550,18,Male,1,2024/03/21_10:59:08,YZ,None,
,,,,,,calibration,0,4,2,361,16,F,0,right,0.49224223899989283,1,0,,,,,,,,,,,,,,,,,,,,,1,,,,,,,,,,,,,,,,,,,,,,,,,,,,,,,,,,,,,,,,,,,,,,110,159550,18,Male,1,2024/03/21_10:59:08,YZ,None,
,,,,,,calibration,0,4,2,361,17,X,0,left,0.9349420290000126,0,0,,,,,,,,,,,,,,,,,,,,,1,,,,,,,,,,,,,,,,,,,,,,,,,,,,,,,,,,,,,,,,,,,,,,110,159550,18,Male,1,2024/03/21_10:59:08,YZ,None,
,,,,,,calibration,0,4,2,361,18,F,1,left,0.5906047150000404,1,0,,,,,,,,,,,,,,,,,,,,,1,,,,,,,,,,,,,,,,,,,,,,,,,,,,,,,,,,,,,,,,,,,,,,110,159550,18,Male,1,2024/03/21_10:59:08,YZ,None,
,,,,,,calibration,0,4,2,361,,,,,,,,0.85,0.6,0.07692307692307693,0.9230769230769231,0.0,0.9230769230769231,0.5458604021110823,3,1,0,0,0,12,15,5,13,0,,,,1,,,,,,,,,,,,,,,,,,,,,,,,,,,,,,,,,,,,,,,,,,,,,,110,159550,18,Male,1,2024/03/21_10:59:08,YZ,None,
,,,,,,Calibration,0,,2,361,,,,,,,,,,,,,,,,,,,,,,,,,12,,,1,,,,,,,,,,,,,,,,,,,,,,,,,,,,,,,,,,,,,,,,,,,,,,110,159550,18,Male,1,2024/03/21_10:59:08,YZ,None,
,,,,,,calibration,0,10,2,361,1,X,0,None,nan,0,1,,,,,,,,,,,,,,,,,,,,,1,,,,,,,,,,,,,,,,,,,,,,,,,,,,,,,,,,,,,,,,,,,,,,110,159550,18,Male,1,2024/03/21_10:59:08,YZ,None,
,,,,,,calibration,0,10,2,361,2,X,0,left,0.5422115310000208,0,0,,,,,,,,,,,,,,,,,,,,,1,,,,,,,,,,,,,,,,,,,,,,,,,,,,,,,,,,,,,,,,,,,,,,110,159550,18,Male,1,2024/03/21_10:59:08,YZ,None,
,,,,,,calibration,0,10,2,361,3,X,1,left,0.36867051599995193,1,0,,,,,,,,,,,,,,,,,,,,,1,,,,,,,,,,,,,,,,,,,,,,,,,,,,,,,,,,,,,,,,,,,,,,110,159550,18,Male,1,2024/03/21_10:59:08,YZ,None,
,,,,,,calibration,0,10,2,361,4,N,0,left,nan,0,1,,,,,,,,,,,,,,,,,,,,,1,,,,,,,,,,,,,,,,,,,,,,,,,,,,,,,,,,,,,,,,,,,,,,110,159550,18,Male,1,2024/03/21_10:59:08,YZ,None,
,,,,,,calibration,0,10,2,361,5,Q,0,right,0.11523584999997638,1,0,,,,,,,,,,,,,,,,,,,,,1,,,,,,,,,,,,,,,,,,,,,,,,,,,,,,,,,,,,,,,,,,,,,,110,159550,18,Male,1,2024/03/21_10:59:08,YZ,None,
,,,,,,calibration,0,10,2,361,6,F,0,right,0.6321653109999943,1,0,,,,,,,,,,,,,,,,,,,,,1,,,,,,,,,,,,,,,,,,,,,,,,,,,,,,,,,,,,,,,,,,,,,,110,159550,18,Male,1,2024/03/21_10:59:08,YZ,None,
,,,,,,calibration,0,10,2,361,7,N,0,right,nan,0,1,,,,,,,,,,,,,,,,,,,,,1,,,,,,,,,,,,,,,,,,,,,,,,,,,,,,,,,,,,,,,,,,,,,,110,159550,18,Male,1,2024/03/21_10:59:08,YZ,None,
,,,,,,calibration,0,10,2,361,8,F,1,right,0.0,0,0,,,,,,,,,,,,,,,,,,,,,1,,,,,,,,,,,,,,,,,,,,,,,,,,,,,,,,,,,,,,,,,,,,,,110,159550,18,Male,1,2024/03/21_10:59:08,YZ,None,
,,,,,,calibration,0,10,2,361,9,N,1,left,0.13844578600003388,1,0,,,,,,,,,,,,,,,,,,,,,1,,,,,,,,,,,,,,,,,,,,,,,,,,,,,,,,,,,,,,,,,,,,,,110,159550,18,Male,1,2024/03/21_10:59:08,YZ,None,
,,,,,,calibration,0,10,2,361,10,V,0,right,0.7287387060000583,1,0,,,,,,,,,,,,,,,,,,,,,1,,,,,,,,,,,,,,,,,,,,,,,,,,,,,,,,,,,,,,,,,,,,,,110,159550,18,Male,1,2024/03/21_10:59:08,YZ,None,
,,,,,,calibration,0,10,2,361,11,F,0,left,0.5385299629999736,0,0,,,,,,,,,,,,,,,,,,,,,1,,,,,,,,,,,,,,,,,,,,,,,,,,,,,,,,,,,,,,,,,,,,,,110,159550,18,Male,1,2024/03/21_10:59:08,YZ,None,
,,,,,,calibration,0,10,2,361,12,V,1,left,0.7402720460000864,1,0,,,,,,,,,,,,,,,,,,,,,1,,,,,,,,,,,,,,,,,,,,,,,,,,,,,,,,,,,,,,,,,,,,,,110,159550,18,Male,1,2024/03/21_10:59:08,YZ,None,
,,,,,,calibration,0,10,2,361,13,Q,0,right,0.5123132530000021,1,0,,,,,,,,,,,,,,,,,,,,,1,,,,,,,,,,,,,,,,,,,,,,,,,,,,,,,,,,,,,,,,,,,,,,110,159550,18,Male,1,2024/03/21_10:59:08,YZ,None,
,,,,,,calibration,0,10,2,361,14,N,0,left,0.6976818440000443,0,0,,,,,,,,,,,,,,,,,,,,,1,,,,,,,,,,,,,,,,,,,,,,,,,,,,,,,,,,,,,,,,,,,,,,110,159550,18,Male,1,2024/03/21_10:59:08,YZ,None,
,,,,,,calibration,0,10,2,361,15,X,0,right,0.44388398499995674,1,0,,,,,,,,,,,,,,,,,,,,,1,,,,,,,,,,,,,,,,,,,,,,,,,,,,,,,,,,,,,,,,,,,,,,110,159550,18,Male,1,2024/03/21_10:59:08,YZ,None,
,,,,,,calibration,0,10,2,361,16,S,0,right,0.5130134809999163,1,0,,,,,,,,,,,,,,,,,,,,,1,,,,,,,,,,,,,,,,,,,,,,,,,,,,,,,,,,,,,,,,,,,,,,110,159550,18,Male,1,2024/03/21_10:59:08,YZ,None,
,,,,,,calibration,0,10,2,361,17,X,1,right,0.3213414859999375,0,0,,,,,,,,,,,,,,,,,,,,,1,,,,,,,,,,,,,,,,,,,,,,,,,,,,,,,,,,,,,,,,,,,,,,110,159550,18,Male,1,2024/03/21_10:59:08,YZ,None,
,,,,,,calibration,0,10,2,361,18,S,1,right,0.46418938100009655,0,0,,,,,,,,,,,,,,,,,,,,,1,,,,,,,,,,,,,,,,,,,,,,,,,,,,,,,,,,,,,,,,,,,,,,110,159550,18,Male,1,2024/03/21_10:59:08,YZ,None,
,,,,,,calibration,0,10,2,361,,,,,,,,0.6875,0.5,0.25,0.6666666666666666,0.16666666666666666,0.5833333333333334,0.45044620926666995,3,3,0,3,3,6,9,6,12,0,,,,1,,,,,,,,,,,,,,,,,,,,,,,,,,,,,,,,,,,,,,,,,,,,,,110,159550,18,Male,1,2024/03/21_10:59:08,YZ,None,
,,,,,,Calibration,0,,2,361,,,,,,,,,,,,,,,,,,,,,,,,,13,,,1,,,,,,,,,,,,,,,,,,,,,,,,,,,,,,,,,,,,,,,,,,,,,,110,159550,18,Male,1,2024/03/21_10:59:08,YZ,None,
,,,,,,calibration,0,26,2,426,1,N,0,None,nan,0,1,,,,,,,,,,,,,,,,,,,,,1,,,,,,,,,,,,,,,,,,,,,,,,,,,,,,,,,,,,,,,,,,,,,,110,159550,18,Male,1,2024/03/21_10:59:08,YZ,None,
,,,,,,calibration,0,26,2,426,2,F,0,right,0.0,1,0,,,,,,,,,,,,,,,,,,,,,1,,,,,,,,,,,,,,,,,,,,,,,,,,,,,,,,,,,,,,,,,,,,,,110,159550,18,Male,1,2024/03/21_10:59:08,YZ,None,
,,,,,,calibration,0,26,2,426,3,N,1,right,0.12050576100000399,0,0,,,,,,,,,,,,,,,,,,,,,1,,,,,,,,,,,,,,,,,,,,,,,,,,,,,,,,,,,,,,,,,,,,,,110,159550,18,Male,1,2024/03/21_10:59:08,YZ,None,
,,,,,,calibration,0,26,2,426,4,S,0,left,0.0,0,0,,,,,,,,,,,,,,,,,,,,,1,,,,,,,,,,,,,,,,,,,,,,,,,,,,,,,,,,,,,,,,,,,,,,110,159550,18,Male,1,2024/03/21_10:59:08,YZ,None,
,,,,,,calibration,0,26,2,426,5,V,0,right,0.6810014659999979,1,0,,,,,,,,,,,,,,,,,,,,,1,,,,,,,,,,,,,,,,,,,,,,,,,,,,,,,,,,,,,,,,,,,,,,110,159550,18,Male,1,2024/03/21_10:59:08,YZ,None,
,,,,,,calibration,0,26,2,426,6,Q,0,right,0.5232101749999174,1,0,,,,,,,,,,,,,,,,,,,,,1,,,,,,,,,,,,,,,,,,,,,,,,,,,,,,,,,,,,,,,,,,,,,,110,159550,18,Male,1,2024/03/21_10:59:08,YZ,None,
,,,,,,calibration,0,26,2,426,7,V,1,left,0.6428301460000512,1,0,,,,,,,,,,,,,,,,,,,,,1,,,,,,,,,,,,,,,,,,,,,,,,,,,,,,,,,,,,,,,,,,,,,,110,159550,18,Male,1,2024/03/21_10:59:08,YZ,None,
,,,,,,calibration,0,26,2,426,8,Q,1,left,0.36084386599998197,1,0,,,,,,,,,,,,,,,,,,,,,1,,,,,,,,,,,,,,,,,,,,,,,,,,,,,,,,,,,,,,,,,,,,,,110,159550,18,Male,1,2024/03/21_10:59:08,YZ,None,
,,,,,,calibration,0,26,2,426,9,J,0,left,0.6644301399999222,0,0,,,,,,,,,,,,,,,,,,,,,1,,,,,,,,,,,,,,,,,,,,,,,,,,,,,,,,,,,,,,,,,,,,,,110,159550,18,Male,1,2024/03/21_10:59:08,YZ,None,
,,,,,,calibration,0,26,2,426,10,S,0,right,0.3322430150000173,1,0,,,,,,,,,,,,,,,,,,,,,1,,,,,,,,,,,,,,,,,,,,,,,,,,,,,,,,,,,,,,,,,,,,,,110,159550,18,Male,1,2024/03/21_10:59:08,YZ,None,
,,,,,,calibration,0,26,2,426,11,J,1,right,0.44181140900002447,0,0,,,,,,,,,,,,,,,,,,,,,1,,,,,,,,,,,,,,,,,,,,,,,,,,,,,,,,,,,,,,,,,,,,,,110,159550,18,Male,1,2024/03/21_10:59:08,YZ,None,
,,,,,,calibration,0,26,2,426,12,V,0,right,0.43523818300002404,1,0,,,,,,,,,,,,,,,,,,,,,1,,,,,,,,,,,,,,,,,,,,,,,,,,,,,,,,,,,,,,,,,,,,,,110,159550,18,Male,1,2024/03/21_10:59:08,YZ,None,
,,,,,,calibration,0,26,2,426,13,X,0,right,0.5238576030000104,1,0,,,,,,,,,,,,,,,,,,,,,1,,,,,,,,,,,,,,,,,,,,,,,,,,,,,,,,,,,,,,,,,,,,,,110,159550,18,Male,1,2024/03/21_10:59:08,YZ,None,
,,,,,,calibration,0,26,2,426,14,V,1,left,0.8224356009999383,1,0,,,,,,,,,,,,,,,,,,,,,1,,,,,,,,,,,,,,,,,,,,,,,,,,,,,,,,,,,,,,,,,,,,,,110,159550,18,Male,1,2024/03/21_10:59:08,YZ,None,
,,,,,,calibration,0,26,2,426,15,F,0,right,0.6296319499999754,1,0,,,,,,,,,,,,,,,,,,,,,1,,,,,,,,,,,,,,,,,,,,,,,,,,,,,,,,,,,,,,,,,,,,,,110,159550,18,Male,1,2024/03/21_10:59:08,YZ,None,
,,,,,,calibration,0,26,2,426,16,S,0,right,0.5124953539999524,1,0,,,,,,,,,,,,,,,,,,,,,1,,,,,,,,,,,,,,,,,,,,,,,,,,,,,,,,,,,,,,,,,,,,,,110,159550,18,Male,1,2024/03/21_10:59:08,YZ,None,
,,,,,,calibration,0,26,2,426,17,J,0,right,0.47844920899990484,1,0,,,,,,,,,,,,,,,,,,,,,1,,,,,,,,,,,,,,,,,,,,,,,,,,,,,,,,,,,,,,,,,,,,,,110,159550,18,Male,1,2024/03/21_10:59:08,YZ,None,
,,,,,,calibration,0,26,2,426,,,,,,,,0.7916666666666667,0.6,0.16666666666666666,0.8181818181818182,0.058823529411764705,0.7745098039215687,0.4480614923749826,3,2,0,1,1,9,12,5,12,0,,,,1,,,,,,,,,,,,,,,,,,,,,,,,,,,,,,,,,,,,,,,,,,,,,,110,159550,18,Male,1,2024/03/21_10:59:08,YZ,None,
,,,,,,Calibration,0,,2,426,,,,,,,,,,,,,,,,,,,,,,,,,14,,,1,,,,,,,,,,,,,,,,,,,,,,,,,,,,,,,,,,,,,,,,,,,,,,110,159550,18,Male,1,2024/03/21_10:59:08,YZ,None,
,,,,,,calibration,0,33,2,426,1,S,0,right,0.43148435299997345,1,0,,,,,,,,,,,,,,,,,,,,,1,,,,,,,,,,,,,,,,,,,,,,,,,,,,,,,,,,,,,,,,,,,,,,110,159550,18,Male,1,2024/03/21_10:59:08,YZ,None,
,,,,,,calibration,0,33,2,426,2,Q,0,right,0.3157371569999441,1,0,,,,,,,,,,,,,,,,,,,,,1,,,,,,,,,,,,,,,,,,,,,,,,,,,,,,,,,,,,,,,,,,,,,,110,159550,18,Male,1,2024/03/21_10:59:08,YZ,None,
,,,,,,calibration,0,33,2,426,3,J,0,right,0.44144650000009733,1,0,,,,,,,,,,,,,,,,,,,,,1,,,,,,,,,,,,,,,,,,,,,,,,,,,,,,,,,,,,,,,,,,,,,,110,159550,18,Male,1,2024/03/21_10:59:08,YZ,None,
,,,,,,calibration,0,33,2,426,4,S,0,right,0.49565478600004553,1,0,,,,,,,,,,,,,,,,,,,,,1,,,,,,,,,,,,,,,,,,,,,,,,,,,,,,,,,,,,,,,,,,,,,,110,159550,18,Male,1,2024/03/21_10:59:08,YZ,None,
,,,,,,calibration,0,33,2,426,5,V,0,right,0.5412348149999389,1,0,,,,,,,,,,,,,,,,,,,,,1,,,,,,,,,,,,,,,,,,,,,,,,,,,,,,,,,,,,,,,,,,,,,,110,159550,18,Male,1,2024/03/21_10:59:08,YZ,None,
,,,,,,calibration,0,33,2,426,6,F,0,right,0.4870888329999161,1,0,,,,,,,,,,,,,,,,,,,,,1,,,,,,,,,,,,,,,,,,,,,,,,,,,,,,,,,,,,,,,,,,,,,,110,159550,18,Male,1,2024/03/21_10:59:08,YZ,None,
,,,,,,calibration,0,33,2,426,7,V,1,left,0.6419473759999619,1,0,,,,,,,,,,,,,,,,,,,,,1,,,,,,,,,,,,,,,,,,,,,,,,,,,,,,,,,,,,,,,,,,,,,,110,159550,18,Male,1,2024/03/21_10:59:08,YZ,None,
,,,,,,calibration,0,33,2,426,8,F,1,right,0.3780123189999358,0,0,,,,,,,,,,,,,,,,,,,,,1,,,,,,,,,,,,,,,,,,,,,,,,,,,,,,,,,,,,,,,,,,,,,,110,159550,18,Male,1,2024/03/21_10:59:08,YZ,None,
,,,,,,calibration,0,33,2,426,9,Q,0,right,0.4554988009999761,1,0,,,,,,,,,,,,,,,,,,,,,1,,,,,,,,,,,,,,,,,,,,,,,,,,,,,,,,,,,,,,,,,,,,,,110,159550,18,Male,1,2024/03/21_10:59:08,YZ,None,
,,,,,,calibration,0,33,2,426,10,N,0,right,0.5356178889999228,1,0,,,,,,,,,,,,,,,,,,,,,1,,,,,,,,,,,,,,,,,,,,,,,,,,,,,,,,,,,,,,,,,,,,,,110,159550,18,Male,1,2024/03/21_10:59:08,YZ,None,
,,,,,,calibration,0,33,2,426,11,X,0,right,0.35876782299999377,1,0,,,,,,,,,,,,,,,,,,,,,1,,,,,,,,,,,,,,,,,,,,,,,,,,,,,,,,,,,,,,,,,,,,,,110,159550,18,Male,1,2024/03/21_10:59:08,YZ,None,
,,,,,,calibration,0,33,2,426,12,J,0,right,0.3457796469999721,1,0,,,,,,,,,,,,,,,,,,,,,1,,,,,,,,,,,,,,,,,,,,,,,,,,,,,,,,,,,,,,,,,,,,,,110,159550,18,Male,1,2024/03/21_10:59:08,YZ,None,
,,,,,,calibration,0,33,2,426,13,X,1,right,0.3536238809999759,0,0,,,,,,,,,,,,,,,,,,,,,1,,,,,,,,,,,,,,,,,,,,,,,,,,,,,,,,,,,,,,,,,,,,,,110,159550,18,Male,1,2024/03/21_10:59:08,YZ,None,
,,,,,,calibration,0,33,2,426,14,C,0,right,0.365609854000013,1,0,,,,,,,,,,,,,,,,,,,,,1,,,,,,,,,,,,,,,,,,,,,,,,,,,,,,,,,,,,,,,,,,,,,,110,159550,18,Male,1,2024/03/21_10:59:08,YZ,None,
,,,,,,calibration,0,33,2,426,15,Q,0,right,0.3390415830000393,1,0,,,,,,,,,,,,,,,,,,,,,1,,,,,,,,,,,,,,,,,,,,,,,,,,,,,,,,,,,,,,,,,,,,,,110,159550,18,Male,1,2024/03/21_10:59:08,YZ,None,
,,,,,,calibration,0,33,2,426,16,C,1,left,0.5127466019999929,1,0,,,,,,,,,,,,,,,,,,,,,1,,,,,,,,,,,,,,,,,,,,,,,,,,,,,,,,,,,,,,,,,,,,,,110,159550,18,Male,1,2024/03/21_10:59:08,YZ,None,
,,,,,,calibration,0,33,2,426,17,Q,1,right,0.4812534139999798,0,0,,,,,,,,,,,,,,,,,,,,,1,,,,,,,,,,,,,,,,,,,,,,,,,,,,,,,,,,,,,,,,,,,,,,110,159550,18,Male,1,2024/03/21_10:59:08,YZ,None,
,,,,,,calibration,0,33,2,426,,,,,,,,0.85,0.4,0.0,1.0,0.0,1.0,0.4400320960588046,2,0,0,0,0,12,14,5,12,0,,,,1,,,,,,,,,,,,,,,,,,,,,,,,,,,,,,,,,,,,,,,,,,,,,,110,159550,18,Male,1,2024/03/21_10:59:08,YZ,None,
,,,,,,Calibration,0,,2,426,,,,,,,,,,,,,,,,,,,,,,,,,15,,,1,,,,,,,,,,,,,,,,,,,,,,,,,,,,,,,,,,,,,,,,,,,,,,110,159550,18,Male,1,2024/03/21_10:59:08,YZ,None,
,,,,,,CALIBRATION,0,,,,,,,,,,,,,,,,,,,,,,,,,,,,15,0.85,426,1,,,,,,,,,,,,,,,,,,,,,,,,,,,,,,,,,,,,,,,,,,,,,,110,159550,18,Male,1,2024/03/21_10:59:08,YZ,None,
1,./instructions/inst_prac_1/Slide24.png,right,13.73925581200001,468.38164443,482.120900242,,,,,,,,,,,,,,,,,,,,,,,,,,,,,,,,,1,,,,,,,,,,,,,,,,,,,,,,,,,,,,,,,,,,,,,,,,,,,,,,110,159550,18,Male,1,2024/03/21_10:59:08,YZ,None,
2,./instructions/inst_prac_1/Slide25.png,right,2.821352862999902,482.17935620400004,485.00070906699995,,,,,,,,,,,,,,,,,,,,,,,,,,,,,,,,,1,,,,,,,,,,,,,,,,,,,,,,,,,,,,,,,,,,,,,,,,,,,,,,110,159550,18,Male,1,2024/03/21_10:59:08,YZ,None,
3,./instructions/inst_prac_1/Slide26.png,right,0.46535318600001574,485.047362686,485.512715872,,,,,,,,,,,,,,,,,,,,,,,,,,,,,,,,,1,,,,,,,,,,,,,,,,,,,,,,,,,,,,,,,,,,,,,,,,,,,,,,110,159550,18,Male,1,2024/03/21_10:59:08,YZ,None,
2,./instructions/inst_prac_1/Slide27.png,left,0.7608200779999379,485.56016830100003,486.32098837899997,,,,,,,,,,,,,,,,,,,,,,,,,,,,,,,,,1,,,,,,,,,,,,,,,,,,,,,,,,,,,,,,,,,,,,,,,,,,,,,,110,159550,18,Male,1,2024/03/21_10:59:08,YZ,None,
3,./instructions/inst_prac_1/Slide26.png,right,0.6522862260000011,486.34841031799994,487.00069654399994,,,,,,,,,,,,,,,,,,,,,,,,,,,,,,,,,1,,,,,,,,,,,,,,,,,,,,,,,,,,,,,,,,,,,,,,,,,,,,,,110,159550,18,Male,1,2024/03/21_10:59:08,YZ,None,
4,./instructions/inst_prac_1/Slide27.png,right,0.38678476400002637,487.0299663,487.41675106400004,,,,,,,,,,,,,,,,,,,,,,,,,,,,,,,,,1,,,,,,,,,,,,,,,,,,,,,,,,,,,,,,,,,,,,,,,,,,,,,,110,159550,18,Male,1,2024/03/21_10:59:08,YZ,None,
3,./instructions/inst_prac_1/Slide28.png,left,1.0261508539999795,487.45479346400003,488.480944318,,,,,,,,,,,,,,,,,,,,,,,,,,,,,,,,,1,,,,,,,,,,,,,,,,,,,,,,,,,,,,,,,,,,,,,,,,,,,,,,110,159550,18,Male,1,2024/03/21_10:59:08,YZ,None,
4,./instructions/inst_prac_1/Slide27.png,right,1.5057670080000207,488.50308060599997,490.008847614,,,,,,,,,,,,,,,,,,,,,,,,,,,,,,,,,1,,,,,,,,,,,,,,,,,,,,,,,,,,,,,,,,,,,,,,,,,,,,,,110,159550,18,Male,1,2024/03/21_10:59:08,YZ,None,
5,./instructions/inst_prac_1/Slide28.png,right,1.1417693260000306,490.03494406199997,491.176713388,,,,,,,,,,,,,,,,,,,,,,,,,,,,,,,,,1,,,,,,,,,,,,,,,,,,,,,,,,,,,,,,,,,,,,,,,,,,,,,,110,159550,18,Male,1,2024/03/21_10:59:08,YZ,None,
4,./instructions/inst_prac_1/Slide29.png,left,1.268747443000052,491.22840352299994,492.497150966,,,,,,,,,,,,,,,,,,,,,,,,,,,,,,,,,1,,,,,,,,,,,,,,,,,,,,,,,,,,,,,,,,,,,,,,,,,,,,,,110,159550,18,Male,1,2024/03/21_10:59:08,YZ,None,
5,./instructions/inst_prac_1/Slide28.png,right,1.0488398559999723,492.520105924,493.56894578,,,,,,,,,,,,,,,,,,,,,,,,,,,,,,,,,1,,,,,,,,,,,,,,,,,,,,,,,,,,,,,,,,,,,,,,,,,,,,,,110,159550,18,Male,1,2024/03/21_10:59:08,YZ,None,
6,./instructions/inst_prac_1/Slide29.png,right,4.779523341999948,493.597443834,498.37696717599994,,,,,,,,,,,,,,,,,,,,,,,,,,,,,,,,,1,,,,,,,,,,,,,,,,,,,,,,,,,,,,,,,,,,,,,,,,,,,,,,110,159550,18,Male,1,2024/03/21_10:59:08,YZ,None,
7,./instructions/inst_prac_1/Slide30.png,right,2.2786814620000087,498.418044564,500.696726026,,,,,,,,,,,,,,,,,,,,,,,,,,,,,,,,,1,,,,,,,,,,,,,,,,,,,,,,,,,,,,,,,,,,,,,,,,,,,,,,110,159550,18,Male,1,2024/03/21_10:59:08,YZ,None,
,,,,,,practice,0,6,1,1250,1,Q,0,right,4.083654064000029,1,0,,,,,,,,,,,,,,,,,,,,,1,,,,,,,,,,,,,,,,,,,,,,,,,,,,,,,,,,,,,,,,,,,,,,110,159550,18,Male,1,2024/03/21_10:59:08,YZ,None,
,,,,,,practice,0,6,1,1250,2,S,0,right,1.0231175279999434,1,0,,,,,,,,,,,,,,,,,,,,,1,,,,,,,,,,,,,,,,,,,,,,,,,,,,,,,,,,,,,,,,,,,,,,110,159550,18,Male,1,2024/03/21_10:59:08,YZ,None,
,,,,,,practice,0,6,1,1250,3,Q,0,right,1.286568726999917,1,0,,,,,,,,,,,,,,,,,,,,,1,,,,,,,,,,,,,,,,,,,,,,,,,,,,,,,,,,,,,,,,,,,,,,110,159550,18,Male,1,2024/03/21_10:59:08,YZ,None,
,,,,,,practice,0,6,1,1250,4,C,0,right,0.8387192619999269,1,0,,,,,,,,,,,,,,,,,,,,,1,,,,,,,,,,,,,,,,,,,,,,,,,,,,,,,,,,,,,,,,,,,,,,110,159550,18,Male,1,2024/03/21_10:59:08,YZ,None,
,,,,,,practice,0,6,1,1250,5,C,1,left,0.6513845340000444,1,0,,,,,,,,,,,,,,,,,,,,,1,,,,,,,,,,,,,,,,,,,,,,,,,,,,,,,,,,,,,,,,,,,,,,110,159550,18,Male,1,2024/03/21_10:59:08,YZ,None,
,,,,,,practice,0,6,1,1250,6,V,0,right,0.5811957939999957,1,0,,,,,,,,,,,,,,,,,,,,,1,,,,,,,,,,,,,,,,,,,,,,,,,,,,,,,,,,,,,,,,,,,,,,110,159550,18,Male,1,2024/03/21_10:59:08,YZ,None,
,,,,,,practice,0,6,1,1250,7,V,1,left,0.7195354579999957,1,0,,,,,,,,,,,,,,,,,,,,,1,,,,,,,,,,,,,,,,,,,,,,,,,,,,,,,,,,,,,,,,,,,,,,110,159550,18,Male,1,2024/03/21_10:59:08,YZ,None,
,,,,,,practice,0,6,1,1250,8,Q,0,right,0.7917981870000403,1,0,,,,,,,,,,,,,,,,,,,,,1,,,,,,,,,,,,,,,,,,,,,,,,,,,,,,,,,,,,,,,,,,,,,,110,159550,18,Male,1,2024/03/21_10:59:08,YZ,None,
,,,,,,practice,0,6,1,1250,9,V,0,right,1.1001839020000261,1,0,,,,,,,,,,,,,,,,,,,,,1,,,,,,,,,,,,,,,,,,,,,,,,,,,,,,,,,,,,,,,,,,,,,,110,159550,18,Male,1,2024/03/21_10:59:08,YZ,None,
,,,,,,practice,0,6,1,1250,10,V,1,left,0.6196317999999792,1,0,,,,,,,,,,,,,,,,,,,,,1,,,,,,,,,,,,,,,,,,,,,,,,,,,,,,,,,,,,,,,,,,,,,,110,159550,18,Male,1,2024/03/21_10:59:08,YZ,None,
,,,,,,practice,0,6,1,1250,,,,,,,,1.0,1.0,0.0,1.0,0.0,1.0,1.1695789255999898,3,0,0,0,0,7,10,3,7,0,,,,1,,,,,,,,,,,,,,,,,,,,,,,,,,,,,,,,,,,,,,,,,,,,,,110,159550,18,Male,1,2024/03/21_10:59:08,YZ,None,
1,./instructions/inst_prac_1_next/Slide35.png,right,4.4698590590001,522.9548409239999,527.424699983,,,,,,,,,,,,,,,,,,,,,,,,,,,,,,,,,1,,,,,,,,,,,,,,,,,,,,,,,,,,,,,,,,,,,,,,,,,,,,,,110,159550,18,Male,1,2024/03/21_10:59:08,YZ,None,
,,,,,,practice,0,1,1,426,1,S,0,right,0.7957650820000026,1,0,,,,,,,,,,,,,,,,,,,,,1,,,,,,,,,,,,,,,,,,,,,,,,,,,,,,,,,,,,,,,,,,,,,,110,159550,18,Male,1,2024/03/21_10:59:08,YZ,None,
,,,,,,practice,0,1,1,426,2,S,1,left,0.5767299740000453,1,0,,,,,,,,,,,,,,,,,,,,,1,,,,,,,,,,,,,,,,,,,,,,,,,,,,,,,,,,,,,,,,,,,,,,110,159550,18,Male,1,2024/03/21_10:59:08,YZ,None,
,,,,,,practice,0,1,1,426,3,J,0,right,0.6375392869999814,1,0,,,,,,,,,,,,,,,,,,,,,1,,,,,,,,,,,,,,,,,,,,,,,,,,,,,,,,,,,,,,,,,,,,,,110,159550,18,Male,1,2024/03/21_10:59:08,YZ,None,
,,,,,,practice,0,1,1,426,4,N,0,right,0.5478323329999739,1,0,,,,,,,,,,,,,,,,,,,,,1,,,,,,,,,,,,,,,,,,,,,,,,,,,,,,,,,,,,,,,,,,,,,,110,159550,18,Male,1,2024/03/21_10:59:08,YZ,None,
,,,,,,practice,0,1,1,426,5,S,0,right,0.6286334860000125,1,0,,,,,,,,,,,,,,,,,,,,,1,,,,,,,,,,,,,,,,,,,,,,,,,,,,,,,,,,,,,,,,,,,,,,110,159550,18,Male,1,2024/03/21_10:59:08,YZ,None,
,,,,,,practice,0,1,1,426,6,S,1,left,0.5886887350000052,1,0,,,,,,,,,,,,,,,,,,,,,1,,,,,,,,,,,,,,,,,,,,,,,,,,,,,,,,,,,,,,,,,,,,,,110,159550,18,Male,1,2024/03/21_10:59:08,YZ,None,
,,,,,,practice,0,1,1,426,7,F,0,right,0.7564420559999689,1,0,,,,,,,,,,,,,,,,,,,,,1,,,,,,,,,,,,,,,,,,,,,,,,,,,,,,,,,,,,,,,,,,,,,,110,159550,18,Male,1,2024/03/21_10:59:08,YZ,None,
,,,,,,practice,0,1,1,426,8,J,0,right,0.515554294000026,1,0,,,,,,,,,,,,,,,,,,,,,1,,,,,,,,,,,,,,,,,,,,,,,,,,,,,,,,,,,,,,,,,,,,,,110,159550,18,Male,1,2024/03/21_10:59:08,YZ,None,
,,,,,,practice,0,1,1,426,9,J,1,left,0.49307419000001573,1,0,,,,,,,,,,,,,,,,,,,,,1,,,,,,,,,,,,,,,,,,,,,,,,,,,,,,,,,,,,,,,,,,,,,,110,159550,18,Male,1,2024/03/21_10:59:08,YZ,None,
,,,,,,practice,0,1,1,426,10,S,0,right,0.47341201000006095,1,0,,,,,,,,,,,,,,,,,,,,,1,,,,,,,,,,,,,,,,,,,,,,,,,,,,,,,,,,,,,,,,,,,,,,110,159550,18,Male,1,2024/03/21_10:59:08,YZ,None,
,,,,,,practice,0,1,1,426,11,Q,0,right,0.4970286399999395,1,0,,,,,,,,,,,,,,,,,,,,,1,,,,,,,,,,,,,,,,,,,,,,,,,,,,,,,,,,,,,,,,,,,,,,110,159550,18,Male,1,2024/03/21_10:59:08,YZ,None,
,,,,,,practice,0,1,1,426,12,N,0,right,0.44307722000007743,1,0,,,,,,,,,,,,,,,,,,,,,1,,,,,,,,,,,,,,,,,,,,,,,,,,,,,,,,,,,,,,,,,,,,,,110,159550,18,Male,1,2024/03/21_10:59:08,YZ,None,
,,,,,,practice,0,1,1,426,13,Q,0,right,0.6019289810000146,1,0,,,,,,,,,,,,,,,,,,,,,1,,,,,,,,,,,,,,,,,,,,,,,,,,,,,,,,,,,,,,,,,,,,,,110,159550,18,Male,1,2024/03/21_10:59:08,YZ,None,
,,,,,,practice,0,1,1,426,14,Q,1,left,0.5590171180000425,1,0,,,,,,,,,,,,,,,,,,,,,1,,,,,,,,,,,,,,,,,,,,,,,,,,,,,,,,,,,,,,,,,,,,,,110,159550,18,Male,1,2024/03/21_10:59:08,YZ,None,
,,,,,,practice,0,1,1,426,15,V,0,right,0.5322143849999748,1,0,,,,,,,,,,,,,,,,,,,,,1,,,,,,,,,,,,,,,,,,,,,,,,,,,,,,,,,,,,,,,,,,,,,,110,159550,18,Male,1,2024/03/21_10:59:08,YZ,None,
,,,,,,practice,0,1,1,426,16,C,0,left,0.503306375999955,0,0,,,,,,,,,,,,,,,,,,,,,1,,,,,,,,,,,,,,,,,,,,,,,,,,,,,,,,,,,,,,,,,,,,,,110,159550,18,Male,1,2024/03/21_10:59:08,YZ,None,
,,,,,,practice,0,1,1,426,17,C,1,left,0.6404484020000609,1,0,,,,,,,,,,,,,,,,,,,,,1,,,,,,,,,,,,,,,,,,,,,,,,,,,,,,,,,,,,,,,,,,,,,,110,159550,18,Male,1,2024/03/21_10:59:08,YZ,None,
,,,,,,practice,0,1,1,426,,,,,,,,0.9791666666666666,1.0,0.08333333333333333,0.9166666666666666,0.0,0.9166666666666666,0.5759230922941269,5,1,0,0,0,11,16,5,12,0,,,,1,,,,,,,,,,,,,,,,,,,,,,,,,,,,,,,,,,,,,,,,,,,,,,110,159550,18,Male,1,2024/03/21_10:59:08,YZ,None,
,,,,,,practice,0,21,1,426,1,J,0,right,1.4431738109999515,1,0,,,,,,,,,,,,,,,,,,,,,1,,,,,,,,,,,,,,,,,,,,,,,,,,,,,,,,,,,,,,,,,,,,,,110,159550,18,Male,1,2024/03/21_10:59:08,YZ,None,
,,,,,,practice,0,21,1,426,2,J,1,left,0.5112572749999345,1,0,,,,,,,,,,,,,,,,,,,,,1,,,,,,,,,,,,,,,,,,,,,,,,,,,,,,,,,,,,,,,,,,,,,,110,159550,18,Male,1,2024/03/21_10:59:08,YZ,None,
,,,,,,practice,0,21,1,426,3,F,0,right,0.5370210400000133,1,0,,,,,,,,,,,,,,,,,,,,,1,,,,,,,,,,,,,,,,,,,,,,,,,,,,,,,,,,,,,,,,,,,,,,110,159550,18,Male,1,2024/03/21_10:59:08,YZ,None,
,,,,,,practice,0,21,1,426,4,X,0,right,0.4845005449999462,1,0,,,,,,,,,,,,,,,,,,,,,1,,,,,,,,,,,,,,,,,,,,,,,,,,,,,,,,,,,,,,,,,,,,,,110,159550,18,Male,1,2024/03/21_10:59:08,YZ,None,
,,,,,,practice,0,21,1,426,5,X,1,left,0.5353875200000857,1,0,,,,,,,,,,,,,,,,,,,,,1,,,,,,,,,,,,,,,,,,,,,,,,,,,,,,,,,,,,,,,,,,,,,,110,159550,18,Male,1,2024/03/21_10:59:08,YZ,None,
,,,,,,practice,0,21,1,426,6,V,0,right,0.5884665300000052,1,0,,,,,,,,,,,,,,,,,,,,,1,,,,,,,,,,,,,,,,,,,,,,,,,,,,,,,,,,,,,,,,,,,,,,110,159550,18,Male,1,2024/03/21_10:59:08,YZ,None,
,,,,,,practice,0,21,1,426,7,C,0,right,0.5477553790000229,1,0,,,,,,,,,,,,,,,,,,,,,1,,,,,,,,,,,,,,,,,,,,,,,,,,,,,,,,,,,,,,,,,,,,,,110,159550,18,Male,1,2024/03/21_10:59:08,YZ,None,
,,,,,,practice,0,21,1,426,8,C,1,left,0.5246496440000783,1,0,,,,,,,,,,,,,,,,,,,,,1,,,,,,,,,,,,,,,,,,,,,,,,,,,,,,,,,,,,,,,,,,,,,,110,159550,18,Male,1,2024/03/21_10:59:08,YZ,None,
,,,,,,practice,0,21,1,426,9,X,0,right,0.5485733340000252,1,0,,,,,,,,,,,,,,,,,,,,,1,,,,,,,,,,,,,,,,,,,,,,,,,,,,,,,,,,,,,,,,,,,,,,110,159550,18,Male,1,2024/03/21_10:59:08,YZ,None,
,,,,,,practice,0,21,1,426,10,X,1,left,0.6357882510000081,1,0,,,,,,,,,,,,,,,,,,,,,1,,,,,,,,,,,,,,,,,,,,,,,,,,,,,,,,,,,,,,,,,,,,,,110,159550,18,Male,1,2024/03/21_10:59:08,YZ,None,
,,,,,,practice,0,21,1,426,11,C,0,right,0.6122806020000553,1,0,,,,,,,,,,,,,,,,,,,,,1,,,,,,,,,,,,,,,,,,,,,,,,,,,,,,,,,,,,,,,,,,,,,,110,159550,18,Male,1,2024/03/21_10:59:08,YZ,None,
,,,,,,practice,0,21,1,426,12,J,0,right,0.4603997020000179,1,0,,,,,,,,,,,,,,,,,,,,,1,,,,,,,,,,,,,,,,,,,,,,,,,,,,,,,,,,,,,,,,,,,,,,110,159550,18,Male,1,2024/03/21_10:59:08,YZ,None,
,,,,,,practice,0,21,1,426,13,J,1,left,0.45250929999997425,1,0,,,,,,,,,,,,,,,,,,,,,1,,,,,,,,,,,,,,,,,,,,,,,,,,,,,,,,,,,,,,,,,,,,,,110,159550,18,Male,1,2024/03/21_10:59:08,YZ,None,
,,,,,,practice,0,21,1,426,14,S,0,right,0.7672502639999266,1,0,,,,,,,,,,,,,,,,,,,,,1,,,,,,,,,,,,,,,,,,,,,,,,,,,,,,,,,,,,,,,,,,,,,,110,159550,18,Male,1,2024/03/21_10:59:08,YZ,None,
,,,,,,practice,0,21,1,426,15,V,0,right,0.4741499140000087,1,0,,,,,,,,,,,,,,,,,,,,,1,,,,,,,,,,,,,,,,,,,,,,,,,,,,,,,,,,,,,,,,,,,,,,110,159550,18,Male,1,2024/03/21_10:59:08,YZ,None,
,,,,,,practice,0,21,1,426,16,S,0,right,0.6721215659999871,1,0,,,,,,,,,,,,,,,,,,,,,1,,,,,,,,,,,,,,,,,,,,,,,,,,,,,,,,,,,,,,,,,,,,,,110,159550,18,Male,1,2024/03/21_10:59:08,YZ,None,
,,,,,,practice,0,21,1,426,17,J,0,right,0.5649283650000143,1,0,,,,,,,,,,,,,,,,,,,,,1,,,,,,,,,,,,,,,,,,,,,,,,,,,,,,,,,,,,,,,,,,,,,,110,159550,18,Male,1,2024/03/21_10:59:08,YZ,None,
,,,,,,practice,0,21,1,426,,,,,,,,1.0,1.0,0.0,1.0,0.0,1.0,0.6094242965882385,5,0,0,0,0,12,17,5,12,0,,,,1,,,,,,,,,,,,,,,,,,,,,,,,,,,,,,,,,,,,,,,,,,,,,,110,159550,18,Male,1,2024/03/21_10:59:08,YZ,None,
1,./instructions/inst_prac_3/Slide37.png,right,9.63009840399991,569.538756509,579.1688549129999,,,,,,,,,,,,,,,,,,,,,,,,,,,,,,,,,1,,,,,,,,,,,,,,,,,,,,,,,,,,,,,,,,,,,,,,,,,,,,,,110,159550,18,Male,1,2024/03/21_10:59:08,YZ,None,
2,./instructions/inst_prac_3/Slide38.png,right,1.8902490860000398,579.198561034,581.0888101200001,,,,,,,,,,,,,,,,,,,,,,,,,,,,,,,,,1,,,,,,,,,,,,,,,,,,,,,,,,,,,,,,,,,,,,,,,,,,,,,,110,159550,18,Male,1,2024/03/21_10:59:08,YZ,None,
3,./instructions/inst_prac_3/Slide39.png,right,0.8516282659998069,581.1172503160001,581.9688785819999,,,,,,,,,,,,,,,,,,,,,,,,,,,,,,,,,1,,,,,,,,,,,,,,,,,,,,,,,,,,,,,,,,,,,,,,,,,,,,,,110,159550,18,Male,1,2024/03/21_10:59:08,YZ,None,
4,./instructions/inst_prac_3/Slide40.png,right,0.9144248289999268,581.998478681,582.91290351,,,,,,,,,,,,,,,,,,,,,,,,,,,,,,,,,1,,,,,,,,,,,,,,,,,,,,,,,,,,,,,,,,,,,,,,,,,,,,,,110,159550,18,Male,1,2024/03/21_10:59:08,YZ,None,
5,./instructions/inst_prac_3/Slide41.png,right,2.0664105680000375,582.9423278659999,585.008738434,,,,,,,,,,,,,,,,,,,,,,,,,,,,,,,,,1,,,,,,,,,,,,,,,,,,,,,,,,,,,,,,,,,,,,,,,,,,,,,,110,159550,18,Male,1,2024/03/21_10:59:08,YZ,None,
6,./instructions/inst_prac_3/Slide42.png,right,7.212097304999816,585.0369457290001,592.2490430339999,,,,,,,,,,,,,,,,,,,,,,,,,,,,,,,,,1,,,,,,,,,,,,,,,,,,,,,,,,,,,,,,,,,,,,,,,,,,,,,,110,159550,18,Male,1,2024/03/21_10:59:08,YZ,None,
7,./instructions/inst_prac_3/Slide43.png,right,3.9240548469999794,592.2767581600001,596.2008130070001,,,,,,,,,,,,,,,,,,,,,,,,,,,,,,,,,1,,,,,,,,,,,,,,,,,,,,,,,,,,,,,,,,,,,,,,,,,,,,,,110,159550,18,Male,1,2024/03/21_10:59:08,YZ,None,
8,./instructions/inst_prac_3/Slide44.png,right,3.108176262999905,596.228676986,599.3368532489999,,,,,,,,,,,,,,,,,,,,,,,,,,,,,,,,,1,,,,,,,,,,,,,,,,,,,,,,,,,,,,,,,,,,,,,,,,,,,,,,110,159550,18,Male,1,2024/03/21_10:59:08,YZ,None,
,,,,,,practice,0,9,3,788,1,N,0,right,1.2846049999999423,1,0,,,,,,,,,,,,,,,,,,,,,1,,,,,,,,,,,,,,,,,,,,,,,,,,,,,,,,,,,,,,,,,,,,,,110,159550,18,Male,1,2024/03/21_10:59:08,YZ,None,
,,,,,,practice,0,9,3,788,2,Q,0,right,0.5898468130000083,1,0,,,,,,,,,,,,,,,,,,,,,1,,,,,,,,,,,,,,,,,,,,,,,,,,,,,,,,,,,,,,,,,,,,,,110,159550,18,Male,1,2024/03/21_10:59:08,YZ,None,
,,,,,,practice,0,9,3,788,3,F,0,right,0.9476729240000168,1,0,,,,,,,,,,,,,,,,,,,,,1,,,,,,,,,,,,,,,,,,,,,,,,,,,,,,,,,,,,,,,,,,,,,,110,159550,18,Male,1,2024/03/21_10:59:08,YZ,None,
,,,,,,practice,0,9,3,788,4,J,0,right,0.6391031630000725,1,0,,,,,,,,,,,,,,,,,,,,,1,,,,,,,,,,,,,,,,,,,,,,,,,,,,,,,,,,,,,,,,,,,,,,110,159550,18,Male,1,2024/03/21_10:59:08,YZ,None,
,,,,,,practice,0,9,3,788,5,Q,1,left,1.067091722999976,1,0,,,,,,,,,,,,,,,,,,,,,1,,,,,,,,,,,,,,,,,,,,,,,,,,,,,,,,,,,,,,,,,,,,,,110,159550,18,Male,1,2024/03/21_10:59:08,YZ,None,
,,,,,,practice,0,9,3,788,6,Q,0,right,1.852486701000089,1,0,,,,,,,,,,,,,,,,,,,,,1,,,,,,,,,,,,,,,,,,,,,,,,,,,,,,,,,,,,,,,,,,,,,,110,159550,18,Male,1,2024/03/21_10:59:08,YZ,None,
,,,,,,practice,0,9,3,788,7,J,1,left,0.8302448859999458,1,0,,,,,,,,,,,,,,,,,,,,,1,,,,,,,,,,,,,,,,,,,,,,,,,,,,,,,,,,,,,,,,,,,,,,110,159550,18,Male,1,2024/03/21_10:59:08,YZ,None,
,,,,,,practice,0,9,3,788,8,C,0,right,1.0122262699999283,1,0,,,,,,,,,,,,,,,,,,,,,1,,,,,,,,,,,,,,,,,,,,,,,,,,,,,,,,,,,,,,,,,,,,,,110,159550,18,Male,1,2024/03/21_10:59:08,YZ,None,
,,,,,,practice,0,9,3,788,9,C,0,right,1.0776909789999536,1,0,,,,,,,,,,,,,,,,,,,,,1,,,,,,,,,,,,,,,,,,,,,,,,,,,,,,,,,,,,,,,,,,,,,,110,159550,18,Male,1,2024/03/21_10:59:08,YZ,None,
,,,,,,practice,0,9,3,788,10,J,1,left,0.639278691999948,1,0,,,,,,,,,,,,,,,,,,,,,1,,,,,,,,,,,,,,,,,,,,,,,,,,,,,,,,,,,,,,,,,,,,,,110,159550,18,Male,1,2024/03/21_10:59:08,YZ,None,
,,,,,,practice,0,9,3,788,11,S,0,right,0.7019983429999002,1,0,,,,,,,,,,,,,,,,,,,,,1,,,,,,,,,,,,,,,,,,,,,,,,,,,,,,,,,,,,,,,,,,,,,,110,159550,18,Male,1,2024/03/21_10:59:08,YZ,None,
,,,,,,practice,0,9,3,788,12,C,1,left,0.7230850219999638,1,0,,,,,,,,,,,,,,,,,,,,,1,,,,,,,,,,,,,,,,,,,,,,,,,,,,,,,,,,,,,,,,,,,,,,110,159550,18,Male,1,2024/03/21_10:59:08,YZ,None,
,,,,,,practice,0,9,3,788,13,N,0,right,1.4947350469999492,1,0,,,,,,,,,,,,,,,,,,,,,1,,,,,,,,,,,,,,,,,,,,,,,,,,,,,,,,,,,,,,,,,,,,,,110,159550,18,Male,1,2024/03/21_10:59:08,YZ,None,
,,,,,,practice,0,9,3,788,,,,,,,,1.0,1.0,0.0,1.0,0.0,1.0,0.989235812538438,4,0,0,0,0,9,13,4,9,0,,,,1,,,,,,,,,,,,,,,,,,,,,,,,,,,,,,,,,,,,,,,,,,,,,,110,159550,18,Male,1,2024/03/21_10:59:08,YZ,None,
1,./instructions/inst_prac_3_next/Slide49.png,right,7.509182849999888,625.899589676,633.4087725259999,,,,,,,,,,,,,,,,,,,,,,,,,,,,,,,,,1,,,,,,,,,,,,,,,,,,,,,,,,,,,,,,,,,,,,,,,,,,,,,,110,159550,18,Male,1,2024/03/21_10:59:08,YZ,None,
,,,,,,practice,0,20,3,426,1,V,0,right,0.9948870409999699,1,0,,,,,,,,,,,,,,,,,,,,,1,,,,,,,,,,,,,,,,,,,,,,,,,,,,,,,,,,,,,,,,,,,,,,110,159550,18,Male,1,2024/03/21_10:59:08,YZ,None,
,,,,,,practice,0,20,3,426,2,S,0,right,0.6931937750000543,1,0,,,,,,,,,,,,,,,,,,,,,1,,,,,,,,,,,,,,,,,,,,,,,,,,,,,,,,,,,,,,,,,,,,,,110,159550,18,Male,1,2024/03/21_10:59:08,YZ,None,
,,,,,,practice,0,20,3,426,3,J,0,right,0.7804174269999749,1,0,,,,,,,,,,,,,,,,,,,,,1,,,,,,,,,,,,,,,,,,,,,,,,,,,,,,,,,,,,,,,,,,,,,,110,159550,18,Male,1,2024/03/21_10:59:08,YZ,None,
,,,,,,practice,0,20,3,426,4,V,1,left,0.6843721940000478,1,0,,,,,,,,,,,,,,,,,,,,,1,,,,,,,,,,,,,,,,,,,,,,,,,,,,,,,,,,,,,,,,,,,,,,110,159550,18,Male,1,2024/03/21_10:59:08,YZ,None,
,,,,,,practice,0,20,3,426,5,Q,0,right,1.4281710829999383,1,0,,,,,,,,,,,,,,,,,,,,,1,,,,,,,,,,,,,,,,,,,,,,,,,,,,,,,,,,,,,,,,,,,,,,110,159550,18,Male,1,2024/03/21_10:59:08,YZ,None,
,,,,,,practice,0,20,3,426,6,F,0,right,0.8788129819999995,1,0,,,,,,,,,,,,,,,,,,,,,1,,,,,,,,,,,,,,,,,,,,,,,,,,,,,,,,,,,,,,,,,,,,,,110,159550,18,Male,1,2024/03/21_10:59:08,YZ,None,
,,,,,,practice,0,20,3,426,7,V,1,left,0.5247309430000087,1,0,,,,,,,,,,,,,,,,,,,,,1,,,,,,,,,,,,,,,,,,,,,,,,,,,,,,,,,,,,,,,,,,,,,,110,159550,18,Male,1,2024/03/21_10:59:08,YZ,None,
,,,,,,practice,0,20,3,426,8,Q,1,left,2.413700494000068,1,0,,,,,,,,,,,,,,,,,,,,,1,,,,,,,,,,,,,,,,,,,,,,,,,,,,,,,,,,,,,,,,,,,,,,110,159550,18,Male,1,2024/03/21_10:59:08,YZ,None,
,,,,,,practice,0,20,3,426,9,C,0,right,0.845171004000008,1,0,,,,,,,,,,,,,,,,,,,,,1,,,,,,,,,,,,,,,,,,,,,,,,,,,,,,,,,,,,,,,,,,,,,,110,159550,18,Male,1,2024/03/21_10:59:08,YZ,None,
,,,,,,practice,0,20,3,426,10,X,0,right,0.9528750499999887,1,0,,,,,,,,,,,,,,,,,,,,,1,,,,,,,,,,,,,,,,,,,,,,,,,,,,,,,,,,,,,,,,,,,,,,110,159550,18,Male,1,2024/03/21_10:59:08,YZ,None,
,,,,,,practice,0,20,3,426,11,V,0,left,0.4964852090000704,0,0,,,,,,,,,,,,,,,,,,,,,1,,,,,,,,,,,,,,,,,,,,,,,,,,,,,,,,,,,,,,,,,,,,,,110,159550,18,Male,1,2024/03/21_10:59:08,YZ,None,
,,,,,,practice,0,20,3,426,12,F,0,right,1.4537593999999672,1,0,,,,,,,,,,,,,,,,,,,,,1,,,,,,,,,,,,,,,,,,,,,,,,,,,,,,,,,,,,,,,,,,,,,,110,159550,18,Male,1,2024/03/21_10:59:08,YZ,None,
,,,,,,practice,0,20,3,426,13,V,0,right,1.726744487000019,1,0,,,,,,,,,,,,,,,,,,,,,1,,,,,,,,,,,,,,,,,,,,,,,,,,,,,,,,,,,,,,,,,,,,,,110,159550,18,Male,1,2024/03/21_10:59:08,YZ,None,
,,,,,,practice,0,20,3,426,14,S,0,left,1.5923079170000847,0,0,,,,,,,,,,,,,,,,,,,,,1,,,,,,,,,,,,,,,,,,,,,,,,,,,,,,,,,,,,,,,,,,,,,,110,159550,18,Male,1,2024/03/21_10:59:08,YZ,None,
,,,,,,practice,0,20,3,426,15,F,1,right,0.6453781110000136,0,0,,,,,,,,,,,,,,,,,,,,,1,,,,,,,,,,,,,,,,,,,,,,,,,,,,,,,,,,,,,,,,,,,,,,110,159550,18,Male,1,2024/03/21_10:59:08,YZ,None,
,,,,,,practice,0,20,3,426,16,C,0,right,0.9400291059999972,1,0,,,,,,,,,,,,,,,,,,,,,1,,,,,,,,,,,,,,,,,,,,,,,,,,,,,,,,,,,,,,,,,,,,,,110,159550,18,Male,1,2024/03/21_10:59:08,YZ,None,
,,,,,,practice,0,20,3,426,17,S,1,left,1.591139359000067,1,0,,,,,,,,,,,,,,,,,,,,,1,,,,,,,,,,,,,,,,,,,,,,,,,,,,,,,,,,,,,,,,,,,,,,110,159550,18,Male,1,2024/03/21_10:59:08,YZ,None,
,,,,,,practice,0,20,3,426,,,,,,,,0.875,0.8,0.16666666666666666,0.8333333333333334,0.0,0.8333333333333334,1.0965985636470752,4,2,0,0,0,10,14,5,12,0,,,,1,,,,,,,,,,,,,,,,,,,,,,,,,,,,,,,,,,,,,,,,,,,,,,110,159550,18,Male,1,2024/03/21_10:59:08,YZ,None,
,,,,,,practice,0,29,3,426,1,N,0,right,1.732818304000034,1,0,,,,,,,,,,,,,,,,,,,,,1,,,,,,,,,,,,,,,,,,,,,,,,,,,,,,,,,,,,,,,,,,,,,,110,159550,18,Male,1,2024/03/21_10:59:08,YZ,None,
,,,,,,practice,0,29,3,426,2,V,0,right,0.7958500769999546,1,0,,,,,,,,,,,,,,,,,,,,,1,,,,,,,,,,,,,,,,,,,,,,,,,,,,,,,,,,,,,,,,,,,,,,110,159550,18,Male,1,2024/03/21_10:59:08,YZ,None,
,,,,,,practice,0,29,3,426,3,F,0,right,0.6416566489999695,1,0,,,,,,,,,,,,,,,,,,,,,1,,,,,,,,,,,,,,,,,,,,,,,,,,,,,,,,,,,,,,,,,,,,,,110,159550,18,Male,1,2024/03/21_10:59:08,YZ,None,
,,,,,,practice,0,29,3,426,4,S,0,right,0.5975520320000669,1,0,,,,,,,,,,,,,,,,,,,,,1,,,,,,,,,,,,,,,,,,,,,,,,,,,,,,,,,,,,,,,,,,,,,,110,159550,18,Male,1,2024/03/21_10:59:08,YZ,None,
,,,,,,practice,0,29,3,426,5,C,0,right,1.0576862320000373,1,0,,,,,,,,,,,,,,,,,,,,,1,,,,,,,,,,,,,,,,,,,,,,,,,,,,,,,,,,,,,,,,,,,,,,110,159550,18,Male,1,2024/03/21_10:59:08,YZ,None,
,,,,,,practice,0,29,3,426,6,F,1,left,0.9405634820000159,1,0,,,,,,,,,,,,,,,,,,,,,1,,,,,,,,,,,,,,,,,,,,,,,,,,,,,,,,,,,,,,,,,,,,,,110,159550,18,Male,1,2024/03/21_10:59:08,YZ,None,
,,,,,,practice,0,29,3,426,7,F,0,right,0.8722030429998995,1,0,,,,,,,,,,,,,,,,,,,,,1,,,,,,,,,,,,,,,,,,,,,,,,,,,,,,,,,,,,,,,,,,,,,,110,159550,18,Male,1,2024/03/21_10:59:08,YZ,None,
,,,,,,practice,0,29,3,426,8,J,0,right,0.7993713739999748,1,0,,,,,,,,,,,,,,,,,,,,,1,,,,,,,,,,,,,,,,,,,,,,,,,,,,,,,,,,,,,,,,,,,,,,110,159550,18,Male,1,2024/03/21_10:59:08,YZ,None,
,,,,,,practice,0,29,3,426,9,F,1,right,1.6982311020000225,0,0,,,,,,,,,,,,,,,,,,,,,1,,,,,,,,,,,,,,,,,,,,,,,,,,,,,,,,,,,,,,,,,,,,,,110,159550,18,Male,1,2024/03/21_10:59:08,YZ,None,
,,,,,,practice,0,29,3,426,10,N,0,right,0.9110576529999435,1,0,,,,,,,,,,,,,,,,,,,,,1,,,,,,,,,,,,,,,,,,,,,,,,,,,,,,,,,,,,,,,,,,,,,,110,159550,18,Male,1,2024/03/21_10:59:08,YZ,None,
,,,,,,practice,0,29,3,426,11,X,0,right,0.8124793740000769,1,0,,,,,,,,,,,,,,,,,,,,,1,,,,,,,,,,,,,,,,,,,,,,,,,,,,,,,,,,,,,,,,,,,,,,110,159550,18,Male,1,2024/03/21_10:59:08,YZ,None,
,,,,,,practice,0,29,3,426,12,J,0,right,1.5090501600000152,1,0,,,,,,,,,,,,,,,,,,,,,1,,,,,,,,,,,,,,,,,,,,,,,,,,,,,,,,,,,,,,,,,,,,,,110,159550,18,Male,1,2024/03/21_10:59:08,YZ,None,
,,,,,,practice,0,29,3,426,13,F,0,right,1.1938335969999798,1,0,,,,,,,,,,,,,,,,,,,,,1,,,,,,,,,,,,,,,,,,,,,,,,,,,,,,,,,,,,,,,,,,,,,,110,159550,18,Male,1,2024/03/21_10:59:08,YZ,None,
,,,,,,practice,0,29,3,426,14,X,1,left,1.108237880000047,1,0,,,,,,,,,,,,,,,,,,,,,1,,,,,,,,,,,,,,,,,,,,,,,,,,,,,,,,,,,,,,,,,,,,,,110,159550,18,Male,1,2024/03/21_10:59:08,YZ,None,
,,,,,,practice,0,29,3,426,15,J,1,left,0.8335756310000306,1,0,,,,,,,,,,,,,,,,,,,,,1,,,,,,,,,,,,,,,,,,,,,,,,,,,,,,,,,,,,,,,,,,,,,,110,159550,18,Male,1,2024/03/21_10:59:08,YZ,None,
,,,,,,practice,0,29,3,426,16,X,0,right,1.5436373520000188,1,0,,,,,,,,,,,,,,,,,,,,,1,,,,,,,,,,,,,,,,,,,,,,,,,,,,,,,,,,,,,,,,,,,,,,110,159550,18,Male,1,2024/03/21_10:59:08,YZ,None,
,,,,,,practice,0,29,3,426,17,X,1,right,1.0874032750000424,0,0,,,,,,,,,,,,,,,,,,,,,1,,,,,,,,,,,,,,,,,,,,,,,,,,,,,,,,,,,,,,,,,,,,,,110,159550,18,Male,1,2024/03/21_10:59:08,YZ,None,
,,,,,,practice,0,29,3,426,,,,,,,,0.9,0.6,0.0,1.0,0.0,1.0,1.0667768951176546,3,0,0,0,0,12,15,5,12,0,,,,1,,,,,,,,,,,,,,,,,,,,,,,,,,,,,,,,,,,,,,,,,,,,,,110,159550,18,Male,1,2024/03/21_10:59:08,YZ,None,
1,./instructions/inst_prac_main/Slide51.png,right,1.9262657239999044,692.154383652,694.0806493759999,,,,,,,,,,,,,,,,,,,,,,,,,,,,,,,,,1,,,,,,,,,,,,,,,,,,,,,,,,,,,,,,,,,,,,,,,,,,,,,,110,159550,18,Male,1,2024/03/21_10:59:08,YZ,None,
2,./instructions/inst_prac_main/Slide52.png,right,18.76232286300001,694.110329223,712.872652086,,,,,,,,,,,,,,,,,,,,,,,,,,,,,,,,,1,,,,,,,,,,,,,,,,,,,,,,,,,,,,,,,,,,,,,,,,,,,,,,110,159550,18,Male,1,2024/03/21_10:59:08,YZ,None,
1,./instructions/inst_prac_main/Slide53.png,left,4.2700694820000535,712.946705672,717.2167751540001,,,,,,,,,,,,,,,,,,,,,,,,,,,,,,,,,1,,,,,,,,,,,,,,,,,,,,,,,,,,,,,,,,,,,,,,,,,,,,,,110,159550,18,Male,1,2024/03/21_10:59:08,YZ,None,
0,./instructions/inst_prac_main/Slide52.png,left,0.20055208899998433,717.2461805170001,717.4467326060001,,,,,,,,,,,,,,,,,,,,,,,,,,,,,,,,,1,,,,,,,,,,,,,,,,,,,,,,,,,,,,,,,,,,,,,,,,,,,,,,110,159550,18,Male,1,2024/03/21_10:59:08,YZ,None,
-1,./instructions/inst_prac_main/Slide51.png,left,0.2004819399999178,717.465696319,717.6661782589999,,,,,,,,,,,,,,,,,,,,,,,,,,,,,,,,,1,,,,,,,,,,,,,,,,,,,,,,,,,,,,,,,,,,,,,,,,,,,,,,110,159550,18,Male,1,2024/03/21_10:59:08,YZ,None,
-2,./instructions/inst_prac_main/Slide54.png,left,3.279108886999893,717.68985251,720.9689613969999,,,,,,,,,,,,,,,,,,,,,,,,,,,,,,,,,1,,,,,,,,,,,,,,,,,,,,,,,,,,,,,,,,,,,,,,,,,,,,,,110,159550,18,Male,1,2024/03/21_10:59:08,YZ,None,
-1,./instructions/inst_prac_main/Slide53.png,right,10.691455615999985,720.9972604689999,731.6887160849999,,,,,,,,,,,,,,,,,,,,,,,,,,,,,,,,,1,,,,,,,,,,,,,,,,,,,,,,,,,,,,,,,,,,,,,,,,,,,,,,110,159550,18,Male,1,2024/03/21_10:59:08,YZ,None,
0,./instructions/inst_prac_main/Slide54.png,right,8.970591235999791,731.7181040380001,740.6886952739999,,,,,,,,,,,,,,,,,,,,,,,,,,,,,,,,,1,,,,,,,,,,,,,,,,,,,,,,,,,,,,,,,,,,,,,,,,,,,,,,110,159550,18,Male,1,2024/03/21_10:59:08,YZ,None,
1,./instructions/inst_prac_main/Slide51.png,right,1.8392313019999165,740.713472917,742.5527042189999,,,,,,,,,,,,,,,,,,,,,,,,,,,,,,,,,1,,,,,,,,,,,,,,,,,,,,,,,,,,,,,,,,,,,,,,,,,,,,,,110,159550,18,Male,1,2024/03/21_10:59:08,YZ,None,
2,./instructions/inst_prac_main/Slide52.png,right,5.035172327000055,742.581596322,747.616768649,,,,,,,,,,,,,,,,,,,,,,,,,,,,,,,,,1,,,,,,,,,,,,,,,,,,,,,,,,,,,,,,,,,,,,,,,,,,,,,,110,159550,18,Male,1,2024/03/21_10:59:08,YZ,None,
3,./instructions/inst_prac_main/Slide53.png,right,6.923425504000079,747.645346002,754.5687715060001,,,,,,,,,,,,,,,,,,,,,,,,,,,,,,,,,1,,,,,,,,,,,,,,,,,,,,,,,,,,,,,,,,,,,,,,,,,,,,,,110,159550,18,Male,1,2024/03/21_10:59:08,YZ,None,
4,./instructions/inst_prac_main/Slide54.png,right,3.2857947539998804,754.5949529940001,757.880747748,,,,,,,,,,,,,,,,,,,,,,,,,,,,,,,,,1,,,,,,,,,,,,,,,,,,,,,,,,,,,,,,,,,,,,,,,,,,,,,,110,159550,18,Male,1,2024/03/21_10:59:08,YZ,None,
,,,,,,practice_main,0,1,1,426,1,S,0,None,nan,0,1,,,,,,,,,,,,,,,,,,,,,1,,,,,,,,,,,,,,,,,,,,,,,,,,,,,,,,,,,,,,,,,,,,,,110,159550,18,Male,1,2024/03/21_10:59:08,YZ,None,
,,,,,,practice_main,0,1,1,426,2,S,1,left,0.5753377839999985,1,0,,,,,,,,,,,,,,,,,,,,,1,,,,,,,,,,,,,,,,,,,,,,,,,,,,,,,,,,,,,,,,,,,,,,110,159550,18,Male,1,2024/03/21_10:59:08,YZ,None,
,,,,,,practice_main,0,1,1,426,3,J,0,right,0.5511833859999342,1,0,,,,,,,,,,,,,,,,,,,,,1,,,,,,,,,,,,,,,,,,,,,,,,,,,,,,,,,,,,,,,,,,,,,,110,159550,18,Male,1,2024/03/21_10:59:08,YZ,None,
,,,,,,practice_main,0,1,1,426,4,N,0,right,0.49617597199994634,1,0,,,,,,,,,,,,,,,,,,,,,1,,,,,,,,,,,,,,,,,,,,,,,,,,,,,,,,,,,,,,,,,,,,,,110,159550,18,Male,1,2024/03/21_10:59:08,YZ,None,
,,,,,,practice_main,0,1,1,426,5,S,0,right,0.576036949000013,1,0,,,,,,,,,,,,,,,,,,,,,1,,,,,,,,,,,,,,,,,,,,,,,,,,,,,,,,,,,,,,,,,,,,,,110,159550,18,Male,1,2024/03/21_10:59:08,YZ,None,
,,,,,,practice_main,0,1,1,426,6,S,1,left,0.4624357999999802,1,0,,,,,,,,,,,,,,,,,,,,,1,,,,,,,,,,,,,,,,,,,,,,,,,,,,,,,,,,,,,,,,,,,,,,110,159550,18,Male,1,2024/03/21_10:59:08,YZ,None,
,,,,,,practice_main,0,1,1,426,7,F,0,right,0.46336039899995285,1,0,,,,,,,,,,,,,,,,,,,,,1,,,,,,,,,,,,,,,,,,,,,,,,,,,,,,,,,,,,,,,,,,,,,,110,159550,18,Male,1,2024/03/21_10:59:08,YZ,None,
,,,,,,practice_main,0,1,1,426,8,J,0,right,0.5929298490000292,1,0,,,,,,,,,,,,,,,,,,,,,1,,,,,,,,,,,,,,,,,,,,,,,,,,,,,,,,,,,,,,,,,,,,,,110,159550,18,Male,1,2024/03/21_10:59:08,YZ,None,
,,,,,,practice_main,0,1,1,426,9,J,1,left,0.3931809499999872,1,0,,,,,,,,,,,,,,,,,,,,,1,,,,,,,,,,,,,,,,,,,,,,,,,,,,,,,,,,,,,,,,,,,,,,110,159550,18,Male,1,2024/03/21_10:59:08,YZ,None,
,,,,,,practice_main,0,1,1,426,10,S,0,right,0.5647003730000506,1,0,,,,,,,,,,,,,,,,,,,,,1,,,,,,,,,,,,,,,,,,,,,,,,,,,,,,,,,,,,,,,,,,,,,,110,159550,18,Male,1,2024/03/21_10:59:08,YZ,None,
,,,,,,practice_main,0,1,1,426,11,Q,0,right,0.5122016789999861,1,0,,,,,,,,,,,,,,,,,,,,,1,,,,,,,,,,,,,,,,,,,,,,,,,,,,,,,,,,,,,,,,,,,,,,110,159550,18,Male,1,2024/03/21_10:59:08,YZ,None,
,,,,,,practice_main,0,1,1,426,12,N,0,right,0.4205969519999826,1,0,,,,,,,,,,,,,,,,,,,,,1,,,,,,,,,,,,,,,,,,,,,,,,,,,,,,,,,,,,,,,,,,,,,,110,159550,18,Male,1,2024/03/21_10:59:08,YZ,None,
,,,,,,practice_main,0,1,1,426,13,Q,0,right,0.5930644879999818,1,0,,,,,,,,,,,,,,,,,,,,,1,,,,,,,,,,,,,,,,,,,,,,,,,,,,,,,,,,,,,,,,,,,,,,110,159550,18,Male,1,2024/03/21_10:59:08,YZ,None,
,,,,,,practice_main,0,1,1,426,14,Q,1,left,0.5585439669998777,1,0,,,,,,,,,,,,,,,,,,,,,1,,,,,,,,,,,,,,,,,,,,,,,,,,,,,,,,,,,,,,,,,,,,,,110,159550,18,Male,1,2024/03/21_10:59:08,YZ,None,
,,,,,,practice_main,0,1,1,426,15,V,0,right,0.45946743199988305,1,0,,,,,,,,,,,,,,,,,,,,,1,,,,,,,,,,,,,,,,,,,,,,,,,,,,,,,,,,,,,,,,,,,,,,110,159550,18,Male,1,2024/03/21_10:59:08,YZ,None,
,,,,,,practice_main,0,1,1,426,16,C,0,right,0.46763927400002103,1,0,,,,,,,,,,,,,,,,,,,,,1,,,,,,,,,,,,,,,,,,,,,,,,,,,,,,,,,,,,,,,,,,,,,,110,159550,18,Male,1,2024/03/21_10:59:08,YZ,None,
,,,,,,practice_main,0,1,1,426,17,C,1,left,0.42519182599994565,1,0,,,,,,,,,,,,,,,,,,,,,1,,,,,,,,,,,,,,,,,,,,,,,,,,,,,,,,,,,,,,,,,,,,,,110,159550,18,Male,1,2024/03/21_10:59:08,YZ,None,
,,,,,,practice_main,0,1,1,426,,,,,,,,1.0,1.0,0.0,1.0,0.058823529411764705,0.9411764705882353,0.5070029424999731,5,0,0,1,1,11,16,5,12,0,,,,1,,,,,,,,,,,,,,,,,,,,,,,,,,,,,,,,,,,,,,,,,,,,,,110,159550,18,Male,1,2024/03/21_10:59:08,YZ,None,
,,,,,240321_111240,PRACTICE,0,1,1,426,,,,,,,,,,,,,,,,,,,,,,,,,,,,1,16,2,1,cue2.png,easy,B,50,1.5818738650000341,0,769.0640931119999,770.6652484419999,,,,,,,,,,,,,,,,,,,,,,,,,,,,,,,,,,,110,159550,18,Male,1,2024/03/21_10:59:08,YZ,None,
,,,,,,practice_main,0,2,1,426,1,N,0,right,0.7731552459999875,1,0,,,,,,,,,,,,,,,,,,,,,1,,,,,,,,,,,,,,,,,,,,,,,,,,,,,,,,,,,,,,,,,,,,,,110,159550,18,Male,1,2024/03/21_10:59:08,YZ,None,
,,,,,,practice_main,0,2,1,426,2,X,0,right,0.44272246100013035,1,0,,,,,,,,,,,,,,,,,,,,,1,,,,,,,,,,,,,,,,,,,,,,,,,,,,,,,,,,,,,,,,,,,,,,110,159550,18,Male,1,2024/03/21_10:59:08,YZ,None,
,,,,,,practice_main,0,2,1,426,3,X,1,left,0.42408369099985066,1,0,,,,,,,,,,,,,,,,,,,,,1,,,,,,,,,,,,,,,,,,,,,,,,,,,,,,,,,,,,,,,,,,,,,,110,159550,18,Male,1,2024/03/21_10:59:08,YZ,None,
,,,,,,practice_main,0,2,1,426,4,C,0,right,0.4637309320000895,1,0,,,,,,,,,,,,,,,,,,,,,1,,,,,,,,,,,,,,,,,,,,,,,,,,,,,,,,,,,,,,,,,,,,,,110,159550,18,Male,1,2024/03/21_10:59:08,YZ,None,
,,,,,,practice_main,0,2,1,426,5,J,0,right,0.4499089000000822,1,0,,,,,,,,,,,,,,,,,,,,,1,,,,,,,,,,,,,,,,,,,,,,,,,,,,,,,,,,,,,,,,,,,,,,110,159550,18,Male,1,2024/03/21_10:59:08,YZ,None,
,,,,,,practice_main,0,2,1,426,6,S,0,right,0.463860091000015,1,0,,,,,,,,,,,,,,,,,,,,,1,,,,,,,,,,,,,,,,,,,,,,,,,,,,,,,,,,,,,,,,,,,,,,110,159550,18,Male,1,2024/03/21_10:59:08,YZ,None,
,,,,,,practice_main,0,2,1,426,7,S,1,left,0.40145983100001104,1,0,,,,,,,,,,,,,,,,,,,,,1,,,,,,,,,,,,,,,,,,,,,,,,,,,,,,,,,,,,,,,,,,,,,,110,159550,18,Male,1,2024/03/21_10:59:08,YZ,None,
,,,,,,practice_main,0,2,1,426,8,X,0,right,0.5321083779999753,1,0,,,,,,,,,,,,,,,,,,,,,1,,,,,,,,,,,,,,,,,,,,,,,,,,,,,,,,,,,,,,,,,,,,,,110,159550,18,Male,1,2024/03/21_10:59:08,YZ,None,
,,,,,,practice_main,0,2,1,426,9,J,0,right,0.4486366789999465,1,0,,,,,,,,,,,,,,,,,,,,,1,,,,,,,,,,,,,,,,,,,,,,,,,,,,,,,,,,,,,,,,,,,,,,110,159550,18,Male,1,2024/03/21_10:59:08,YZ,None,
,,,,,,practice_main,0,2,1,426,10,J,1,left,0.4017250189999686,1,0,,,,,,,,,,,,,,,,,,,,,1,,,,,,,,,,,,,,,,,,,,,,,,,,,,,,,,,,,,,,,,,,,,,,110,159550,18,Male,1,2024/03/21_10:59:08,YZ,None,
,,,,,,practice_main,0,2,1,426,11,F,0,right,0.40479153100000076,1,0,,,,,,,,,,,,,,,,,,,,,1,,,,,,,,,,,,,,,,,,,,,,,,,,,,,,,,,,,,,,,,,,,,,,110,159550,18,Male,1,2024/03/21_10:59:08,YZ,None,
,,,,,,practice_main,0,2,1,426,12,F,1,left,0.45544275599991124,1,0,,,,,,,,,,,,,,,,,,,,,1,,,,,,,,,,,,,,,,,,,,,,,,,,,,,,,,,,,,,,,,,,,,,,110,159550,18,Male,1,2024/03/21_10:59:08,YZ,None,
,,,,,,practice_main,0,2,1,426,13,S,0,right,0.5124546209999608,1,0,,,,,,,,,,,,,,,,,,,,,1,,,,,,,,,,,,,,,,,,,,,,,,,,,,,,,,,,,,,,,,,,,,,,110,159550,18,Male,1,2024/03/21_10:59:08,YZ,None,
,,,,,,practice_main,0,2,1,426,14,N,0,right,0.4183072349999293,1,0,,,,,,,,,,,,,,,,,,,,,1,,,,,,,,,,,,,,,,,,,,,,,,,,,,,,,,,,,,,,,,,,,,,,110,159550,18,Male,1,2024/03/21_10:59:08,YZ,None,
,,,,,,practice_main,0,2,1,426,15,N,1,left,0.4398789399999714,1,0,,,,,,,,,,,,,,,,,,,,,1,,,,,,,,,,,,,,,,,,,,,,,,,,,,,,,,,,,,,,,,,,,,,,110,159550,18,Male,1,2024/03/21_10:59:08,YZ,None,
,,,,,,practice_main,0,2,1,426,16,V,0,right,0.4232153869998001,1,0,,,,,,,,,,,,,,,,,,,,,1,,,,,,,,,,,,,,,,,,,,,,,,,,,,,,,,,,,,,,,,,,,,,,110,159550,18,Male,1,2024/03/21_10:59:08,YZ,None,
,,,,,,practice_main,0,2,1,426,17,S,0,right,0.4952988170000481,1,0,,,,,,,,,,,,,,,,,,,,,1,,,,,,,,,,,,,,,,,,,,,,,,,,,,,,,,,,,,,,,,,,,,,,110,159550,18,Male,1,2024/03/21_10:59:08,YZ,None,
,,,,,,practice_main,0,2,1,426,,,,,,,,1.0,1.0,0.0,1.0,0.0,1.0,0.4676929714705693,5,0,0,0,0,12,17,5,12,0,,,,1,,,,,,,,,,,,,,,,,,,,,,,,,,,,,,,,,,,,,,,,,,,,,,110,159550,18,Male,1,2024/03/21_10:59:08,YZ,None,
,,,,,240321_111308,PRACTICE,0,2,1,426,,,,,,,,,,,,,,,,,,,,,,,,,,,,1,30,3,2,cue2.png,easy,B,49,1.881147908999992,0,797.885678801,799.7865764869998,,,,,,,,,,,,,,,,,,,,,,,,,,,,,,,,,,,110,159550,18,Male,1,2024/03/21_10:59:08,YZ,None,
,,,,,,practice_main,0,3,3,426,1,V,0,right,0.4797568899998623,1,0,,,,,,,,,,,,,,,,,,,,,1,,,,,,,,,,,,,,,,,,,,,,,,,,,,,,,,,,,,,,,,,,,,,,110,159550,18,Male,1,2024/03/21_10:59:08,YZ,None,
,,,,,,practice_main,0,3,3,426,2,Q,0,right,0.5241264809999393,1,0,,,,,,,,,,,,,,,,,,,,,1,,,,,,,,,,,,,,,,,,,,,,,,,,,,,,,,,,,,,,,,,,,,,,110,159550,18,Male,1,2024/03/21_10:59:08,YZ,None,
,,,,,,practice_main,0,3,3,426,3,F,0,right,0.44392049500015673,1,0,,,,,,,,,,,,,,,,,,,,,1,,,,,,,,,,,,,,,,,,,,,,,,,,,,,,,,,,,,,,,,,,,,,,110,159550,18,Male,1,2024/03/21_10:59:08,YZ,None,
,,,,,,practice_main,0,3,3,426,4,F,0,right,0.6560391990001335,1,0,,,,,,,,,,,,,,,,,,,,,1,,,,,,,,,,,,,,,,,,,,,,,,,,,,,,,,,,,,,,,,,,,,,,110,159550,18,Male,1,2024/03/21_10:59:08,YZ,None,
,,,,,,practice_main,0,3,3,426,5,Q,1,right,0.4918809640000745,0,0,,,,,,,,,,,,,,,,,,,,,1,,,,,,,,,,,,,,,,,,,,,,,,,,,,,,,,,,,,,,,,,,,,,,110,159550,18,Male,1,2024/03/21_10:59:08,YZ,None,
,,,,,,practice_main,0,3,3,426,6,V,0,left,0.7420752420000554,0,0,,,,,,,,,,,,,,,,,,,,,1,,,,,,,,,,,,,,,,,,,,,,,,,,,,,,,,,,,,,,,,,,,,,,110,159550,18,Male,1,2024/03/21_10:59:08,YZ,None,
,,,,,,practice_main,0,3,3,426,7,N,0,right,0.4755087959999855,1,0,,,,,,,,,,,,,,,,,,,,,1,,,,,,,,,,,,,,,,,,,,,,,,,,,,,,,,,,,,,,,,,,,,,,110,159550,18,Male,1,2024/03/21_10:59:08,YZ,None,
,,,,,,practice_main,0,3,3,426,8,Q,1,right,0.8179082379999727,0,0,,,,,,,,,,,,,,,,,,,,,1,,,,,,,,,,,,,,,,,,,,,,,,,,,,,,,,,,,,,,,,,,,,,,110,159550,18,Male,1,2024/03/21_10:59:08,YZ,None,
,,,,,,practice_main,0,3,3,426,9,V,1,left,0.7885893140000917,1,0,,,,,,,,,,,,,,,,,,,,,1,,,,,,,,,,,,,,,,,,,,,,,,,,,,,,,,,,,,,,,,,,,,,,110,159550,18,Male,1,2024/03/21_10:59:08,YZ,None,
,,,,,,practice_main,0,3,3,426,10,F,0,left,0.6468197249998866,0,0,,,,,,,,,,,,,,,,,,,,,1,,,,,,,,,,,,,,,,,,,,,,,,,,,,,,,,,,,,,,,,,,,,,,110,159550,18,Male,1,2024/03/21_10:59:08,YZ,None,
,,,,,,practice_main,0,3,3,426,11,N,0,right,0.4434061020001536,1,0,,,,,,,,,,,,,,,,,,,,,1,,,,,,,,,,,,,,,,,,,,,,,,,,,,,,,,,,,,,,,,,,,,,,110,159550,18,Male,1,2024/03/21_10:59:08,YZ,None,
,,,,,,practice_main,0,3,3,426,12,V,1,left,0.6088088650001282,1,0,,,,,,,,,,,,,,,,,,,,,1,,,,,,,,,,,,,,,,,,,,,,,,,,,,,,,,,,,,,,,,,,,,,,110,159550,18,Male,1,2024/03/21_10:59:08,YZ,None,
,,,,,,practice_main,0,3,3,426,13,Q,0,left,0.659904521000044,0,0,,,,,,,,,,,,,,,,,,,,,1,,,,,,,,,,,,,,,,,,,,,,,,,,,,,,,,,,,,,,,,,,,,,,110,159550,18,Male,1,2024/03/21_10:59:08,YZ,None,
,,,,,,practice_main,0,3,3,426,14,S,0,right,0.559162244999925,1,0,,,,,,,,,,,,,,,,,,,,,1,,,,,,,,,,,,,,,,,,,,,,,,,,,,,,,,,,,,,,,,,,,,,,110,159550,18,Male,1,2024/03/21_10:59:08,YZ,None,
,,,,,,practice_main,0,3,3,426,15,V,1,left,0.652099883000119,1,0,,,,,,,,,,,,,,,,,,,,,1,,,,,,,,,,,,,,,,,,,,,,,,,,,,,,,,,,,,,,,,,,,,,,110,159550,18,Male,1,2024/03/21_10:59:08,YZ,None,
,,,,,,practice_main,0,3,3,426,16,V,0,right,0.9380200059999879,1,0,,,,,,,,,,,,,,,,,,,,,1,,,,,,,,,,,,,,,,,,,,,,,,,,,,,,,,,,,,,,,,,,,,,,110,159550,18,Male,1,2024/03/21_10:59:08,YZ,None,
,,,,,,practice_main,0,3,3,426,17,C,0,right,0.5866614140002184,1,0,,,,,,,,,,,,,,,,,,,,,1,,,,,,,,,,,,,,,,,,,,,,,,,,,,,,,,,,,,,,,,,,,,,,110,159550,18,Male,1,2024/03/21_10:59:08,YZ,None,
,,,,,,practice_main,0,3,3,426,,,,,,,,0.7375,0.6,0.25,0.75,0.0,0.75,0.6185110811765138,3,3,0,0,0,9,12,5,12,0,,,,1,,,,,,,,,,,,,,,,,,,,,,,,,,,,,,,,,,,,,,,,,,,,,,110,159550,18,Male,1,2024/03/21_10:59:08,YZ,None,
,,,,,240321_111338,PRACTICE,0,3,3,426,,,,,,,,,,,,,,,,,,,,,,,,,,,,1,34,4,3,cue1.png,hard,B,42,1.5356787610000993,0,825.8399816649999,827.390631969,,,,,,,,,,,,,,,,,,,,,,,,,,,,,,,,,,,110,159550,18,Male,1,2024/03/21_10:59:08,YZ,None,
1,./instructions/inst_prac_end/Slide56.png,right,22.470291593999946,854.546660666,877.0169522599999,,,,,,,,,,,,,,,,,,,,,,,,,,,,,,,,,1,,,,,,,,,,,,,,,,,,,,,,,,,,,,,,,,,,,,,,,,,,,,,,110,159550,18,Male,1,2024/03/21_10:59:08,YZ,None,
1,./instructions/inst_test/Slide57.png,right,71.57424462500012,877.0826964579999,948.656941083,,,,,,,,,,,,,,,,,,,,,,,,,,,,,,,,,1,,,,,,,,,,,,,,,,,,,,,,,,,,,,,,,,,,,,,,,,,,,,,,110,159550,18,Male,1,2024/03/21_10:59:08,YZ,None,
,,,,,,test,1,1,1,426,1,F,0,right,0.7568604159998813,1,0,,,,,,,,,,,,,,,,,,,,,1,,,,,,,,,,,,,,,,,,,,,,,,,,,,,,,,,,,,,,,,,,,,,,110,159550,18,Male,1,2024/03/21_10:59:08,YZ,None,
,,,,,,test,1,1,1,426,2,F,1,left,0.8883909969999877,1,0,,,,,,,,,,,,,,,,,,,,,1,,,,,,,,,,,,,,,,,,,,,,,,,,,,,,,,,,,,,,,,,,,,,,110,159550,18,Male,1,2024/03/21_10:59:08,YZ,None,
,,,,,,test,1,1,1,426,3,N,0,right,0.589879093999798,1,0,,,,,,,,,,,,,,,,,,,,,1,,,,,,,,,,,,,,,,,,,,,,,,,,,,,,,,,,,,,,,,,,,,,,110,159550,18,Male,1,2024/03/21_10:59:08,YZ,None,
,,,,,,test,1,1,1,426,4,C,0,right,0.48871837799993045,1,0,,,,,,,,,,,,,,,,,,,,,1,,,,,,,,,,,,,,,,,,,,,,,,,,,,,,,,,,,,,,,,,,,,,,110,159550,18,Male,1,2024/03/21_10:59:08,YZ,None,
,,,,,,test,1,1,1,426,5,F,0,left,0.7757001310001215,0,0,,,,,,,,,,,,,,,,,,,,,1,,,,,,,,,,,,,,,,,,,,,,,,,,,,,,,,,,,,,,,,,,,,,,110,159550,18,Male,1,2024/03/21_10:59:08,YZ,None,
,,,,,,test,1,1,1,426,6,X,0,right,0.6906617209999695,1,0,,,,,,,,,,,,,,,,,,,,,1,,,,,,,,,,,,,,,,,,,,,,,,,,,,,,,,,,,,,,,,,,,,,,110,159550,18,Male,1,2024/03/21_10:59:08,YZ,None,
,,,,,,test,1,1,1,426,7,X,1,right,0.5634293919999891,0,0,,,,,,,,,,,,,,,,,,,,,1,,,,,,,,,,,,,,,,,,,,,,,,,,,,,,,,,,,,,,,,,,,,,,110,159550,18,Male,1,2024/03/21_10:59:08,YZ,None,
,,,,,,test,1,1,1,426,8,V,0,right,0.5124462020000919,1,0,,,,,,,,,,,,,,,,,,,,,1,,,,,,,,,,,,,,,,,,,,,,,,,,,,,,,,,,,,,,,,,,,,,,110,159550,18,Male,1,2024/03/21_10:59:08,YZ,None,
,,,,,,test,1,1,1,426,9,V,1,right,0.7426075220000712,0,0,,,,,,,,,,,,,,,,,,,,,1,,,,,,,,,,,,,,,,,,,,,,,,,,,,,,,,,,,,,,,,,,,,,,110,159550,18,Male,1,2024/03/21_10:59:08,YZ,None,
,,,,,,test,1,1,1,426,10,C,0,right,0.5257454820000476,1,0,,,,,,,,,,,,,,,,,,,,,1,,,,,,,,,,,,,,,,,,,,,,,,,,,,,,,,,,,,,,,,,,,,,,110,159550,18,Male,1,2024/03/21_10:59:08,YZ,None,
,,,,,,test,1,1,1,426,11,J,0,right,0.5460368320000271,1,0,,,,,,,,,,,,,,,,,,,,,1,,,,,,,,,,,,,,,,,,,,,,,,,,,,,,,,,,,,,,,,,,,,,,110,159550,18,Male,1,2024/03/21_10:59:08,YZ,None,
,,,,,,test,1,1,1,426,12,J,1,right,0.7149900860001708,0,0,,,,,,,,,,,,,,,,,,,,,1,,,,,,,,,,,,,,,,,,,,,,,,,,,,,,,,,,,,,,,,,,,,,,110,159550,18,Male,1,2024/03/21_10:59:08,YZ,None,
,,,,,,test,1,1,1,426,13,Q,0,right,0.482335644999921,1,0,,,,,,,,,,,,,,,,,,,,,1,,,,,,,,,,,,,,,,,,,,,,,,,,,,,,,,,,,,,,,,,,,,,,110,159550,18,Male,1,2024/03/21_10:59:08,YZ,None,
,,,,,,test,1,1,1,426,14,F,0,right,0.5485048779999033,1,0,,,,,,,,,,,,,,,,,,,,,1,,,,,,,,,,,,,,,,,,,,,,,,,,,,,,,,,,,,,,,,,,,,,,110,159550,18,Male,1,2024/03/21_10:59:08,YZ,None,
,,,,,,test,1,1,1,426,15,F,1,right,0.6447100609998415,0,0,,,,,,,,,,,,,,,,,,,,,1,,,,,,,,,,,,,,,,,,,,,,,,,,,,,,,,,,,,,,,,,,,,,,110,159550,18,Male,1,2024/03/21_10:59:08,YZ,None,
,,,,,,test,1,1,1,426,16,S,0,right,0.6582372909999776,1,0,,,,,,,,,,,,,,,,,,,,,1,,,,,,,,,,,,,,,,,,,,,,,,,,,,,,,,,,,,,,,,,,,,,,110,159550,18,Male,1,2024/03/21_10:59:08,YZ,None,
,,,,,,test,1,1,1,426,17,J,0,right,0.5932503750000251,1,0,,,,,,,,,,,,,,,,,,,,,1,,,,,,,,,,,,,,,,,,,,,,,,,,,,,,,,,,,,,,,,,,,,,,110,159550,18,Male,1,2024/03/21_10:59:08,YZ,None,
,,,,,,Test,1,1,1,426,,,,,,,,0.675,0.2,0.08333333333333333,0.9166666666666666,0.0,0.9166666666666666,0.6307355589999856,1,1,0,0,0,11,12,5,12,0,,,,1,,,,,,,,,,,,,,,,,,,,,,,,,,,,,,,,,,,,,,,,,,,,,,110,159550,18,Male,1,2024/03/21_10:59:08,YZ,None,
,,,,,240321_111546,TEST,1,1,1,426,,,,,,,,,,,,,,,,,,,,,,,,,,,,1,1,1,1,cue2.png,easy,B,55,1.3237138389999927,0,953.7423709679999,955.092966214,,,,,,,,,,,,,,,,,,,,,,,,,,,,,,,,,,,110,159550,18,Male,1,2024/03/21_10:59:08,YZ,None,
,,,,,,test,1,2,3,426,1,N,0,right,0.43974003400012407,1,0,,,,,,,,,,,,,,,,,,,,,1,,,,,,,,,,,,,,,,,,,,,,,,,,,,,,,,,,,,,,,,,,,,,,110,159550,18,Male,1,2024/03/21_10:59:08,YZ,None,
,,,,,,test,1,2,3,426,2,N,0,right,0.48917588799986333,1,0,,,,,,,,,,,,,,,,,,,,,1,,,,,,,,,,,,,,,,,,,,,,,,,,,,,,,,,,,,,,,,,,,,,,110,159550,18,Male,1,2024/03/21_10:59:08,YZ,None,
,,,,,,test,1,2,3,426,3,V,0,right,0.5311831859999074,1,0,,,,,,,,,,,,,,,,,,,,,1,,,,,,,,,,,,,,,,,,,,,,,,,,,,,,,,,,,,,,,,,,,,,,110,159550,18,Male,1,2024/03/21_10:59:08,YZ,None,
,,,,,,test,1,2,3,426,4,J,0,right,0.45967572699987613,1,0,,,,,,,,,,,,,,,,,,,,,1,,,,,,,,,,,,,,,,,,,,,,,,,,,,,,,,,,,,,,,,,,,,,,110,159550,18,Male,1,2024/03/21_10:59:08,YZ,None,
,,,,,,test,1,2,3,426,5,N,1,left,0.625090900000032,1,0,,,,,,,,,,,,,,,,,,,,,1,,,,,,,,,,,,,,,,,,,,,,,,,,,,,,,,,,,,,,,,,,,,,,110,159550,18,Male,1,2024/03/21_10:59:08,YZ,None,
,,,,,,test,1,2,3,426,6,C,0,right,0.6049097259999598,1,0,,,,,,,,,,,,,,,,,,,,,1,,,,,,,,,,,,,,,,,,,,,,,,,,,,,,,,,,,,,,,,,,,,,,110,159550,18,Male,1,2024/03/21_10:59:08,YZ,None,
,,,,,,test,1,2,3,426,7,C,0,right,0.6051907909998135,1,0,,,,,,,,,,,,,,,,,,,,,1,,,,,,,,,,,,,,,,,,,,,,,,,,,,,,,,,,,,,,,,,,,,,,110,159550,18,Male,1,2024/03/21_10:59:08,YZ,None,
,,,,,,test,1,2,3,426,8,Q,0,right,0.5240901040001518,1,0,,,,,,,,,,,,,,,,,,,,,1,,,,,,,,,,,,,,,,,,,,,,,,,,,,,,,,,,,,,,,,,,,,,,110,159550,18,Male,1,2024/03/21_10:59:08,YZ,None,
,,,,,,test,1,2,3,426,9,J,0,left,0.6726635449999776,0,0,,,,,,,,,,,,,,,,,,,,,1,,,,,,,,,,,,,,,,,,,,,,,,,,,,,,,,,,,,,,,,,,,,,,110,159550,18,Male,1,2024/03/21_10:59:08,YZ,None,
,,,,,,test,1,2,3,426,10,C,1,right,0.7098864459999277,0,0,,,,,,,,,,,,,,,,,,,,,1,,,,,,,,,,,,,,,,,,,,,,,,,,,,,,,,,,,,,,,,,,,,,,110,159550,18,Male,1,2024/03/21_10:59:08,YZ,None,
,,,,,,test,1,2,3,426,11,Q,1,right,0.8308079580001504,0,0,,,,,,,,,,,,,,,,,,,,,1,,,,,,,,,,,,,,,,,,,,,,,,,,,,,,,,,,,,,,,,,,,,,,110,159550,18,Male,1,2024/03/21_10:59:08,YZ,None,
,,,,,,test,1,2,3,426,12,S,0,right,0.49028603799979464,1,0,,,,,,,,,,,,,,,,,,,,,1,,,,,,,,,,,,,,,,,,,,,,,,,,,,,,,,,,,,,,,,,,,,,,110,159550,18,Male,1,2024/03/21_10:59:08,YZ,None,
,,,,,,test,1,2,3,426,13,C,1,left,0.7428842940000777,1,0,,,,,,,,,,,,,,,,,,,,,1,,,,,,,,,,,,,,,,,,,,,,,,,,,,,,,,,,,,,,,,,,,,,,110,159550,18,Male,1,2024/03/21_10:59:08,YZ,None,
,,,,,,test,1,2,3,426,14,X,0,right,0.554806143000178,1,0,,,,,,,,,,,,,,,,,,,,,1,,,,,,,,,,,,,,,,,,,,,,,,,,,,,,,,,,,,,,,,,,,,,,110,159550,18,Male,1,2024/03/21_10:59:08,YZ,None,
,,,,,,test,1,2,3,426,15,S,1,right,0.6216520339999079,0,0,,,,,,,,,,,,,,,,,,,,,1,,,,,,,,,,,,,,,,,,,,,,,,,,,,,,,,,,,,,,,,,,,,,,110,159550,18,Male,1,2024/03/21_10:59:08,YZ,None,
