Instruction,Stimulus,Key,RT,START,END,Phase,Block,TrialN,NbackLevel,ISI,LetterN,Letter,Letter_isSame,Letter_Resp,Letter_RT,Letter_Accuracy,Letter_Timeout,Trial_A_measure,Trial_HR,Trial_FAR,Trial_CDR,Trial_MSR,Trial_ACC,Trial_RT,Trial_HitsCount,Trial_FAsCount,Trial_SameNoRespCount,Trial_DiffNoRespCount,Trial_NoRespCount,Trial_CDsCount,Trial_CorrectRespCount,Trial_SameLetterCount,Trial_DiffLetterCount,Trial_InvalidLetterCount,TrialCountCali,CaliEnd_A_measure,ISI_calibrated,Run,TrialIndex,TrialNumber_total,TrialNumber_valid,CueLearning,TrialDemandLearning,CueMapping,OnlineRating,OnlineRatingRT,OnlineRatingTimeOut,CueSTART,RatingSTART,OfflineRatingTimePoint,OfflineRatingQuesIndex,CueFigure,TrialDemand,OfflineRating,OfflineRatingRT,CueStart,OfflineRatingStart,PhaseType,CueLeft,CueDemandLeft,CueRight,CueDemandRight,Choice,ChoiceDemand,TaskDemand,ChoiceRT,ChoiceTimeOut,ChoiceSTART,CueCheck,CueDemandCheck,CorrectAnswer,Answer,AnswerDemand,AnswerRT,AnswerACC,AnswerTimeOut,CheckSTART,DemandRatingQuesIndex,QuesTLX,DemandLevel,DemandRating,DemandRatingRT,QuesStart,PID,SONA,Age,Gender,Run,TIME,EXPERIMENTER,frameRate
1,./instructions/inst_begin/Slide2.png,right,23.33363764,0.269977766,23.6036154,,,,,,,,,,,,,,,,,,,,,,,,,,,,,,,,,1,,,,,,,,,,,,,,,,,,,,,,,,,,,,,,,,,,,,,,,,,,,,,,45,157210,23,Female,1,2024/02/09_16:12:04,YZ,59.79254999
2,./instructions/inst_begin/Slide3.png,right,20.51756463,23.63794898,44.15551361,,,,,,,,,,,,,,,,,,,,,,,,,,,,,,,,,1,,,,,,,,,,,,,,,,,,,,,,,,,,,,,,,,,,,,,,,,,,,,,,45,157210,23,Female,1,2024/02/09_16:12:04,YZ,59.79254999
3,./instructions/inst_begin/Slide4.png,right,7.861953717,44.18957496,52.05152868,,,,,,,,,,,,,,,,,,,,,,,,,,,,,,,,,1,,,,,,,,,,,,,,,,,,,,,,,,,,,,,,,,,,,,,,,,,,,,,,45,157210,23,Female,1,2024/02/09_16:12:04,YZ,59.79254999
1,./instructions/inst_prac_2/Slide6.png,right,28.72246907,52.11308827,80.83555734,,,,,,,,,,,,,,,,,,,,,,,,,,,,,,,,,1,,,,,,,,,,,,,,,,,,,,,,,,,,,,,,,,,,,,,,,,,,,,,,45,157210,23,Female,1,2024/02/09_16:12:04,YZ,59.79254999
2,./instructions/inst_prac_2/Slide7.png,right,21.36828171,80.86708458,102.2353663,,,,,,,,,,,,,,,,,,,,,,,,,,,,,,,,,1,,,,,,,,,,,,,,,,,,,,,,,,,,,,,,,,,,,,,,,,,,,,,,45,157210,23,Female,1,2024/02/09_16:12:04,YZ,59.79254999
3,./instructions/inst_prac_2/Slide8.png,right,26.65250694,102.2710463,128.9235533,,,,,,,,,,,,,,,,,,,,,,,,,,,,,,,,,1,,,,,,,,,,,,,,,,,,,,,,,,,,,,,,,,,,,,,,,,,,,,,,45,157210,23,Female,1,2024/02/09_16:12:04,YZ,59.79254999
4,./instructions/inst_prac_2/Slide9.png,right,11.12480132,128.9587761,140.0835775,,,,,,,,,,,,,,,,,,,,,,,,,,,,,,,,,1,,,,,,,,,,,,,,,,,,,,,,,,,,,,,,,,,,,,,,,,,,,,,,45,157210,23,Female,1,2024/02/09_16:12:04,YZ,59.79254999
5,./instructions/inst_prac_2/Slide10.png,right,3.012175843,140.119299,143.1314748,,,,,,,,,,,,,,,,,,,,,,,,,,,,,,,,,1,,,,,,,,,,,,,,,,,,,,,,,,,,,,,,,,,,,,,,,,,,,,,,45,157210,23,Female,1,2024/02/09_16:12:04,YZ,59.79254999
6,./instructions/inst_prac_2/Slide11.png,right,2.945376849,143.1621977,146.1075745,,,,,,,,,,,,,,,,,,,,,,,,,,,,,,,,,1,,,,,,,,,,,,,,,,,,,,,,,,,,,,,,,,,,,,,,,,,,,,,,45,157210,23,Female,1,2024/02/09_16:12:04,YZ,59.79254999
7,./instructions/inst_prac_2/Slide12.png,right,2.116712142,146.142754,148.2594661,,,,,,,,,,,,,,,,,,,,,,,,,,,,,,,,,1,,,,,,,,,,,,,,,,,,,,,,,,,,,,,,,,,,,,,,,,,,,,,,45,157210,23,Female,1,2024/02/09_16:12:04,YZ,59.79254999
8,./instructions/inst_prac_2/Slide13.png,right,2.620980774,148.294515,150.9154958,,,,,,,,,,,,,,,,,,,,,,,,,,,,,,,,,1,,,,,,,,,,,,,,,,,,,,,,,,,,,,,,,,,,,,,,,,,,,,,,45,157210,23,Female,1,2024/02/09_16:12:04,YZ,59.79254999
9,./instructions/inst_prac_2/Slide14.png,right,27.422238,150.9493845,178.3716225,,,,,,,,,,,,,,,,,,,,,,,,,,,,,,,,,1,,,,,,,,,,,,,,,,,,,,,,,,,,,,,,,,,,,,,,,,,,,,,,45,157210,23,Female,1,2024/02/09_16:12:04,YZ,59.79254999
10,./instructions/inst_prac_2/Slide15.png,right,23.83202462,178.4034752,202.2354998,,,,,,,,,,,,,,,,,,,,,,,,,,,,,,,,,1,,,,,,,,,,,,,,,,,,,,,,,,,,,,,,,,,,,,,,,,,,,,,,45,157210,23,Female,1,2024/02/09_16:12:04,YZ,59.79254999
,,,,,,practice,0,7,2,2583,1,J,0,left,8.861985664,0,0,,,,,,,,,,,,,,,,,,,,,1,,,,,,,,,,,,,,,,,,,,,,,,,,,,,,,,,,,,,,,,,,,,,,45,157210,23,Female,1,2024/02/09_16:12:04,YZ,59.79254999
,,,,,,practice,0,7,2,2583,2,J,0,left,4.66235367,0,0,,,,,,,,,,,,,,,,,,,,,1,,,,,,,,,,,,,,,,,,,,,,,,,,,,,,,,,,,,,,,,,,,,,,45,157210,23,Female,1,2024/02/09_16:12:04,YZ,59.79254999
,,,,,,practice,0,7,2,2583,3,J,1,left,2.356947712,1,0,,,,,,,,,,,,,,,,,,,,,1,,,,,,,,,,,,,,,,,,,,,,,,,,,,,,,,,,,,,,,,,,,,,,45,157210,23,Female,1,2024/02/09_16:12:04,YZ,59.79254999
,,,,,,practice,0,7,2,2583,4,J,1,left,2.155597957,1,0,,,,,,,,,,,,,,,,,,,,,1,,,,,,,,,,,,,,,,,,,,,,,,,,,,,,,,,,,,,,,,,,,,,,45,157210,23,Female,1,2024/02/09_16:12:04,YZ,59.79254999
,,,,,,practice,0,7,2,2583,5,S,0,right,1.785305047,1,0,,,,,,,,,,,,,,,,,,,,,1,,,,,,,,,,,,,,,,,,,,,,,,,,,,,,,,,,,,,,,,,,,,,,45,157210,23,Female,1,2024/02/09_16:12:04,YZ,59.79254999
,,,,,,practice,0,7,2,2583,6,V,0,right,1.069440184,1,0,,,,,,,,,,,,,,,,,,,,,1,,,,,,,,,,,,,,,,,,,,,,,,,,,,,,,,,,,,,,,,,,,,,,45,157210,23,Female,1,2024/02/09_16:12:04,YZ,59.79254999
,,,,,,practice,0,7,2,2583,,,,,,,,0.875,1,0.5,0.5,0,0.5,3.481938372,2,2,0,0,0,2,4,2,4,0,,,,1,,,,,,,,,,,,,,,,,,,,,,,,,,,,,,,,,,,,,,,,,,,,,,45,157210,23,Female,1,2024/02/09_16:12:04,YZ,59.79254999
1,./instructions/inst_to_cali/Slide20.png,right,5.054400165,230.5811501,235.6355503,,,,,,,,,,,,,,,,,,,,,,,,,,,,,,,,,1,,,,,,,,,,,,,,,,,,,,,,,,,,,,,,,,,,,,,,,,,,,,,,45,157210,23,Female,1,2024/02/09_16:12:04,YZ,59.79254999
1,./instructions/inst_cali/Slide22.png,right,18.40663265,235.6768157,254.0834483,,,,,,,,,,,,,,,,,,,,,,,,,,,,,,,,,1,,,,,,,,,,,,,,,,,,,,,,,,,,,,,,,,,,,,,,,,,,,,,,45,157210,23,Female,1,2024/02/09_16:12:04,YZ,59.79254999
,,,,,,calibration,0,17,2,583,1,J,0,None,nan,0,1,,,,,,,,,,,,,,,,,,,,,1,,,,,,,,,,,,,,,,,,,,,,,,,,,,,,,,,,,,,,,,,,,,,,45,157210,23,Female,1,2024/02/09_16:12:04,YZ,59.79254999
,,,,,,calibration,0,17,2,583,2,C,0,None,nan,0,1,,,,,,,,,,,,,,,,,,,,,1,,,,,,,,,,,,,,,,,,,,,,,,,,,,,,,,,,,,,,,,,,,,,,45,157210,23,Female,1,2024/02/09_16:12:04,YZ,59.79254999
,,,,,,calibration,0,17,2,583,3,J,1,right,0.928567747,0,0,,,,,,,,,,,,,,,,,,,,,1,,,,,,,,,,,,,,,,,,,,,,,,,,,,,,,,,,,,,,,,,,,,,,45,157210,23,Female,1,2024/02/09_16:12:04,YZ,59.79254999
,,,,,,calibration,0,17,2,583,4,F,0,left,1.127060926,0,0,,,,,,,,,,,,,,,,,,,,,1,,,,,,,,,,,,,,,,,,,,,,,,,,,,,,,,,,,,,,,,,,,,,,45,157210,23,Female,1,2024/02/09_16:12:04,YZ,59.79254999
,,,,,,calibration,0,17,2,583,5,N,0,right,1.691281788,1,0,,,,,,,,,,,,,,,,,,,,,1,,,,,,,,,,,,,,,,,,,,,,,,,,,,,,,,,,,,,,,,,,,,,,45,157210,23,Female,1,2024/02/09_16:12:04,YZ,59.79254999
,,,,,,calibration,0,17,2,583,6,X,0,right,0.997871688,1,0,,,,,,,,,,,,,,,,,,,,,1,,,,,,,,,,,,,,,,,,,,,,,,,,,,,,,,,,,,,,,,,,,,,,45,157210,23,Female,1,2024/02/09_16:12:04,YZ,59.79254999
,,,,,,calibration,0,17,2,583,7,N,1,right,1.265875814,0,0,,,,,,,,,,,,,,,,,,,,,1,,,,,,,,,,,,,,,,,,,,,,,,,,,,,,,,,,,,,,,,,,,,,,45,157210,23,Female,1,2024/02/09_16:12:04,YZ,59.79254999
,,,,,,calibration,0,17,2,583,8,Q,0,right,nan,0,1,,,,,,,,,,,,,,,,,,,,,1,,,,,,,,,,,,,,,,,,,,,,,,,,,,,,,,,,,,,,,,,,,,,,45,157210,23,Female,1,2024/02/09_16:12:04,YZ,59.79254999
,,,,,,calibration,0,17,2,583,9,N,1,right,0.071914547,0,0,,,,,,,,,,,,,,,,,,,,,1,,,,,,,,,,,,,,,,,,,,,,,,,,,,,,,,,,,,,,,,,,,,,,45,157210,23,Female,1,2024/02/09_16:12:04,YZ,59.79254999
,,,,,,calibration,0,17,2,583,10,S,0,right,0.792319901,1,0,,,,,,,,,,,,,,,,,,,,,1,,,,,,,,,,,,,,,,,,,,,,,,,,,,,,,,,,,,,,,,,,,,,,45,157210,23,Female,1,2024/02/09_16:12:04,YZ,59.79254999
,,,,,,calibration,0,17,2,583,11,N,1,right,1.314053826,0,0,,,,,,,,,,,,,,,,,,,,,1,,,,,,,,,,,,,,,,,,,,,,,,,,,,,,,,,,,,,,,,,,,,,,45,157210,23,Female,1,2024/02/09_16:12:04,YZ,59.79254999
,,,,,,calibration,0,17,2,583,12,V,0,left,0.926196427,0,0,,,,,,,,,,,,,,,,,,,,,1,,,,,,,,,,,,,,,,,,,,,,,,,,,,,,,,,,,,,,,,,,,,,,45,157210,23,Female,1,2024/02/09_16:12:04,YZ,59.79254999
,,,,,,calibration,0,17,2,583,13,C,0,right,1.312351899,1,0,,,,,,,,,,,,,,,,,,,,,1,,,,,,,,,,,,,,,,,,,,,,,,,,,,,,,,,,,,,,,,,,,,,,45,157210,23,Female,1,2024/02/09_16:12:04,YZ,59.79254999
,,,,,,calibration,0,17,2,583,14,F,0,right,nan,0,1,,,,,,,,,,,,,,,,,,,,,1,,,,,,,,,,,,,,,,,,,,,,,,,,,,,,,,,,,,,,,,,,,,,,45,157210,23,Female,1,2024/02/09_16:12:04,YZ,59.79254999
,,,,,,calibration,0,17,2,583,15,Q,0,right,0.880432704,1,0,,,,,,,,,,,,,,,,,,,,,1,,,,,,,,,,,,,,,,,,,,,,,,,,,,,,,,,,,,,,,,,,,,,,45,157210,23,Female,1,2024/02/09_16:12:04,YZ,59.79254999
,,,,,,calibration,0,17,2,583,,,,,,,,0.204545455,0,0.181818182,0.714285714,0.266666667,0.551515152,1.027993388,0,2,0,4,4,5,5,4,11,0,,,,1,,,,,,,,,,,,,,,,,,,,,,,,,,,,,,,,,,,,,,,,,,,,,,45,157210,23,Female,1,2024/02/09_16:12:04,YZ,59.79254999
,,,,,,Calibration,0,,2,583,,,,,,,,,,,,,,,,,,,,,,,,,1,,,1,,,,,,,,,,,,,,,,,,,,,,,,,,,,,,,,,,,,,,,,,,,,,,45,157210,23,Female,1,2024/02/09_16:12:04,YZ,59.79254999
,,,,,,calibration,0,20,2,679,1,F,0,None,nan,0,1,,,,,,,,,,,,,,,,,,,,,1,,,,,,,,,,,,,,,,,,,,,,,,,,,,,,,,,,,,,,,,,,,,,,45,157210,23,Female,1,2024/02/09_16:12:04,YZ,59.79254999
,,,,,,calibration,0,20,2,679,2,C,0,right,1.974560732,1,0,,,,,,,,,,,,,,,,,,,,,1,,,,,,,,,,,,,,,,,,,,,,,,,,,,,,,,,,,,,,,,,,,,,,45,157210,23,Female,1,2024/02/09_16:12:04,YZ,59.79254999
,,,,,,calibration,0,20,2,679,3,N,0,right,nan,0,1,,,,,,,,,,,,,,,,,,,,,1,,,,,,,,,,,,,,,,,,,,,,,,,,,,,,,,,,,,,,,,,,,,,,45,157210,23,Female,1,2024/02/09_16:12:04,YZ,59.79254999
,,,,,,calibration,0,20,2,679,4,C,1,right,0.325995162,0,0,,,,,,,,,,,,,,,,,,,,,1,,,,,,,,,,,,,,,,,,,,,,,,,,,,,,,,,,,,,,,,,,,,,,45,157210,23,Female,1,2024/02/09_16:12:04,YZ,59.79254999
,,,,,,calibration,0,20,2,679,5,S,0,right,nan,0,1,,,,,,,,,,,,,,,,,,,,,1,,,,,,,,,,,,,,,,,,,,,,,,,,,,,,,,,,,,,,,,,,,,,,45,157210,23,Female,1,2024/02/09_16:12:04,YZ,59.79254999
,,,,,,calibration,0,20,2,679,6,C,1,left,0.979879549,1,0,,,,,,,,,,,,,,,,,,,,,1,,,,,,,,,,,,,,,,,,,,,,,,,,,,,,,,,,,,,,,,,,,,,,45,157210,23,Female,1,2024/02/09_16:12:04,YZ,59.79254999
,,,,,,calibration,0,20,2,679,7,N,0,right,1.14343407,1,0,,,,,,,,,,,,,,,,,,,,,1,,,,,,,,,,,,,,,,,,,,,,,,,,,,,,,,,,,,,,,,,,,,,,45,157210,23,Female,1,2024/02/09_16:12:04,YZ,59.79254999
,,,,,,calibration,0,20,2,679,8,C,1,left,0.995262749,1,0,,,,,,,,,,,,,,,,,,,,,1,,,,,,,,,,,,,,,,,,,,,,,,,,,,,,,,,,,,,,,,,,,,,,45,157210,23,Female,1,2024/02/09_16:12:04,YZ,59.79254999
,,,,,,calibration,0,20,2,679,9,Q,0,right,1.197185297,1,0,,,,,,,,,,,,,,,,,,,,,1,,,,,,,,,,,,,,,,,,,,,,,,,,,,,,,,,,,,,,,,,,,,,,45,157210,23,Female,1,2024/02/09_16:12:04,YZ,59.79254999
,,,,,,calibration,0,20,2,679,10,F,0,left,1.297238132,0,0,,,,,,,,,,,,,,,,,,,,,1,,,,,,,,,,,,,,,,,,,,,,,,,,,,,,,,,,,,,,,,,,,,,,45,157210,23,Female,1,2024/02/09_16:12:04,YZ,59.79254999
,,,,,,calibration,0,20,2,679,11,Q,1,left,1.593791247,1,0,,,,,,,,,,,,,,,,,,,,,1,,,,,,,,,,,,,,,,,,,,,,,,,,,,,,,,,,,,,,,,,,,,,,45,157210,23,Female,1,2024/02/09_16:12:04,YZ,59.79254999
,,,,,,calibration,0,20,2,679,12,C,0,right,1.346334177,1,0,,,,,,,,,,,,,,,,,,,,,1,,,,,,,,,,,,,,,,,,,,,,,,,,,,,,,,,,,,,,,,,,,,,,45,157210,23,Female,1,2024/02/09_16:12:04,YZ,59.79254999
,,,,,,calibration,0,20,2,679,13,V,0,right,0.965871937,1,0,,,,,,,,,,,,,,,,,,,,,1,,,,,,,,,,,,,,,,,,,,,,,,,,,,,,,,,,,,,,,,,,,,,,45,157210,23,Female,1,2024/02/09_16:12:04,YZ,59.79254999
,,,,,,calibration,0,20,2,679,14,J,0,right,0.793333461,1,0,,,,,,,,,,,,,,,,,,,,,1,,,,,,,,,,,,,,,,,,,,,,,,,,,,,,,,,,,,,,,,,,,,,,45,157210,23,Female,1,2024/02/09_16:12:04,YZ,59.79254999
,,,,,,calibration,0,20,2,679,,,,,,,,0.8875,0.75,0.1,0.857142857,0.214285714,0.685714286,1.146626047,3,1,0,3,3,6,9,4,10,0,,,,1,,,,,,,,,,,,,,,,,,,,,,,,,,,,,,,,,,,,,,,,,,,,,,45,157210,23,Female,1,2024/02/09_16:12:04,YZ,59.79254999
,,,,,,Calibration,0,,2,679,,,,,,,,,,,,,,,,,,,,,,,,,2,,,1,,,,,,,,,,,,,,,,,,,,,,,,,,,,,,,,,,,,,,,,,,,,,,45,157210,23,Female,1,2024/02/09_16:12:04,YZ,59.79254999
,,,,,,calibration,0,18,2,583,1,X,0,None,nan,0,1,,,,,,,,,,,,,,,,,,,,,1,,,,,,,,,,,,,,,,,,,,,,,,,,,,,,,,,,,,,,,,,,,,,,45,157210,23,Female,1,2024/02/09_16:12:04,YZ,59.79254999
,,,,,,calibration,0,18,2,583,2,C,0,right,1.697095425,1,0,,,,,,,,,,,,,,,,,,,,,1,,,,,,,,,,,,,,,,,,,,,,,,,,,,,,,,,,,,,,,,,,,,,,45,157210,23,Female,1,2024/02/09_16:12:04,YZ,59.79254999
,,,,,,calibration,0,18,2,583,3,S,0,right,nan,0,1,,,,,,,,,,,,,,,,,,,,,1,,,,,,,,,,,,,,,,,,,,,,,,,,,,,,,,,,,,,,,,,,,,,,45,157210,23,Female,1,2024/02/09_16:12:04,YZ,59.79254999
,,,,,,calibration,0,18,2,583,4,V,0,right,1.294226303,1,0,,,,,,,,,,,,,,,,,,,,,1,,,,,,,,,,,,,,,,,,,,,,,,,,,,,,,,,,,,,,,,,,,,,,45,157210,23,Female,1,2024/02/09_16:12:04,YZ,59.79254999
,,,,,,calibration,0,18,2,583,5,X,0,right,0.915019265,1,0,,,,,,,,,,,,,,,,,,,,,1,,,,,,,,,,,,,,,,,,,,,,,,,,,,,,,,,,,,,,,,,,,,,,45,157210,23,Female,1,2024/02/09_16:12:04,YZ,59.79254999
,,,,,,calibration,0,18,2,583,6,J,0,right,0.858673518,1,0,,,,,,,,,,,,,,,,,,,,,1,,,,,,,,,,,,,,,,,,,,,,,,,,,,,,,,,,,,,,,,,,,,,,45,157210,23,Female,1,2024/02/09_16:12:04,YZ,59.79254999
,,,,,,calibration,0,18,2,583,7,X,1,left,0.71166685,1,0,,,,,,,,,,,,,,,,,,,,,1,,,,,,,,,,,,,,,,,,,,,,,,,,,,,,,,,,,,,,,,,,,,,,45,157210,23,Female,1,2024/02/09_16:12:04,YZ,59.79254999
,,,,,,calibration,0,18,2,583,8,J,1,right,1.281183436,0,0,,,,,,,,,,,,,,,,,,,,,1,,,,,,,,,,,,,,,,,,,,,,,,,,,,,,,,,,,,,,,,,,,,,,45,157210,23,Female,1,2024/02/09_16:12:04,YZ,59.79254999
,,,,,,calibration,0,18,2,583,9,V,0,left,1.1586564,0,0,,,,,,,,,,,,,,,,,,,,,1,,,,,,,,,,,,,,,,,,,,,,,,,,,,,,,,,,,,,,,,,,,,,,45,157210,23,Female,1,2024/02/09_16:12:04,YZ,59.79254999
,,,,,,calibration,0,18,2,583,10,J,1,left,nan,0,1,,,,,,,,,,,,,,,,,,,,,1,,,,,,,,,,,,,,,,,,,,,,,,,,,,,,,,,,,,,,,,,,,,,,45,157210,23,Female,1,2024/02/09_16:12:04,YZ,59.79254999
,,,,,,calibration,0,18,2,583,11,Q,0,right,0.744728018,1,0,,,,,,,,,,,,,,,,,,,,,1,,,,,,,,,,,,,,,,,,,,,,,,,,,,,,,,,,,,,,,,,,,,,,45,157210,23,Female,1,2024/02/09_16:12:04,YZ,59.79254999
,,,,,,calibration,0,18,2,583,12,F,0,right,1.025443013,1,0,,,,,,,,,,,,,,,,,,,,,1,,,,,,,,,,,,,,,,,,,,,,,,,,,,,,,,,,,,,,,,,,,,,,45,157210,23,Female,1,2024/02/09_16:12:04,YZ,59.79254999
,,,,,,calibration,0,18,2,583,13,Q,1,left,0.894590184,1,0,,,,,,,,,,,,,,,,,,,,,1,,,,,,,,,,,,,,,,,,,,,,,,,,,,,,,,,,,,,,,,,,,,,,45,157210,23,Female,1,2024/02/09_16:12:04,YZ,59.79254999
,,,,,,calibration,0,18,2,583,14,N,0,right,0.963637593,1,0,,,,,,,,,,,,,,,,,,,,,1,,,,,,,,,,,,,,,,,,,,,,,,,,,,,,,,,,,,,,,,,,,,,,45,157210,23,Female,1,2024/02/09_16:12:04,YZ,59.79254999
,,,,,,calibration,0,18,2,583,15,J,0,right,1.275535617,1,0,,,,,,,,,,,,,,,,,,,,,1,,,,,,,,,,,,,,,,,,,,,,,,,,,,,,,,,,,,,,,,,,,,,,45,157210,23,Female,1,2024/02/09_16:12:04,YZ,59.79254999
,,,,,,calibration,0,18,2,583,,,,,,,,0.806818182,0.5,0.090909091,0.888888889,0.2,0.709090909,1.068371302,2,1,1,2,3,8,10,4,11,0,,,,1,,,,,,,,,,,,,,,,,,,,,,,,,,,,,,,,,,,,,,,,,,,,,,45,157210,23,Female,1,2024/02/09_16:12:04,YZ,59.79254999
,,,,,,Calibration,0,,2,583,,,,,,,,,,,,,,,,,,,,,,,,,3,,,1,,,,,,,,,,,,,,,,,,,,,,,,,,,,,,,,,,,,,,,,,,,,,,45,157210,23,Female,1,2024/02/09_16:12:04,YZ,59.79254999
,,,,,,calibration,0,25,2,583,1,N,0,right,1.238362804,1,0,,,,,,,,,,,,,,,,,,,,,1,,,,,,,,,,,,,,,,,,,,,,,,,,,,,,,,,,,,,,,,,,,,,,45,157210,23,Female,1,2024/02/09_16:12:04,YZ,59.79254999
,,,,,,calibration,0,25,2,583,2,X,0,right,nan,0,1,,,,,,,,,,,,,,,,,,,,,1,,,,,,,,,,,,,,,,,,,,,,,,,,,,,,,,,,,,,,,,,,,,,,45,157210,23,Female,1,2024/02/09_16:12:04,YZ,59.79254999
,,,,,,calibration,0,25,2,583,3,S,0,right,0,1,0,,,,,,,,,,,,,,,,,,,,,1,,,,,,,,,,,,,,,,,,,,,,,,,,,,,,,,,,,,,,,,,,,,,,45,157210,23,Female,1,2024/02/09_16:12:04,YZ,59.79254999
,,,,,,calibration,0,25,2,583,4,V,0,left,1.235479962,0,0,,,,,,,,,,,,,,,,,,,,,1,,,,,,,,,,,,,,,,,,,,,,,,,,,,,,,,,,,,,,,,,,,,,,45,157210,23,Female,1,2024/02/09_16:12:04,YZ,59.79254999
,,,,,,calibration,0,25,2,583,5,C,0,right,0.778879144,1,0,,,,,,,,,,,,,,,,,,,,,1,,,,,,,,,,,,,,,,,,,,,,,,,,,,,,,,,,,,,,,,,,,,,,45,157210,23,Female,1,2024/02/09_16:12:04,YZ,59.79254999
,,,,,,calibration,0,25,2,583,6,X,0,left,0.892738099,0,0,,,,,,,,,,,,,,,,,,,,,1,,,,,,,,,,,,,,,,,,,,,,,,,,,,,,,,,,,,,,,,,,,,,,45,157210,23,Female,1,2024/02/09_16:12:04,YZ,59.79254999
,,,,,,calibration,0,25,2,583,7,F,0,right,1.535965902,1,0,,,,,,,,,,,,,,,,,,,,,1,,,,,,,,,,,,,,,,,,,,,,,,,,,,,,,,,,,,,,,,,,,,,,45,157210,23,Female,1,2024/02/09_16:12:04,YZ,59.79254999
,,,,,,calibration,0,25,2,583,8,V,0,left,0.925909769,0,0,,,,,,,,,,,,,,,,,,,,,1,,,,,,,,,,,,,,,,,,,,,,,,,,,,,,,,,,,,,,,,,,,,,,45,157210,23,Female,1,2024/02/09_16:12:04,YZ,59.79254999
,,,,,,calibration,0,25,2,583,9,J,0,right,1.244840895,1,0,,,,,,,,,,,,,,,,,,,,,1,,,,,,,,,,,,,,,,,,,,,,,,,,,,,,,,,,,,,,,,,,,,,,45,157210,23,Female,1,2024/02/09_16:12:04,YZ,59.79254999
,,,,,,calibration,0,25,2,583,10,Q,0,right,0.780071546,1,0,,,,,,,,,,,,,,,,,,,,,1,,,,,,,,,,,,,,,,,,,,,,,,,,,,,,,,,,,,,,,,,,,,,,45,157210,23,Female,1,2024/02/09_16:12:04,YZ,59.79254999
,,,,,,calibration,0,25,2,583,11,J,1,left,0.615675598,1,0,,,,,,,,,,,,,,,,,,,,,1,,,,,,,,,,,,,,,,,,,,,,,,,,,,,,,,,,,,,,,,,,,,,,45,157210,23,Female,1,2024/02/09_16:12:04,YZ,59.79254999
,,,,,,calibration,0,25,2,583,12,Q,1,left,1.66257218,1,0,,,,,,,,,,,,,,,,,,,,,1,,,,,,,,,,,,,,,,,,,,,,,,,,,,,,,,,,,,,,,,,,,,,,45,157210,23,Female,1,2024/02/09_16:12:04,YZ,59.79254999
,,,,,,calibration,0,25,2,583,13,X,0,right,0.743695801,1,0,,,,,,,,,,,,,,,,,,,,,1,,,,,,,,,,,,,,,,,,,,,,,,,,,,,,,,,,,,,,,,,,,,,,45,157210,23,Female,1,2024/02/09_16:12:04,YZ,59.79254999
,,,,,,calibration,0,25,2,583,14,Q,1,left,1.362110783,1,0,,,,,,,,,,,,,,,,,,,,,1,,,,,,,,,,,,,,,,,,,,,,,,,,,,,,,,,,,,,,,,,,,,,,45,157210,23,Female,1,2024/02/09_16:12:04,YZ,59.79254999
,,,,,,calibration,0,25,2,583,15,X,1,right,0.931660459,0,0,,,,,,,,,,,,,,,,,,,,,1,,,,,,,,,,,,,,,,,,,,,,,,,,,,,,,,,,,,,,,,,,,,,,45,157210,23,Female,1,2024/02/09_16:12:04,YZ,59.79254999
,,,,,,calibration,0,25,2,583,,,,,,,,0.801136364,0.75,0.272727273,0.7,0.066666667,0.660606061,0.996283067,3,3,0,1,1,7,10,4,11,0,,,,1,,,,,,,,,,,,,,,,,,,,,,,,,,,,,,,,,,,,,,,,,,,,,,45,157210,23,Female,1,2024/02/09_16:12:04,YZ,59.79254999
,,,,,,Calibration,0,,2,583,,,,,,,,,,,,,,,,,,,,,,,,,4,,,1,,,,,,,,,,,,,,,,,,,,,,,,,,,,,,,,,,,,,,,,,,,,,,45,157210,23,Female,1,2024/02/09_16:12:04,YZ,59.79254999
,,,,,,calibration,0,26,2,583,1,C,0,left,1.47981697,0,0,,,,,,,,,,,,,,,,,,,,,1,,,,,,,,,,,,,,,,,,,,,,,,,,,,,,,,,,,,,,,,,,,,,,45,157210,23,Female,1,2024/02/09_16:12:04,YZ,59.79254999
,,,,,,calibration,0,26,2,583,2,J,0,right,1.980430721,1,0,,,,,,,,,,,,,,,,,,,,,1,,,,,,,,,,,,,,,,,,,,,,,,,,,,,,,,,,,,,,,,,,,,,,45,157210,23,Female,1,2024/02/09_16:12:04,YZ,59.79254999
,,,,,,calibration,0,26,2,583,3,Q,0,right,0.760158539,1,0,,,,,,,,,,,,,,,,,,,,,1,,,,,,,,,,,,,,,,,,,,,,,,,,,,,,,,,,,,,,,,,,,,,,45,157210,23,Female,1,2024/02/09_16:12:04,YZ,59.79254999
,,,,,,calibration,0,26,2,583,4,V,0,left,1.7462286,0,0,,,,,,,,,,,,,,,,,,,,,1,,,,,,,,,,,,,,,,,,,,,,,,,,,,,,,,,,,,,,,,,,,,,,45,157210,23,Female,1,2024/02/09_16:12:04,YZ,59.79254999
,,,,,,calibration,0,26,2,583,5,N,0,right,1.059500361,1,0,,,,,,,,,,,,,,,,,,,,,1,,,,,,,,,,,,,,,,,,,,,,,,,,,,,,,,,,,,,,,,,,,,,,45,157210,23,Female,1,2024/02/09_16:12:04,YZ,59.79254999
,,,,,,calibration,0,26,2,583,6,V,1,right,1.612112058,0,0,,,,,,,,,,,,,,,,,,,,,1,,,,,,,,,,,,,,,,,,,,,,,,,,,,,,,,,,,,,,,,,,,,,,45,157210,23,Female,1,2024/02/09_16:12:04,YZ,59.79254999
,,,,,,calibration,0,26,2,583,7,N,1,right,1.746968788,0,0,,,,,,,,,,,,,,,,,,,,,1,,,,,,,,,,,,,,,,,,,,,,,,,,,,,,,,,,,,,,,,,,,,,,45,157210,23,Female,1,2024/02/09_16:12:04,YZ,59.79254999
,,,,,,calibration,0,26,2,583,8,J,0,right,1.491798611,1,0,,,,,,,,,,,,,,,,,,,,,1,,,,,,,,,,,,,,,,,,,,,,,,,,,,,,,,,,,,,,,,,,,,,,45,157210,23,Female,1,2024/02/09_16:12:04,YZ,59.79254999
,,,,,,calibration,0,26,2,583,9,N,1,left,0.983176115,1,0,,,,,,,,,,,,,,,,,,,,,1,,,,,,,,,,,,,,,,,,,,,,,,,,,,,,,,,,,,,,,,,,,,,,45,157210,23,Female,1,2024/02/09_16:12:04,YZ,59.79254999
,,,,,,calibration,0,26,2,583,10,C,0,right,1.830514537,1,0,,,,,,,,,,,,,,,,,,,,,1,,,,,,,,,,,,,,,,,,,,,,,,,,,,,,,,,,,,,,,,,,,,,,45,157210,23,Female,1,2024/02/09_16:12:04,YZ,59.79254999
,,,,,,calibration,0,26,2,583,11,J,0,right,nan,0,1,,,,,,,,,,,,,,,,,,,,,1,,,,,,,,,,,,,,,,,,,,,,,,,,,,,,,,,,,,,,,,,,,,,,45,157210,23,Female,1,2024/02/09_16:12:04,YZ,59.79254999
,,,,,,calibration,0,26,2,583,12,X,0,left,0,0,0,,,,,,,,,,,,,,,,,,,,,1,,,,,,,,,,,,,,,,,,,,,,,,,,,,,,,,,,,,,,,,,,,,,,45,157210,23,Female,1,2024/02/09_16:12:04,YZ,59.79254999
,,,,,,calibration,0,26,2,583,13,Q,0,right,1.003193589,1,0,,,,,,,,,,,,,,,,,,,,,1,,,,,,,,,,,,,,,,,,,,,,,,,,,,,,,,,,,,,,,,,,,,,,45,157210,23,Female,1,2024/02/09_16:12:04,YZ,59.79254999
,,,,,,calibration,0,26,2,583,14,X,1,left,1.26472693,1,0,,,,,,,,,,,,,,,,,,,,,1,,,,,,,,,,,,,,,,,,,,,,,,,,,,,,,,,,,,,,,,,,,,,,45,157210,23,Female,1,2024/02/09_16:12:04,YZ,59.79254999
,,,,,,calibration,0,26,2,583,15,J,0,left,nan,0,1,,,,,,,,,,,,,,,,,,,,,1,,,,,,,,,,,,,,,,,,,,,,,,,,,,,,,,,,,,,,,,,,,,,,45,157210,23,Female,1,2024/02/09_16:12:04,YZ,59.79254999
,,,,,,calibration,0,26,2,583,,,,,,,,0.670454545,0.5,0.272727273,0.666666667,0.133333333,0.593939394,1.304509678,2,3,0,2,2,6,8,4,11,0,,,,1,,,,,,,,,,,,,,,,,,,,,,,,,,,,,,,,,,,,,,,,,,,,,,45,157210,23,Female,1,2024/02/09_16:12:04,YZ,59.79254999
,,,,,,Calibration,0,,2,583,,,,,,,,,,,,,,,,,,,,,,,,,5,,,1,,,,,,,,,,,,,,,,,,,,,,,,,,,,,,,,,,,,,,,,,,,,,,45,157210,23,Female,1,2024/02/09_16:12:04,YZ,59.79254999
,,,,,,calibration,0,4,2,679,1,F,0,right,0.914476495,1,0,,,,,,,,,,,,,,,,,,,,,1,,,,,,,,,,,,,,,,,,,,,,,,,,,,,,,,,,,,,,,,,,,,,,45,157210,23,Female,1,2024/02/09_16:12:04,YZ,59.79254999
,,,,,,calibration,0,4,2,679,2,N,0,right,nan,0,1,,,,,,,,,,,,,,,,,,,,,1,,,,,,,,,,,,,,,,,,,,,,,,,,,,,,,,,,,,,,,,,,,,,,45,157210,23,Female,1,2024/02/09_16:12:04,YZ,59.79254999
,,,,,,calibration,0,4,2,679,3,Q,0,right,1.37936757,1,0,,,,,,,,,,,,,,,,,,,,,1,,,,,,,,,,,,,,,,,,,,,,,,,,,,,,,,,,,,,,,,,,,,,,45,157210,23,Female,1,2024/02/09_16:12:04,YZ,59.79254999
,,,,,,calibration,0,4,2,679,4,X,0,right,1.534352526,1,0,,,,,,,,,,,,,,,,,,,,,1,,,,,,,,,,,,,,,,,,,,,,,,,,,,,,,,,,,,,,,,,,,,,,45,157210,23,Female,1,2024/02/09_16:12:04,YZ,59.79254999
,,,,,,calibration,0,4,2,679,5,Q,1,left,0.359998824,1,0,,,,,,,,,,,,,,,,,,,,,1,,,,,,,,,,,,,,,,,,,,,,,,,,,,,,,,,,,,,,,,,,,,,,45,157210,23,Female,1,2024/02/09_16:12:04,YZ,59.79254999
,,,,,,calibration,0,4,2,679,6,J,0,right,1.409267587,1,0,,,,,,,,,,,,,,,,,,,,,1,,,,,,,,,,,,,,,,,,,,,,,,,,,,,,,,,,,,,,,,,,,,,,45,157210,23,Female,1,2024/02/09_16:12:04,YZ,59.79254999
,,,,,,calibration,0,4,2,679,7,C,0,right,1.647922137,1,0,,,,,,,,,,,,,,,,,,,,,1,,,,,,,,,,,,,,,,,,,,,,,,,,,,,,,,,,,,,,,,,,,,,,45,157210,23,Female,1,2024/02/09_16:12:04,YZ,59.79254999
,,,,,,calibration,0,4,2,679,8,S,0,right,0.828648391,1,0,,,,,,,,,,,,,,,,,,,,,1,,,,,,,,,,,,,,,,,,,,,,,,,,,,,,,,,,,,,,,,,,,,,,45,157210,23,Female,1,2024/02/09_16:12:04,YZ,59.79254999
,,,,,,calibration,0,4,2,679,9,C,1,left,0.661957934,1,0,,,,,,,,,,,,,,,,,,,,,1,,,,,,,,,,,,,,,,,,,,,,,,,,,,,,,,,,,,,,,,,,,,,,45,157210,23,Female,1,2024/02/09_16:12:04,YZ,59.79254999
,,,,,,calibration,0,4,2,679,10,X,0,right,1.179880842,1,0,,,,,,,,,,,,,,,,,,,,,1,,,,,,,,,,,,,,,,,,,,,,,,,,,,,,,,,,,,,,,,,,,,,,45,157210,23,Female,1,2024/02/09_16:12:04,YZ,59.79254999
,,,,,,calibration,0,4,2,679,11,C,1,left,1.064779985,1,0,,,,,,,,,,,,,,,,,,,,,1,,,,,,,,,,,,,,,,,,,,,,,,,,,,,,,,,,,,,,,,,,,,,,45,157210,23,Female,1,2024/02/09_16:12:04,YZ,59.79254999
,,,,,,calibration,0,4,2,679,12,J,0,left,nan,0,1,,,,,,,,,,,,,,,,,,,,,1,,,,,,,,,,,,,,,,,,,,,,,,,,,,,,,,,,,,,,,,,,,,,,45,157210,23,Female,1,2024/02/09_16:12:04,YZ,59.79254999
,,,,,,calibration,0,4,2,679,13,X,0,left,nan,0,1,,,,,,,,,,,,,,,,,,,,,1,,,,,,,,,,,,,,,,,,,,,,,,,,,,,,,,,,,,,,,,,,,,,,45,157210,23,Female,1,2024/02/09_16:12:04,YZ,59.79254999
,,,,,,calibration,0,4,2,679,14,J,1,right,1.911493291,0,0,,,,,,,,,,,,,,,,,,,,,1,,,,,,,,,,,,,,,,,,,,,,,,,,,,,,,,,,,,,,,,,,,,,,45,157210,23,Female,1,2024/02/09_16:12:04,YZ,59.79254999
,,,,,,calibration,0,4,2,679,,,,,,,,0.9375,0.75,0,1,0.214285714,0.785714286,1.172013235,3,0,0,3,3,7,10,4,10,0,,,,1,,,,,,,,,,,,,,,,,,,,,,,,,,,,,,,,,,,,,,,,,,,,,,45,157210,23,Female,1,2024/02/09_16:12:04,YZ,59.79254999
,,,,,,Calibration,0,,2,679,,,,,,,,,,,,,,,,,,,,,,,,,6,,,1,,,,,,,,,,,,,,,,,,,,,,,,,,,,,,,,,,,,,,,,,,,,,,45,157210,23,Female,1,2024/02/09_16:12:04,YZ,59.79254999
,,,,,,calibration,0,16,2,583,1,S,0,right,1.428793964,1,0,,,,,,,,,,,,,,,,,,,,,1,,,,,,,,,,,,,,,,,,,,,,,,,,,,,,,,,,,,,,,,,,,,,,45,157210,23,Female,1,2024/02/09_16:12:04,YZ,59.79254999
,,,,,,calibration,0,16,2,583,2,N,0,right,0.84660616,1,0,,,,,,,,,,,,,,,,,,,,,1,,,,,,,,,,,,,,,,,,,,,,,,,,,,,,,,,,,,,,,,,,,,,,45,157210,23,Female,1,2024/02/09_16:12:04,YZ,59.79254999
,,,,,,calibration,0,16,2,583,3,C,0,right,1.158017431,1,0,,,,,,,,,,,,,,,,,,,,,1,,,,,,,,,,,,,,,,,,,,,,,,,,,,,,,,,,,,,,,,,,,,,,45,157210,23,Female,1,2024/02/09_16:12:04,YZ,59.79254999
,,,,,,calibration,0,16,2,583,4,N,1,left,1.855192076,1,0,,,,,,,,,,,,,,,,,,,,,1,,,,,,,,,,,,,,,,,,,,,,,,,,,,,,,,,,,,,,,,,,,,,,45,157210,23,Female,1,2024/02/09_16:12:04,YZ,59.79254999
,,,,,,calibration,0,16,2,583,5,V,0,right,1.558105045,1,0,,,,,,,,,,,,,,,,,,,,,1,,,,,,,,,,,,,,,,,,,,,,,,,,,,,,,,,,,,,,,,,,,,,,45,157210,23,Female,1,2024/02/09_16:12:04,YZ,59.79254999
,,,,,,calibration,0,16,2,583,6,X,0,right,1.218448354,1,0,,,,,,,,,,,,,,,,,,,,,1,,,,,,,,,,,,,,,,,,,,,,,,,,,,,,,,,,,,,,,,,,,,,,45,157210,23,Female,1,2024/02/09_16:12:04,YZ,59.79254999
,,,,,,calibration,0,16,2,583,7,C,0,right,0.979060947,1,0,,,,,,,,,,,,,,,,,,,,,1,,,,,,,,,,,,,,,,,,,,,,,,,,,,,,,,,,,,,,,,,,,,,,45,157210,23,Female,1,2024/02/09_16:12:04,YZ,59.79254999
,,,,,,calibration,0,16,2,583,8,S,0,right,1.192535898,1,0,,,,,,,,,,,,,,,,,,,,,1,,,,,,,,,,,,,,,,,,,,,,,,,,,,,,,,,,,,,,,,,,,,,,45,157210,23,Female,1,2024/02/09_16:12:04,YZ,59.79254999
,,,,,,calibration,0,16,2,583,9,Q,0,right,1.03331954,1,0,,,,,,,,,,,,,,,,,,,,,1,,,,,,,,,,,,,,,,,,,,,,,,,,,,,,,,,,,,,,,,,,,,,,45,157210,23,Female,1,2024/02/09_16:12:04,YZ,59.79254999
,,,,,,calibration,0,16,2,583,10,S,1,left,1.731697551,1,0,,,,,,,,,,,,,,,,,,,,,1,,,,,,,,,,,,,,,,,,,,,,,,,,,,,,,,,,,,,,,,,,,,,,45,157210,23,Female,1,2024/02/09_16:12:04,YZ,59.79254999
,,,,,,calibration,0,16,2,583,11,F,0,right,0.731314473,1,0,,,,,,,,,,,,,,,,,,,,,1,,,,,,,,,,,,,,,,,,,,,,,,,,,,,,,,,,,,,,,,,,,,,,45,157210,23,Female,1,2024/02/09_16:12:04,YZ,59.79254999
,,,,,,calibration,0,16,2,583,12,S,1,left,1.376469496,1,0,,,,,,,,,,,,,,,,,,,,,1,,,,,,,,,,,,,,,,,,,,,,,,,,,,,,,,,,,,,,,,,,,,,,45,157210,23,Female,1,2024/02/09_16:12:04,YZ,59.79254999
,,,,,,calibration,0,16,2,583,13,X,0,right,0.896203823,1,0,,,,,,,,,,,,,,,,,,,,,1,,,,,,,,,,,,,,,,,,,,,,,,,,,,,,,,,,,,,,,,,,,,,,45,157210,23,Female,1,2024/02/09_16:12:04,YZ,59.79254999
,,,,,,calibration,0,16,2,583,14,V,0,right,1.362651509,1,0,,,,,,,,,,,,,,,,,,,,,1,,,,,,,,,,,,,,,,,,,,,,,,,,,,,,,,,,,,,,,,,,,,,,45,157210,23,Female,1,2024/02/09_16:12:04,YZ,59.79254999
,,,,,,calibration,0,16,2,583,15,X,1,left,1.979936979,1,0,,,,,,,,,,,,,,,,,,,,,1,,,,,,,,,,,,,,,,,,,,,,,,,,,,,,,,,,,,,,,,,,,,,,45,157210,23,Female,1,2024/02/09_16:12:04,YZ,59.79254999
,,,,,,calibration,0,16,2,583,,,,,,,,1,1,0,1,0,1,1.289890216,4,0,0,0,0,11,15,4,11,0,,,,1,,,,,,,,,,,,,,,,,,,,,,,,,,,,,,,,,,,,,,,,,,,,,,45,157210,23,Female,1,2024/02/09_16:12:04,YZ,59.79254999
,,,,,,Calibration,0,,2,583,,,,,,,,,,,,,,,,,,,,,,,,,7,,,1,,,,,,,,,,,,,,,,,,,,,,,,,,,,,,,,,,,,,,,,,,,,,,45,157210,23,Female,1,2024/02/09_16:12:04,YZ,59.79254999
,,,,,,calibration,0,26,2,500,1,Q,0,None,nan,0,1,,,,,,,,,,,,,,,,,,,,,1,,,,,,,,,,,,,,,,,,,,,,,,,,,,,,,,,,,,,,,,,,,,,,45,157210,23,Female,1,2024/02/09_16:12:04,YZ,59.79254999
,,,,,,calibration,0,26,2,500,2,S,0,None,nan,0,1,,,,,,,,,,,,,,,,,,,,,1,,,,,,,,,,,,,,,,,,,,,,,,,,,,,,,,,,,,,,,,,,,,,,45,157210,23,Female,1,2024/02/09_16:12:04,YZ,59.79254999
,,,,,,calibration,0,26,2,500,3,N,0,None,nan,0,1,,,,,,,,,,,,,,,,,,,,,1,,,,,,,,,,,,,,,,,,,,,,,,,,,,,,,,,,,,,,,,,,,,,,45,157210,23,Female,1,2024/02/09_16:12:04,YZ,59.79254999
,,,,,,calibration,0,26,2,500,4,S,1,left,0.673975361,1,0,,,,,,,,,,,,,,,,,,,,,1,,,,,,,,,,,,,,,,,,,,,,,,,,,,,,,,,,,,,,,,,,,,,,45,157210,23,Female,1,2024/02/09_16:12:04,YZ,59.79254999
,,,,,,calibration,0,26,2,500,5,C,0,left,nan,0,1,,,,,,,,,,,,,,,,,,,,,1,,,,,,,,,,,,,,,,,,,,,,,,,,,,,,,,,,,,,,,,,,,,,,45,157210,23,Female,1,2024/02/09_16:12:04,YZ,59.79254999
,,,,,,calibration,0,26,2,500,6,S,1,left,0.848275114,1,0,,,,,,,,,,,,,,,,,,,,,1,,,,,,,,,,,,,,,,,,,,,,,,,,,,,,,,,,,,,,,,,,,,,,45,157210,23,Female,1,2024/02/09_16:12:04,YZ,59.79254999
,,,,,,calibration,0,26,2,500,7,N,0,left,nan,0,1,,,,,,,,,,,,,,,,,,,,,1,,,,,,,,,,,,,,,,,,,,,,,,,,,,,,,,,,,,,,,,,,,,,,45,157210,23,Female,1,2024/02/09_16:12:04,YZ,59.79254999
,,,,,,calibration,0,26,2,500,8,C,0,left,0.181548355,0,0,,,,,,,,,,,,,,,,,,,,,1,,,,,,,,,,,,,,,,,,,,,,,,,,,,,,,,,,,,,,,,,,,,,,45,157210,23,Female,1,2024/02/09_16:12:04,YZ,59.79254999
,,,,,,calibration,0,26,2,500,9,V,0,right,0.264335686,1,0,,,,,,,,,,,,,,,,,,,,,1,,,,,,,,,,,,,,,,,,,,,,,,,,,,,,,,,,,,,,,,,,,,,,45,157210,23,Female,1,2024/02/09_16:12:04,YZ,59.79254999
,,,,,,calibration,0,26,2,500,10,C,1,right,0.729228062,0,0,,,,,,,,,,,,,,,,,,,,,1,,,,,,,,,,,,,,,,,,,,,,,,,,,,,,,,,,,,,,,,,,,,,,45,157210,23,Female,1,2024/02/09_16:12:04,YZ,59.79254999
,,,,,,calibration,0,26,2,500,11,S,0,left,0.913646151,0,0,,,,,,,,,,,,,,,,,,,,,1,,,,,,,,,,,,,,,,,,,,,,,,,,,,,,,,,,,,,,,,,,,,,,45,157210,23,Female,1,2024/02/09_16:12:04,YZ,59.79254999
,,,,,,calibration,0,26,2,500,12,C,1,left,0.69623825,1,0,,,,,,,,,,,,,,,,,,,,,1,,,,,,,,,,,,,,,,,,,,,,,,,,,,,,,,,,,,,,,,,,,,,,45,157210,23,Female,1,2024/02/09_16:12:04,YZ,59.79254999
,,,,,,calibration,0,26,2,500,13,F,0,right,0.565228333,1,0,,,,,,,,,,,,,,,,,,,,,1,,,,,,,,,,,,,,,,,,,,,,,,,,,,,,,,,,,,,,,,,,,,,,45,157210,23,Female,1,2024/02/09_16:12:04,YZ,59.79254999
,,,,,,calibration,0,26,2,500,14,N,0,left,0.747412787,0,0,,,,,,,,,,,,,,,,,,,,,1,,,,,,,,,,,,,,,,,,,,,,,,,,,,,,,,,,,,,,,,,,,,,,45,157210,23,Female,1,2024/02/09_16:12:04,YZ,59.79254999
,,,,,,calibration,0,26,2,500,15,J,0,right,0.513573959,1,0,,,,,,,,,,,,,,,,,,,,,1,,,,,,,,,,,,,,,,,,,,,,,,,,,,,,,,,,,,,,,,,,,,,,45,157210,23,Female,1,2024/02/09_16:12:04,YZ,59.79254999
,,,,,,calibration,0,26,2,500,16,Q,0,right,0.743525075,1,0,,,,,,,,,,,,,,,,,,,,,1,,,,,,,,,,,,,,,,,,,,,,,,,,,,,,,,,,,,,,,,,,,,,,45,157210,23,Female,1,2024/02/09_16:12:04,YZ,59.79254999
,,,,,,calibration,0,26,2,500,,,,,,,,0.8125,0.75,0.25,0.571428571,0.3125,0.4375,0.625180648,3,3,0,5,5,4,7,4,12,0,,,,1,,,,,,,,,,,,,,,,,,,,,,,,,,,,,,,,,,,,,,,,,,,,,,45,157210,23,Female,1,2024/02/09_16:12:04,YZ,59.79254999
,,,,,,Calibration,0,,2,500,,,,,,,,,,,,,,,,,,,,,,,,,8,,,1,,,,,,,,,,,,,,,,,,,,,,,,,,,,,,,,,,,,,,,,,,,,,,45,157210,23,Female,1,2024/02/09_16:12:04,YZ,59.79254999
,,,,,,calibration,0,10,2,500,1,N,0,right,0.546056081,1,0,,,,,,,,,,,,,,,,,,,,,1,,,,,,,,,,,,,,,,,,,,,,,,,,,,,,,,,,,,,,,,,,,,,,45,157210,23,Female,1,2024/02/09_16:12:04,YZ,59.79254999
,,,,,,calibration,0,10,2,500,2,C,0,right,nan,0,1,,,,,,,,,,,,,,,,,,,,,1,,,,,,,,,,,,,,,,,,,,,,,,,,,,,,,,,,,,,,,,,,,,,,45,157210,23,Female,1,2024/02/09_16:12:04,YZ,59.79254999
,,,,,,calibration,0,10,2,500,3,S,0,right,nan,0,1,,,,,,,,,,,,,,,,,,,,,1,,,,,,,,,,,,,,,,,,,,,,,,,,,,,,,,,,,,,,,,,,,,,,45,157210,23,Female,1,2024/02/09_16:12:04,YZ,59.79254999
,,,,,,calibration,0,10,2,500,4,C,1,left,0.482748641,1,0,,,,,,,,,,,,,,,,,,,,,1,,,,,,,,,,,,,,,,,,,,,,,,,,,,,,,,,,,,,,,,,,,,,,45,157210,23,Female,1,2024/02/09_16:12:04,YZ,59.79254999
,,,,,,calibration,0,10,2,500,5,N,0,left,nan,0,1,,,,,,,,,,,,,,,,,,,,,1,,,,,,,,,,,,,,,,,,,,,,,,,,,,,,,,,,,,,,,,,,,,,,45,157210,23,Female,1,2024/02/09_16:12:04,YZ,59.79254999
,,,,,,calibration,0,10,2,500,6,V,0,left,0.024526998,0,0,,,,,,,,,,,,,,,,,,,,,1,,,,,,,,,,,,,,,,,,,,,,,,,,,,,,,,,,,,,,,,,,,,,,45,157210,23,Female,1,2024/02/09_16:12:04,YZ,59.79254999
,,,,,,calibration,0,10,2,500,7,Q,0,right,0.779191598,1,0,,,,,,,,,,,,,,,,,,,,,1,,,,,,,,,,,,,,,,,,,,,,,,,,,,,,,,,,,,,,,,,,,,,,45,157210,23,Female,1,2024/02/09_16:12:04,YZ,59.79254999
,,,,,,calibration,0,10,2,500,8,N,0,left,0.830338439,0,0,,,,,,,,,,,,,,,,,,,,,1,,,,,,,,,,,,,,,,,,,,,,,,,,,,,,,,,,,,,,,,,,,,,,45,157210,23,Female,1,2024/02/09_16:12:04,YZ,59.79254999
,,,,,,calibration,0,10,2,500,9,J,0,right,0.499637924,1,0,,,,,,,,,,,,,,,,,,,,,1,,,,,,,,,,,,,,,,,,,,,,,,,,,,,,,,,,,,,,,,,,,,,,45,157210,23,Female,1,2024/02/09_16:12:04,YZ,59.79254999
,,,,,,calibration,0,10,2,500,10,N,1,right,nan,0,1,,,,,,,,,,,,,,,,,,,,,1,,,,,,,,,,,,,,,,,,,,,,,,,,,,,,,,,,,,,,,,,,,,,,45,157210,23,Female,1,2024/02/09_16:12:04,YZ,59.79254999
,,,,,,calibration,0,10,2,500,11,V,0,right,0.471812994,1,0,,,,,,,,,,,,,,,,,,,,,1,,,,,,,,,,,,,,,,,,,,,,,,,,,,,,,,,,,,,,,,,,,,,,45,157210,23,Female,1,2024/02/09_16:12:04,YZ,59.79254999
,,,,,,calibration,0,10,2,500,12,C,0,left,0.526530507,0,0,,,,,,,,,,,,,,,,,,,,,1,,,,,,,,,,,,,,,,,,,,,,,,,,,,,,,,,,,,,,,,,,,,,,45,157210,23,Female,1,2024/02/09_16:12:04,YZ,59.79254999
,,,,,,calibration,0,10,2,500,13,F,0,right,0.83426458,1,0,,,,,,,,,,,,,,,,,,,,,1,,,,,,,,,,,,,,,,,,,,,,,,,,,,,,,,,,,,,,,,,,,,,,45,157210,23,Female,1,2024/02/09_16:12:04,YZ,59.79254999
,,,,,,calibration,0,10,2,500,14,C,1,right,0.524470314,0,0,,,,,,,,,,,,,,,,,,,,,1,,,,,,,,,,,,,,,,,,,,,,,,,,,,,,,,,,,,,,,,,,,,,,45,157210,23,Female,1,2024/02/09_16:12:04,YZ,59.79254999
,,,,,,calibration,0,10,2,500,15,F,1,left,0.900805965,1,0,,,,,,,,,,,,,,,,,,,,,1,,,,,,,,,,,,,,,,,,,,,,,,,,,,,,,,,,,,,,,,,,,,,,45,157210,23,Female,1,2024/02/09_16:12:04,YZ,59.79254999
,,,,,,calibration,0,10,2,500,16,J,0,right,0.459086797,1,0,,,,,,,,,,,,,,,,,,,,,1,,,,,,,,,,,,,,,,,,,,,,,,,,,,,,,,,,,,,,,,,,,,,,45,157210,23,Female,1,2024/02/09_16:12:04,YZ,59.79254999
,,,,,,calibration,0,10,2,500,,,,,,,,0.6875,0.5,0.25,0.666666667,0.25,0.5,0.573289237,2,3,1,3,4,6,8,4,12,0,,,,1,,,,,,,,,,,,,,,,,,,,,,,,,,,,,,,,,,,,,,,,,,,,,,45,157210,23,Female,1,2024/02/09_16:12:04,YZ,59.79254999
,,,,,,Calibration,0,,2,500,,,,,,,,,,,,,,,,,,,,,,,,,9,,,1,,,,,,,,,,,,,,,,,,,,,,,,,,,,,,,,,,,,,,,,,,,,,,45,157210,23,Female,1,2024/02/09_16:12:04,YZ,59.79254999
,,,,,,calibration,0,26,2,583,1,C,0,right,1.44565552,1,0,,,,,,,,,,,,,,,,,,,,,1,,,,,,,,,,,,,,,,,,,,,,,,,,,,,,,,,,,,,,,,,,,,,,45,157210,23,Female,1,2024/02/09_16:12:04,YZ,59.79254999
,,,,,,calibration,0,26,2,583,2,J,0,right,1.111411312,1,0,,,,,,,,,,,,,,,,,,,,,1,,,,,,,,,,,,,,,,,,,,,,,,,,,,,,,,,,,,,,,,,,,,,,45,157210,23,Female,1,2024/02/09_16:12:04,YZ,59.79254999
,,,,,,calibration,0,26,2,583,3,Q,0,right,1.00959751,1,0,,,,,,,,,,,,,,,,,,,,,1,,,,,,,,,,,,,,,,,,,,,,,,,,,,,,,,,,,,,,,,,,,,,,45,157210,23,Female,1,2024/02/09_16:12:04,YZ,59.79254999
,,,,,,calibration,0,26,2,583,4,V,0,right,0.661194503,1,0,,,,,,,,,,,,,,,,,,,,,1,,,,,,,,,,,,,,,,,,,,,,,,,,,,,,,,,,,,,,,,,,,,,,45,157210,23,Female,1,2024/02/09_16:12:04,YZ,59.79254999
,,,,,,calibration,0,26,2,583,5,N,0,right,1.679927904,1,0,,,,,,,,,,,,,,,,,,,,,1,,,,,,,,,,,,,,,,,,,,,,,,,,,,,,,,,,,,,,,,,,,,,,45,157210,23,Female,1,2024/02/09_16:12:04,YZ,59.79254999
,,,,,,calibration,0,26,2,583,6,V,1,left,0.645873476,1,0,,,,,,,,,,,,,,,,,,,,,1,,,,,,,,,,,,,,,,,,,,,,,,,,,,,,,,,,,,,,,,,,,,,,45,157210,23,Female,1,2024/02/09_16:12:04,YZ,59.79254999
,,,,,,calibration,0,26,2,583,7,N,1,left,1.399265615,1,0,,,,,,,,,,,,,,,,,,,,,1,,,,,,,,,,,,,,,,,,,,,,,,,,,,,,,,,,,,,,,,,,,,,,45,157210,23,Female,1,2024/02/09_16:12:04,YZ,59.79254999
,,,,,,calibration,0,26,2,583,8,J,0,right,0.728066958,1,0,,,,,,,,,,,,,,,,,,,,,1,,,,,,,,,,,,,,,,,,,,,,,,,,,,,,,,,,,,,,,,,,,,,,45,157210,23,Female,1,2024/02/09_16:12:04,YZ,59.79254999
,,,,,,calibration,0,26,2,583,9,N,1,left,0.797296107,1,0,,,,,,,,,,,,,,,,,,,,,1,,,,,,,,,,,,,,,,,,,,,,,,,,,,,,,,,,,,,,,,,,,,,,45,157210,23,Female,1,2024/02/09_16:12:04,YZ,59.79254999
,,,,,,calibration,0,26,2,583,10,C,0,right,0.757124003,1,0,,,,,,,,,,,,,,,,,,,,,1,,,,,,,,,,,,,,,,,,,,,,,,,,,,,,,,,,,,,,,,,,,,,,45,157210,23,Female,1,2024/02/09_16:12:04,YZ,59.79254999
,,,,,,calibration,0,26,2,583,11,J,0,left,0.750905669,0,0,,,,,,,,,,,,,,,,,,,,,1,,,,,,,,,,,,,,,,,,,,,,,,,,,,,,,,,,,,,,,,,,,,,,45,157210,23,Female,1,2024/02/09_16:12:04,YZ,59.79254999
,,,,,,calibration,0,26,2,583,12,X,0,right,0.629262916,1,0,,,,,,,,,,,,,,,,,,,,,1,,,,,,,,,,,,,,,,,,,,,,,,,,,,,,,,,,,,,,,,,,,,,,45,157210,23,Female,1,2024/02/09_16:12:04,YZ,59.79254999
,,,,,,calibration,0,26,2,583,13,Q,0,right,0.879624132,1,0,,,,,,,,,,,,,,,,,,,,,1,,,,,,,,,,,,,,,,,,,,,,,,,,,,,,,,,,,,,,,,,,,,,,45,157210,23,Female,1,2024/02/09_16:12:04,YZ,59.79254999
,,,,,,calibration,0,26,2,583,14,X,1,left,0.598365978,1,0,,,,,,,,,,,,,,,,,,,,,1,,,,,,,,,,,,,,,,,,,,,,,,,,,,,,,,,,,,,,,,,,,,,,45,157210,23,Female,1,2024/02/09_16:12:04,YZ,59.79254999
,,,,,,calibration,0,26,2,583,15,J,0,right,0.608984632,1,0,,,,,,,,,,,,,,,,,,,,,1,,,,,,,,,,,,,,,,,,,,,,,,,,,,,,,,,,,,,,,,,,,,,,45,157210,23,Female,1,2024/02/09_16:12:04,YZ,59.79254999
,,,,,,calibration,0,26,2,583,,,,,,,,0.977272727,1,0.090909091,0.909090909,0,0.909090909,0.913503749,4,1,0,0,0,10,14,4,11,0,,,,1,,,,,,,,,,,,,,,,,,,,,,,,,,,,,,,,,,,,,,,,,,,,,,45,157210,23,Female,1,2024/02/09_16:12:04,YZ,59.79254999
,,,,,,Calibration,0,,2,583,,,,,,,,,,,,,,,,,,,,,,,,,10,,,1,,,,,,,,,,,,,,,,,,,,,,,,,,,,,,,,,,,,,,,,,,,,,,45,157210,23,Female,1,2024/02/09_16:12:04,YZ,59.79254999
,,,,,,calibration,0,27,2,500,1,C,0,None,nan,0,1,,,,,,,,,,,,,,,,,,,,,1,,,,,,,,,,,,,,,,,,,,,,,,,,,,,,,,,,,,,,,,,,,,,,45,157210,23,Female,1,2024/02/09_16:12:04,YZ,59.79254999
,,,,,,calibration,0,27,2,500,2,X,0,right,0.432759786,1,0,,,,,,,,,,,,,,,,,,,,,1,,,,,,,,,,,,,,,,,,,,,,,,,,,,,,,,,,,,,,,,,,,,,,45,157210,23,Female,1,2024/02/09_16:12:04,YZ,59.79254999
,,,,,,calibration,0,27,2,500,3,F,0,right,0.382400824,1,0,,,,,,,,,,,,,,,,,,,,,1,,,,,,,,,,,,,,,,,,,,,,,,,,,,,,,,,,,,,,,,,,,,,,45,157210,23,Female,1,2024/02/09_16:12:04,YZ,59.79254999
,,,,,,calibration,0,27,2,500,4,X,1,left,0.759612986,1,0,,,,,,,,,,,,,,,,,,,,,1,,,,,,,,,,,,,,,,,,,,,,,,,,,,,,,,,,,,,,,,,,,,,,45,157210,23,Female,1,2024/02/09_16:12:04,YZ,59.79254999
,,,,,,calibration,0,27,2,500,5,N,0,right,0.4292771,1,0,,,,,,,,,,,,,,,,,,,,,1,,,,,,,,,,,,,,,,,,,,,,,,,,,,,,,,,,,,,,,,,,,,,,45,157210,23,Female,1,2024/02/09_16:12:04,YZ,59.79254999
,,,,,,calibration,0,27,2,500,6,V,0,right,0.767110504,1,0,,,,,,,,,,,,,,,,,,,,,1,,,,,,,,,,,,,,,,,,,,,,,,,,,,,,,,,,,,,,,,,,,,,,45,157210,23,Female,1,2024/02/09_16:12:04,YZ,59.79254999
,,,,,,calibration,0,27,2,500,7,X,0,left,0.730955517,0,0,,,,,,,,,,,,,,,,,,,,,1,,,,,,,,,,,,,,,,,,,,,,,,,,,,,,,,,,,,,,,,,,,,,,45,157210,23,Female,1,2024/02/09_16:12:04,YZ,59.79254999
,,,,,,calibration,0,27,2,500,8,V,1,left,nan,0,1,,,,,,,,,,,,,,,,,,,,,1,,,,,,,,,,,,,,,,,,,,,,,,,,,,,,,,,,,,,,,,,,,,,,45,157210,23,Female,1,2024/02/09_16:12:04,YZ,59.79254999
,,,,,,calibration,0,27,2,500,9,X,1,right,0.611817933,0,0,,,,,,,,,,,,,,,,,,,,,1,,,,,,,,,,,,,,,,,,,,,,,,,,,,,,,,,,,,,,,,,,,,,,45,157210,23,Female,1,2024/02/09_16:12:04,YZ,59.79254999
,,,,,,calibration,0,27,2,500,10,S,0,left,0.998266421,0,0,,,,,,,,,,,,,,,,,,,,,1,,,,,,,,,,,,,,,,,,,,,,,,,,,,,,,,,,,,,,,,,,,,,,45,157210,23,Female,1,2024/02/09_16:12:04,YZ,59.79254999
,,,,,,calibration,0,27,2,500,11,C,0,right,0.474166552,1,0,,,,,,,,,,,,,,,,,,,,,1,,,,,,,,,,,,,,,,,,,,,,,,,,,,,,,,,,,,,,,,,,,,,,45,157210,23,Female,1,2024/02/09_16:12:04,YZ,59.79254999
,,,,,,calibration,0,27,2,500,12,V,0,left,0.545047433,0,0,,,,,,,,,,,,,,,,,,,,,1,,,,,,,,,,,,,,,,,,,,,,,,,,,,,,,,,,,,,,,,,,,,,,45,157210,23,Female,1,2024/02/09_16:12:04,YZ,59.79254999
,,,,,,calibration,0,27,2,500,13,C,1,left,0.774410275,1,0,,,,,,,,,,,,,,,,,,,,,1,,,,,,,,,,,,,,,,,,,,,,,,,,,,,,,,,,,,,,,,,,,,,,45,157210,23,Female,1,2024/02/09_16:12:04,YZ,59.79254999
,,,,,,calibration,0,27,2,500,14,Q,0,right,0.601392152,1,0,,,,,,,,,,,,,,,,,,,,,1,,,,,,,,,,,,,,,,,,,,,,,,,,,,,,,,,,,,,,,,,,,,,,45,157210,23,Female,1,2024/02/09_16:12:04,YZ,59.79254999
,,,,,,calibration,0,27,2,500,15,N,0,right,0.797978933,1,0,,,,,,,,,,,,,,,,,,,,,1,,,,,,,,,,,,,,,,,,,,,,,,,,,,,,,,,,,,,,,,,,,,,,45,157210,23,Female,1,2024/02/09_16:12:04,YZ,59.79254999
,,,,,,calibration,0,27,2,500,16,F,0,right,0.556900067,1,0,,,,,,,,,,,,,,,,,,,,,1,,,,,,,,,,,,,,,,,,,,,,,,,,,,,,,,,,,,,,,,,,,,,,45,157210,23,Female,1,2024/02/09_16:12:04,YZ,59.79254999
,,,,,,calibration,0,27,2,500,,,,,,,,0.6875,0.5,0.25,0.727272727,0.125,0.625,0.633006892,2,3,1,1,2,8,10,4,12,0,,,,1,,,,,,,,,,,,,,,,,,,,,,,,,,,,,,,,,,,,,,,,,,,,,,45,157210,23,Female,1,2024/02/09_16:12:04,YZ,59.79254999
,,,,,,Calibration,0,,2,500,,,,,,,,,,,,,,,,,,,,,,,,,11,,,1,,,,,,,,,,,,,,,,,,,,,,,,,,,,,,,,,,,,,,,,,,,,,,45,157210,23,Female,1,2024/02/09_16:12:04,YZ,59.79254999
,,,,,,calibration,0,21,2,583,1,X,0,right,0.848468503,1,0,,,,,,,,,,,,,,,,,,,,,1,,,,,,,,,,,,,,,,,,,,,,,,,,,,,,,,,,,,,,,,,,,,,,45,157210,23,Female,1,2024/02/09_16:12:04,YZ,59.79254999
,,,,,,calibration,0,21,2,583,2,J,0,right,0.455332615,1,0,,,,,,,,,,,,,,,,,,,,,1,,,,,,,,,,,,,,,,,,,,,,,,,,,,,,,,,,,,,,,,,,,,,,45,157210,23,Female,1,2024/02/09_16:12:04,YZ,59.79254999
,,,,,,calibration,0,21,2,583,3,X,1,right,0.591336901,0,0,,,,,,,,,,,,,,,,,,,,,1,,,,,,,,,,,,,,,,,,,,,,,,,,,,,,,,,,,,,,,,,,,,,,45,157210,23,Female,1,2024/02/09_16:12:04,YZ,59.79254999
,,,,,,calibration,0,21,2,583,4,C,0,right,0.6597352,1,0,,,,,,,,,,,,,,,,,,,,,1,,,,,,,,,,,,,,,,,,,,,,,,,,,,,,,,,,,,,,,,,,,,,,45,157210,23,Female,1,2024/02/09_16:12:04,YZ,59.79254999
,,,,,,calibration,0,21,2,583,5,F,0,right,0.911120276,1,0,,,,,,,,,,,,,,,,,,,,,1,,,,,,,,,,,,,,,,,,,,,,,,,,,,,,,,,,,,,,,,,,,,,,45,157210,23,Female,1,2024/02/09_16:12:04,YZ,59.79254999
,,,,,,calibration,0,21,2,583,6,N,0,right,0.830547656,1,0,,,,,,,,,,,,,,,,,,,,,1,,,,,,,,,,,,,,,,,,,,,,,,,,,,,,,,,,,,,,,,,,,,,,45,157210,23,Female,1,2024/02/09_16:12:04,YZ,59.79254999
,,,,,,calibration,0,21,2,583,7,F,1,left,0.845129588,1,0,,,,,,,,,,,,,,,,,,,,,1,,,,,,,,,,,,,,,,,,,,,,,,,,,,,,,,,,,,,,,,,,,,,,45,157210,23,Female,1,2024/02/09_16:12:04,YZ,59.79254999
,,,,,,calibration,0,21,2,583,8,N,1,left,0.878921604,1,0,,,,,,,,,,,,,,,,,,,,,1,,,,,,,,,,,,,,,,,,,,,,,,,,,,,,,,,,,,,,,,,,,,,,45,157210,23,Female,1,2024/02/09_16:12:04,YZ,59.79254999
,,,,,,calibration,0,21,2,583,9,C,0,left,1.312177845,0,0,,,,,,,,,,,,,,,,,,,,,1,,,,,,,,,,,,,,,,,,,,,,,,,,,,,,,,,,,,,,,,,,,,,,45,157210,23,Female,1,2024/02/09_16:12:04,YZ,59.79254999
,,,,,,calibration,0,21,2,583,10,J,0,right,0.464751563,1,0,,,,,,,,,,,,,,,,,,,,,1,,,,,,,,,,,,,,,,,,,,,,,,,,,,,,,,,,,,,,,,,,,,,,45,157210,23,Female,1,2024/02/09_16:12:04,YZ,59.79254999
,,,,,,calibration,0,21,2,583,11,Q,0,right,0.667510488,1,0,,,,,,,,,,,,,,,,,,,,,1,,,,,,,,,,,,,,,,,,,,,,,,,,,,,,,,,,,,,,,,,,,,,,45,157210,23,Female,1,2024/02/09_16:12:04,YZ,59.79254999
,,,,,,calibration,0,21,2,583,12,J,1,left,0.961935205,1,0,,,,,,,,,,,,,,,,,,,,,1,,,,,,,,,,,,,,,,,,,,,,,,,,,,,,,,,,,,,,,,,,,,,,45,157210,23,Female,1,2024/02/09_16:12:04,YZ,59.79254999
,,,,,,calibration,0,21,2,583,13,V,0,right,0.894931933,1,0,,,,,,,,,,,,,,,,,,,,,1,,,,,,,,,,,,,,,,,,,,,,,,,,,,,,,,,,,,,,,,,,,,,,45,157210,23,Female,1,2024/02/09_16:12:04,YZ,59.79254999
,,,,,,calibration,0,21,2,583,14,N,0,left,0.47868385,0,0,,,,,,,,,,,,,,,,,,,,,1,,,,,,,,,,,,,,,,,,,,,,,,,,,,,,,,,,,,,,,,,,,,,,45,157210,23,Female,1,2024/02/09_16:12:04,YZ,59.79254999
,,,,,,calibration,0,21,2,583,15,S,0,right,1.469567737,1,0,,,,,,,,,,,,,,,,,,,,,1,,,,,,,,,,,,,,,,,,,,,,,,,,,,,,,,,,,,,,,,,,,,,,45,157210,23,Female,1,2024/02/09_16:12:04,YZ,59.79254999
,,,,,,calibration,0,21,2,583,,,,,,,,0.846590909,0.75,0.181818182,0.818181818,0,0.818181818,0.818010064,3,2,0,0,0,9,12,4,11,0,,,,1,,,,,,,,,,,,,,,,,,,,,,,,,,,,,,,,,,,,,,,,,,,,,,45,157210,23,Female,1,2024/02/09_16:12:04,YZ,59.79254999
,,,,,,Calibration,0,,2,583,,,,,,,,,,,,,,,,,,,,,,,,,12,,,1,,,,,,,,,,,,,,,,,,,,,,,,,,,,,,,,,,,,,,,,,,,,,,45,157210,23,Female,1,2024/02/09_16:12:04,YZ,59.79254999
,,,,,,calibration,0,6,2,583,1,J,0,right,0.645797152,1,0,,,,,,,,,,,,,,,,,,,,,1,,,,,,,,,,,,,,,,,,,,,,,,,,,,,,,,,,,,,,,,,,,,,,45,157210,23,Female,1,2024/02/09_16:12:04,YZ,59.79254999
,,,,,,calibration,0,6,2,583,2,S,0,right,0.746716533,1,0,,,,,,,,,,,,,,,,,,,,,1,,,,,,,,,,,,,,,,,,,,,,,,,,,,,,,,,,,,,,,,,,,,,,45,157210,23,Female,1,2024/02/09_16:12:04,YZ,59.79254999
,,,,,,calibration,0,6,2,583,3,C,0,right,1.164542374,1,0,,,,,,,,,,,,,,,,,,,,,1,,,,,,,,,,,,,,,,,,,,,,,,,,,,,,,,,,,,,,,,,,,,,,45,157210,23,Female,1,2024/02/09_16:12:04,YZ,59.79254999
,,,,,,calibration,0,6,2,583,4,J,0,left,0.607086044,0,0,,,,,,,,,,,,,,,,,,,,,1,,,,,,,,,,,,,,,,,,,,,,,,,,,,,,,,,,,,,,,,,,,,,,45,157210,23,Female,1,2024/02/09_16:12:04,YZ,59.79254999
,,,,,,calibration,0,6,2,583,5,N,0,right,0.871010345,1,0,,,,,,,,,,,,,,,,,,,,,1,,,,,,,,,,,,,,,,,,,,,,,,,,,,,,,,,,,,,,,,,,,,,,45,157210,23,Female,1,2024/02/09_16:12:04,YZ,59.79254999
,,,,,,calibration,0,6,2,583,6,J,1,left,1.27981923,1,0,,,,,,,,,,,,,,,,,,,,,1,,,,,,,,,,,,,,,,,,,,,,,,,,,,,,,,,,,,,,,,,,,,,,45,157210,23,Female,1,2024/02/09_16:12:04,YZ,59.79254999
,,,,,,calibration,0,6,2,583,7,N,1,left,0.908707093,1,0,,,,,,,,,,,,,,,,,,,,,1,,,,,,,,,,,,,,,,,,,,,,,,,,,,,,,,,,,,,,,,,,,,,,45,157210,23,Female,1,2024/02/09_16:12:04,YZ,59.79254999
,,,,,,calibration,0,6,2,583,8,V,0,right,0.730220364,1,0,,,,,,,,,,,,,,,,,,,,,1,,,,,,,,,,,,,,,,,,,,,,,,,,,,,,,,,,,,,,,,,,,,,,45,157210,23,Female,1,2024/02/09_16:12:04,YZ,59.79254999
,,,,,,calibration,0,6,2,583,9,N,1,left,1.178811192,1,0,,,,,,,,,,,,,,,,,,,,,1,,,,,,,,,,,,,,,,,,,,,,,,,,,,,,,,,,,,,,,,,,,,,,45,157210,23,Female,1,2024/02/09_16:12:04,YZ,59.79254999
,,,,,,calibration,0,6,2,583,10,F,0,right,0.712703672,1,0,,,,,,,,,,,,,,,,,,,,,1,,,,,,,,,,,,,,,,,,,,,,,,,,,,,,,,,,,,,,,,,,,,,,45,157210,23,Female,1,2024/02/09_16:12:04,YZ,59.79254999
,,,,,,calibration,0,6,2,583,11,X,0,right,0.742313198,1,0,,,,,,,,,,,,,,,,,,,,,1,,,,,,,,,,,,,,,,,,,,,,,,,,,,,,,,,,,,,,,,,,,,,,45,157210,23,Female,1,2024/02/09_16:12:04,YZ,59.79254999
,,,,,,calibration,0,6,2,583,12,J,0,left,0.610887653,0,0,,,,,,,,,,,,,,,,,,,,,1,,,,,,,,,,,,,,,,,,,,,,,,,,,,,,,,,,,,,,,,,,,,,,45,157210,23,Female,1,2024/02/09_16:12:04,YZ,59.79254999
,,,,,,calibration,0,6,2,583,13,X,1,right,0.944021093,0,0,,,,,,,,,,,,,,,,,,,,,1,,,,,,,,,,,,,,,,,,,,,,,,,,,,,,,,,,,,,,,,,,,,,,45,157210,23,Female,1,2024/02/09_16:12:04,YZ,59.79254999
,,,,,,calibration,0,6,2,583,14,J,1,left,0.648861695,1,0,,,,,,,,,,,,,,,,,,,,,1,,,,,,,,,,,,,,,,,,,,,,,,,,,,,,,,,,,,,,,,,,,,,,45,157210,23,Female,1,2024/02/09_16:12:04,YZ,59.79254999
,,,,,,calibration,0,6,2,583,15,Q,0,right,0.51376564,1,0,,,,,,,,,,,,,,,,,,,,,1,,,,,,,,,,,,,,,,,,,,,,,,,,,,,,,,,,,,,,,,,,,,,,45,157210,23,Female,1,2024/02/09_16:12:04,YZ,59.79254999
,,,,,,calibration,0,6,2,583,,,,,,,,0.86,0.8,0.2,0.8,0,0.8,0.820350885,4,2,0,0,0,8,12,5,10,0,,,,1,,,,,,,,,,,,,,,,,,,,,,,,,,,,,,,,,,,,,,,,,,,,,,45,157210,23,Female,1,2024/02/09_16:12:04,YZ,59.79254999
,,,,,,Calibration,0,,2,583,,,,,,,,,,,,,,,,,,,,,,,,,13,,,1,,,,,,,,,,,,,,,,,,,,,,,,,,,,,,,,,,,,,,,,,,,,,,45,157210,23,Female,1,2024/02/09_16:12:04,YZ,59.79254999
,,,,,,calibration,0,31,2,500,1,V,0,right,0.48268351,1,0,,,,,,,,,,,,,,,,,,,,,1,,,,,,,,,,,,,,,,,,,,,,,,,,,,,,,,,,,,,,,,,,,,,,45,157210,23,Female,1,2024/02/09_16:12:04,YZ,59.79254999
,,,,,,calibration,0,31,2,500,2,N,0,right,nan,0,1,,,,,,,,,,,,,,,,,,,,,1,,,,,,,,,,,,,,,,,,,,,,,,,,,,,,,,,,,,,,,,,,,,,,45,157210,23,Female,1,2024/02/09_16:12:04,YZ,59.79254999
,,,,,,calibration,0,31,2,500,3,F,0,right,0.911787211,1,0,,,,,,,,,,,,,,,,,,,,,1,,,,,,,,,,,,,,,,,,,,,,,,,,,,,,,,,,,,,,,,,,,,,,45,157210,23,Female,1,2024/02/09_16:12:04,YZ,59.79254999
,,,,,,calibration,0,31,2,500,4,N,1,left,0.540106629,1,0,,,,,,,,,,,,,,,,,,,,,1,,,,,,,,,,,,,,,,,,,,,,,,,,,,,,,,,,,,,,,,,,,,,,45,157210,23,Female,1,2024/02/09_16:12:04,YZ,59.79254999
,,,,,,calibration,0,31,2,500,5,S,0,right,0.55519775,1,0,,,,,,,,,,,,,,,,,,,,,1,,,,,,,,,,,,,,,,,,,,,,,,,,,,,,,,,,,,,,,,,,,,,,45,157210,23,Female,1,2024/02/09_16:12:04,YZ,59.79254999
,,,,,,calibration,0,31,2,500,6,Q,0,right,0.513294687,1,0,,,,,,,,,,,,,,,,,,,,,1,,,,,,,,,,,,,,,,,,,,,,,,,,,,,,,,,,,,,,,,,,,,,,45,157210,23,Female,1,2024/02/09_16:12:04,YZ,59.79254999
,,,,,,calibration,0,31,2,500,7,N,0,left,0.709539165,0,0,,,,,,,,,,,,,,,,,,,,,1,,,,,,,,,,,,,,,,,,,,,,,,,,,,,,,,,,,,,,,,,,,,,,45,157210,23,Female,1,2024/02/09_16:12:04,YZ,59.79254999
,,,,,,calibration,0,31,2,500,8,Q,1,right,0.443626436,0,0,,,,,,,,,,,,,,,,,,,,,1,,,,,,,,,,,,,,,,,,,,,,,,,,,,,,,,,,,,,,,,,,,,,,45,157210,23,Female,1,2024/02/09_16:12:04,YZ,59.79254999
,,,,,,calibration,0,31,2,500,9,J,0,right,0.879983949,1,0,,,,,,,,,,,,,,,,,,,,,1,,,,,,,,,,,,,,,,,,,,,,,,,,,,,,,,,,,,,,,,,,,,,,45,157210,23,Female,1,2024/02/09_16:12:04,YZ,59.79254999
,,,,,,calibration,0,31,2,500,10,Q,1,right,nan,0,1,,,,,,,,,,,,,,,,,,,,,1,,,,,,,,,,,,,,,,,,,,,,,,,,,,,,,,,,,,,,,,,,,,,,45,157210,23,Female,1,2024/02/09_16:12:04,YZ,59.79254999
,,,,,,calibration,0,31,2,500,11,J,1,right,0,0,0,,,,,,,,,,,,,,,,,,,,,1,,,,,,,,,,,,,,,,,,,,,,,,,,,,,,,,,,,,,,,,,,,,,,45,157210,23,Female,1,2024/02/09_16:12:04,YZ,59.79254999
,,,,,,calibration,0,31,2,500,12,X,0,right,nan,0,1,,,,,,,,,,,,,,,,,,,,,1,,,,,,,,,,,,,,,,,,,,,,,,,,,,,,,,,,,,,,,,,,,,,,45,157210,23,Female,1,2024/02/09_16:12:04,YZ,59.79254999
,,,,,,calibration,0,31,2,500,13,S,0,left,0.416336442,0,0,,,,,,,,,,,,,,,,,,,,,1,,,,,,,,,,,,,,,,,,,,,,,,,,,,,,,,,,,,,,,,,,,,,,45,157210,23,Female,1,2024/02/09_16:12:04,YZ,59.79254999
,,,,,,calibration,0,31,2,500,14,Q,0,left,nan,0,1,,,,,,,,,,,,,,,,,,,,,1,,,,,,,,,,,,,,,,,,,,,,,,,,,,,,,,,,,,,,,,,,,,,,45,157210,23,Female,1,2024/02/09_16:12:04,YZ,59.79254999
,,,,,,calibration,0,31,2,500,15,S,1,left,0.613456283,1,0,,,,,,,,,,,,,,,,,,,,,1,,,,,,,,,,,,,,,,,,,,,,,,,,,,,,,,,,,,,,,,,,,,,,45,157210,23,Female,1,2024/02/09_16:12:04,YZ,59.79254999
,,,,,,calibration,0,31,2,500,16,J,0,right,0.497131907,1,0,,,,,,,,,,,,,,,,,,,,,1,,,,,,,,,,,,,,,,,,,,,,,,,,,,,,,,,,,,,,,,,,,,,,45,157210,23,Female,1,2024/02/09_16:12:04,YZ,59.79254999
,,,,,,calibration,0,31,2,500,,,,,,,,0.690909091,0.4,0.181818182,0.75,0.25,0.568181818,0.546928664,2,2,1,3,4,6,8,5,11,0,,,,1,,,,,,,,,,,,,,,,,,,,,,,,,,,,,,,,,,,,,,,,,,,,,,45,157210,23,Female,1,2024/02/09_16:12:04,YZ,59.79254999
,,,,,,Calibration,0,,2,500,,,,,,,,,,,,,,,,,,,,,,,,,14,,,1,,,,,,,,,,,,,,,,,,,,,,,,,,,,,,,,,,,,,,,,,,,,,,45,157210,23,Female,1,2024/02/09_16:12:04,YZ,59.79254999
,,,,,,calibration,0,1,2,583,1,Q,0,right,1.03650504,1,0,,,,,,,,,,,,,,,,,,,,,1,,,,,,,,,,,,,,,,,,,,,,,,,,,,,,,,,,,,,,,,,,,,,,45,157210,23,Female,1,2024/02/09_16:12:04,YZ,59.79254999
,,,,,,calibration,0,1,2,583,2,V,0,left,0.74424182,0,0,,,,,,,,,,,,,,,,,,,,,1,,,,,,,,,,,,,,,,,,,,,,,,,,,,,,,,,,,,,,,,,,,,,,45,157210,23,Female,1,2024/02/09_16:12:04,YZ,59.79254999
,,,,,,calibration,0,1,2,583,3,Q,1,left,0.93211333,1,0,,,,,,,,,,,,,,,,,,,,,1,,,,,,,,,,,,,,,,,,,,,,,,,,,,,,,,,,,,,,,,,,,,,,45,157210,23,Female,1,2024/02/09_16:12:04,YZ,59.79254999
,,,,,,calibration,0,1,2,583,4,N,0,right,0.809172305,1,0,,,,,,,,,,,,,,,,,,,,,1,,,,,,,,,,,,,,,,,,,,,,,,,,,,,,,,,,,,,,,,,,,,,,45,157210,23,Female,1,2024/02/09_16:12:04,YZ,59.79254999
,,,,,,calibration,0,1,2,583,5,J,0,right,0.633036325,1,0,,,,,,,,,,,,,,,,,,,,,1,,,,,,,,,,,,,,,,,,,,,,,,,,,,,,,,,,,,,,,,,,,,,,45,157210,23,Female,1,2024/02/09_16:12:04,YZ,59.79254999
,,,,,,calibration,0,1,2,583,6,S,0,left,0.595527167,0,0,,,,,,,,,,,,,,,,,,,,,1,,,,,,,,,,,,,,,,,,,,,,,,,,,,,,,,,,,,,,,,,,,,,,45,157210,23,Female,1,2024/02/09_16:12:04,YZ,59.79254999
,,,,,,calibration,0,1,2,583,7,N,0,left,1.048410509,0,0,,,,,,,,,,,,,,,,,,,,,1,,,,,,,,,,,,,,,,,,,,,,,,,,,,,,,,,,,,,,,,,,,,,,45,157210,23,Female,1,2024/02/09_16:12:04,YZ,59.79254999
,,,,,,calibration,0,1,2,583,8,F,0,right,0.757813203,1,0,,,,,,,,,,,,,,,,,,,,,1,,,,,,,,,,,,,,,,,,,,,,,,,,,,,,,,,,,,,,,,,,,,,,45,157210,23,Female,1,2024/02/09_16:12:04,YZ,59.79254999
,,,,,,calibration,0,1,2,583,9,N,1,left,0.500269213,1,0,,,,,,,,,,,,,,,,,,,,,1,,,,,,,,,,,,,,,,,,,,,,,,,,,,,,,,,,,,,,,,,,,,,,45,157210,23,Female,1,2024/02/09_16:12:04,YZ,59.79254999
,,,,,,calibration,0,1,2,583,10,C,0,right,0.75847489,1,0,,,,,,,,,,,,,,,,,,,,,1,,,,,,,,,,,,,,,,,,,,,,,,,,,,,,,,,,,,,,,,,,,,,,45,157210,23,Female,1,2024/02/09_16:12:04,YZ,59.79254999
,,,,,,calibration,0,1,2,583,11,N,1,left,0.3477364,1,0,,,,,,,,,,,,,,,,,,,,,1,,,,,,,,,,,,,,,,,,,,,,,,,,,,,,,,,,,,,,,,,,,,,,45,157210,23,Female,1,2024/02/09_16:12:04,YZ,59.79254999
,,,,,,calibration,0,1,2,583,12,C,1,right,0.390731068,0,0,,,,,,,,,,,,,,,,,,,,,1,,,,,,,,,,,,,,,,,,,,,,,,,,,,,,,,,,,,,,,,,,,,,,45,157210,23,Female,1,2024/02/09_16:12:04,YZ,59.79254999
,,,,,,calibration,0,1,2,583,13,V,0,left,1.384441551,0,0,,,,,,,,,,,,,,,,,,,,,1,,,,,,,,,,,,,,,,,,,,,,,,,,,,,,,,,,,,,,,,,,,,,,45,157210,23,Female,1,2024/02/09_16:12:04,YZ,59.79254999
,,,,,,calibration,0,1,2,583,14,N,0,left,0.89215642,0,0,,,,,,,,,,,,,,,,,,,,,1,,,,,,,,,,,,,,,,,,,,,,,,,,,,,,,,,,,,,,,,,,,,,,45,157210,23,Female,1,2024/02/09_16:12:04,YZ,59.79254999
,,,,,,calibration,0,1,2,583,15,F,0,left,1.537359714,0,0,,,,,,,,,,,,,,,,,,,,,1,,,,,,,,,,,,,,,,,,,,,,,,,,,,,,,,,,,,,,,,,,,,,,45,157210,23,Female,1,2024/02/09_16:12:04,YZ,59.79254999
,,,,,,calibration,0,1,2,583,,,,,,,,0.663636364,0.75,0.545454545,0.454545455,0,0.454545455,0.824532597,3,6,0,0,0,5,8,4,11,0,,,,1,,,,,,,,,,,,,,,,,,,,,,,,,,,,,,,,,,,,,,,,,,,,,,45,157210,23,Female,1,2024/02/09_16:12:04,YZ,59.79254999
,,,,,,Calibration,0,,2,583,,,,,,,,,,,,,,,,,,,,,,,,,15,,,1,,,,,,,,,,,,,,,,,,,,,,,,,,,,,,,,,,,,,,,,,,,,,,45,157210,23,Female,1,2024/02/09_16:12:04,YZ,59.79254999
,,,,,,calibration,0,27,2,679,1,J,0,right,0.493695789,1,0,,,,,,,,,,,,,,,,,,,,,1,,,,,,,,,,,,,,,,,,,,,,,,,,,,,,,,,,,,,,,,,,,,,,45,157210,23,Female,1,2024/02/09_16:12:04,YZ,59.79254999
,,,,,,calibration,0,27,2,679,2,N,0,right,0.79500561,1,0,,,,,,,,,,,,,,,,,,,,,1,,,,,,,,,,,,,,,,,,,,,,,,,,,,,,,,,,,,,,,,,,,,,,45,157210,23,Female,1,2024/02/09_16:12:04,YZ,59.79254999
,,,,,,calibration,0,27,2,679,3,V,0,right,nan,0,1,,,,,,,,,,,,,,,,,,,,,1,,,,,,,,,,,,,,,,,,,,,,,,,,,,,,,,,,,,,,,,,,,,,,45,157210,23,Female,1,2024/02/09_16:12:04,YZ,59.79254999
,,,,,,calibration,0,27,2,679,4,Q,0,left,0.961077792,0,0,,,,,,,,,,,,,,,,,,,,,1,,,,,,,,,,,,,,,,,,,,,,,,,,,,,,,,,,,,,,,,,,,,,,45,157210,23,Female,1,2024/02/09_16:12:04,YZ,59.79254999
,,,,,,calibration,0,27,2,679,5,V,1,right,0.859692756,0,0,,,,,,,,,,,,,,,,,,,,,1,,,,,,,,,,,,,,,,,,,,,,,,,,,,,,,,,,,,,,,,,,,,,,45,157210,23,Female,1,2024/02/09_16:12:04,YZ,59.79254999
,,,,,,calibration,0,27,2,679,6,J,0,right,nan,0,1,,,,,,,,,,,,,,,,,,,,,1,,,,,,,,,,,,,,,,,,,,,,,,,,,,,,,,,,,,,,,,,,,,,,45,157210,23,Female,1,2024/02/09_16:12:04,YZ,59.79254999
,,,,,,calibration,0,27,2,679,7,N,0,right,nan,0,1,,,,,,,,,,,,,,,,,,,,,1,,,,,,,,,,,,,,,,,,,,,,,,,,,,,,,,,,,,,,,,,,,,,,45,157210,23,Female,1,2024/02/09_16:12:04,YZ,59.79254999
,,,,,,calibration,0,27,2,679,8,J,1,right,1.644033252,0,0,,,,,,,,,,,,,,,,,,,,,1,,,,,,,,,,,,,,,,,,,,,,,,,,,,,,,,,,,,,,,,,,,,,,45,157210,23,Female,1,2024/02/09_16:12:04,YZ,59.79254999
,,,,,,calibration,0,27,2,679,9,Q,0,right,0.614650222,1,0,,,,,,,,,,,,,,,,,,,,,1,,,,,,,,,,,,,,,,,,,,,,,,,,,,,,,,,,,,,,,,,,,,,,45,157210,23,Female,1,2024/02/09_16:12:04,YZ,59.79254999
,,,,,,calibration,0,27,2,679,10,V,0,right,0.743267488,1,0,,,,,,,,,,,,,,,,,,,,,1,,,,,,,,,,,,,,,,,,,,,,,,,,,,,,,,,,,,,,,,,,,,,,45,157210,23,Female,1,2024/02/09_16:12:04,YZ,59.79254999
,,,,,,calibration,0,27,2,679,11,Q,1,left,0.634601695,1,0,,,,,,,,,,,,,,,,,,,,,1,,,,,,,,,,,,,,,,,,,,,,,,,,,,,,,,,,,,,,,,,,,,,,45,157210,23,Female,1,2024/02/09_16:12:04,YZ,59.79254999
,,,,,,calibration,0,27,2,679,12,J,0,left,0.891796426,0,0,,,,,,,,,,,,,,,,,,,,,1,,,,,,,,,,,,,,,,,,,,,,,,,,,,,,,,,,,,,,,,,,,,,,45,157210,23,Female,1,2024/02/09_16:12:04,YZ,59.79254999
,,,,,,calibration,0,27,2,679,13,Q,1,left,1.237596212,1,0,,,,,,,,,,,,,,,,,,,,,1,,,,,,,,,,,,,,,,,,,,,,,,,,,,,,,,,,,,,,,,,,,,,,45,157210,23,Female,1,2024/02/09_16:12:04,YZ,59.79254999
,,,,,,calibration,0,27,2,679,14,X,0,right,0.580471,1,0,,,,,,,,,,,,,,,,,,,,,1,,,,,,,,,,,,,,,,,,,,,,,,,,,,,,,,,,,,,,,,,,,,,,45,157210,23,Female,1,2024/02/09_16:12:04,YZ,59.79254999
,,,,,,calibration,0,27,2,679,,,,,,,,0.725,0.5,0.2,0.714285714,0.214285714,0.585714286,0.859626204,2,2,0,3,3,5,7,4,10,0,,,,1,,,,,,,,,,,,,,,,,,,,,,,,,,,,,,,,,,,,,,,,,,,,,,45,157210,23,Female,1,2024/02/09_16:12:04,YZ,59.79254999
,,,,,,Calibration,0,,2,679,,,,,,,,,,,,,,,,,,,,,,,,,16,,,1,,,,,,,,,,,,,,,,,,,,,,,,,,,,,,,,,,,,,,,,,,,,,,45,157210,23,Female,1,2024/02/09_16:12:04,YZ,59.79254999
,,,,,,calibration,0,1,2,788,1,N,0,right,0.646832708,1,0,,,,,,,,,,,,,,,,,,,,,1,,,,,,,,,,,,,,,,,,,,,,,,,,,,,,,,,,,,,,,,,,,,,,45,157210,23,Female,1,2024/02/09_16:12:04,YZ,59.79254999
,,,,,,calibration,0,1,2,788,2,S,0,right,0.776137704,1,0,,,,,,,,,,,,,,,,,,,,,1,,,,,,,,,,,,,,,,,,,,,,,,,,,,,,,,,,,,,,,,,,,,,,45,157210,23,Female,1,2024/02/09_16:12:04,YZ,59.79254999
,,,,,,calibration,0,1,2,788,3,N,1,left,0.723934877,1,0,,,,,,,,,,,,,,,,,,,,,1,,,,,,,,,,,,,,,,,,,,,,,,,,,,,,,,,,,,,,,,,,,,,,45,157210,23,Female,1,2024/02/09_16:12:04,YZ,59.79254999
,,,,,,calibration,0,1,2,788,4,S,1,left,nan,0,1,,,,,,,,,,,,,,,,,,,,,1,,,,,,,,,,,,,,,,,,,,,,,,,,,,,,,,,,,,,,,,,,,,,,45,157210,23,Female,1,2024/02/09_16:12:04,YZ,59.79254999
,,,,,,calibration,0,1,2,788,5,Q,0,right,0.62907378,1,0,,,,,,,,,,,,,,,,,,,,,1,,,,,,,,,,,,,,,,,,,,,,,,,,,,,,,,,,,,,,,,,,,,,,45,157210,23,Female,1,2024/02/09_16:12:04,YZ,59.79254999
,,,,,,calibration,0,1,2,788,6,S,1,left,0.779230952,1,0,,,,,,,,,,,,,,,,,,,,,1,,,,,,,,,,,,,,,,,,,,,,,,,,,,,,,,,,,,,,,,,,,,,,45,157210,23,Female,1,2024/02/09_16:12:04,YZ,59.79254999
,,,,,,calibration,0,1,2,788,7,Q,1,left,0.957520624,1,0,,,,,,,,,,,,,,,,,,,,,1,,,,,,,,,,,,,,,,,,,,,,,,,,,,,,,,,,,,,,,,,,,,,,45,157210,23,Female,1,2024/02/09_16:12:04,YZ,59.79254999
,,,,,,calibration,0,1,2,788,8,C,0,right,0.684580588,1,0,,,,,,,,,,,,,,,,,,,,,1,,,,,,,,,,,,,,,,,,,,,,,,,,,,,,,,,,,,,,,,,,,,,,45,157210,23,Female,1,2024/02/09_16:12:04,YZ,59.79254999
,,,,,,calibration,0,1,2,788,9,X,0,right,0.874426999,1,0,,,,,,,,,,,,,,,,,,,,,1,,,,,,,,,,,,,,,,,,,,,,,,,,,,,,,,,,,,,,,,,,,,,,45,157210,23,Female,1,2024/02/09_16:12:04,YZ,59.79254999
,,,,,,calibration,0,1,2,788,10,V,0,right,0.741107749,1,0,,,,,,,,,,,,,,,,,,,,,1,,,,,,,,,,,,,,,,,,,,,,,,,,,,,,,,,,,,,,,,,,,,,,45,157210,23,Female,1,2024/02/09_16:12:04,YZ,59.79254999
,,,,,,calibration,0,1,2,788,11,J,0,right,0.87771279,1,0,,,,,,,,,,,,,,,,,,,,,1,,,,,,,,,,,,,,,,,,,,,,,,,,,,,,,,,,,,,,,,,,,,,,45,157210,23,Female,1,2024/02/09_16:12:04,YZ,59.79254999
,,,,,,calibration,0,1,2,788,12,S,0,right,1.641269386,1,0,,,,,,,,,,,,,,,,,,,,,1,,,,,,,,,,,,,,,,,,,,,,,,,,,,,,,,,,,,,,,,,,,,,,45,157210,23,Female,1,2024/02/09_16:12:04,YZ,59.79254999
,,,,,,calibration,0,1,2,788,13,X,0,left,0.634912371,0,0,,,,,,,,,,,,,,,,,,,,,1,,,,,,,,,,,,,,,,,,,,,,,,,,,,,,,,,,,,,,,,,,,,,,45,157210,23,Female,1,2024/02/09_16:12:04,YZ,59.79254999
,,,,,,calibration,0,1,2,788,,,,,,,,0.881944444,0.75,0.111111111,0.888888889,0.076923077,0.811965812,0.830561711,3,1,1,0,1,8,11,4,9,0,,,,1,,,,,,,,,,,,,,,,,,,,,,,,,,,,,,,,,,,,,,,,,,,,,,45,157210,23,Female,1,2024/02/09_16:12:04,YZ,59.79254999
,,,,,,Calibration,0,,2,788,,,,,,,,,,,,,,,,,,,,,,,,,17,,,1,,,,,,,,,,,,,,,,,,,,,,,,,,,,,,,,,,,,,,,,,,,,,,45,157210,23,Female,1,2024/02/09_16:12:04,YZ,59.79254999
,,,,,,CALIBRATION,0,,,,,,,,,,,,,,,,,,,,,,,,,,,,17,0.881944444,788,1,,,,,,,,,,,,,,,,,,,,,,,,,,,,,,,,,,,,,,,,,,,,,,45,157210,23,Female,1,2024/02/09_16:12:04,YZ,59.79254999
1,./instructions/inst_prac_1/Slide24.png,right,29.56172601,689.6418119,719.2035379,,,,,,,,,,,,,,,,,,,,,,,,,,,,,,,,,1,,,,,,,,,,,,,,,,,,,,,,,,,,,,,,,,,,,,,,,,,,,,,,45,157210,23,Female,1,2024/02/09_16:12:04,YZ,59.79254999
2,./instructions/inst_prac_1/Slide25.png,right,3.115976878,719.2395604,722.3555373,,,,,,,,,,,,,,,,,,,,,,,,,,,,,,,,,1,,,,,,,,,,,,,,,,,,,,,,,,,,,,,,,,,,,,,,,,,,,,,,45,157210,23,Female,1,2024/02/09_16:12:04,YZ,59.79254999
3,./instructions/inst_prac_1/Slide26.png,right,0.755822214,722.391853,723.1476752,,,,,,,,,,,,,,,,,,,,,,,,,,,,,,,,,1,,,,,,,,,,,,,,,,,,,,,,,,,,,,,,,,,,,,,,,,,,,,,,45,157210,23,Female,1,2024/02/09_16:12:04,YZ,59.79254999
4,./instructions/inst_prac_1/Slide27.png,right,1.34262784,723.1808778,724.5235057,,,,,,,,,,,,,,,,,,,,,,,,,,,,,,,,,1,,,,,,,,,,,,,,,,,,,,,,,,,,,,,,,,,,,,,,,,,,,,,,45,157210,23,Female,1,2024/02/09_16:12:04,YZ,59.79254999
3,./instructions/inst_prac_1/Slide28.png,left,0.789023732,724.5587295,725.3477532,,,,,,,,,,,,,,,,,,,,,,,,,,,,,,,,,1,,,,,,,,,,,,,,,,,,,,,,,,,,,,,,,,,,,,,,,,,,,,,,45,157210,23,Female,1,2024/02/09_16:12:04,YZ,59.79254999
4,./instructions/inst_prac_1/Slide27.png,right,2.453971395,725.3819755,727.8359469,,,,,,,,,,,,,,,,,,,,,,,,,,,,,,,,,1,,,,,,,,,,,,,,,,,,,,,,,,,,,,,,,,,,,,,,,,,,,,,,45,157210,23,Female,1,2024/02/09_16:12:04,YZ,59.79254999
5,./instructions/inst_prac_1/Slide28.png,right,0.311515376,727.8681987,728.1797141,,,,,,,,,,,,,,,,,,,,,,,,,,,,,,,,,1,,,,,,,,,,,,,,,,,,,,,,,,,,,,,,,,,,,,,,,,,,,,,,45,157210,23,Female,1,2024/02/09_16:12:04,YZ,59.79254999
6,./instructions/inst_prac_1/Slide29.png,right,4.220583099,728.2148149,732.435398,,,,,,,,,,,,,,,,,,,,,,,,,,,,,,,,,1,,,,,,,,,,,,,,,,,,,,,,,,,,,,,,,,,,,,,,,,,,,,,,45,157210,23,Female,1,2024/02/09_16:12:04,YZ,59.79254999
7,./instructions/inst_prac_1/Slide30.png,right,3.539754905,732.4718404,736.0115953,,,,,,,,,,,,,,,,,,,,,,,,,,,,,,,,,1,,,,,,,,,,,,,,,,,,,,,,,,,,,,,,,,,,,,,,,,,,,,,,45,157210,23,Female,1,2024/02/09_16:12:04,YZ,59.79254999
,,,,,,practice,0,15,1,1250,1,N,0,right,1.536108751,1,0,,,,,,,,,,,,,,,,,,,,,1,,,,,,,,,,,,,,,,,,,,,,,,,,,,,,,,,,,,,,,,,,,,,,45,157210,23,Female,1,2024/02/09_16:12:04,YZ,59.79254999
,,,,,,practice,0,15,1,1250,2,N,1,right,1.695767387,0,0,,,,,,,,,,,,,,,,,,,,,1,,,,,,,,,,,,,,,,,,,,,,,,,,,,,,,,,,,,,,,,,,,,,,45,157210,23,Female,1,2024/02/09_16:12:04,YZ,59.79254999
,,,,,,practice,0,15,1,1250,3,S,0,right,1.348483266,1,0,,,,,,,,,,,,,,,,,,,,,1,,,,,,,,,,,,,,,,,,,,,,,,,,,,,,,,,,,,,,,,,,,,,,45,157210,23,Female,1,2024/02/09_16:12:04,YZ,59.79254999
,,,,,,practice,0,15,1,1250,4,S,1,left,4.520259506,1,0,,,,,,,,,,,,,,,,,,,,,1,,,,,,,,,,,,,,,,,,,,,,,,,,,,,,,,,,,,,,,,,,,,,,45,157210,23,Female,1,2024/02/09_16:12:04,YZ,59.79254999
,,,,,,practice,0,15,1,1250,5,X,0,right,1.020374933,1,0,,,,,,,,,,,,,,,,,,,,,1,,,,,,,,,,,,,,,,,,,,,,,,,,,,,,,,,,,,,,,,,,,,,,45,157210,23,Female,1,2024/02/09_16:12:04,YZ,59.79254999
,,,,,,practice,0,15,1,1250,6,X,1,left,0.696448357,1,0,,,,,,,,,,,,,,,,,,,,,1,,,,,,,,,,,,,,,,,,,,,,,,,,,,,,,,,,,,,,,,,,,,,,45,157210,23,Female,1,2024/02/09_16:12:04,YZ,59.79254999
,,,,,,practice,0,15,1,1250,7,C,0,right,0.76987631,1,0,,,,,,,,,,,,,,,,,,,,,1,,,,,,,,,,,,,,,,,,,,,,,,,,,,,,,,,,,,,,,,,,,,,,45,157210,23,Female,1,2024/02/09_16:12:04,YZ,59.79254999
,,,,,,practice,0,15,1,1250,8,J,0,right,0.778122464,1,0,,,,,,,,,,,,,,,,,,,,,1,,,,,,,,,,,,,,,,,,,,,,,,,,,,,,,,,,,,,,,,,,,,,,45,157210,23,Female,1,2024/02/09_16:12:04,YZ,59.79254999
,,,,,,practice,0,15,1,1250,9,S,0,right,0.837762516,1,0,,,,,,,,,,,,,,,,,,,,,1,,,,,,,,,,,,,,,,,,,,,,,,,,,,,,,,,,,,,,,,,,,,,,45,157210,23,Female,1,2024/02/09_16:12:04,YZ,59.79254999
,,,,,,practice,0,15,1,1250,10,J,0,right,2.031286239,1,0,,,,,,,,,,,,,,,,,,,,,1,,,,,,,,,,,,,,,,,,,,,,,,,,,,,,,,,,,,,,,,,,,,,,45,157210,23,Female,1,2024/02/09_16:12:04,YZ,59.79254999
,,,,,,practice,0,15,1,1250,,,,,,,,0.916666667,0.666666667,0,1,0,1,1.523448973,2,0,0,0,0,7,9,3,7,0,,,,1,,,,,,,,,,,,,,,,,,,,,,,,,,,,,,,,,,,,,,,,,,,,,,45,157210,23,Female,1,2024/02/09_16:12:04,YZ,59.79254999
1,./instructions/inst_prac_1_next/Slide35.png,right,0.955418089,762.3280574,763.2834755,,,,,,,,,,,,,,,,,,,,,,,,,,,,,,,,,1,,,,,,,,,,,,,,,,,,,,,,,,,,,,,,,,,,,,,,,,,,,,,,45,157210,23,Female,1,2024/02/09_16:12:04,YZ,59.79254999
,,,,,,practice,0,20,1,788,1,X,0,right,2.475512365,1,0,,,,,,,,,,,,,,,,,,,,,1,,,,,,,,,,,,,,,,,,,,,,,,,,,,,,,,,,,,,,,,,,,,,,45,157210,23,Female,1,2024/02/09_16:12:04,YZ,59.79254999
,,,,,,practice,0,20,1,788,2,X,1,left,0.706827128,1,0,,,,,,,,,,,,,,,,,,,,,1,,,,,,,,,,,,,,,,,,,,,,,,,,,,,,,,,,,,,,,,,,,,,,45,157210,23,Female,1,2024/02/09_16:12:04,YZ,59.79254999
,,,,,,practice,0,20,1,788,3,N,0,right,1.494919094,1,0,,,,,,,,,,,,,,,,,,,,,1,,,,,,,,,,,,,,,,,,,,,,,,,,,,,,,,,,,,,,,,,,,,,,45,157210,23,Female,1,2024/02/09_16:12:04,YZ,59.79254999
,,,,,,practice,0,20,1,788,4,V,0,right,0.704054208,1,0,,,,,,,,,,,,,,,,,,,,,1,,,,,,,,,,,,,,,,,,,,,,,,,,,,,,,,,,,,,,,,,,,,,,45,157210,23,Female,1,2024/02/09_16:12:04,YZ,59.79254999
,,,,,,practice,0,20,1,788,5,J,0,right,0.946561849,1,0,,,,,,,,,,,,,,,,,,,,,1,,,,,,,,,,,,,,,,,,,,,,,,,,,,,,,,,,,,,,,,,,,,,,45,157210,23,Female,1,2024/02/09_16:12:04,YZ,59.79254999
,,,,,,practice,0,20,1,788,6,J,1,left,0.688132669,1,0,,,,,,,,,,,,,,,,,,,,,1,,,,,,,,,,,,,,,,,,,,,,,,,,,,,,,,,,,,,,,,,,,,,,45,157210,23,Female,1,2024/02/09_16:12:04,YZ,59.79254999
,,,,,,practice,0,20,1,788,7,N,0,right,0.710002406,1,0,,,,,,,,,,,,,,,,,,,,,1,,,,,,,,,,,,,,,,,,,,,,,,,,,,,,,,,,,,,,,,,,,,,,45,157210,23,Female,1,2024/02/09_16:12:04,YZ,59.79254999
,,,,,,practice,0,20,1,788,8,F,0,right,0.578222503,1,0,,,,,,,,,,,,,,,,,,,,,1,,,,,,,,,,,,,,,,,,,,,,,,,,,,,,,,,,,,,,,,,,,,,,45,157210,23,Female,1,2024/02/09_16:12:04,YZ,59.79254999
,,,,,,practice,0,20,1,788,9,V,0,right,0.62416205,1,0,,,,,,,,,,,,,,,,,,,,,1,,,,,,,,,,,,,,,,,,,,,,,,,,,,,,,,,,,,,,,,,,,,,,45,157210,23,Female,1,2024/02/09_16:12:04,YZ,59.79254999
,,,,,,practice,0,20,1,788,10,N,0,right,1.482161405,1,0,,,,,,,,,,,,,,,,,,,,,1,,,,,,,,,,,,,,,,,,,,,,,,,,,,,,,,,,,,,,,,,,,,,,45,157210,23,Female,1,2024/02/09_16:12:04,YZ,59.79254999
,,,,,,practice,0,20,1,788,11,N,1,left,0.662481249,1,0,,,,,,,,,,,,,,,,,,,,,1,,,,,,,,,,,,,,,,,,,,,,,,,,,,,,,,,,,,,,,,,,,,,,45,157210,23,Female,1,2024/02/09_16:12:04,YZ,59.79254999
,,,,,,practice,0,20,1,788,12,J,0,right,0.850394776,1,0,,,,,,,,,,,,,,,,,,,,,1,,,,,,,,,,,,,,,,,,,,,,,,,,,,,,,,,,,,,,,,,,,,,,45,157210,23,Female,1,2024/02/09_16:12:04,YZ,59.79254999
,,,,,,practice,0,20,1,788,13,J,1,left,0.490743163,1,0,,,,,,,,,,,,,,,,,,,,,1,,,,,,,,,,,,,,,,,,,,,,,,,,,,,,,,,,,,,,,,,,,,,,45,157210,23,Female,1,2024/02/09_16:12:04,YZ,59.79254999
,,,,,,practice,0,20,1,788,,,,,,,,1,1,0,1,0,1,0.954936528,4,0,0,0,0,9,13,4,9,0,,,,1,,,,,,,,,,,,,,,,,,,,,,,,,,,,,,,,,,,,,,,,,,,,,,45,157210,23,Female,1,2024/02/09_16:12:04,YZ,59.79254999
,,,,,,practice,0,6,1,788,1,J,0,right,1.562795683,1,0,,,,,,,,,,,,,,,,,,,,,1,,,,,,,,,,,,,,,,,,,,,,,,,,,,,,,,,,,,,,,,,,,,,,45,157210,23,Female,1,2024/02/09_16:12:04,YZ,59.79254999
,,,,,,practice,0,6,1,788,2,J,1,left,0.524948316,1,0,,,,,,,,,,,,,,,,,,,,,1,,,,,,,,,,,,,,,,,,,,,,,,,,,,,,,,,,,,,,,,,,,,,,45,157210,23,Female,1,2024/02/09_16:12:04,YZ,59.79254999
,,,,,,practice,0,6,1,788,3,S,0,right,0.835770679,1,0,,,,,,,,,,,,,,,,,,,,,1,,,,,,,,,,,,,,,,,,,,,,,,,,,,,,,,,,,,,,,,,,,,,,45,157210,23,Female,1,2024/02/09_16:12:04,YZ,59.79254999
,,,,,,practice,0,6,1,788,4,S,1,left,0.332888919,1,0,,,,,,,,,,,,,,,,,,,,,1,,,,,,,,,,,,,,,,,,,,,,,,,,,,,,,,,,,,,,,,,,,,,,45,157210,23,Female,1,2024/02/09_16:12:04,YZ,59.79254999
,,,,,,practice,0,6,1,788,5,C,0,right,0.508531518,1,0,,,,,,,,,,,,,,,,,,,,,1,,,,,,,,,,,,,,,,,,,,,,,,,,,,,,,,,,,,,,,,,,,,,,45,157210,23,Female,1,2024/02/09_16:12:04,YZ,59.79254999
,,,,,,practice,0,6,1,788,6,X,0,right,0.602964173,1,0,,,,,,,,,,,,,,,,,,,,,1,,,,,,,,,,,,,,,,,,,,,,,,,,,,,,,,,,,,,,,,,,,,,,45,157210,23,Female,1,2024/02/09_16:12:04,YZ,59.79254999
,,,,,,practice,0,6,1,788,7,Q,0,right,0.515040285,1,0,,,,,,,,,,,,,,,,,,,,,1,,,,,,,,,,,,,,,,,,,,,,,,,,,,,,,,,,,,,,,,,,,,,,45,157210,23,Female,1,2024/02/09_16:12:04,YZ,59.79254999
,,,,,,practice,0,6,1,788,8,C,0,right,1.098309667,1,0,,,,,,,,,,,,,,,,,,,,,1,,,,,,,,,,,,,,,,,,,,,,,,,,,,,,,,,,,,,,,,,,,,,,45,157210,23,Female,1,2024/02/09_16:12:04,YZ,59.79254999
,,,,,,practice,0,6,1,788,9,N,0,right,0.806465308,1,0,,,,,,,,,,,,,,,,,,,,,1,,,,,,,,,,,,,,,,,,,,,,,,,,,,,,,,,,,,,,,,,,,,,,45,157210,23,Female,1,2024/02/09_16:12:04,YZ,59.79254999
,,,,,,practice,0,6,1,788,10,N,1,left,0.601163962,1,0,,,,,,,,,,,,,,,,,,,,,1,,,,,,,,,,,,,,,,,,,,,,,,,,,,,,,,,,,,,,,,,,,,,,45,157210,23,Female,1,2024/02/09_16:12:04,YZ,59.79254999
,,,,,,practice,0,6,1,788,11,Q,0,right,0.610223408,1,0,,,,,,,,,,,,,,,,,,,,,1,,,,,,,,,,,,,,,,,,,,,,,,,,,,,,,,,,,,,,,,,,,,,,45,157210,23,Female,1,2024/02/09_16:12:04,YZ,59.79254999
,,,,,,practice,0,6,1,788,12,S,0,right,0.877523447,1,0,,,,,,,,,,,,,,,,,,,,,1,,,,,,,,,,,,,,,,,,,,,,,,,,,,,,,,,,,,,,,,,,,,,,45,157210,23,Female,1,2024/02/09_16:12:04,YZ,59.79254999
,,,,,,practice,0,6,1,788,13,S,1,left,0.331653758,1,0,,,,,,,,,,,,,,,,,,,,,1,,,,,,,,,,,,,,,,,,,,,,,,,,,,,,,,,,,,,,,,,,,,,,45,157210,23,Female,1,2024/02/09_16:12:04,YZ,59.79254999
,,,,,,practice,0,6,1,788,,,,,,,,1,1,0,1,0,1,0.708329163,4,0,0,0,0,9,13,4,9,0,,,,1,,,,,,,,,,,,,,,,,,,,,,,,,,,,,,,,,,,,,,,,,,,,,,45,157210,23,Female,1,2024/02/09_16:12:04,YZ,59.79254999
1,./instructions/inst_prac_3/Slide37.png,right,14.02503846,802.7143213,816.7393598,,,,,,,,,,,,,,,,,,,,,,,,,,,,,,,,,1,,,,,,,,,,,,,,,,,,,,,,,,,,,,,,,,,,,,,,,,,,,,,,45,157210,23,Female,1,2024/02/09_16:12:04,YZ,59.79254999
2,./instructions/inst_prac_3/Slide38.png,right,3.108740706,816.774876,819.8836167,,,,,,,,,,,,,,,,,,,,,,,,,,,,,,,,,1,,,,,,,,,,,,,,,,,,,,,,,,,,,,,,,,,,,,,,,,,,,,,,45,157210,23,Female,1,2024/02/09_16:12:04,YZ,59.79254999
3,./instructions/inst_prac_3/Slide39.png,right,0.838068743,819.9174412,820.75551,,,,,,,,,,,,,,,,,,,,,,,,,,,,,,,,,1,,,,,,,,,,,,,,,,,,,,,,,,,,,,,,,,,,,,,,,,,,,,,,45,157210,23,Female,1,2024/02/09_16:12:04,YZ,59.79254999
4,./instructions/inst_prac_3/Slide40.png,right,0.576351061,820.7870413,821.3633924,,,,,,,,,,,,,,,,,,,,,,,,,,,,,,,,,1,,,,,,,,,,,,,,,,,,,,,,,,,,,,,,,,,,,,,,,,,,,,,,45,157210,23,Female,1,2024/02/09_16:12:04,YZ,59.79254999
5,./instructions/inst_prac_3/Slide41.png,right,0.915820486,821.39946,822.3152805,,,,,,,,,,,,,,,,,,,,,,,,,,,,,,,,,1,,,,,,,,,,,,,,,,,,,,,,,,,,,,,,,,,,,,,,,,,,,,,,45,157210,23,Female,1,2024/02/09_16:12:04,YZ,59.79254999
6,./instructions/inst_prac_3/Slide42.png,right,3.661104709,822.3504554,826.0115601,,,,,,,,,,,,,,,,,,,,,,,,,,,,,,,,,1,,,,,,,,,,,,,,,,,,,,,,,,,,,,,,,,,,,,,,,,,,,,,,45,157210,23,Female,1,2024/02/09_16:12:04,YZ,59.79254999
7,./instructions/inst_prac_3/Slide43.png,right,1.756561176,826.0468594,827.8034206,,,,,,,,,,,,,,,,,,,,,,,,,,,,,,,,,1,,,,,,,,,,,,,,,,,,,,,,,,,,,,,,,,,,,,,,,,,,,,,,45,157210,23,Female,1,2024/02/09_16:12:04,YZ,59.79254999
8,./instructions/inst_prac_3/Slide44.png,right,2.052676693,827.8389554,829.8916321,,,,,,,,,,,,,,,,,,,,,,,,,,,,,,,,,1,,,,,,,,,,,,,,,,,,,,,,,,,,,,,,,,,,,,,,,,,,,,,,45,157210,23,Female,1,2024/02/09_16:12:04,YZ,59.79254999
,,,,,,practice,0,7,3,788,1,X,0,right,2.366404048,1,0,,,,,,,,,,,,,,,,,,,,,1,,,,,,,,,,,,,,,,,,,,,,,,,,,,,,,,,,,,,,,,,,,,,,45,157210,23,Female,1,2024/02/09_16:12:04,YZ,59.79254999
,,,,,,practice,0,7,3,788,2,N,0,right,3.129186251,1,0,,,,,,,,,,,,,,,,,,,,,1,,,,,,,,,,,,,,,,,,,,,,,,,,,,,,,,,,,,,,,,,,,,,,45,157210,23,Female,1,2024/02/09_16:12:04,YZ,59.79254999
,,,,,,practice,0,7,3,788,3,X,0,right,1.080715472,1,0,,,,,,,,,,,,,,,,,,,,,1,,,,,,,,,,,,,,,,,,,,,,,,,,,,,,,,,,,,,,,,,,,,,,45,157210,23,Female,1,2024/02/09_16:12:04,YZ,59.79254999
,,,,,,practice,0,7,3,788,4,C,0,right,1.06492904,1,0,,,,,,,,,,,,,,,,,,,,,1,,,,,,,,,,,,,,,,,,,,,,,,,,,,,,,,,,,,,,,,,,,,,,45,157210,23,Female,1,2024/02/09_16:12:04,YZ,59.79254999
,,,,,,practice,0,7,3,788,5,S,0,right,1.760367594,1,0,,,,,,,,,,,,,,,,,,,,,1,,,,,,,,,,,,,,,,,,,,,,,,,,,,,,,,,,,,,,,,,,,,,,45,157210,23,Female,1,2024/02/09_16:12:04,YZ,59.79254999
,,,,,,practice,0,7,3,788,6,S,0,left,1.079055385,0,0,,,,,,,,,,,,,,,,,,,,,1,,,,,,,,,,,,,,,,,,,,,,,,,,,,,,,,,,,,,,,,,,,,,,45,157210,23,Female,1,2024/02/09_16:12:04,YZ,59.79254999
,,,,,,practice,0,7,3,788,7,C,1,left,2.124613132,1,0,,,,,,,,,,,,,,,,,,,,,1,,,,,,,,,,,,,,,,,,,,,,,,,,,,,,,,,,,,,,,,,,,,,,45,157210,23,Female,1,2024/02/09_16:12:04,YZ,59.79254999
,,,,,,practice,0,7,3,788,8,Q,0,right,0.972461253,1,0,,,,,,,,,,,,,,,,,,,,,1,,,,,,,,,,,,,,,,,,,,,,,,,,,,,,,,,,,,,,,,,,,,,,45,157210,23,Female,1,2024/02/09_16:12:04,YZ,59.79254999
,,,,,,practice,0,7,3,788,9,S,1,left,0.916594196,1,0,,,,,,,,,,,,,,,,,,,,,1,,,,,,,,,,,,,,,,,,,,,,,,,,,,,,,,,,,,,,,,,,,,,,45,157210,23,Female,1,2024/02/09_16:12:04,YZ,59.79254999
,,,,,,practice,0,7,3,788,10,Q,0,right,0.915909111,1,0,,,,,,,,,,,,,,,,,,,,,1,,,,,,,,,,,,,,,,,,,,,,,,,,,,,,,,,,,,,,,,,,,,,,45,157210,23,Female,1,2024/02/09_16:12:04,YZ,59.79254999
,,,,,,practice,0,7,3,788,11,Q,1,left,0.823215707,1,0,,,,,,,,,,,,,,,,,,,,,1,,,,,,,,,,,,,,,,,,,,,,,,,,,,,,,,,,,,,,,,,,,,,,45,157210,23,Female,1,2024/02/09_16:12:04,YZ,59.79254999
,,,,,,practice,0,7,3,788,12,V,0,right,0.763646416,1,0,,,,,,,,,,,,,,,,,,,,,1,,,,,,,,,,,,,,,,,,,,,,,,,,,,,,,,,,,,,,,,,,,,,,45,157210,23,Female,1,2024/02/09_16:12:04,YZ,59.79254999
,,,,,,practice,0,7,3,788,13,Q,1,left,0.832929851,1,0,,,,,,,,,,,,,,,,,,,,,1,,,,,,,,,,,,,,,,,,,,,,,,,,,,,,,,,,,,,,,,,,,,,,45,157210,23,Female,1,2024/02/09_16:12:04,YZ,59.79254999
,,,,,,practice,0,7,3,788,,,,,,,,0.972222222,1,0.111111111,0.888888889,0,0.888888889,1.371540574,4,1,0,0,0,8,12,4,9,0,,,,1,,,,,,,,,,,,,,,,,,,,,,,,,,,,,,,,,,,,,,,,,,,,,,45,157210,23,Female,1,2024/02/09_16:12:04,YZ,59.79254999
1,./instructions/inst_prac_3_next/Slide49.png,right,6.542891907,861.9646433,868.5075353,,,,,,,,,,,,,,,,,,,,,,,,,,,,,,,,,1,,,,,,,,,,,,,,,,,,,,,,,,,,,,,,,,,,,,,,,,,,,,,,45,157210,23,Female,1,2024/02/09_16:12:04,YZ,59.79254999
,,,,,,practice,0,2,3,788,1,C,0,right,2.442214647,1,0,,,,,,,,,,,,,,,,,,,,,1,,,,,,,,,,,,,,,,,,,,,,,,,,,,,,,,,,,,,,,,,,,,,,45,157210,23,Female,1,2024/02/09_16:12:04,YZ,59.79254999
,,,,,,practice,0,2,3,788,2,J,0,right,1.866628496,1,0,,,,,,,,,,,,,,,,,,,,,1,,,,,,,,,,,,,,,,,,,,,,,,,,,,,,,,,,,,,,,,,,,,,,45,157210,23,Female,1,2024/02/09_16:12:04,YZ,59.79254999
,,,,,,practice,0,2,3,788,3,J,0,right,0.885776657,1,0,,,,,,,,,,,,,,,,,,,,,1,,,,,,,,,,,,,,,,,,,,,,,,,,,,,,,,,,,,,,,,,,,,,,45,157210,23,Female,1,2024/02/09_16:12:04,YZ,59.79254999
,,,,,,practice,0,2,3,788,4,S,0,right,1.411905085,1,0,,,,,,,,,,,,,,,,,,,,,1,,,,,,,,,,,,,,,,,,,,,,,,,,,,,,,,,,,,,,,,,,,,,,45,157210,23,Female,1,2024/02/09_16:12:04,YZ,59.79254999
,,,,,,practice,0,2,3,788,5,Q,0,right,1.75762339,1,0,,,,,,,,,,,,,,,,,,,,,1,,,,,,,,,,,,,,,,,,,,,,,,,,,,,,,,,,,,,,,,,,,,,,45,157210,23,Female,1,2024/02/09_16:12:04,YZ,59.79254999
,,,,,,practice,0,2,3,788,6,V,0,right,1.003416858,1,0,,,,,,,,,,,,,,,,,,,,,1,,,,,,,,,,,,,,,,,,,,,,,,,,,,,,,,,,,,,,,,,,,,,,45,157210,23,Female,1,2024/02/09_16:12:04,YZ,59.79254999
,,,,,,practice,0,2,3,788,7,S,1,right,2.828271521,0,0,,,,,,,,,,,,,,,,,,,,,1,,,,,,,,,,,,,,,,,,,,,,,,,,,,,,,,,,,,,,,,,,,,,,45,157210,23,Female,1,2024/02/09_16:12:04,YZ,59.79254999
,,,,,,practice,0,2,3,788,8,Q,1,left,0.708931331,1,0,,,,,,,,,,,,,,,,,,,,,1,,,,,,,,,,,,,,,,,,,,,,,,,,,,,,,,,,,,,,,,,,,,,,45,157210,23,Female,1,2024/02/09_16:12:04,YZ,59.79254999
,,,,,,practice,0,2,3,788,9,N,0,right,2.168010879,1,0,,,,,,,,,,,,,,,,,,,,,1,,,,,,,,,,,,,,,,,,,,,,,,,,,,,,,,,,,,,,,,,,,,,,45,157210,23,Female,1,2024/02/09_16:12:04,YZ,59.79254999
,,,,,,practice,0,2,3,788,10,V,0,right,3.109174997,1,0,,,,,,,,,,,,,,,,,,,,,1,,,,,,,,,,,,,,,,,,,,,,,,,,,,,,,,,,,,,,,,,,,,,,45,157210,23,Female,1,2024/02/09_16:12:04,YZ,59.79254999
,,,,,,practice,0,2,3,788,11,N,0,left,0.550975219,0,0,,,,,,,,,,,,,,,,,,,,,1,,,,,,,,,,,,,,,,,,,,,,,,,,,,,,,,,,,,,,,,,,,,,,45,157210,23,Female,1,2024/02/09_16:12:04,YZ,59.79254999
,,,,,,practice,0,2,3,788,12,N,1,right,2.346430126,0,0,,,,,,,,,,,,,,,,,,,,,1,,,,,,,,,,,,,,,,,,,,,,,,,,,,,,,,,,,,,,,,,,,,,,45,157210,23,Female,1,2024/02/09_16:12:04,YZ,59.79254999
,,,,,,practice,0,2,3,788,13,V,1,right,1.750174101,0,0,,,,,,,,,,,,,,,,,,,,,1,,,,,,,,,,,,,,,,,,,,,,,,,,,,,,,,,,,,,,,,,,,,,,45,157210,23,Female,1,2024/02/09_16:12:04,YZ,59.79254999
,,,,,,practice,0,2,3,788,,,,,,,,0.673611111,0.25,0.111111111,0.888888889,0,0.888888889,1.756117947,1,1,0,0,0,8,9,4,9,0,,,,1,,,,,,,,,,,,,,,,,,,,,,,,,,,,,,,,,,,,,,,,,,,,,,45,157210,23,Female,1,2024/02/09_16:12:04,YZ,59.79254999
,,,,,,practice,0,28,3,788,1,C,0,right,4.379911802,1,0,,,,,,,,,,,,,,,,,,,,,1,,,,,,,,,,,,,,,,,,,,,,,,,,,,,,,,,,,,,,,,,,,,,,45,157210,23,Female,1,2024/02/09_16:12:04,YZ,59.79254999
,,,,,,practice,0,28,3,788,2,J,0,right,1.436997599,1,0,,,,,,,,,,,,,,,,,,,,,1,,,,,,,,,,,,,,,,,,,,,,,,,,,,,,,,,,,,,,,,,,,,,,45,157210,23,Female,1,2024/02/09_16:12:04,YZ,59.79254999
,,,,,,practice,0,28,3,788,3,C,0,right,1.029150128,1,0,,,,,,,,,,,,,,,,,,,,,1,,,,,,,,,,,,,,,,,,,,,,,,,,,,,,,,,,,,,,,,,,,,,,45,157210,23,Female,1,2024/02/09_16:12:04,YZ,59.79254999
,,,,,,practice,0,28,3,788,4,C,1,left,0.629487095,1,0,,,,,,,,,,,,,,,,,,,,,1,,,,,,,,,,,,,,,,,,,,,,,,,,,,,,,,,,,,,,,,,,,,,,45,157210,23,Female,1,2024/02/09_16:12:04,YZ,59.79254999
,,,,,,practice,0,28,3,788,5,S,0,right,2.794949131,1,0,,,,,,,,,,,,,,,,,,,,,1,,,,,,,,,,,,,,,,,,,,,,,,,,,,,,,,,,,,,,,,,,,,,,45,157210,23,Female,1,2024/02/09_16:12:04,YZ,59.79254999
,,,,,,practice,0,28,3,788,6,C,1,left,1.766924585,1,0,,,,,,,,,,,,,,,,,,,,,1,,,,,,,,,,,,,,,,,,,,,,,,,,,,,,,,,,,,,,,,,,,,,,45,157210,23,Female,1,2024/02/09_16:12:04,YZ,59.79254999
,,,,,,practice,0,28,3,788,7,S,0,right,1.976010375,1,0,,,,,,,,,,,,,,,,,,,,,1,,,,,,,,,,,,,,,,,,,,,,,,,,,,,,,,,,,,,,,,,,,,,,45,157210,23,Female,1,2024/02/09_16:12:04,YZ,59.79254999
,,,,,,practice,0,28,3,788,8,X,0,right,1.162355233,1,0,,,,,,,,,,,,,,,,,,,,,1,,,,,,,,,,,,,,,,,,,,,,,,,,,,,,,,,,,,,,,,,,,,,,45,157210,23,Female,1,2024/02/09_16:12:04,YZ,59.79254999
,,,,,,practice,0,28,3,788,9,C,1,left,0.670440768,1,0,,,,,,,,,,,,,,,,,,,,,1,,,,,,,,,,,,,,,,,,,,,,,,,,,,,,,,,,,,,,,,,,,,,,45,157210,23,Female,1,2024/02/09_16:12:04,YZ,59.79254999
,,,,,,practice,0,28,3,788,10,F,0,right,1.040569819,1,0,,,,,,,,,,,,,,,,,,,,,1,,,,,,,,,,,,,,,,,,,,,,,,,,,,,,,,,,,,,,,,,,,,,,45,157210,23,Female,1,2024/02/09_16:12:04,YZ,59.79254999
,,,,,,practice,0,28,3,788,11,N,0,right,1.234794791,1,0,,,,,,,,,,,,,,,,,,,,,1,,,,,,,,,,,,,,,,,,,,,,,,,,,,,,,,,,,,,,,,,,,,,,45,157210,23,Female,1,2024/02/09_16:12:04,YZ,59.79254999
,,,,,,practice,0,28,3,788,12,C,1,left,0.645750579,1,0,,,,,,,,,,,,,,,,,,,,,1,,,,,,,,,,,,,,,,,,,,,,,,,,,,,,,,,,,,,,,,,,,,,,45,157210,23,Female,1,2024/02/09_16:12:04,YZ,59.79254999
,,,,,,practice,0,28,3,788,13,V,0,right,1.386722406,1,0,,,,,,,,,,,,,,,,,,,,,1,,,,,,,,,,,,,,,,,,,,,,,,,,,,,,,,,,,,,,,,,,,,,,45,157210,23,Female,1,2024/02/09_16:12:04,YZ,59.79254999
,,,,,,practice,0,28,3,788,,,,,,,,1,1,0,1,0,1,1.550312639,4,0,0,0,0,9,13,4,9,0,,,,1,,,,,,,,,,,,,,,,,,,,,,,,,,,,,,,,,,,,,,,,,,,,,,45,157210,23,Female,1,2024/02/09_16:12:04,YZ,59.79254999
1,./instructions/inst_prac_main/Slide51.png,right,6.626200859,929.2972235,935.9234244,,,,,,,,,,,,,,,,,,,,,,,,,,,,,,,,,1,,,,,,,,,,,,,,,,,,,,,,,,,,,,,,,,,,,,,,,,,,,,,,45,157210,23,Female,1,2024/02/09_16:12:04,YZ,59.79254999
2,./instructions/inst_prac_main/Slide52.png,right,35.36317914,935.9603539,971.3235331,,,,,,,,,,,,,,,,,,,,,,,,,,,,,,,,,1,,,,,,,,,,,,,,,,,,,,,,,,,,,,,,,,,,,,,,,,,,,,,,45,157210,23,Female,1,2024/02/09_16:12:04,YZ,59.79254999
1,./instructions/inst_prac_main/Slide53.png,left,6.156271409,971.3591451,977.5154165,,,,,,,,,,,,,,,,,,,,,,,,,,,,,,,,,1,,,,,,,,,,,,,,,,,,,,,,,,,,,,,,,,,,,,,,,,,,,,,,45,157210,23,Female,1,2024/02/09_16:12:04,YZ,59.79254999
0,./instructions/inst_prac_main/Slide52.png,left,0.200809468,977.5492188,977.7500283,,,,,,,,,,,,,,,,,,,,,,,,,,,,,,,,,1,,,,,,,,,,,,,,,,,,,,,,,,,,,,,,,,,,,,,,,,,,,,,,45,157210,23,Female,1,2024/02/09_16:12:04,YZ,59.79254999
-1,./instructions/inst_prac_main/Slide51.png,left,0.200454089,977.7740724,977.9745265,,,,,,,,,,,,,,,,,,,,,,,,,,,,,,,,,1,,,,,,,,,,,,,,,,,,,,,,,,,,,,,,,,,,,,,,,,,,,,,,45,157210,23,Female,1,2024/02/09_16:12:04,YZ,59.79254999
-2,./instructions/inst_prac_main/Slide54.png,left,0.200469094,978.0029443,978.2034134,,,,,,,,,,,,,,,,,,,,,,,,,,,,,,,,,1,,,,,,,,,,,,,,,,,,,,,,,,,,,,,,,,,,,,,,,,,,,,,,45,157210,23,Female,1,2024/02/09_16:12:04,YZ,59.79254999
-3,./instructions/inst_prac_main/Slide53.png,left,0.200526528,978.2313692,978.4318957,,,,,,,,,,,,,,,,,,,,,,,,,,,,,,,,,1,,,,,,,,,,,,,,,,,,,,,,,,,,,,,,,,,,,,,,,,,,,,,,45,157210,23,Female,1,2024/02/09_16:12:04,YZ,59.79254999
-4,./instructions/inst_prac_main/Slide52.png,left,0.200465429,978.4599363,978.6604017,,,,,,,,,,,,,,,,,,,,,,,,,,,,,,,,,1,,,,,,,,,,,,,,,,,,,,,,,,,,,,,,,,,,,,,,,,,,,,,,45,157210,23,Female,1,2024/02/09_16:12:04,YZ,59.79254999
,,,,,,practice_main,0,1,1,788,1,N,0,None,nan,0,1,,,,,,,,,,,,,,,,,,,,,1,,,,,,,,,,,,,,,,,,,,,,,,,,,,,,,,,,,,,,,,,,,,,,45,157210,23,Female,1,2024/02/09_16:12:04,YZ,59.79254999
,,,,,,practice_main,0,1,1,788,2,Q,0,right,0.95723538,1,0,,,,,,,,,,,,,,,,,,,,,1,,,,,,,,,,,,,,,,,,,,,,,,,,,,,,,,,,,,,,,,,,,,,,45,157210,23,Female,1,2024/02/09_16:12:04,YZ,59.79254999
,,,,,,practice_main,0,1,1,788,3,C,0,left,1.951207664,0,0,,,,,,,,,,,,,,,,,,,,,1,,,,,,,,,,,,,,,,,,,,,,,,,,,,,,,,,,,,,,,,,,,,,,45,157210,23,Female,1,2024/02/09_16:12:04,YZ,59.79254999
,,,,,,practice_main,0,1,1,788,4,Q,0,left,1.165061796,0,0,,,,,,,,,,,,,,,,,,,,,1,,,,,,,,,,,,,,,,,,,,,,,,,,,,,,,,,,,,,,,,,,,,,,45,157210,23,Female,1,2024/02/09_16:12:04,YZ,59.79254999
,,,,,,practice_main,0,1,1,788,5,Q,1,left,0.779304371,1,0,,,,,,,,,,,,,,,,,,,,,1,,,,,,,,,,,,,,,,,,,,,,,,,,,,,,,,,,,,,,,,,,,,,,45,157210,23,Female,1,2024/02/09_16:12:04,YZ,59.79254999
,,,,,,practice_main,0,1,1,788,6,C,0,right,1.563790255,1,0,,,,,,,,,,,,,,,,,,,,,1,,,,,,,,,,,,,,,,,,,,,,,,,,,,,,,,,,,,,,,,,,,,,,45,157210,23,Female,1,2024/02/09_16:12:04,YZ,59.79254999
,,,,,,practice_main,0,1,1,788,7,C,1,left,0.547684692,1,0,,,,,,,,,,,,,,,,,,,,,1,,,,,,,,,,,,,,,,,,,,,,,,,,,,,,,,,,,,,,,,,,,,,,45,157210,23,Female,1,2024/02/09_16:12:04,YZ,59.79254999
,,,,,,practice_main,0,1,1,788,8,J,0,right,0.744750285,1,0,,,,,,,,,,,,,,,,,,,,,1,,,,,,,,,,,,,,,,,,,,,,,,,,,,,,,,,,,,,,,,,,,,,,45,157210,23,Female,1,2024/02/09_16:12:04,YZ,59.79254999
,,,,,,practice_main,0,1,1,788,9,J,1,left,0.680505786,1,0,,,,,,,,,,,,,,,,,,,,,1,,,,,,,,,,,,,,,,,,,,,,,,,,,,,,,,,,,,,,,,,,,,,,45,157210,23,Female,1,2024/02/09_16:12:04,YZ,59.79254999
,,,,,,practice_main,0,1,1,788,10,X,0,right,0.524293203,1,0,,,,,,,,,,,,,,,,,,,,,1,,,,,,,,,,,,,,,,,,,,,,,,,,,,,,,,,,,,,,,,,,,,,,45,157210,23,Female,1,2024/02/09_16:12:04,YZ,59.79254999
,,,,,,practice_main,0,1,1,788,11,V,0,right,0.512629748,1,0,,,,,,,,,,,,,,,,,,,,,1,,,,,,,,,,,,,,,,,,,,,,,,,,,,,,,,,,,,,,,,,,,,,,45,157210,23,Female,1,2024/02/09_16:12:04,YZ,59.79254999
,,,,,,practice_main,0,1,1,788,12,V,1,left,0.298863934,1,0,,,,,,,,,,,,,,,,,,,,,1,,,,,,,,,,,,,,,,,,,,,,,,,,,,,,,,,,,,,,,,,,,,,,45,157210,23,Female,1,2024/02/09_16:12:04,YZ,59.79254999
,,,,,,practice_main,0,1,1,788,13,C,0,right,0.547451665,1,0,,,,,,,,,,,,,,,,,,,,,1,,,,,,,,,,,,,,,,,,,,,,,,,,,,,,,,,,,,,,,,,,,,,,45,157210,23,Female,1,2024/02/09_16:12:04,YZ,59.79254999
,,,,,,practice_main,0,1,1,788,,,,,,,,0.944444444,1,0.222222222,0.75,0.076923077,0.700854701,0.856064898,4,2,0,1,1,6,10,4,9,0,,,,1,,,,,,,,,,,,,,,,,,,,,,,,,,,,,,,,,,,,,,,,,,,,,,45,157210,23,Female,1,2024/02/09_16:12:04,YZ,59.79254999
,,,,,240209_164656,PRACTICE,0,1,1,788,,,,,,,,,,,,,,,,,,,,,,,,,,,,1,34,2,1,cue1.png,easy,A,17,1.051578675,0,989.9985932,991.0713846,,,,,,,,,,,,,,,,,,,,,,,,,,,,,,,,,,,45,157210,23,Female,1,2024/02/09_16:12:04,YZ,59.79254999
,,,,,,practice_main,0,2,3,788,1,C,0,right,0.933396786,1,0,,,,,,,,,,,,,,,,,,,,,1,,,,,,,,,,,,,,,,,,,,,,,,,,,,,,,,,,,,,,,,,,,,,,45,157210,23,Female,1,2024/02/09_16:12:04,YZ,59.79254999
,,,,,,practice_main,0,2,3,788,2,J,0,right,0.417999716,1,0,,,,,,,,,,,,,,,,,,,,,1,,,,,,,,,,,,,,,,,,,,,,,,,,,,,,,,,,,,,,,,,,,,,,45,157210,23,Female,1,2024/02/09_16:12:04,YZ,59.79254999
,,,,,,practice_main,0,2,3,788,3,J,0,right,0.56586292,1,0,,,,,,,,,,,,,,,,,,,,,1,,,,,,,,,,,,,,,,,,,,,,,,,,,,,,,,,,,,,,,,,,,,,,45,157210,23,Female,1,2024/02/09_16:12:04,YZ,59.79254999
,,,,,,practice_main,0,2,3,788,4,S,0,right,0.825412339,1,0,,,,,,,,,,,,,,,,,,,,,1,,,,,,,,,,,,,,,,,,,,,,,,,,,,,,,,,,,,,,,,,,,,,,45,157210,23,Female,1,2024/02/09_16:12:04,YZ,59.79254999
,,,,,,practice_main,0,2,3,788,5,Q,0,right,1.244946419,1,0,,,,,,,,,,,,,,,,,,,,,1,,,,,,,,,,,,,,,,,,,,,,,,,,,,,,,,,,,,,,,,,,,,,,45,157210,23,Female,1,2024/02/09_16:12:04,YZ,59.79254999
,,,,,,practice_main,0,2,3,788,6,V,0,right,0.891796712,1,0,,,,,,,,,,,,,,,,,,,,,1,,,,,,,,,,,,,,,,,,,,,,,,,,,,,,,,,,,,,,,,,,,,,,45,157210,23,Female,1,2024/02/09_16:12:04,YZ,59.79254999
,,,,,,practice_main,0,2,3,788,7,S,1,left,0.882410217,1,0,,,,,,,,,,,,,,,,,,,,,1,,,,,,,,,,,,,,,,,,,,,,,,,,,,,,,,,,,,,,,,,,,,,,45,157210,23,Female,1,2024/02/09_16:12:04,YZ,59.79254999
,,,,,,practice_main,0,2,3,788,8,Q,1,left,1.530895888,1,0,,,,,,,,,,,,,,,,,,,,,1,,,,,,,,,,,,,,,,,,,,,,,,,,,,,,,,,,,,,,,,,,,,,,45,157210,23,Female,1,2024/02/09_16:12:04,YZ,59.79254999
,,,,,,practice_main,0,2,3,788,9,N,0,right,0.760247295,1,0,,,,,,,,,,,,,,,,,,,,,1,,,,,,,,,,,,,,,,,,,,,,,,,,,,,,,,,,,,,,,,,,,,,,45,157210,23,Female,1,2024/02/09_16:12:04,YZ,59.79254999
,,,,,,practice_main,0,2,3,788,10,V,0,right,1.161053183,1,0,,,,,,,,,,,,,,,,,,,,,1,,,,,,,,,,,,,,,,,,,,,,,,,,,,,,,,,,,,,,,,,,,,,,45,157210,23,Female,1,2024/02/09_16:12:04,YZ,59.79254999
,,,,,,practice_main,0,2,3,788,11,N,0,right,1.413831758,1,0,,,,,,,,,,,,,,,,,,,,,1,,,,,,,,,,,,,,,,,,,,,,,,,,,,,,,,,,,,,,,,,,,,,,45,157210,23,Female,1,2024/02/09_16:12:04,YZ,59.79254999
,,,,,,practice_main,0,2,3,788,12,N,1,left,0.695409668,1,0,,,,,,,,,,,,,,,,,,,,,1,,,,,,,,,,,,,,,,,,,,,,,,,,,,,,,,,,,,,,,,,,,,,,45,157210,23,Female,1,2024/02/09_16:12:04,YZ,59.79254999
,,,,,,practice_main,0,2,3,788,13,V,1,left,1.028692394,1,0,,,,,,,,,,,,,,,,,,,,,1,,,,,,,,,,,,,,,,,,,,,,,,,,,,,,,,,,,,,,,,,,,,,,45,157210,23,Female,1,2024/02/09_16:12:04,YZ,59.79254999
,,,,,,practice_main,0,2,3,788,,,,,,,,1,1,0,1,0,1,0.950150407,4,0,0,0,0,9,13,4,9,0,,,,1,,,,,,,,,,,,,,,,,,,,,,,,,,,,,,,,,,,,,,,,,,,,,,45,157210,23,Female,1,2024/02/09_16:12:04,YZ,59.79254999
,,,,,240209_164725,PRACTICE,0,2,3,788,,,,,,,,,,,,,,,,,,,,,,,,,,,,1,3,3,2,cue2.png,hard,A,9,0.949708405,0,1019.420998,1020.407394,,,,,,,,,,,,,,,,,,,,,,,,,,,,,,,,,,,45,157210,23,Female,1,2024/02/09_16:12:04,YZ,59.79254999
,,,,,,practice_main,0,3,1,788,1,Q,0,right,0.744533443,1,0,,,,,,,,,,,,,,,,,,,,,1,,,,,,,,,,,,,,,,,,,,,,,,,,,,,,,,,,,,,,,,,,,,,,45,157210,23,Female,1,2024/02/09_16:12:04,YZ,59.79254999
,,,,,,practice_main,0,3,1,788,2,C,0,right,1.347307022,1,0,,,,,,,,,,,,,,,,,,,,,1,,,,,,,,,,,,,,,,,,,,,,,,,,,,,,,,,,,,,,,,,,,,,,45,157210,23,Female,1,2024/02/09_16:12:04,YZ,59.79254999
,,,,,,practice_main,0,3,1,788,3,N,0,right,0.524374781,1,0,,,,,,,,,,,,,,,,,,,,,1,,,,,,,,,,,,,,,,,,,,,,,,,,,,,,,,,,,,,,,,,,,,,,45,157210,23,Female,1,2024/02/09_16:12:04,YZ,59.79254999
,,,,,,practice_main,0,3,1,788,4,N,1,left,0.360974943,1,0,,,,,,,,,,,,,,,,,,,,,1,,,,,,,,,,,,,,,,,,,,,,,,,,,,,,,,,,,,,,,,,,,,,,45,157210,23,Female,1,2024/02/09_16:12:04,YZ,59.79254999
,,,,,,practice_main,0,3,1,788,5,V,0,right,0.645267087,1,0,,,,,,,,,,,,,,,,,,,,,1,,,,,,,,,,,,,,,,,,,,,,,,,,,,,,,,,,,,,,,,,,,,,,45,157210,23,Female,1,2024/02/09_16:12:04,YZ,59.79254999
,,,,,,practice_main,0,3,1,788,6,N,0,left,0.712308843,0,0,,,,,,,,,,,,,,,,,,,,,1,,,,,,,,,,,,,,,,,,,,,,,,,,,,,,,,,,,,,,,,,,,,,,45,157210,23,Female,1,2024/02/09_16:12:04,YZ,59.79254999
,,,,,,practice_main,0,3,1,788,7,N,1,left,0.857370047,1,0,,,,,,,,,,,,,,,,,,,,,1,,,,,,,,,,,,,,,,,,,,,,,,,,,,,,,,,,,,,,,,,,,,,,45,157210,23,Female,1,2024/02/09_16:12:04,YZ,59.79254999
,,,,,,practice_main,0,3,1,788,8,S,0,right,0.683207145,1,0,,,,,,,,,,,,,,,,,,,,,1,,,,,,,,,,,,,,,,,,,,,,,,,,,,,,,,,,,,,,,,,,,,,,45,157210,23,Female,1,2024/02/09_16:12:04,YZ,59.79254999
,,,,,,practice_main,0,3,1,788,9,X,0,right,0.732163207,1,0,,,,,,,,,,,,,,,,,,,,,1,,,,,,,,,,,,,,,,,,,,,,,,,,,,,,,,,,,,,,,,,,,,,,45,157210,23,Female,1,2024/02/09_16:12:04,YZ,59.79254999
,,,,,,practice_main,0,3,1,788,10,X,1,left,0.759062626,1,0,,,,,,,,,,,,,,,,,,,,,1,,,,,,,,,,,,,,,,,,,,,,,,,,,,,,,,,,,,,,,,,,,,,,45,157210,23,Female,1,2024/02/09_16:12:04,YZ,59.79254999
,,,,,,practice_main,0,3,1,788,11,F,0,right,0.640838813,1,0,,,,,,,,,,,,,,,,,,,,,1,,,,,,,,,,,,,,,,,,,,,,,,,,,,,,,,,,,,,,,,,,,,,,45,157210,23,Female,1,2024/02/09_16:12:04,YZ,59.79254999
,,,,,,practice_main,0,3,1,788,12,J,0,right,0.670175168,1,0,,,,,,,,,,,,,,,,,,,,,1,,,,,,,,,,,,,,,,,,,,,,,,,,,,,,,,,,,,,,,,,,,,,,45,157210,23,Female,1,2024/02/09_16:12:04,YZ,59.79254999
,,,,,,practice_main,0,3,1,788,13,J,1,left,0.399543476,1,0,,,,,,,,,,,,,,,,,,,,,1,,,,,,,,,,,,,,,,,,,,,,,,,,,,,,,,,,,,,,,,,,,,,,45,157210,23,Female,1,2024/02/09_16:12:04,YZ,59.79254999
,,,,,,practice_main,0,3,1,788,,,,,,,,0.972222222,1,0.111111111,0.888888889,0,0.888888889,0.698240508,4,1,0,0,0,8,12,4,9,0,,,,1,,,,,,,,,,,,,,,,,,,,,,,,,,,,,,,,,,,,,,,,,,,,,,45,157210,23,Female,1,2024/02/09_16:12:04,YZ,59.79254999
,,,,,240209_164752,PRACTICE,0,3,1,788,,,,,,,,,,,,,,,,,,,,,,,,,,,,1,29,4,3,cue1.png,easy,A,10,1.935231608,0,1048.858837,1050.831164,,,,,,,,,,,,,,,,,,,,,,,,,,,,,,,,,,,45,157210,23,Female,1,2024/02/09_16:12:04,YZ,59.79254999
1,./instructions/inst_prac_end/Slide56.png,right,48.72418314,1074.503279,1123.227462,,,,,,,,,,,,,,,,,,,,,,,,,,,,,,,,,1,,,,,,,,,,,,,,,,,,,,,,,,,,,,,,,,,,,,,,,,,,,,,,45,157210,23,Female,1,2024/02/09_16:12:04,YZ,59.79254999
1,./instructions/inst_test/Slide57.png,right,129.350242,1123.269142,1252.619384,,,,,,,,,,,,,,,,,,,,,,,,,,,,,,,,,1,,,,,,,,,,,,,,,,,,,,,,,,,,,,,,,,,,,,,,,,,,,,,,45,157210,23,Female,1,2024/02/09_16:12:04,YZ,59.79254999
,,,,,,test,1,1,1,788,1,S,0,right,0.772259152,1,0,,,,,,,,,,,,,,,,,,,,,1,,,,,,,,,,,,,,,,,,,,,,,,,,,,,,,,,,,,,,,,,,,,,,45,157210,23,Female,1,2024/02/09_16:12:04,YZ,59.79254999
,,,,,,test,1,1,1,788,2,X,0,right,0.709401944,1,0,,,,,,,,,,,,,,,,,,,,,1,,,,,,,,,,,,,,,,,,,,,,,,,,,,,,,,,,,,,,,,,,,,,,45,157210,23,Female,1,2024/02/09_16:12:04,YZ,59.79254999
,,,,,,test,1,1,1,788,3,X,1,left,0.563602594,1,0,,,,,,,,,,,,,,,,,,,,,1,,,,,,,,,,,,,,,,,,,,,,,,,,,,,,,,,,,,,,,,,,,,,,45,157210,23,Female,1,2024/02/09_16:12:04,YZ,59.79254999
,,,,,,test,1,1,1,788,4,S,0,right,0.624219,1,0,,,,,,,,,,,,,,,,,,,,,1,,,,,,,,,,,,,,,,,,,,,,,,,,,,,,,,,,,,,,,,,,,,,,45,157210,23,Female,1,2024/02/09_16:12:04,YZ,59.79254999
,,,,,,test,1,1,1,788,5,J,0,right,0.615885824,1,0,,,,,,,,,,,,,,,,,,,,,1,,,,,,,,,,,,,,,,,,,,,,,,,,,,,,,,,,,,,,,,,,,,,,45,157210,23,Female,1,2024/02/09_16:12:04,YZ,59.79254999
,,,,,,test,1,1,1,788,6,X,0,right,0.759590122,1,0,,,,,,,,,,,,,,,,,,,,,1,,,,,,,,,,,,,,,,,,,,,,,,,,,,,,,,,,,,,,,,,,,,,,45,157210,23,Female,1,2024/02/09_16:12:04,YZ,59.79254999
,,,,,,test,1,1,1,788,7,X,1,left,0.460466507,1,0,,,,,,,,,,,,,,,,,,,,,1,,,,,,,,,,,,,,,,,,,,,,,,,,,,,,,,,,,,,,,,,,,,,,45,157210,23,Female,1,2024/02/09_16:12:04,YZ,59.79254999
,,,,,,test,1,1,1,788,8,F,0,right,0.497447277,1,0,,,,,,,,,,,,,,,,,,,,,1,,,,,,,,,,,,,,,,,,,,,,,,,,,,,,,,,,,,,,,,,,,,,,45,157210,23,Female,1,2024/02/09_16:12:04,YZ,59.79254999
,,,,,,test,1,1,1,788,9,F,1,left,0.73502597,1,0,,,,,,,,,,,,,,,,,,,,,1,,,,,,,,,,,,,,,,,,,,,,,,,,,,,,,,,,,,,,,,,,,,,,45,157210,23,Female,1,2024/02/09_16:12:04,YZ,59.79254999
,,,,,,test,1,1,1,788,10,N,0,right,0.444317776,1,0,,,,,,,,,,,,,,,,,,,,,1,,,,,,,,,,,,,,,,,,,,,,,,,,,,,,,,,,,,,,,,,,,,,,45,157210,23,Female,1,2024/02/09_16:12:04,YZ,59.79254999
,,,,,,test,1,1,1,788,11,V,0,right,0.466305781,1,0,,,,,,,,,,,,,,,,,,,,,1,,,,,,,,,,,,,,,,,,,,,,,,,,,,,,,,,,,,,,,,,,,,,,45,157210,23,Female,1,2024/02/09_16:12:04,YZ,59.79254999
,,,,,,test,1,1,1,788,12,V,1,left,0.356933119,1,0,,,,,,,,,,,,,,,,,,,,,1,,,,,,,,,,,,,,,,,,,,,,,,,,,,,,,,,,,,,,,,,,,,,,45,157210,23,Female,1,2024/02/09_16:12:04,YZ,59.79254999
,,,,,,test,1,1,1,788,13,X,0,right,0.545081643,1,0,,,,,,,,,,,,,,,,,,,,,1,,,,,,,,,,,,,,,,,,,,,,,,,,,,,,,,,,,,,,,,,,,,,,45,157210,23,Female,1,2024/02/09_16:12:04,YZ,59.79254999
,,,,,,Test,1,1,1,788,,,,,,,,1,1,0,1,0,1,0.580810516,4,0,0,0,0,9,13,4,9,0,,,,1,,,,,,,,,,,,,,,,,,,,,,,,,,,,,,,,,,,,,,,,,,,,,,45,157210,23,Female,1,2024/02/09_16:12:04,YZ,59.79254999
,,,,,240209_165119,TEST,1,1,1,788,,,,,,,,,,,,,,,,,,,,,,,,,,,,1,1,1,1,cue1.png,easy,A,20,1.204815515,0,1257.680069,1258.900548,,,,,,,,,,,,,,,,,,,,,,,,,,,,,,,,,,,45,157210,23,Female,1,2024/02/09_16:12:04,YZ,59.79254999
,,,,,,test,1,2,3,788,1,F,0,right,1.765120053,1,0,,,,,,,,,,,,,,,,,,,,,1,,,,,,,,,,,,,,,,,,,,,,,,,,,,,,,,,,,,,,,,,,,,,,45,157210,23,Female,1,2024/02/09_16:12:04,YZ,59.79254999
,,,,,,test,1,2,3,788,2,S,0,right,0.894568278,1,0,,,,,,,,,,,,,,,,,,,,,1,,,,,,,,,,,,,,,,,,,,,,,,,,,,,,,,,,,,,,,,,,,,,,45,157210,23,Female,1,2024/02/09_16:12:04,YZ,59.79254999
,,,,,,test,1,2,3,788,3,J,0,right,0.607778568,1,0,,,,,,,,,,,,,,,,,,,,,1,,,,,,,,,,,,,,,,,,,,,,,,,,,,,,,,,,,,,,,,,,,,,,45,157210,23,Female,1,2024/02/09_16:12:04,YZ,59.79254999
,,,,,,test,1,2,3,788,4,C,0,right,0.950441704,1,0,,,,,,,,,,,,,,,,,,,,,1,,,,,,,,,,,,,,,,,,,,,,,,,,,,,,,,,,,,,,,,,,,,,,45,157210,23,Female,1,2024/02/09_16:12:04,YZ,59.79254999
,,,,,,test,1,2,3,788,5,S,1,left,0.710400912,1,0,,,,,,,,,,,,,,,,,,,,,1,,,,,,,,,,,,,,,,,,,,,,,,,,,,,,,,,,,,,,,,,,,,,,45,157210,23,Female,1,2024/02/09_16:12:04,YZ,59.79254999
,,,,,,test,1,2,3,788,6,N,0,right,0.931243503,1,0,,,,,,,,,,,,,,,,,,,,,1,,,,,,,,,,,,,,,,,,,,,,,,,,,,,,,,,,,,,,,,,,,,,,45,157210,23,Female,1,2024/02/09_16:12:04,YZ,59.79254999
,,,,,,test,1,2,3,788,7,C,1,left,1.929772712,1,0,,,,,,,,,,,,,,,,,,,,,1,,,,,,,,,,,,,,,,,,,,,,,,,,,,,,,,,,,,,,,,,,,,,,45,157210,23,Female,1,2024/02/09_16:12:04,YZ,59.79254999
,,,,,,test,1,2,3,788,8,S,1,left,1.63097987,1,0,,,,,,,,,,,,,,,,,,,,,1,,,,,,,,,,,,,,,,,,,,,,,,,,,,,,,,,,,,,,,,,,,,,,45,157210,23,Female,1,2024/02/09_16:12:04,YZ,59.79254999
,,,,,,test,1,2,3,788,9,V,0,right,0.541013537,1,0,,,,,,,,,,,,,,,,,,,,,1,,,,,,,,,,,,,,,,,,,,,,,,,,,,,,,,,,,,,,,,,,,,,,45,157210,23,Female,1,2024/02/09_16:12:04,YZ,59.79254999
,,,,,,test,1,2,3,788,10,C,1,right,1.485301472,0,0,,,,,,,,,,,,,,,,,,,,,1,,,,,,,,,,,,,,,,,,,,,,,,,,,,,,,,,,,,,,,,,,,,,,45,157210,23,Female,1,2024/02/09_16:12:04,YZ,59.79254999
,,,,,,test,1,2,3,788,11,J,0,left,1.313849942,0,0,,,,,,,,,,,,,,,,,,,,,1,,,,,,,,,,,,,,,,,,,,,,,,,,,,,,,,,,,,,,,,,,,,,,45,157210,23,Female,1,2024/02/09_16:12:04,YZ,59.79254999
,,,,,,test,1,2,3,788,12,Q,0,right,0.792245798,1,0,,,,,,,,,,,,,,,,,,,,,1,,,,,,,,,,,,,,,,,,,,,,,,,,,,,,,,,,,,,,,,,,,,,,45,157210,23,Female,1,2024/02/09_16:12:04,YZ,59.79254999
,,,,,,test,1,2,3,788,13,Q,0,right,1.045442139,1,0,,,,,,,,,,,,,,,,,,,,,1,,,,,,,,,,,,,,,,,,,,,,,,,,,,,,,,,,,,,,,,,,,,,,45,157210,23,Female,1,2024/02/09_16:12:04,YZ,59.79254999
,,,,,,Test,1,2,3,788,,,,,,,,0.881944444,0.75,0.111111111,0.888888889,0,0.888888889,1.122935268,3,1,0,0,0,8,11,4,9,0,,,,1,,,,,,,,,,,,,,,,,,,,,,,,,,,,,,,,,,,,,,,,,,,,,,45,157210,23,Female,1,2024/02/09_16:12:04,YZ,59.79254999
,,,,,240209_165151,TEST,1,2,3,788,,,,,,,,,,,,,,,,,,,,,,,,,,,,1,2,2,2,cue2.png,hard,A,40,1.718712976,0,1282.509944,1284.251745,,,,,,,,,,,,,,,,,,,,,,,,,,,,,,,,,,,45,157210,23,Female,1,2024/02/09_16:12:04,YZ,59.79254999
,,,,,,test,1,3,1,788,1,X,0,right,0.76134967,1,0,,,,,,,,,,,,,,,,,,,,,1,,,,,,,,,,,,,,,,,,,,,,,,,,,,,,,,,,,,,,,,,,,,,,45,157210,23,Female,1,2024/02/09_16:12:04,YZ,59.79254999
,,,,,,test,1,3,1,788,2,X,1,left,1.064903921,1,0,,,,,,,,,,,,,,,,,,,,,1,,,,,,,,,,,,,,,,,,,,,,,,,,,,,,,,,,,,,,,,,,,,,,45,157210,23,Female,1,2024/02/09_16:12:04,YZ,59.79254999
,,,,,,test,1,3,1,788,3,V,0,right,0.678522415,1,0,,,,,,,,,,,,,,,,,,,,,1,,,,,,,,,,,,,,,,,,,,,,,,,,,,,,,,,,,,,,,,,,,,,,45,157210,23,Female,1,2024/02/09_16:12:04,YZ,59.79254999
,,,,,,test,1,3,1,788,4,J,0,right,0.565455022,1,0,,,,,,,,,,,,,,,,,,,,,1,,,,,,,,,,,,,,,,,,,,,,,,,,,,,,,,,,,,,,,,,,,,,,45,157210,23,Female,1,2024/02/09_16:12:04,YZ,59.79254999
,,,,,,test,1,3,1,788,5,C,0,right,0.594388236,1,0,,,,,,,,,,,,,,,,,,,,,1,,,,,,,,,,,,,,,,,,,,,,,,,,,,,,,,,,,,,,,,,,,,,,45,157210,23,Female,1,2024/02/09_16:12:04,YZ,59.79254999
,,,,,,test,1,3,1,788,6,J,0,right,0.811076324,1,0,,,,,,,,,,,,,,,,,,,,,1,,,,,,,,,,,,,,,,,,,,,,,,,,,,,,,,,,,,,,,,,,,,,,45,157210,23,Female,1,2024/02/09_16:12:04,YZ,59.79254999
,,,,,,test,1,3,1,788,7,J,1,left,0.610454402,1,0,,,,,,,,,,,,,,,,,,,,,1,,,,,,,,,,,,,,,,,,,,,,,,,,,,,,,,,,,,,,,,,,,,,,45,157210,23,Female,1,2024/02/09_16:12:04,YZ,59.79254999
,,,,,,test,1,3,1,788,8,F,0,right,0.573508085,1,0,,,,,,,,,,,,,,,,,,,,,1,,,,,,,,,,,,,,,,,,,,,,,,,,,,,,,,,,,,,,,,,,,,,,45,157210,23,Female,1,2024/02/09_16:12:04,YZ,59.79254999
,,,,,,test,1,3,1,788,9,F,1,left,0.465346496,1,0,,,,,,,,,,,,,,,,,,,,,1,,,,,,,,,,,,,,,,,,,,,,,,,,,,,,,,,,,,,,,,,,,,,,45,157210,23,Female,1,2024/02/09_16:12:04,YZ,59.79254999
,,,,,,test,1,3,1,788,10,Q,0,right,0.493832482,1,0,,,,,,,,,,,,,,,,,,,,,1,,,,,,,,,,,,,,,,,,,,,,,,,,,,,,,,,,,,,,,,,,,,,,45,157210,23,Female,1,2024/02/09_16:12:04,YZ,59.79254999
,,,,,,test,1,3,1,788,11,Q,1,left,0.44100932,1,0,,,,,,,,,,,,,,,,,,,,,1,,,,,,,,,,,,,,,,,,,,,,,,,,,,,,,,,,,,,,,,,,,,,,45,157210,23,Female,1,2024/02/09_16:12:04,YZ,59.79254999
,,,,,,test,1,3,1,788,12,J,0,right,0.490366885,1,0,,,,,,,,,,,,,,,,,,,,,1,,,,,,,,,,,,,,,,,,,,,,,,,,,,,,,,,,,,,,,,,,,,,,45,157210,23,Female,1,2024/02/09_16:12:04,YZ,59.79254999
,,,,,,test,1,3,1,788,13,C,0,right,0.557858112,1,0,,,,,,,,,,,,,,,,,,,,,1,,,,,,,,,,,,,,,,,,,,,,,,,,,,,,,,,,,,,,,,,,,,,,45,157210,23,Female,1,2024/02/09_16:12:04,YZ,59.79254999
,,,,,,Test,1,3,1,788,,,,,,,,1,1,0,1,0,1,0.623697798,4,0,0,0,0,9,13,4,9,0,,,,1,,,,,,,,,,,,,,,,,,,,,,,,,,,,,,,,,,,,,,,,,,,,,,45,157210,23,Female,1,2024/02/09_16:12:04,YZ,59.79254999
,,,,,240209_165217,TEST,1,3,1,788,,,,,,,,,,,,,,,,,,,,,,,,,,,,1,3,3,3,cue1.png,easy,A,21,1.851378085,0,1314.952175,1316.823418,,,,,,,,,,,,,,,,,,,,,,,,,,,,,,,,,,,45,157210,23,Female,1,2024/02/09_16:12:04,YZ,59.79254999
,,,,,,test,1,4,3,788,1,N,0,right,0.725091446,1,0,,,,,,,,,,,,,,,,,,,,,1,,,,,,,,,,,,,,,,,,,,,,,,,,,,,,,,,,,,,,,,,,,,,,45,157210,23,Female,1,2024/02/09_16:12:04,YZ,59.79254999
,,,,,,test,1,4,3,788,2,V,0,right,0.493988522,1,0,,,,,,,,,,,,,,,,,,,,,1,,,,,,,,,,,,,,,,,,,,,,,,,,,,,,,,,,,,,,,,,,,,,,45,157210,23,Female,1,2024/02/09_16:12:04,YZ,59.79254999
,,,,,,test,1,4,3,788,3,C,0,right,0.524390712,1,0,,,,,,,,,,,,,,,,,,,,,1,,,,,,,,,,,,,,,,,,,,,,,,,,,,,,,,,,,,,,,,,,,,,,45,157210,23,Female,1,2024/02/09_16:12:04,YZ,59.79254999
,,,,,,test,1,4,3,788,4,N,1,left,1.655747345,1,0,,,,,,,,,,,,,,,,,,,,,1,,,,,,,,,,,,,,,,,,,,,,,,,,,,,,,,,,,,,,,,,,,,,,45,157210,23,Female,1,2024/02/09_16:12:04,YZ,59.79254999
,,,,,,test,1,4,3,788,5,V,1,right,1.241023231,0,0,,,,,,,,,,,,,,,,,,,,,1,,,,,,,,,,,,,,,,,,,,,,,,,,,,,,,,,,,,,,,,,,,,,,45,157210,23,Female,1,2024/02/09_16:12:04,YZ,59.79254999
,,,,,,test,1,4,3,788,6,Q,0,right,0.953893478,1,0,,,,,,,,,,,,,,,,,,,,,1,,,,,,,,,,,,,,,,,,,,,,,,,,,,,,,,,,,,,,,,,,,,,,45,157210,23,Female,1,2024/02/09_16:12:04,YZ,59.79254999
,,,,,,test,1,4,3,788,7,X,0,right,0.763069286,1,0,,,,,,,,,,,,,,,,,,,,,1,,,,,,,,,,,,,,,,,,,,,,,,,,,,,,,,,,,,,,,,,,,,,,45,157210,23,Female,1,2024/02/09_16:12:04,YZ,59.79254999
,,,,,,test,1,4,3,788,8,F,0,right,1.507810064,1,0,,,,,,,,,,,,,,,,,,,,,1,,,,,,,,,,,,,,,,,,,,,,,,,,,,,,,,,,,,,,,,,,,,,,45,157210,23,Female,1,2024/02/09_16:12:04,YZ,59.79254999
,,,,,,test,1,4,3,788,9,J,0,right,1.187820398,1,0,,,,,,,,,,,,,,,,,,,,,1,,,,,,,,,,,,,,,,,,,,,,,,,,,,,,,,,,,,,,,,,,,,,,45,157210,23,Female,1,2024/02/09_16:12:04,YZ,59.79254999
,,,,,,test,1,4,3,788,10,X,1,right,1.414273153,0,0,,,,,,,,,,,,,,,,,,,,,1,,,,,,,,,,,,,,,,,,,,,,,,,,,,,,,,,,,,,,,,,,,,,,45,157210,23,Female,1,2024/02/09_16:12:04,YZ,59.79254999
,,,,,,test,1,4,3,788,11,F,1,left,0.547005937,1,0,,,,,,,,,,,,,,,,,,,,,1,,,,,,,,,,,,,,,,,,,,,,,,,,,,,,,,,,,,,,,,,,,,,,45,157210,23,Female,1,2024/02/09_16:12:04,YZ,59.79254999
,,,,,,test,1,4,3,788,12,C,0,right,0.845191579,1,0,,,,,,,,,,,,,,,,,,,,,1,,,,,,,,,,,,,,,,,,,,,,,,,,,,,,,,,,,,,,,,,,,,,,45,157210,23,Female,1,2024/02/09_16:12:04,YZ,59.79254999
,,,,,,test,1,4,3,788,13,J,0,left,1.532859597,0,0,,,,,,,,,,,,,,,,,,,,,1,,,,,,,,,,,,,,,,,,,,,,,,,,,,,,,,,,,,,,,,,,,,,,45,157210,23,Female,1,2024/02/09_16:12:04,YZ,59.79254999
,,,,,,Test,1,4,3,788,,,,,,,,0.791666667,0.5,0.111111111,0.888888889,0,0.888888889,1.030166519,2,1,0,0,0,8,10,4,9,0,,,,1,,,,,,,,,,,,,,,,,,,,,,,,,,,,,,,,,,,,,,,,,,,,,,45,157210,23,Female,1,2024/02/09_16:12:04,YZ,59.79254999
,,,,,240209_165248,TEST,1,4,3,788,,,,,,,,,,,,,,,,,,,,,,,,,,,,1,4,4,4,cue2.png,hard,A,35,1.401615606,0,1340.986115,1342.409484,,,,,,,,,,,,,,,,,,,,,,,,,,,,,,,,,,,45,157210,23,Female,1,2024/02/09_16:12:04,YZ,59.79254999
,,,,,,test,1,5,3,788,1,N,0,right,0.469071624,1,0,,,,,,,,,,,,,,,,,,,,,1,,,,,,,,,,,,,,,,,,,,,,,,,,,,,,,,,,,,,,,,,,,,,,45,157210,23,Female,1,2024/02/09_16:12:04,YZ,59.79254999
,,,,,,test,1,5,3,788,2,C,0,right,0.779387249,1,0,,,,,,,,,,,,,,,,,,,,,1,,,,,,,,,,,,,,,,,,,,,,,,,,,,,,,,,,,,,,,,,,,,,,45,157210,23,Female,1,2024/02/09_16:12:04,YZ,59.79254999
,,,,,,test,1,5,3,788,3,Q,0,right,0.691911251,1,0,,,,,,,,,,,,,,,,,,,,,1,,,,,,,,,,,,,,,,,,,,,,,,,,,,,,,,,,,,,,,,,,,,,,45,157210,23,Female,1,2024/02/09_16:12:04,YZ,59.79254999
,,,,,,test,1,5,3,788,4,S,0,right,0.96667219,1,0,,,,,,,,,,,,,,,,,,,,,1,,,,,,,,,,,,,,,,,,,,,,,,,,,,,,,,,,,,,,,,,,,,,,45,157210,23,Female,1,2024/02/09_16:12:04,YZ,59.79254999
,,,,,,test,1,5,3,788,5,C,1,left,1.448023667,1,0,,,,,,,,,,,,,,,,,,,,,1,,,,,,,,,,,,,,,,,,,,,,,,,,,,,,,,,,,,,,,,,,,,,,45,157210,23,Female,1,2024/02/09_16:12:04,YZ,59.79254999
,,,,,,test,1,5,3,788,6,C,0,right,1.728453693,1,0,,,,,,,,,,,,,,,,,,,,,1,,,,,,,,,,,,,,,,,,,,,,,,,,,,,,,,,,,,,,,,,,,,,,45,157210,23,Female,1,2024/02/09_16:12:04,YZ,59.79254999
,,,,,,test,1,5,3,788,7,V,0,right,1.182202238,1,0,,,,,,,,,,,,,,,,,,,,,1,,,,,,,,,,,,,,,,,,,,,,,,,,,,,,,,,,,,,,,,,,,,,,45,157210,23,Female,1,2024/02/09_16:12:04,YZ,59.79254999
,,,,,,test,1,5,3,788,8,N,0,left,1.693528991,0,0,,,,,,,,,,,,,,,,,,,,,1,,,,,,,,,,,,,,,,,,,,,,,,,,,,,,,,,,,,,,,,,,,,,,45,157210,23,Female,1,2024/02/09_16:12:04,YZ,59.79254999
,,,,,,test,1,5,3,788,9,C,1,left,1.981005004,1,0,,,,,,,,,,,,,,,,,,,,,1,,,,,,,,,,,,,,,,,,,,,,,,,,,,,,,,,,,,,,,,,,,,,,45,157210,23,Female,1,2024/02/09_16:12:04,YZ,59.79254999
,,,,,,test,1,5,3,788,10,V,1,right,1.381142728,0,0,,,,,,,,,,,,,,,,,,,,,1,,,,,,,,,,,,,,,,,,,,,,,,,,,,,,,,,,,,,,,,,,,,,,45,157210,23,Female,1,2024/02/09_16:12:04,YZ,59.79254999
,,,,,,test,1,5,3,788,11,F,0,right,1.71079547,1,0,,,,,,,,,,,,,,,,,,,,,1,,,,,,,,,,,,,,,,,,,,,,,,,,,,,,,,,,,,,,,,,,,,,,45,157210,23,Female,1,2024/02/09_16:12:04,YZ,59.79254999
,,,,,,test,1,5,3,788,12,Q,0,right,nan,0,1,,,,,,,,,,,,,,,,,,,,,1,,,,,,,,,,,,,,,,,,,,,,,,,,,,,,,,,,,,,,,,,,,,,,45,157210,23,Female,1,2024/02/09_16:12:04,YZ,59.79254999
