Instruction,Stimulus,Key,RT,START,END,Phase,Block,TrialN,NbackLevel,ISI,LetterN,Letter,Letter_isSame,Letter_Resp,Letter_RT,Letter_Accuracy,Letter_Timeout,Trial_A_measure,Trial_HR,Trial_FAR,Trial_CDR,Trial_MSR,Trial_ACC,Trial_RT,Trial_HitsCount,Trial_FAsCount,Trial_SameNoRespCount,Trial_DiffNoRespCount,Trial_NoRespCount,Trial_CDsCount,Trial_CorrectRespCount,Trial_SameLetterCount,Trial_DiffLetterCount,Trial_InvalidLetterCount,TrialCountCali,CaliEnd_A_measure,ISI_calibrated,Run,TrialIndex,TrialNumber_total,TrialNumber_valid,CueLearning,TrialDemandLearning,CueMapping,OnlineRating,OnlineRatingRT,OnlineRatingTimeOut,CueSTART,RatingSTART,OfflineRatingTimePoint,OfflineRatingQuesIndex,CueFigure,TrialDemand,OfflineRating,OfflineRatingRT,CueStart,OfflineRatingStart,PhaseType,CueLeft,CueDemandLeft,CueRight,CueDemandRight,Choice,ChoiceDemand,TaskDemand,ChoiceRT,ChoiceTimeOut,ChoiceSTART,CueCheck,CueDemandCheck,CorrectAnswer,Answer,AnswerDemand,AnswerRT,AnswerACC,AnswerTimeOut,CheckSTART,DemandRatingQuesIndex,QuesTLX,DemandLevel,DemandRating,DemandRatingRT,QuesStart,PID,SONA,Age,Gender,Run,TIME,EXPERIMENTER,frameRate,
-1,./instructions/inst_begin/Slide2.png,left,20.86420579699916,0.10877803899347782,20.972983835992636,,,,,,,,,,,,,,,,,,,,,,,,,,,,,,,,,1,,,,,,,,,,,,,,,,,,,,,,,,,,,,,,,,,,,,,,,,,,,,,,122,159565,24,Male,1,2024/03/25_16:13:44,YZ,None,
0,./instructions/inst_begin/Slide4.png,right,15.729582654021215,21.00306305597769,36.732645709998906,,,,,,,,,,,,,,,,,,,,,,,,,,,,,,,,,1,,,,,,,,,,,,,,,,,,,,,,,,,,,,,,,,,,,,,,,,,,,,,,122,159565,24,Male,1,2024/03/25_16:13:44,YZ,None,
1,./instructions/inst_begin/Slide2.png,right,7.946854352019727,36.76199587297742,44.70885022499715,,,,,,,,,,,,,,,,,,,,,,,,,,,,,,,,,1,,,,,,,,,,,,,,,,,,,,,,,,,,,,,,,,,,,,,,,,,,,,,,122,159565,24,Male,1,2024/03/25_16:13:44,YZ,None,
2,./instructions/inst_begin/Slide3.png,right,14.906930444994941,44.73768624098739,59.64461668598233,,,,,,,,,,,,,,,,,,,,,,,,,,,,,,,,,1,,,,,,,,,,,,,,,,,,,,,,,,,,,,,,,,,,,,,,,,,,,,,,122,159565,24,Male,1,2024/03/25_16:13:44,YZ,None,
3,./instructions/inst_begin/Slide4.png,right,9.277843596006278,59.670798227976775,68.94864182398305,,,,,,,,,,,,,,,,,,,,,,,,,,,,,,,,,1,,,,,,,,,,,,,,,,,,,,,,,,,,,,,,,,,,,,,,,,,,,,,,122,159565,24,Male,1,2024/03/25_16:13:44,YZ,None,
1,./instructions/inst_prac_2/Slide6.png,right,14.25772534799762,68.97883392299991,83.23655927099753,,,,,,,,,,,,,,,,,,,,,,,,,,,,,,,,,1,,,,,,,,,,,,,,,,,,,,,,,,,,,,,,,,,,,,,,,,,,,,,,122,159565,24,Male,1,2024/03/25_16:13:44,YZ,None,
2,./instructions/inst_prac_2/Slide7.png,right,21.170046990999253,83.26650232099928,104.43654931199853,,,,,,,,,,,,,,,,,,,,,,,,,,,,,,,,,1,,,,,,,,,,,,,,,,,,,,,,,,,,,,,,,,,,,,,,,,,,,,,,122,159565,24,Male,1,2024/03/25_16:13:44,YZ,None,
3,./instructions/inst_prac_2/Slide8.png,right,23.659011234005447,104.46560406597564,128.1246152999811,,,,,,,,,,,,,,,,,,,,,,,,,,,,,,,,,1,,,,,,,,,,,,,,,,,,,,,,,,,,,,,,,,,,,,,,,,,,,,,,122,159565,24,Male,1,2024/03/25_16:13:44,YZ,None,
4,./instructions/inst_prac_2/Slide9.png,right,7.595839200017508,128.15273845597403,135.74857765599154,,,,,,,,,,,,,,,,,,,,,,,,,,,,,,,,,1,,,,,,,,,,,,,,,,,,,,,,,,,,,,,,,,,,,,,,,,,,,,,,122,159565,24,Male,1,2024/03/25_16:13:44,YZ,None,
5,./instructions/inst_prac_2/Slide10.png,right,1.8776058580260724,135.775157749973,137.65276360799908,,,,,,,,,,,,,,,,,,,,,,,,,,,,,,,,,1,,,,,,,,,,,,,,,,,,,,,,,,,,,,,,,,,,,,,,,,,,,,,,122,159565,24,Male,1,2024/03/25_16:13:44,YZ,None,
6,./instructions/inst_prac_2/Slide11.png,right,2.0911090099834837,137.6815590329934,139.77266804297687,,,,,,,,,,,,,,,,,,,,,,,,,,,,,,,,,1,,,,,,,,,,,,,,,,,,,,,,,,,,,,,,,,,,,,,,,,,,,,,,122,159565,24,Male,1,2024/03/25_16:13:44,YZ,None,
7,./instructions/inst_prac_2/Slide12.png,right,1.5298713050142396,139.80292581598042,141.33279712099466,,,,,,,,,,,,,,,,,,,,,,,,,,,,,,,,,1,,,,,,,,,,,,,,,,,,,,,,,,,,,,,,,,,,,,,,,,,,,,,,122,159565,24,Male,1,2024/03/25_16:13:44,YZ,None,
8,./instructions/inst_prac_2/Slide13.png,right,1.3866432110080495,141.3620035959757,142.74864680698374,,,,,,,,,,,,,,,,,,,,,,,,,,,,,,,,,1,,,,,,,,,,,,,,,,,,,,,,,,,,,,,,,,,,,,,,,,,,,,,,122,159565,24,Male,1,2024/03/25_16:13:44,YZ,None,
9,./instructions/inst_prac_2/Slide14.png,right,27.546915059996536,142.7777208609914,170.32463592098793,,,,,,,,,,,,,,,,,,,,,,,,,,,,,,,,,1,,,,,,,,,,,,,,,,,,,,,,,,,,,,,,,,,,,,,,,,,,,,,,122,159565,24,Male,1,2024/03/25_16:13:44,YZ,None,
10,./instructions/inst_prac_2/Slide15.png,right,23.80566776698106,170.3511366909952,194.15680445797625,,,,,,,,,,,,,,,,,,,,,,,,,,,,,,,,,1,,,,,,,,,,,,,,,,,,,,,,,,,,,,,,,,,,,,,,,,,,,,,,122,159565,24,Male,1,2024/03/25_16:13:44,YZ,None,
,,,,,,practice,0,34,2,2583,1,J,0,right,0.7460330670000985,1,0,,,,,,,,,,,,,,,,,,,,,1,,,,,,,,,,,,,,,,,,,,,,,,,,,,,,,,,,,,,,,,,,,,,,122,159565,24,Male,1,2024/03/25_16:13:44,YZ,None,
,,,,,,practice,0,34,2,2583,2,C,0,right,0.671204962010961,1,0,,,,,,,,,,,,,,,,,,,,,1,,,,,,,,,,,,,,,,,,,,,,,,,,,,,,,,,,,,,,,,,,,,,,122,159565,24,Male,1,2024/03/25_16:13:44,YZ,None,
,,,,,,practice,0,34,2,2583,3,J,1,left,0.47842571401270106,1,0,,,,,,,,,,,,,,,,,,,,,1,,,,,,,,,,,,,,,,,,,,,,,,,,,,,,,,,,,,,,,,,,,,,,122,159565,24,Male,1,2024/03/25_16:13:44,YZ,None,
,,,,,,practice,0,34,2,2583,4,V,0,right,0.8757282510050572,1,0,,,,,,,,,,,,,,,,,,,,,1,,,,,,,,,,,,,,,,,,,,,,,,,,,,,,,,,,,,,,,,,,,,,,122,159565,24,Male,1,2024/03/25_16:13:44,YZ,None,
,,,,,,practice,0,34,2,2583,5,Q,0,right,0.5815918990119826,1,0,,,,,,,,,,,,,,,,,,,,,1,,,,,,,,,,,,,,,,,,,,,,,,,,,,,,,,,,,,,,,,,,,,,,122,159565,24,Male,1,2024/03/25_16:13:44,YZ,None,
,,,,,,practice,0,34,2,2583,6,V,1,left,0.7101688499969896,1,0,,,,,,,,,,,,,,,,,,,,,1,,,,,,,,,,,,,,,,,,,,,,,,,,,,,,,,,,,,,,,,,,,,,,122,159565,24,Male,1,2024/03/25_16:13:44,YZ,None,
,,,,,,practice,0,34,2,2583,,,,,,,,1.0,1.0,0.0,1.0,0.0,1.0,0.6771921238396317,2,0,0,0,0,4,6,2,4,0,,,,1,,,,,,,,,,,,,,,,,,,,,,,,,,,,,,,,,,,,,,,,,,,,,,122,159565,24,Male,1,2024/03/25_16:13:44,YZ,None,
1,./instructions/inst_to_cali/Slide20.png,right,5.641260880976915,204.5713257919997,210.2125866729766,,,,,,,,,,,,,,,,,,,,,,,,,,,,,,,,,1,,,,,,,,,,,,,,,,,,,,,,,,,,,,,,,,,,,,,,,,,,,,,,122,159565,24,Male,1,2024/03/25_16:13:44,YZ,None,
1,./instructions/inst_cali/Slide22.png,right,32.79897085399716,210.2456232959812,243.04459414997837,,,,,,,,,,,,,,,,,,,,,,,,,,,,,,,,,1,,,,,,,,,,,,,,,,,,,,,,,,,,,,,,,,,,,,,,,,,,,,,,122,159565,24,Male,1,2024/03/25_16:13:44,YZ,None,
,,,,,,calibration,0,2,2,583,1,N,0,right,1.9740964979864657,1,0,,,,,,,,,,,,,,,,,,,,,1,,,,,,,,,,,,,,,,,,,,,,,,,,,,,,,,,,,,,,,,,,,,,,122,159565,24,Male,1,2024/03/25_16:13:44,YZ,None,
,,,,,,calibration,0,2,2,583,2,Q,0,right,0.7711740850063507,1,0,,,,,,,,,,,,,,,,,,,,,1,,,,,,,,,,,,,,,,,,,,,,,,,,,,,,,,,,,,,,,,,,,,,,122,159565,24,Male,1,2024/03/25_16:13:44,YZ,None,
,,,,,,calibration,0,2,2,583,3,N,1,right,0.761063184007071,0,0,,,,,,,,,,,,,,,,,,,,,1,,,,,,,,,,,,,,,,,,,,,,,,,,,,,,,,,,,,,,,,,,,,,,122,159565,24,Male,1,2024/03/25_16:13:44,YZ,None,
,,,,,,calibration,0,2,2,583,4,Q,1,left,0.59208086997387,1,0,,,,,,,,,,,,,,,,,,,,,1,,,,,,,,,,,,,,,,,,,,,,,,,,,,,,,,,,,,,,,,,,,,,,122,159565,24,Male,1,2024/03/25_16:13:44,YZ,None,
,,,,,,calibration,0,2,2,583,5,C,0,right,0.4288888620212674,1,0,,,,,,,,,,,,,,,,,,,,,1,,,,,,,,,,,,,,,,,,,,,,,,,,,,,,,,,,,,,,,,,,,,,,122,159565,24,Male,1,2024/03/25_16:13:44,YZ,None,
,,,,,,calibration,0,2,2,583,6,S,0,right,0.6662686950003263,1,0,,,,,,,,,,,,,,,,,,,,,1,,,,,,,,,,,,,,,,,,,,,,,,,,,,,,,,,,,,,,,,,,,,,,122,159565,24,Male,1,2024/03/25_16:13:44,YZ,None,
,,,,,,calibration,0,2,2,583,7,J,0,right,0.5602191639773082,1,0,,,,,,,,,,,,,,,,,,,,,1,,,,,,,,,,,,,,,,,,,,,,,,,,,,,,,,,,,,,,,,,,,,,,122,159565,24,Male,1,2024/03/25_16:13:44,YZ,None,
,,,,,,calibration,0,2,2,583,8,X,0,right,0.49882964001153596,1,0,,,,,,,,,,,,,,,,,,,,,1,,,,,,,,,,,,,,,,,,,,,,,,,,,,,,,,,,,,,,,,,,,,,,122,159565,24,Male,1,2024/03/25_16:13:44,YZ,None,
,,,,,,calibration,0,2,2,583,9,S,0,left,0.465624206000939,0,0,,,,,,,,,,,,,,,,,,,,,1,,,,,,,,,,,,,,,,,,,,,,,,,,,,,,,,,,,,,,,,,,,,,,122,159565,24,Male,1,2024/03/25_16:13:44,YZ,None,
,,,,,,calibration,0,2,2,583,10,Q,0,right,0.425344502000371,1,0,,,,,,,,,,,,,,,,,,,,,1,,,,,,,,,,,,,,,,,,,,,,,,,,,,,,,,,,,,,,,,,,,,,,122,159565,24,Male,1,2024/03/25_16:13:44,YZ,None,
,,,,,,calibration,0,2,2,583,11,S,1,left,0.764130166004179,1,0,,,,,,,,,,,,,,,,,,,,,1,,,,,,,,,,,,,,,,,,,,,,,,,,,,,,,,,,,,,,,,,,,,,,122,159565,24,Male,1,2024/03/25_16:13:44,YZ,None,
,,,,,,calibration,0,2,2,583,12,X,0,right,0.5739689329930115,1,0,,,,,,,,,,,,,,,,,,,,,1,,,,,,,,,,,,,,,,,,,,,,,,,,,,,,,,,,,,,,,,,,,,,,122,159565,24,Male,1,2024/03/25_16:13:44,YZ,None,
,,,,,,calibration,0,2,2,583,13,S,1,right,0.7634362399985548,0,0,,,,,,,,,,,,,,,,,,,,,1,,,,,,,,,,,,,,,,,,,,,,,,,,,,,,,,,,,,,,,,,,,,,,122,159565,24,Male,1,2024/03/25_16:13:44,YZ,None,
,,,,,,calibration,0,2,2,583,14,N,0,left,0.6483047030051239,0,0,,,,,,,,,,,,,,,,,,,,,1,,,,,,,,,,,,,,,,,,,,,,,,,,,,,,,,,,,,,,,,,,,,,,122,159565,24,Male,1,2024/03/25_16:13:44,YZ,None,
,,,,,,calibration,0,2,2,583,15,S,1,left,0.5413283530215267,1,0,,,,,,,,,,,,,,,,,,,,,1,,,,,,,,,,,,,,,,,,,,,,,,,,,,,,,,,,,,,,,,,,,,,,122,159565,24,Male,1,2024/03/25_16:13:44,YZ,None,
,,,,,,calibration,0,2,2,583,,,,,,,,0.77,0.6,0.2,0.8,0.0,0.8,0.6956505400671934,3,2,0,0,0,8,11,5,10,0,,,,1,,,,,,,,,,,,,,,,,,,,,,,,,,,,,,,,,,,,,,,,,,,,,,122,159565,24,Male,1,2024/03/25_16:13:44,YZ,None,
,,,,,,Calibration,0,,2,583,,,,,,,,,,,,,,,,,,,,,,,,,1,,,1,,,,,,,,,,,,,,,,,,,,,,,,,,,,,,,,,,,,,,,,,,,,,,122,159565,24,Male,1,2024/03/25_16:13:44,YZ,None,
,,,,,,calibration,0,25,2,583,1,N,0,right,0.8988075860252138,1,0,,,,,,,,,,,,,,,,,,,,,1,,,,,,,,,,,,,,,,,,,,,,,,,,,,,,,,,,,,,,,,,,,,,,122,159565,24,Male,1,2024/03/25_16:13:44,YZ,None,
,,,,,,calibration,0,25,2,583,2,X,0,right,0.6412652889848687,1,0,,,,,,,,,,,,,,,,,,,,,1,,,,,,,,,,,,,,,,,,,,,,,,,,,,,,,,,,,,,,,,,,,,,,122,159565,24,Male,1,2024/03/25_16:13:44,YZ,None,
,,,,,,calibration,0,25,2,583,3,S,0,right,0.6013823770044837,1,0,,,,,,,,,,,,,,,,,,,,,1,,,,,,,,,,,,,,,,,,,,,,,,,,,,,,,,,,,,,,,,,,,,,,122,159565,24,Male,1,2024/03/25_16:13:44,YZ,None,
,,,,,,calibration,0,25,2,583,4,V,0,right,0.5561164660030045,1,0,,,,,,,,,,,,,,,,,,,,,1,,,,,,,,,,,,,,,,,,,,,,,,,,,,,,,,,,,,,,,,,,,,,,122,159565,24,Male,1,2024/03/25_16:13:44,YZ,None,
,,,,,,calibration,0,25,2,583,5,C,0,right,0.5509764419985004,1,0,,,,,,,,,,,,,,,,,,,,,1,,,,,,,,,,,,,,,,,,,,,,,,,,,,,,,,,,,,,,,,,,,,,,122,159565,24,Male,1,2024/03/25_16:13:44,YZ,None,
,,,,,,calibration,0,25,2,583,6,X,0,left,0.6525228229875211,0,0,,,,,,,,,,,,,,,,,,,,,1,,,,,,,,,,,,,,,,,,,,,,,,,,,,,,,,,,,,,,,,,,,,,,122,159565,24,Male,1,2024/03/25_16:13:44,YZ,None,
,,,,,,calibration,0,25,2,583,7,F,0,right,0.49897454600431956,1,0,,,,,,,,,,,,,,,,,,,,,1,,,,,,,,,,,,,,,,,,,,,,,,,,,,,,,,,,,,,,,,,,,,,,122,159565,24,Male,1,2024/03/25_16:13:44,YZ,None,
,,,,,,calibration,0,25,2,583,8,V,0,right,0.7774331320251804,1,0,,,,,,,,,,,,,,,,,,,,,1,,,,,,,,,,,,,,,,,,,,,,,,,,,,,,,,,,,,,,,,,,,,,,122,159565,24,Male,1,2024/03/25_16:13:44,YZ,None,
,,,,,,calibration,0,25,2,583,9,J,0,right,0.6914950429927558,1,0,,,,,,,,,,,,,,,,,,,,,1,,,,,,,,,,,,,,,,,,,,,,,,,,,,,,,,,,,,,,,,,,,,,,122,159565,24,Male,1,2024/03/25_16:13:44,YZ,None,
,,,,,,calibration,0,25,2,583,10,Q,0,right,0.7918761569890194,1,0,,,,,,,,,,,,,,,,,,,,,1,,,,,,,,,,,,,,,,,,,,,,,,,,,,,,,,,,,,,,,,,,,,,,122,159565,24,Male,1,2024/03/25_16:13:44,YZ,None,
,,,,,,calibration,0,25,2,583,11,J,1,left,0.3877929429872893,1,0,,,,,,,,,,,,,,,,,,,,,1,,,,,,,,,,,,,,,,,,,,,,,,,,,,,,,,,,,,,,,,,,,,,,122,159565,24,Male,1,2024/03/25_16:13:44,YZ,None,
,,,,,,calibration,0,25,2,583,12,Q,1,right,0.5244279339967761,0,0,,,,,,,,,,,,,,,,,,,,,1,,,,,,,,,,,,,,,,,,,,,,,,,,,,,,,,,,,,,,,,,,,,,,122,159565,24,Male,1,2024/03/25_16:13:44,YZ,None,
,,,,,,calibration,0,25,2,583,13,X,0,right,0.8254701439873315,1,0,,,,,,,,,,,,,,,,,,,,,1,,,,,,,,,,,,,,,,,,,,,,,,,,,,,,,,,,,,,,,,,,,,,,122,159565,24,Male,1,2024/03/25_16:13:44,YZ,None,
,,,,,,calibration,0,25,2,583,14,Q,1,left,0.669672455987893,1,0,,,,,,,,,,,,,,,,,,,,,1,,,,,,,,,,,,,,,,,,,,,,,,,,,,,,,,,,,,,,,,,,,,,,122,159565,24,Male,1,2024/03/25_16:13:44,YZ,None,
,,,,,,calibration,0,25,2,583,15,X,1,right,0.40360166199388914,0,0,,,,,,,,,,,,,,,,,,,,,1,,,,,,,,,,,,,,,,,,,,,,,,,,,,,,,,,,,,,,,,,,,,,,122,159565,24,Male,1,2024/03/25_16:13:44,YZ,None,
,,,,,,calibration,0,25,2,583,,,,,,,,0.8068181818181819,0.5,0.09090909090909091,0.9090909090909091,0.0,0.9090909090909091,0.631454333331203,2,1,0,0,0,10,12,4,11,0,,,,1,,,,,,,,,,,,,,,,,,,,,,,,,,,,,,,,,,,,,,,,,,,,,,122,159565,24,Male,1,2024/03/25_16:13:44,YZ,None,
,,,,,,Calibration,0,,2,583,,,,,,,,,,,,,,,,,,,,,,,,,2,,,1,,,,,,,,,,,,,,,,,,,,,,,,,,,,,,,,,,,,,,,,,,,,,,122,159565,24,Male,1,2024/03/25_16:13:44,YZ,None,
,,,,,,calibration,0,26,2,583,1,C,0,right,0.731682017998537,1,0,,,,,,,,,,,,,,,,,,,,,1,,,,,,,,,,,,,,,,,,,,,,,,,,,,,,,,,,,,,,,,,,,,,,122,159565,24,Male,1,2024/03/25_16:13:44,YZ,None,
,,,,,,calibration,0,26,2,583,2,J,0,right,0.8341378830082249,1,0,,,,,,,,,,,,,,,,,,,,,1,,,,,,,,,,,,,,,,,,,,,,,,,,,,,,,,,,,,,,,,,,,,,,122,159565,24,Male,1,2024/03/25_16:13:44,YZ,None,
,,,,,,calibration,0,26,2,583,3,Q,0,right,0.5123271499760449,1,0,,,,,,,,,,,,,,,,,,,,,1,,,,,,,,,,,,,,,,,,,,,,,,,,,,,,,,,,,,,,,,,,,,,,122,159565,24,Male,1,2024/03/25_16:13:44,YZ,None,
,,,,,,calibration,0,26,2,583,4,V,0,right,0.5770392300037201,1,0,,,,,,,,,,,,,,,,,,,,,1,,,,,,,,,,,,,,,,,,,,,,,,,,,,,,,,,,,,,,,,,,,,,,122,159565,24,Male,1,2024/03/25_16:13:44,YZ,None,
,,,,,,calibration,0,26,2,583,5,N,0,right,0.5416240770136937,1,0,,,,,,,,,,,,,,,,,,,,,1,,,,,,,,,,,,,,,,,,,,,,,,,,,,,,,,,,,,,,,,,,,,,,122,159565,24,Male,1,2024/03/25_16:13:44,YZ,None,
,,,,,,calibration,0,26,2,583,6,V,1,left,0.5744888370099943,1,0,,,,,,,,,,,,,,,,,,,,,1,,,,,,,,,,,,,,,,,,,,,,,,,,,,,,,,,,,,,,,,,,,,,,122,159565,24,Male,1,2024/03/25_16:13:44,YZ,None,
,,,,,,calibration,0,26,2,583,7,N,1,right,0.5752824240189511,0,0,,,,,,,,,,,,,,,,,,,,,1,,,,,,,,,,,,,,,,,,,,,,,,,,,,,,,,,,,,,,,,,,,,,,122,159565,24,Male,1,2024/03/25_16:13:44,YZ,None,
,,,,,,calibration,0,26,2,583,8,J,0,right,0.790484972007107,1,0,,,,,,,,,,,,,,,,,,,,,1,,,,,,,,,,,,,,,,,,,,,,,,,,,,,,,,,,,,,,,,,,,,,,122,159565,24,Male,1,2024/03/25_16:13:44,YZ,None,
,,,,,,calibration,0,26,2,583,9,N,1,left,0.49188724101986736,1,0,,,,,,,,,,,,,,,,,,,,,1,,,,,,,,,,,,,,,,,,,,,,,,,,,,,,,,,,,,,,,,,,,,,,122,159565,24,Male,1,2024/03/25_16:13:44,YZ,None,
,,,,,,calibration,0,26,2,583,10,C,0,right,0.712759168993216,1,0,,,,,,,,,,,,,,,,,,,,,1,,,,,,,,,,,,,,,,,,,,,,,,,,,,,,,,,,,,,,,,,,,,,,122,159565,24,Male,1,2024/03/25_16:13:44,YZ,None,
,,,,,,calibration,0,26,2,583,11,J,0,left,0.5752192360232584,0,0,,,,,,,,,,,,,,,,,,,,,1,,,,,,,,,,,,,,,,,,,,,,,,,,,,,,,,,,,,,,,,,,,,,,122,159565,24,Male,1,2024/03/25_16:13:44,YZ,None,
,,,,,,calibration,0,26,2,583,12,X,0,right,0.4762432799907401,1,0,,,,,,,,,,,,,,,,,,,,,1,,,,,,,,,,,,,,,,,,,,,,,,,,,,,,,,,,,,,,,,,,,,,,122,159565,24,Male,1,2024/03/25_16:13:44,YZ,None,
,,,,,,calibration,0,26,2,583,13,Q,0,right,0.8668146140116733,1,0,,,,,,,,,,,,,,,,,,,,,1,,,,,,,,,,,,,,,,,,,,,,,,,,,,,,,,,,,,,,,,,,,,,,122,159565,24,Male,1,2024/03/25_16:13:44,YZ,None,
,,,,,,calibration,0,26,2,583,14,X,1,left,0.6652848169906065,1,0,,,,,,,,,,,,,,,,,,,,,1,,,,,,,,,,,,,,,,,,,,,,,,,,,,,,,,,,,,,,,,,,,,,,122,159565,24,Male,1,2024/03/25_16:13:44,YZ,None,
,,,,,,calibration,0,26,2,583,15,J,0,right,0.5309971309907269,1,0,,,,,,,,,,,,,,,,,,,,,1,,,,,,,,,,,,,,,,,,,,,,,,,,,,,,,,,,,,,,,,,,,,,,122,159565,24,Male,1,2024/03/25_16:13:44,YZ,None,
,,,,,,calibration,0,26,2,583,,,,,,,,0.8920454545454546,0.75,0.09090909090909091,0.9090909090909091,0.0,0.9090909090909091,0.6304181386037574,3,1,0,0,0,10,13,4,11,0,,,,1,,,,,,,,,,,,,,,,,,,,,,,,,,,,,,,,,,,,,,,,,,,,,,122,159565,24,Male,1,2024/03/25_16:13:44,YZ,None,
,,,,,,Calibration,0,,2,583,,,,,,,,,,,,,,,,,,,,,,,,,3,,,1,,,,,,,,,,,,,,,,,,,,,,,,,,,,,,,,,,,,,,,,,,,,,,122,159565,24,Male,1,2024/03/25_16:13:44,YZ,None,
,,,,,,calibration,0,22,2,500,1,X,0,right,0.7542723470251076,1,0,,,,,,,,,,,,,,,,,,,,,1,,,,,,,,,,,,,,,,,,,,,,,,,,,,,,,,,,,,,,,,,,,,,,122,159565,24,Male,1,2024/03/25_16:13:44,YZ,None,
,,,,,,calibration,0,22,2,500,2,N,0,right,0.4430224719981197,1,0,,,,,,,,,,,,,,,,,,,,,1,,,,,,,,,,,,,,,,,,,,,,,,,,,,,,,,,,,,,,,,,,,,,,122,159565,24,Male,1,2024/03/25_16:13:44,YZ,None,
,,,,,,calibration,0,22,2,500,3,X,1,left,0.5122848010214511,1,0,,,,,,,,,,,,,,,,,,,,,1,,,,,,,,,,,,,,,,,,,,,,,,,,,,,,,,,,,,,,,,,,,,,,122,159565,24,Male,1,2024/03/25_16:13:44,YZ,None,
,,,,,,calibration,0,22,2,500,4,N,1,left,0.9098507590242662,1,0,,,,,,,,,,,,,,,,,,,,,1,,,,,,,,,,,,,,,,,,,,,,,,,,,,,,,,,,,,,,,,,,,,,,122,159565,24,Male,1,2024/03/25_16:13:44,YZ,None,
,,,,,,calibration,0,22,2,500,5,C,0,right,0.5543611799948849,1,0,,,,,,,,,,,,,,,,,,,,,1,,,,,,,,,,,,,,,,,,,,,,,,,,,,,,,,,,,,,,,,,,,,,,122,159565,24,Male,1,2024/03/25_16:13:44,YZ,None,
,,,,,,calibration,0,22,2,500,6,S,0,right,0.65168549597729,1,0,,,,,,,,,,,,,,,,,,,,,1,,,,,,,,,,,,,,,,,,,,,,,,,,,,,,,,,,,,,,,,,,,,,,122,159565,24,Male,1,2024/03/25_16:13:44,YZ,None,
,,,,,,calibration,0,22,2,500,7,J,0,right,0.5239381209830754,1,0,,,,,,,,,,,,,,,,,,,,,1,,,,,,,,,,,,,,,,,,,,,,,,,,,,,,,,,,,,,,,,,,,,,,122,159565,24,Male,1,2024/03/25_16:13:44,YZ,None,
,,,,,,calibration,0,22,2,500,8,S,1,left,0.5453550999809522,1,0,,,,,,,,,,,,,,,,,,,,,1,,,,,,,,,,,,,,,,,,,,,,,,,,,,,,,,,,,,,,,,,,,,,,122,159565,24,Male,1,2024/03/25_16:13:44,YZ,None,
,,,,,,calibration,0,22,2,500,9,Q,0,right,0.5121799440239556,1,0,,,,,,,,,,,,,,,,,,,,,1,,,,,,,,,,,,,,,,,,,,,,,,,,,,,,,,,,,,,,,,,,,,,,122,159565,24,Male,1,2024/03/25_16:13:44,YZ,None,
,,,,,,calibration,0,22,2,500,10,F,0,right,0.5316216979990713,1,0,,,,,,,,,,,,,,,,,,,,,1,,,,,,,,,,,,,,,,,,,,,,,,,,,,,,,,,,,,,,,,,,,,,,122,159565,24,Male,1,2024/03/25_16:13:44,YZ,None,
,,,,,,calibration,0,22,2,500,11,S,0,right,nan,0,1,,,,,,,,,,,,,,,,,,,,,1,,,,,,,,,,,,,,,,,,,,,,,,,,,,,,,,,,,,,,,,,,,,,,122,159565,24,Male,1,2024/03/25_16:13:44,YZ,None,
,,,,,,calibration,0,22,2,500,12,C,0,left,0.7309059349936433,0,0,,,,,,,,,,,,,,,,,,,,,1,,,,,,,,,,,,,,,,,,,,,,,,,,,,,,,,,,,,,,,,,,,,,,122,159565,24,Male,1,2024/03/25_16:13:44,YZ,None,
,,,,,,calibration,0,22,2,500,13,N,0,right,0.41851415601558983,1,0,,,,,,,,,,,,,,,,,,,,,1,,,,,,,,,,,,,,,,,,,,,,,,,,,,,,,,,,,,,,,,,,,,,,122,159565,24,Male,1,2024/03/25_16:13:44,YZ,None,
,,,,,,calibration,0,22,2,500,14,C,1,left,0.4718050000083167,1,0,,,,,,,,,,,,,,,,,,,,,1,,,,,,,,,,,,,,,,,,,,,,,,,,,,,,,,,,,,,,,,,,,,,,122,159565,24,Male,1,2024/03/25_16:13:44,YZ,None,
,,,,,,calibration,0,22,2,500,15,Q,0,right,0.3934161819925066,1,0,,,,,,,,,,,,,,,,,,,,,1,,,,,,,,,,,,,,,,,,,,,,,,,,,,,,,,,,,,,,,,,,,,,,122,159565,24,Male,1,2024/03/25_16:13:44,YZ,None,
,,,,,,calibration,0,22,2,500,16,F,0,right,0.6164230139984284,1,0,,,,,,,,,,,,,,,,,,,,,1,,,,,,,,,,,,,,,,,,,,,,,,,,,,,,,,,,,,,,,,,,,,,,122,159565,24,Male,1,2024/03/25_16:13:44,YZ,None,
,,,,,,calibration,0,22,2,500,,,,,,,,0.9791666666666666,1.0,0.08333333333333333,0.9090909090909091,0.0625,0.8541666666666666,0.5713090803357772,4,1,0,1,1,10,14,4,12,0,,,,1,,,,,,,,,,,,,,,,,,,,,,,,,,,,,,,,,,,,,,,,,,,,,,122,159565,24,Male,1,2024/03/25_16:13:44,YZ,None,
,,,,,,Calibration,0,,2,500,,,,,,,,,,,,,,,,,,,,,,,,,4,,,1,,,,,,,,,,,,,,,,,,,,,,,,,,,,,,,,,,,,,,,,,,,,,,122,159565,24,Male,1,2024/03/25_16:13:44,YZ,None,
,,,,,,calibration,0,35,2,426,1,V,0,right,0.571206049004104,1,0,,,,,,,,,,,,,,,,,,,,,1,,,,,,,,,,,,,,,,,,,,,,,,,,,,,,,,,,,,,,,,,,,,,,122,159565,24,Male,1,2024/03/25_16:13:44,YZ,None,
,,,,,,calibration,0,35,2,426,2,S,0,right,0.6411540349945426,1,0,,,,,,,,,,,,,,,,,,,,,1,,,,,,,,,,,,,,,,,,,,,,,,,,,,,,,,,,,,,,,,,,,,,,122,159565,24,Male,1,2024/03/25_16:13:44,YZ,None,
,,,,,,calibration,0,35,2,426,3,V,1,left,0.5612144469923805,1,0,,,,,,,,,,,,,,,,,,,,,1,,,,,,,,,,,,,,,,,,,,,,,,,,,,,,,,,,,,,,,,,,,,,,122,159565,24,Male,1,2024/03/25_16:13:44,YZ,None,
,,,,,,calibration,0,35,2,426,4,S,1,left,0.43019340600585565,1,0,,,,,,,,,,,,,,,,,,,,,1,,,,,,,,,,,,,,,,,,,,,,,,,,,,,,,,,,,,,,,,,,,,,,122,159565,24,Male,1,2024/03/25_16:13:44,YZ,None,
,,,,,,calibration,0,35,2,426,5,Q,0,right,0.5193193800223526,1,0,,,,,,,,,,,,,,,,,,,,,1,,,,,,,,,,,,,,,,,,,,,,,,,,,,,,,,,,,,,,,,,,,,,,122,159565,24,Male,1,2024/03/25_16:13:44,YZ,None,
,,,,,,calibration,0,35,2,426,6,S,1,left,0.49923264398239553,1,0,,,,,,,,,,,,,,,,,,,,,1,,,,,,,,,,,,,,,,,,,,,,,,,,,,,,,,,,,,,,,,,,,,,,122,159565,24,Male,1,2024/03/25_16:13:44,YZ,None,
,,,,,,calibration,0,35,2,426,7,N,0,right,0.4092400119989179,1,0,,,,,,,,,,,,,,,,,,,,,1,,,,,,,,,,,,,,,,,,,,,,,,,,,,,,,,,,,,,,,,,,,,,,122,159565,24,Male,1,2024/03/25_16:13:44,YZ,None,
,,,,,,calibration,0,35,2,426,8,V,0,right,0.8170770129945595,1,0,,,,,,,,,,,,,,,,,,,,,1,,,,,,,,,,,,,,,,,,,,,,,,,,,,,,,,,,,,,,,,,,,,,,122,159565,24,Male,1,2024/03/25_16:13:44,YZ,None,
,,,,,,calibration,0,35,2,426,9,N,1,left,0.7089507160126232,1,0,,,,,,,,,,,,,,,,,,,,,1,,,,,,,,,,,,,,,,,,,,,,,,,,,,,,,,,,,,,,,,,,,,,,122,159565,24,Male,1,2024/03/25_16:13:44,YZ,None,
,,,,,,calibration,0,35,2,426,10,C,0,right,0.36500363901723176,1,0,,,,,,,,,,,,,,,,,,,,,1,,,,,,,,,,,,,,,,,,,,,,,,,,,,,,,,,,,,,,,,,,,,,,122,159565,24,Male,1,2024/03/25_16:13:44,YZ,None,
,,,,,,calibration,0,35,2,426,11,Q,0,left,0.4086780690122396,0,0,,,,,,,,,,,,,,,,,,,,,1,,,,,,,,,,,,,,,,,,,,,,,,,,,,,,,,,,,,,,,,,,,,,,122,159565,24,Male,1,2024/03/25_16:13:44,YZ,None,
,,,,,,calibration,0,35,2,426,12,J,0,right,0.5250381059886422,1,0,,,,,,,,,,,,,,,,,,,,,1,,,,,,,,,,,,,,,,,,,,,,,,,,,,,,,,,,,,,,,,,,,,,,122,159565,24,Male,1,2024/03/25_16:13:44,YZ,None,
,,,,,,calibration,0,35,2,426,13,C,0,left,0.6283493119990453,0,0,,,,,,,,,,,,,,,,,,,,,1,,,,,,,,,,,,,,,,,,,,,,,,,,,,,,,,,,,,,,,,,,,,,,122,159565,24,Male,1,2024/03/25_16:13:44,YZ,None,
,,,,,,calibration,0,35,2,426,14,J,1,left,0.5309765220154077,1,0,,,,,,,,,,,,,,,,,,,,,1,,,,,,,,,,,,,,,,,,,,,,,,,,,,,,,,,,,,,,,,,,,,,,122,159565,24,Male,1,2024/03/25_16:13:44,YZ,None,
,,,,,,calibration,0,35,2,426,15,V,0,right,0.5244750709971413,1,0,,,,,,,,,,,,,,,,,,,,,1,,,,,,,,,,,,,,,,,,,,,,,,,,,,,,,,,,,,,,,,,,,,,,122,159565,24,Male,1,2024/03/25_16:13:44,YZ,None,
,,,,,,calibration,0,35,2,426,16,X,0,right,0.6551152000029106,1,0,,,,,,,,,,,,,,,,,,,,,1,,,,,,,,,,,,,,,,,,,,,,,,,,,,,,,,,,,,,,,,,,,,,,122,159565,24,Male,1,2024/03/25_16:13:44,YZ,None,
,,,,,,calibration,0,35,2,426,17,N,0,right,0.5613859660224989,1,0,,,,,,,,,,,,,,,,,,,,,1,,,,,,,,,,,,,,,,,,,,,,,,,,,,,,,,,,,,,,,,,,,,,,122,159565,24,Male,1,2024/03/25_16:13:44,YZ,None,
,,,,,,calibration,0,35,2,426,,,,,,,,0.9583333333333334,1.0,0.16666666666666666,0.8333333333333334,0.0,0.8333333333333334,0.5503887992389911,5,2,0,0,0,10,15,5,12,0,,,,1,,,,,,,,,,,,,,,,,,,,,,,,,,,,,,,,,,,,,,,,,,,,,,122,159565,24,Male,1,2024/03/25_16:13:44,YZ,None,
,,,,,,Calibration,0,,2,426,,,,,,,,,,,,,,,,,,,,,,,,,5,,,1,,,,,,,,,,,,,,,,,,,,,,,,,,,,,,,,,,,,,,,,,,,,,,122,159565,24,Male,1,2024/03/25_16:13:44,YZ,None,
,,,,,,calibration,0,12,2,361,1,V,0,right,0.7715006299840752,1,0,,,,,,,,,,,,,,,,,,,,,1,,,,,,,,,,,,,,,,,,,,,,,,,,,,,,,,,,,,,,,,,,,,,,122,159565,24,Male,1,2024/03/25_16:13:44,YZ,None,
,,,,,,calibration,0,12,2,361,2,X,0,right,0.6981226569914725,1,0,,,,,,,,,,,,,,,,,,,,,1,,,,,,,,,,,,,,,,,,,,,,,,,,,,,,,,,,,,,,,,,,,,,,122,159565,24,Male,1,2024/03/25_16:13:44,YZ,None,
,,,,,,calibration,0,12,2,361,3,C,0,right,0.4290770800143946,1,0,,,,,,,,,,,,,,,,,,,,,1,,,,,,,,,,,,,,,,,,,,,,,,,,,,,,,,,,,,,,,,,,,,,,122,159565,24,Male,1,2024/03/25_16:13:44,YZ,None,
,,,,,,calibration,0,12,2,361,4,X,1,left,0.5124581779818982,1,0,,,,,,,,,,,,,,,,,,,,,1,,,,,,,,,,,,,,,,,,,,,,,,,,,,,,,,,,,,,,,,,,,,,,122,159565,24,Male,1,2024/03/25_16:13:44,YZ,None,
,,,,,,calibration,0,12,2,361,5,J,0,right,0.4753705660114065,1,0,,,,,,,,,,,,,,,,,,,,,1,,,,,,,,,,,,,,,,,,,,,,,,,,,,,,,,,,,,,,,,,,,,,,122,159565,24,Male,1,2024/03/25_16:13:44,YZ,None,
,,,,,,calibration,0,12,2,361,6,Q,0,right,0.5427803240017965,1,0,,,,,,,,,,,,,,,,,,,,,1,,,,,,,,,,,,,,,,,,,,,,,,,,,,,,,,,,,,,,,,,,,,,,122,159565,24,Male,1,2024/03/25_16:13:44,YZ,None,
,,,,,,calibration,0,12,2,361,7,J,1,left,0.33161364900297485,1,0,,,,,,,,,,,,,,,,,,,,,1,,,,,,,,,,,,,,,,,,,,,,,,,,,,,,,,,,,,,,,,,,,,,,122,159565,24,Male,1,2024/03/25_16:13:44,YZ,None,
,,,,,,calibration,0,12,2,361,8,S,0,right,0.5325625269906595,1,0,,,,,,,,,,,,,,,,,,,,,1,,,,,,,,,,,,,,,,,,,,,,,,,,,,,,,,,,,,,,,,,,,,,,122,159565,24,Male,1,2024/03/25_16:13:44,YZ,None,
,,,,,,calibration,0,12,2,361,9,C,0,right,0.5653880669851787,1,0,,,,,,,,,,,,,,,,,,,,,1,,,,,,,,,,,,,,,,,,,,,,,,,,,,,,,,,,,,,,,,,,,,,,122,159565,24,Male,1,2024/03/25_16:13:44,YZ,None,
,,,,,,calibration,0,12,2,361,10,N,0,right,0.6249318960180972,1,0,,,,,,,,,,,,,,,,,,,,,1,,,,,,,,,,,,,,,,,,,,,,,,,,,,,,,,,,,,,,,,,,,,,,122,159565,24,Male,1,2024/03/25_16:13:44,YZ,None,
,,,,,,calibration,0,12,2,361,11,J,0,right,0.7709329259814695,1,0,,,,,,,,,,,,,,,,,,,,,1,,,,,,,,,,,,,,,,,,,,,,,,,,,,,,,,,,,,,,,,,,,,,,122,159565,24,Male,1,2024/03/25_16:13:44,YZ,None,
,,,,,,calibration,0,12,2,361,12,Q,0,left,0.5901945710065775,0,0,,,,,,,,,,,,,,,,,,,,,1,,,,,,,,,,,,,,,,,,,,,,,,,,,,,,,,,,,,,,,,,,,,,,122,159565,24,Male,1,2024/03/25_16:13:44,YZ,None,
,,,,,,calibration,0,12,2,361,13,J,1,right,0.3078958499827422,0,0,,,,,,,,,,,,,,,,,,,,,1,,,,,,,,,,,,,,,,,,,,,,,,,,,,,,,,,,,,,,,,,,,,,,122,159565,24,Male,1,2024/03/25_16:13:44,YZ,None,
,,,,,,calibration,0,12,2,361,14,Q,1,right,0.6357680409855675,0,0,,,,,,,,,,,,,,,,,,,,,1,,,,,,,,,,,,,,,,,,,,,,,,,,,,,,,,,,,,,,,,,,,,,,122,159565,24,Male,1,2024/03/25_16:13:44,YZ,None,
,,,,,,calibration,0,12,2,361,15,F,0,right,0.6957505730097182,1,0,,,,,,,,,,,,,,,,,,,,,1,,,,,,,,,,,,,,,,,,,,,,,,,,,,,,,,,,,,,,,,,,,,,,122,159565,24,Male,1,2024/03/25_16:13:44,YZ,None,
,,,,,,calibration,0,12,2,361,16,Q,1,left,0.6072154009889346,1,0,,,,,,,,,,,,,,,,,,,,,1,,,,,,,,,,,,,,,,,,,,,,,,,,,,,,,,,,,,,,,,,,,,,,122,159565,24,Male,1,2024/03/25_16:13:44,YZ,None,
,,,,,,calibration,0,12,2,361,17,V,0,right,0.4465958579967264,1,0,,,,,,,,,,,,,,,,,,,,,1,,,,,,,,,,,,,,,,,,,,,,,,,,,,,,,,,,,,,,,,,,,,,,122,159565,24,Male,1,2024/03/25_16:13:44,YZ,None,
,,,,,,calibration,0,12,2,361,18,S,0,right,0.6177528080006596,1,0,,,,,,,,,,,,,,,,,,,,,1,,,,,,,,,,,,,,,,,,,,,,,,,,,,,,,,,,,,,,,,,,,,,,122,159565,24,Male,1,2024/03/25_16:13:44,YZ,None,
,,,,,,calibration,0,12,2,361,,,,,,,,0.85,0.6,0.07692307692307693,0.9230769230769231,0.0,0.9230769230769231,0.564217311218575,3,1,0,0,0,12,15,5,13,0,,,,1,,,,,,,,,,,,,,,,,,,,,,,,,,,,,,,,,,,,,,,,,,,,,,122,159565,24,Male,1,2024/03/25_16:13:44,YZ,None,
,,,,,,Calibration,0,,2,361,,,,,,,,,,,,,,,,,,,,,,,,,6,,,1,,,,,,,,,,,,,,,,,,,,,,,,,,,,,,,,,,,,,,,,,,,,,,122,159565,24,Male,1,2024/03/25_16:13:44,YZ,None,
,,,,,,calibration,0,3,2,361,1,S,0,right,0.5918391029990744,1,0,,,,,,,,,,,,,,,,,,,,,1,,,,,,,,,,,,,,,,,,,,,,,,,,,,,,,,,,,,,,,,,,,,,,122,159565,24,Male,1,2024/03/25_16:13:44,YZ,None,
,,,,,,calibration,0,3,2,361,2,F,0,right,0.601382104010554,1,0,,,,,,,,,,,,,,,,,,,,,1,,,,,,,,,,,,,,,,,,,,,,,,,,,,,,,,,,,,,,,,,,,,,,122,159565,24,Male,1,2024/03/25_16:13:44,YZ,None,
,,,,,,calibration,0,3,2,361,3,S,1,left,0.3850746859970968,1,0,,,,,,,,,,,,,,,,,,,,,1,,,,,,,,,,,,,,,,,,,,,,,,,,,,,,,,,,,,,,,,,,,,,,122,159565,24,Male,1,2024/03/25_16:13:44,YZ,None,
,,,,,,calibration,0,3,2,361,4,C,0,right,0.5402827649959363,1,0,,,,,,,,,,,,,,,,,,,,,1,,,,,,,,,,,,,,,,,,,,,,,,,,,,,,,,,,,,,,,,,,,,,,122,159565,24,Male,1,2024/03/25_16:13:44,YZ,None,
,,,,,,calibration,0,3,2,361,5,S,1,left,0.8267186820157804,1,0,,,,,,,,,,,,,,,,,,,,,1,,,,,,,,,,,,,,,,,,,,,,,,,,,,,,,,,,,,,,,,,,,,,,122,159565,24,Male,1,2024/03/25_16:13:44,YZ,None,
,,,,,,calibration,0,3,2,361,6,N,0,right,0.4792792949883733,1,0,,,,,,,,,,,,,,,,,,,,,1,,,,,,,,,,,,,,,,,,,,,,,,,,,,,,,,,,,,,,,,,,,,,,122,159565,24,Male,1,2024/03/25_16:13:44,YZ,None,
,,,,,,calibration,0,3,2,361,7,S,1,left,0.46050781599478796,1,0,,,,,,,,,,,,,,,,,,,,,1,,,,,,,,,,,,,,,,,,,,,,,,,,,,,,,,,,,,,,,,,,,,,,122,159565,24,Male,1,2024/03/25_16:13:44,YZ,None,
,,,,,,calibration,0,3,2,361,8,C,0,right,0.5397865060076583,1,0,,,,,,,,,,,,,,,,,,,,,1,,,,,,,,,,,,,,,,,,,,,,,,,,,,,,,,,,,,,,,,,,,,,,122,159565,24,Male,1,2024/03/25_16:13:44,YZ,None,
,,,,,,calibration,0,3,2,361,9,S,1,right,nan,0,1,,,,,,,,,,,,,,,,,,,,,1,,,,,,,,,,,,,,,,,,,,,,,,,,,,,,,,,,,,,,,,,,,,,,122,159565,24,Male,1,2024/03/25_16:13:44,YZ,None,
,,,,,,calibration,0,3,2,361,10,N,0,left,0.8326391490118112,0,0,,,,,,,,,,,,,,,,,,,,,1,,,,,,,,,,,,,,,,,,,,,,,,,,,,,,,,,,,,,,,,,,,,,,122,159565,24,Male,1,2024/03/25_16:13:44,YZ,None,
,,,,,,calibration,0,3,2,361,11,X,0,right,0.468717559997458,1,0,,,,,,,,,,,,,,,,,,,,,1,,,,,,,,,,,,,,,,,,,,,,,,,,,,,,,,,,,,,,,,,,,,,,122,159565,24,Male,1,2024/03/25_16:13:44,YZ,None,
,,,,,,calibration,0,3,2,361,12,J,0,right,0.5851594090054277,1,0,,,,,,,,,,,,,,,,,,,,,1,,,,,,,,,,,,,,,,,,,,,,,,,,,,,,,,,,,,,,,,,,,,,,122,159565,24,Male,1,2024/03/25_16:13:44,YZ,None,
,,,,,,calibration,0,3,2,361,13,V,0,right,0.8077388860110659,1,0,,,,,,,,,,,,,,,,,,,,,1,,,,,,,,,,,,,,,,,,,,,,,,,,,,,,,,,,,,,,,,,,,,,,122,159565,24,Male,1,2024/03/25_16:13:44,YZ,None,
,,,,,,calibration,0,3,2,361,14,C,0,right,0.7881065490073524,1,0,,,,,,,,,,,,,,,,,,,,,1,,,,,,,,,,,,,,,,,,,,,,,,,,,,,,,,,,,,,,,,,,,,,,122,159565,24,Male,1,2024/03/25_16:13:44,YZ,None,
,,,,,,calibration,0,3,2,361,15,F,0,right,0.7416444020054769,1,0,,,,,,,,,,,,,,,,,,,,,1,,,,,,,,,,,,,,,,,,,,,,,,,,,,,,,,,,,,,,,,,,,,,,122,159565,24,Male,1,2024/03/25_16:13:44,YZ,None,
,,,,,,calibration,0,3,2,361,16,N,0,left,0.4760328770207707,0,0,,,,,,,,,,,,,,,,,,,,,1,,,,,,,,,,,,,,,,,,,,,,,,,,,,,,,,,,,,,,,,,,,,,,122,159565,24,Male,1,2024/03/25_16:13:44,YZ,None,
,,,,,,calibration,0,3,2,361,17,F,1,right,0.6131123380037025,0,0,,,,,,,,,,,,,,,,,,,,,1,,,,,,,,,,,,,,,,,,,,,,,,,,,,,,,,,,,,,,,,,,,,,,122,159565,24,Male,1,2024/03/25_16:13:44,YZ,None,
,,,,,,calibration,0,3,2,361,18,V,0,right,0.5987120929930825,1,0,,,,,,,,,,,,,,,,,,,,,1,,,,,,,,,,,,,,,,,,,,,,,,,,,,,,,,,,,,,,,,,,,,,,122,159565,24,Male,1,2024/03/25_16:13:44,YZ,None,
,,,,,,calibration,0,3,2,361,,,,,,,,0.8,0.6,0.15384615384615385,0.8461538461538461,0.05555555555555555,0.7905982905982906,0.6080431894156123,3,2,1,0,1,11,14,5,13,0,,,,1,,,,,,,,,,,,,,,,,,,,,,,,,,,,,,,,,,,,,,,,,,,,,,122,159565,24,Male,1,2024/03/25_16:13:44,YZ,None,
,,,,,,Calibration,0,,2,361,,,,,,,,,,,,,,,,,,,,,,,,,7,,,1,,,,,,,,,,,,,,,,,,,,,,,,,,,,,,,,,,,,,,,,,,,,,,122,159565,24,Male,1,2024/03/25_16:13:44,YZ,None,
,,,,,,calibration,0,6,2,361,1,V,0,right,0.8971560389909428,1,0,,,,,,,,,,,,,,,,,,,,,1,,,,,,,,,,,,,,,,,,,,,,,,,,,,,,,,,,,,,,,,,,,,,,122,159565,24,Male,1,2024/03/25_16:13:44,YZ,None,
,,,,,,calibration,0,6,2,361,2,J,0,right,0.6213258149800822,1,0,,,,,,,,,,,,,,,,,,,,,1,,,,,,,,,,,,,,,,,,,,,,,,,,,,,,,,,,,,,,,,,,,,,,122,159565,24,Male,1,2024/03/25_16:13:44,YZ,None,
,,,,,,calibration,0,6,2,361,3,X,0,right,0.551136822992703,1,0,,,,,,,,,,,,,,,,,,,,,1,,,,,,,,,,,,,,,,,,,,,,,,,,,,,,,,,,,,,,,,,,,,,,122,159565,24,Male,1,2024/03/25_16:13:44,YZ,None,
,,,,,,calibration,0,6,2,361,4,N,0,right,0.6512324879877269,1,0,,,,,,,,,,,,,,,,,,,,,1,,,,,,,,,,,,,,,,,,,,,,,,,,,,,,,,,,,,,,,,,,,,,,122,159565,24,Male,1,2024/03/25_16:13:44,YZ,None,
,,,,,,calibration,0,6,2,361,5,C,0,right,0.5762428790039849,1,0,,,,,,,,,,,,,,,,,,,,,1,,,,,,,,,,,,,,,,,,,,,,,,,,,,,,,,,,,,,,,,,,,,,,122,159565,24,Male,1,2024/03/25_16:13:44,YZ,None,
,,,,,,calibration,0,6,2,361,6,S,0,right,0.8073600979987532,1,0,,,,,,,,,,,,,,,,,,,,,1,,,,,,,,,,,,,,,,,,,,,,,,,,,,,,,,,,,,,,,,,,,,,,122,159565,24,Male,1,2024/03/25_16:13:44,YZ,None,
,,,,,,calibration,0,6,2,361,7,N,0,right,nan,0,1,,,,,,,,,,,,,,,,,,,,,1,,,,,,,,,,,,,,,,,,,,,,,,,,,,,,,,,,,,,,,,,,,,,,122,159565,24,Male,1,2024/03/25_16:13:44,YZ,None,
,,,,,,calibration,0,6,2,361,8,C,0,left,0.7912409139971714,0,0,,,,,,,,,,,,,,,,,,,,,1,,,,,,,,,,,,,,,,,,,,,,,,,,,,,,,,,,,,,,,,,,,,,,122,159565,24,Male,1,2024/03/25_16:13:44,YZ,None,
,,,,,,calibration,0,6,2,361,9,N,1,left,0.6774724170099944,1,0,,,,,,,,,,,,,,,,,,,,,1,,,,,,,,,,,,,,,,,,,,,,,,,,,,,,,,,,,,,,,,,,,,,,122,159565,24,Male,1,2024/03/25_16:13:44,YZ,None,
,,,,,,calibration,0,6,2,361,10,F,0,right,0.5310888559906743,1,0,,,,,,,,,,,,,,,,,,,,,1,,,,,,,,,,,,,,,,,,,,,,,,,,,,,,,,,,,,,,,,,,,,,,122,159565,24,Male,1,2024/03/25_16:13:44,YZ,None,
,,,,,,calibration,0,6,2,361,11,N,1,right,nan,0,1,,,,,,,,,,,,,,,,,,,,,1,,,,,,,,,,,,,,,,,,,,,,,,,,,,,,,,,,,,,,,,,,,,,,122,159565,24,Male,1,2024/03/25_16:13:44,YZ,None,
,,,,,,calibration,0,6,2,361,12,S,0,right,0.8583253920078278,1,0,,,,,,,,,,,,,,,,,,,,,1,,,,,,,,,,,,,,,,,,,,,,,,,,,,,,,,,,,,,,,,,,,,,,122,159565,24,Male,1,2024/03/25_16:13:44,YZ,None,
,,,,,,calibration,0,6,2,361,13,N,1,left,0.37134354398585856,1,0,,,,,,,,,,,,,,,,,,,,,1,,,,,,,,,,,,,,,,,,,,,,,,,,,,,,,,,,,,,,,,,,,,,,122,159565,24,Male,1,2024/03/25_16:13:44,YZ,None,
,,,,,,calibration,0,6,2,361,14,X,0,right,0.583551099000033,1,0,,,,,,,,,,,,,,,,,,,,,1,,,,,,,,,,,,,,,,,,,,,,,,,,,,,,,,,,,,,,,,,,,,,,122,159565,24,Male,1,2024/03/25_16:13:44,YZ,None,
,,,,,,calibration,0,6,2,361,15,N,1,left,0.4858907980087679,1,0,,,,,,,,,,,,,,,,,,,,,1,,,,,,,,,,,,,,,,,,,,,,,,,,,,,,,,,,,,,,,,,,,,,,122,159565,24,Male,1,2024/03/25_16:13:44,YZ,None,
,,,,,,calibration,0,6,2,361,16,C,0,right,0.6011668819992337,1,0,,,,,,,,,,,,,,,,,,,,,1,,,,,,,,,,,,,,,,,,,,,,,,,,,,,,,,,,,,,,,,,,,,,,122,159565,24,Male,1,2024/03/25_16:13:44,YZ,None,
,,,,,,calibration,0,6,2,361,17,N,1,right,0.5246132360189222,0,0,,,,,,,,,,,,,,,,,,,,,1,,,,,,,,,,,,,,,,,,,,,,,,,,,,,,,,,,,,,,,,,,,,,,122,159565,24,Male,1,2024/03/25_16:13:44,YZ,None,
,,,,,,calibration,0,6,2,361,18,F,0,right,nan,0,1,,,,,,,,,,,,,,,,,,,,,1,,,,,,,,,,,,,,,,,,,,,,,,,,,,,,,,,,,,,,,,,,,,,,122,159565,24,Male,1,2024/03/25_16:13:44,YZ,None,
,,,,,,calibration,0,6,2,361,,,,,,,,0.85,0.6,0.07692307692307693,0.9090909090909091,0.16666666666666666,0.7564102564102565,0.6352764853315117,3,1,1,2,3,10,13,5,13,0,,,,1,,,,,,,,,,,,,,,,,,,,,,,,,,,,,,,,,,,,,,,,,,,,,,122,159565,24,Male,1,2024/03/25_16:13:44,YZ,None,
,,,,,,Calibration,0,,2,361,,,,,,,,,,,,,,,,,,,,,,,,,8,,,1,,,,,,,,,,,,,,,,,,,,,,,,,,,,,,,,,,,,,,,,,,,,,,122,159565,24,Male,1,2024/03/25_16:13:44,YZ,None,
,,,,,,calibration,0,24,2,361,1,J,0,right,0.8372671840188559,1,0,,,,,,,,,,,,,,,,,,,,,1,,,,,,,,,,,,,,,,,,,,,,,,,,,,,,,,,,,,,,,,,,,,,,122,159565,24,Male,1,2024/03/25_16:13:44,YZ,None,
,,,,,,calibration,0,24,2,361,2,S,0,right,0.5242658320057672,1,0,,,,,,,,,,,,,,,,,,,,,1,,,,,,,,,,,,,,,,,,,,,,,,,,,,,,,,,,,,,,,,,,,,,,122,159565,24,Male,1,2024/03/25_16:13:44,YZ,None,
,,,,,,calibration,0,24,2,361,3,N,0,right,0.6632895450165961,1,0,,,,,,,,,,,,,,,,,,,,,1,,,,,,,,,,,,,,,,,,,,,,,,,,,,,,,,,,,,,,,,,,,,,,122,159565,24,Male,1,2024/03/25_16:13:44,YZ,None,
,,,,,,calibration,0,24,2,361,4,V,0,right,0.5413831830082927,1,0,,,,,,,,,,,,,,,,,,,,,1,,,,,,,,,,,,,,,,,,,,,,,,,,,,,,,,,,,,,,,,,,,,,,122,159565,24,Male,1,2024/03/25_16:13:44,YZ,None,
,,,,,,calibration,0,24,2,361,5,Q,0,right,0.48892886098474264,1,0,,,,,,,,,,,,,,,,,,,,,1,,,,,,,,,,,,,,,,,,,,,,,,,,,,,,,,,,,,,,,,,,,,,,122,159565,24,Male,1,2024/03/25_16:13:44,YZ,None,
,,,,,,calibration,0,24,2,361,6,X,0,right,0.6057574619771913,1,0,,,,,,,,,,,,,,,,,,,,,1,,,,,,,,,,,,,,,,,,,,,,,,,,,,,,,,,,,,,,,,,,,,,,122,159565,24,Male,1,2024/03/25_16:13:44,YZ,None,
,,,,,,calibration,0,24,2,361,7,Q,1,left,0.373453720996622,1,0,,,,,,,,,,,,,,,,,,,,,1,,,,,,,,,,,,,,,,,,,,,,,,,,,,,,,,,,,,,,,,,,,,,,122,159565,24,Male,1,2024/03/25_16:13:44,YZ,None,
,,,,,,calibration,0,24,2,361,8,X,1,left,0.6750313689990435,1,0,,,,,,,,,,,,,,,,,,,,,1,,,,,,,,,,,,,,,,,,,,,,,,,,,,,,,,,,,,,,,,,,,,,,122,159565,24,Male,1,2024/03/25_16:13:44,YZ,None,
,,,,,,calibration,0,24,2,361,9,J,0,right,0.38789533099043183,1,0,,,,,,,,,,,,,,,,,,,,,1,,,,,,,,,,,,,,,,,,,,,,,,,,,,,,,,,,,,,,,,,,,,,,122,159565,24,Male,1,2024/03/25_16:13:44,YZ,None,
,,,,,,calibration,0,24,2,361,10,X,1,left,0.4930474389984738,1,0,,,,,,,,,,,,,,,,,,,,,1,,,,,,,,,,,,,,,,,,,,,,,,,,,,,,,,,,,,,,,,,,,,,,122,159565,24,Male,1,2024/03/25_16:13:44,YZ,None,
,,,,,,calibration,0,24,2,361,11,J,1,left,0.7993406259920448,1,0,,,,,,,,,,,,,,,,,,,,,1,,,,,,,,,,,,,,,,,,,,,,,,,,,,,,,,,,,,,,,,,,,,,,122,159565,24,Male,1,2024/03/25_16:13:44,YZ,None,
,,,,,,calibration,0,24,2,361,12,N,0,right,0.4296645950234961,1,0,,,,,,,,,,,,,,,,,,,,,1,,,,,,,,,,,,,,,,,,,,,,,,,,,,,,,,,,,,,,,,,,,,,,122,159565,24,Male,1,2024/03/25_16:13:44,YZ,None,
,,,,,,calibration,0,24,2,361,13,J,1,left,0.5409818710177206,1,0,,,,,,,,,,,,,,,,,,,,,1,,,,,,,,,,,,,,,,,,,,,,,,,,,,,,,,,,,,,,,,,,,,,,122,159565,24,Male,1,2024/03/25_16:13:44,YZ,None,
,,,,,,calibration,0,24,2,361,14,S,0,right,0.42811612598598003,1,0,,,,,,,,,,,,,,,,,,,,,1,,,,,,,,,,,,,,,,,,,,,,,,,,,,,,,,,,,,,,,,,,,,,,122,159565,24,Male,1,2024/03/25_16:13:44,YZ,None,
,,,,,,calibration,0,24,2,361,15,Q,0,right,nan,0,1,,,,,,,,,,,,,,,,,,,,,1,,,,,,,,,,,,,,,,,,,,,,,,,,,,,,,,,,,,,,,,,,,,,,122,159565,24,Male,1,2024/03/25_16:13:44,YZ,None,
,,,,,,calibration,0,24,2,361,16,V,0,right,nan,0,1,,,,,,,,,,,,,,,,,,,,,1,,,,,,,,,,,,,,,,,,,,,,,,,,,,,,,,,,,,,,,,,,,,,,122,159565,24,Male,1,2024/03/25_16:13:44,YZ,None,
,,,,,,calibration,0,24,2,361,17,Q,1,left,0.6251139939995483,1,0,,,,,,,,,,,,,,,,,,,,,1,,,,,,,,,,,,,,,,,,,,,,,,,,,,,,,,,,,,,,,,,,,,,,122,159565,24,Male,1,2024/03/25_16:13:44,YZ,None,
,,,,,,calibration,0,24,2,361,18,C,0,right,0.44223772501572967,1,0,,,,,,,,,,,,,,,,,,,,,1,,,,,,,,,,,,,,,,,,,,,,,,,,,,,,,,,,,,,,,,,,,,,,122,159565,24,Male,1,2024/03/25_16:13:44,YZ,None,
,,,,,,calibration,0,24,2,361,,,,,,,,1.0,1.0,0.0,1.0,0.1111111111111111,0.8888888888888888,0.5534859290019085,6,0,0,2,2,10,16,6,12,0,,,,1,,,,,,,,,,,,,,,,,,,,,,,,,,,,,,,,,,,,,,,,,,,,,,122,159565,24,Male,1,2024/03/25_16:13:44,YZ,None,
,,,,,,Calibration,0,,2,361,,,,,,,,,,,,,,,,,,,,,,,,,9,,,1,,,,,,,,,,,,,,,,,,,,,,,,,,,,,,,,,,,,,,,,,,,,,,122,159565,24,Male,1,2024/03/25_16:13:44,YZ,None,
,,,,,,calibration,0,10,2,303,1,C,0,right,0.6762155340111349,1,0,,,,,,,,,,,,,,,,,,,,,1,,,,,,,,,,,,,,,,,,,,,,,,,,,,,,,,,,,,,,,,,,,,,,122,159565,24,Male,1,2024/03/25_16:13:44,YZ,None,
,,,,,,calibration,0,10,2,303,2,Q,0,right,0.6520470610121265,1,0,,,,,,,,,,,,,,,,,,,,,1,,,,,,,,,,,,,,,,,,,,,,,,,,,,,,,,,,,,,,,,,,,,,,122,159565,24,Male,1,2024/03/25_16:13:44,YZ,None,
,,,,,,calibration,0,10,2,303,3,C,1,left,0.3475434030115139,1,0,,,,,,,,,,,,,,,,,,,,,1,,,,,,,,,,,,,,,,,,,,,,,,,,,,,,,,,,,,,,,,,,,,,,122,159565,24,Male,1,2024/03/25_16:13:44,YZ,None,
,,,,,,calibration,0,10,2,303,4,Q,1,left,0.44810626399703324,1,0,,,,,,,,,,,,,,,,,,,,,1,,,,,,,,,,,,,,,,,,,,,,,,,,,,,,,,,,,,,,,,,,,,,,122,159565,24,Male,1,2024/03/25_16:13:44,YZ,None,
,,,,,,calibration,0,10,2,303,5,F,0,right,0.48416967000230215,1,0,,,,,,,,,,,,,,,,,,,,,1,,,,,,,,,,,,,,,,,,,,,,,,,,,,,,,,,,,,,,,,,,,,,,122,159565,24,Male,1,2024/03/25_16:13:44,YZ,None,
,,,,,,calibration,0,10,2,303,6,Q,1,left,0.34356837000814267,1,0,,,,,,,,,,,,,,,,,,,,,1,,,,,,,,,,,,,,,,,,,,,,,,,,,,,,,,,,,,,,,,,,,,,,122,159565,24,Male,1,2024/03/25_16:13:44,YZ,None,
,,,,,,calibration,0,10,2,303,7,F,1,left,0.5649389580066781,1,0,,,,,,,,,,,,,,,,,,,,,1,,,,,,,,,,,,,,,,,,,,,,,,,,,,,,,,,,,,,,,,,,,,,,122,159565,24,Male,1,2024/03/25_16:13:44,YZ,None,
,,,,,,calibration,0,10,2,303,8,X,0,right,0.4682815280102659,1,0,,,,,,,,,,,,,,,,,,,,,1,,,,,,,,,,,,,,,,,,,,,,,,,,,,,,,,,,,,,,,,,,,,,,122,159565,24,Male,1,2024/03/25_16:13:44,YZ,None,
,,,,,,calibration,0,10,2,303,9,J,0,right,0.6114538180117961,1,0,,,,,,,,,,,,,,,,,,,,,1,,,,,,,,,,,,,,,,,,,,,,,,,,,,,,,,,,,,,,,,,,,,,,122,159565,24,Male,1,2024/03/25_16:13:44,YZ,None,
,,,,,,calibration,0,10,2,303,10,F,0,right,0.6397911029926036,1,0,,,,,,,,,,,,,,,,,,,,,1,,,,,,,,,,,,,,,,,,,,,,,,,,,,,,,,,,,,,,,,,,,,,,122,159565,24,Male,1,2024/03/25_16:13:44,YZ,None,
,,,,,,calibration,0,10,2,303,11,J,1,left,0.6021333220123779,1,0,,,,,,,,,,,,,,,,,,,,,1,,,,,,,,,,,,,,,,,,,,,,,,,,,,,,,,,,,,,,,,,,,,,,122,159565,24,Male,1,2024/03/25_16:13:44,YZ,None,
,,,,,,calibration,0,10,2,303,12,N,0,right,0.44998900598147884,1,0,,,,,,,,,,,,,,,,,,,,,1,,,,,,,,,,,,,,,,,,,,,,,,,,,,,,,,,,,,,,,,,,,,,,122,159565,24,Male,1,2024/03/25_16:13:44,YZ,None,
,,,,,,calibration,0,10,2,303,13,C,0,right,0.5480163600004744,1,0,,,,,,,,,,,,,,,,,,,,,1,,,,,,,,,,,,,,,,,,,,,,,,,,,,,,,,,,,,,,,,,,,,,,122,159565,24,Male,1,2024/03/25_16:13:44,YZ,None,
,,,,,,calibration,0,10,2,303,14,S,0,right,0.5824927380017471,1,0,,,,,,,,,,,,,,,,,,,,,1,,,,,,,,,,,,,,,,,,,,,,,,,,,,,,,,,,,,,,,,,,,,,,122,159565,24,Male,1,2024/03/25_16:13:44,YZ,None,
,,,,,,calibration,0,10,2,303,15,C,1,left,0.574895198980812,1,0,,,,,,,,,,,,,,,,,,,,,1,,,,,,,,,,,,,,,,,,,,,,,,,,,,,,,,,,,,,,,,,,,,,,122,159565,24,Male,1,2024/03/25_16:13:44,YZ,None,
,,,,,,calibration,0,10,2,303,16,V,0,right,0.5520958339911886,1,0,,,,,,,,,,,,,,,,,,,,,1,,,,,,,,,,,,,,,,,,,,,,,,,,,,,,,,,,,,,,,,,,,,,,122,159565,24,Male,1,2024/03/25_16:13:44,YZ,None,
,,,,,,calibration,0,10,2,303,17,S,0,left,0.36610232401289977,0,0,,,,,,,,,,,,,,,,,,,,,1,,,,,,,,,,,,,,,,,,,,,,,,,,,,,,,,,,,,,,,,,,,,,,122,159565,24,Male,1,2024/03/25_16:13:44,YZ,None,
,,,,,,calibration,0,10,2,303,18,F,0,right,0.7813147630076855,1,0,,,,,,,,,,,,,,,,,,,,,1,,,,,,,,,,,,,,,,,,,,,,,,,,,,,,,,,,,,,,,,,,,,,,122,159565,24,Male,1,2024/03/25_16:13:44,YZ,None,
,,,,,,calibration,0,10,2,303,19,X,0,right,0.6089220099966042,1,0,,,,,,,,,,,,,,,,,,,,,1,,,,,,,,,,,,,,,,,,,,,,,,,,,,,,,,,,,,,,,,,,,,,,122,159565,24,Male,1,2024/03/25_16:13:44,YZ,None,
,,,,,,calibration,0,10,2,303,,,,,,,,0.9807692307692308,1.0,0.07692307692307693,0.9230769230769231,0.0,0.9230769230769231,0.5422145928973087,6,1,0,0,0,12,18,6,13,0,,,,1,,,,,,,,,,,,,,,,,,,,,,,,,,,,,,,,,,,,,,,,,,,,,,122,159565,24,Male,1,2024/03/25_16:13:44,YZ,None,
,,,,,,Calibration,0,,2,303,,,,,,,,,,,,,,,,,,,,,,,,,10,,,1,,,,,,,,,,,,,,,,,,,,,,,,,,,,,,,,,,,,,,,,,,,,,,122,159565,24,Male,1,2024/03/25_16:13:44,YZ,None,
,,,,,,calibration,0,9,2,250,1,V,0,right,0.43667185498634353,1,0,,,,,,,,,,,,,,,,,,,,,1,,,,,,,,,,,,,,,,,,,,,,,,,,,,,,,,,,,,,,,,,,,,,,122,159565,24,Male,1,2024/03/25_16:13:44,YZ,None,
,,,,,,calibration,0,9,2,250,2,Q,0,right,0.5314608089975081,1,0,,,,,,,,,,,,,,,,,,,,,1,,,,,,,,,,,,,,,,,,,,,,,,,,,,,,,,,,,,,,,,,,,,,,122,159565,24,Male,1,2024/03/25_16:13:44,YZ,None,
,,,,,,calibration,0,9,2,250,3,V,1,left,0.46645454998360947,1,0,,,,,,,,,,,,,,,,,,,,,1,,,,,,,,,,,,,,,,,,,,,,,,,,,,,,,,,,,,,,,,,,,,,,122,159565,24,Male,1,2024/03/25_16:13:44,YZ,None,
,,,,,,calibration,0,9,2,250,4,C,0,right,0.48830398998688906,1,0,,,,,,,,,,,,,,,,,,,,,1,,,,,,,,,,,,,,,,,,,,,,,,,,,,,,,,,,,,,,,,,,,,,,122,159565,24,Male,1,2024/03/25_16:13:44,YZ,None,
,,,,,,calibration,0,9,2,250,5,V,1,left,0.3443518790008966,1,0,,,,,,,,,,,,,,,,,,,,,1,,,,,,,,,,,,,,,,,,,,,,,,,,,,,,,,,,,,,,,,,,,,,,122,159565,24,Male,1,2024/03/25_16:13:44,YZ,None,
,,,,,,calibration,0,9,2,250,6,X,0,right,0.5927538080140948,1,0,,,,,,,,,,,,,,,,,,,,,1,,,,,,,,,,,,,,,,,,,,,,,,,,,,,,,,,,,,,,,,,,,,,,122,159565,24,Male,1,2024/03/25_16:13:44,YZ,None,
,,,,,,calibration,0,9,2,250,7,N,0,right,0.49339144298573956,1,0,,,,,,,,,,,,,,,,,,,,,1,,,,,,,,,,,,,,,,,,,,,,,,,,,,,,,,,,,,,,,,,,,,,,122,159565,24,Male,1,2024/03/25_16:13:44,YZ,None,
,,,,,,calibration,0,9,2,250,8,X,1,right,0.8475580289959908,0,0,,,,,,,,,,,,,,,,,,,,,1,,,,,,,,,,,,,,,,,,,,,,,,,,,,,,,,,,,,,,,,,,,,,,122,159565,24,Male,1,2024/03/25_16:13:44,YZ,None,
,,,,,,calibration,0,9,2,250,9,J,0,right,0.5415750370011665,1,0,,,,,,,,,,,,,,,,,,,,,1,,,,,,,,,,,,,,,,,,,,,,,,,,,,,,,,,,,,,,,,,,,,,,122,159565,24,Male,1,2024/03/25_16:13:44,YZ,None,
,,,,,,calibration,0,9,2,250,10,Q,0,right,0.5757613879977725,1,0,,,,,,,,,,,,,,,,,,,,,1,,,,,,,,,,,,,,,,,,,,,,,,,,,,,,,,,,,,,,,,,,,,,,122,159565,24,Male,1,2024/03/25_16:13:44,YZ,None,
,,,,,,calibration,0,9,2,250,11,N,0,left,0.6072214919840917,0,0,,,,,,,,,,,,,,,,,,,,,1,,,,,,,,,,,,,,,,,,,,,,,,,,,,,,,,,,,,,,,,,,,,,,122,159565,24,Male,1,2024/03/25_16:13:44,YZ,None,
,,,,,,calibration,0,9,2,250,12,Q,1,right,0.4132211300020572,0,0,,,,,,,,,,,,,,,,,,,,,1,,,,,,,,,,,,,,,,,,,,,,,,,,,,,,,,,,,,,,,,,,,,,,122,159565,24,Male,1,2024/03/25_16:13:44,YZ,None,
,,,,,,calibration,0,9,2,250,13,N,1,left,0.6505764110188466,1,0,,,,,,,,,,,,,,,,,,,,,1,,,,,,,,,,,,,,,,,,,,,,,,,,,,,,,,,,,,,,,,,,,,,,122,159565,24,Male,1,2024/03/25_16:13:44,YZ,None,
,,,,,,calibration,0,9,2,250,14,J,0,right,0.48293075000401586,1,0,,,,,,,,,,,,,,,,,,,,,1,,,,,,,,,,,,,,,,,,,,,,,,,,,,,,,,,,,,,,,,,,,,,,122,159565,24,Male,1,2024/03/25_16:13:44,YZ,None,
,,,,,,calibration,0,9,2,250,15,X,0,left,0.6253761809784919,0,0,,,,,,,,,,,,,,,,,,,,,1,,,,,,,,,,,,,,,,,,,,,,,,,,,,,,,,,,,,,,,,,,,,,,122,159565,24,Male,1,2024/03/25_16:13:44,YZ,None,
,,,,,,calibration,0,9,2,250,16,J,1,left,0.6798949919757433,1,0,,,,,,,,,,,,,,,,,,,,,1,,,,,,,,,,,,,,,,,,,,,,,,,,,,,,,,,,,,,,,,,,,,,,122,159565,24,Male,1,2024/03/25_16:13:44,YZ,None,
,,,,,,calibration,0,9,2,250,17,F,0,right,0.4626818149990868,1,0,,,,,,,,,,,,,,,,,,,,,1,,,,,,,,,,,,,,,,,,,,,,,,,,,,,,,,,,,,,,,,,,,,,,122,159565,24,Male,1,2024/03/25_16:13:44,YZ,None,
,,,,,,calibration,0,9,2,250,18,Q,0,right,0.88028874801239,1,0,,,,,,,,,,,,,,,,,,,,,1,,,,,,,,,,,,,,,,,,,,,,,,,,,,,,,,,,,,,,,,,,,,,,122,159565,24,Male,1,2024/03/25_16:13:44,YZ,None,
,,,,,,calibration,0,9,2,250,19,V,0,right,0.6646291770157404,1,0,,,,,,,,,,,,,,,,,,,,,1,,,,,,,,,,,,,,,,,,,,,,,,,,,,,,,,,,,,,,,,,,,,,,122,159565,24,Male,1,2024/03/25_16:13:44,YZ,None,
,,,,,,calibration,0,9,2,250,20,F,0,left,0.565762554993853,0,0,,,,,,,,,,,,,,,,,,,,,1,,,,,,,,,,,,,,,,,,,,,,,,,,,,,,,,,,,,,,,,,,,,,,122,159565,24,Male,1,2024/03/25_16:13:44,YZ,None,
,,,,,,calibration,0,9,2,250,,,,,,,,0.7916666666666667,0.6666666666666666,0.21428571428571427,0.7857142857142857,0.0,0.7857142857142857,0.5675433019467164,4,3,0,0,0,11,15,6,14,0,,,,1,,,,,,,,,,,,,,,,,,,,,,,,,,,,,,,,,,,,,,,,,,,,,,122,159565,24,Male,1,2024/03/25_16:13:44,YZ,None,
,,,,,,Calibration,0,,2,250,,,,,,,,,,,,,,,,,,,,,,,,,11,,,1,,,,,,,,,,,,,,,,,,,,,,,,,,,,,,,,,,,,,,,,,,,,,,122,159565,24,Male,1,2024/03/25_16:13:44,YZ,None,
,,,,,,calibration,0,24,2,250,1,S,0,right,0.4304076890111901,1,0,,,,,,,,,,,,,,,,,,,,,1,,,,,,,,,,,,,,,,,,,,,,,,,,,,,,,,,,,,,,,,,,,,,,122,159565,24,Male,1,2024/03/25_16:13:44,YZ,None,
,,,,,,calibration,0,24,2,250,2,F,0,right,0.4495317960099783,1,0,,,,,,,,,,,,,,,,,,,,,1,,,,,,,,,,,,,,,,,,,,,,,,,,,,,,,,,,,,,,,,,,,,,,122,159565,24,Male,1,2024/03/25_16:13:44,YZ,None,
,,,,,,calibration,0,24,2,250,3,V,0,right,0.6062434399791528,1,0,,,,,,,,,,,,,,,,,,,,,1,,,,,,,,,,,,,,,,,,,,,,,,,,,,,,,,,,,,,,,,,,,,,,122,159565,24,Male,1,2024/03/25_16:13:44,YZ,None,
,,,,,,calibration,0,24,2,250,4,S,0,right,0.5913634400058072,1,0,,,,,,,,,,,,,,,,,,,,,1,,,,,,,,,,,,,,,,,,,,,,,,,,,,,,,,,,,,,,,,,,,,,,122,159565,24,Male,1,2024/03/25_16:13:44,YZ,None,
,,,,,,calibration,0,24,2,250,5,Q,0,right,0.8258243449963629,1,0,,,,,,,,,,,,,,,,,,,,,1,,,,,,,,,,,,,,,,,,,,,,,,,,,,,,,,,,,,,,,,,,,,,,122,159565,24,Male,1,2024/03/25_16:13:44,YZ,None,
,,,,,,calibration,0,24,2,250,6,S,1,left,0.5241064949950669,1,0,,,,,,,,,,,,,,,,,,,,,1,,,,,,,,,,,,,,,,,,,,,,,,,,,,,,,,,,,,,,,,,,,,,,122,159565,24,Male,1,2024/03/25_16:13:44,YZ,None,
,,,,,,calibration,0,24,2,250,7,Q,1,right,0.44880827801534906,0,0,,,,,,,,,,,,,,,,,,,,,1,,,,,,,,,,,,,,,,,,,,,,,,,,,,,,,,,,,,,,,,,,,,,,122,159565,24,Male,1,2024/03/25_16:13:44,YZ,None,
,,,,,,calibration,0,24,2,250,8,V,0,right,0.9127764390141238,1,0,,,,,,,,,,,,,,,,,,,,,1,,,,,,,,,,,,,,,,,,,,,,,,,,,,,,,,,,,,,,,,,,,,,,122,159565,24,Male,1,2024/03/25_16:13:44,YZ,None,
,,,,,,calibration,0,24,2,250,9,N,0,right,0.7758295210078359,1,0,,,,,,,,,,,,,,,,,,,,,1,,,,,,,,,,,,,,,,,,,,,,,,,,,,,,,,,,,,,,,,,,,,,,122,159565,24,Male,1,2024/03/25_16:13:44,YZ,None,
,,,,,,calibration,0,24,2,250,10,V,1,left,0.3153159850044176,1,0,,,,,,,,,,,,,,,,,,,,,1,,,,,,,,,,,,,,,,,,,,,,,,,,,,,,,,,,,,,,,,,,,,,,122,159565,24,Male,1,2024/03/25_16:13:44,YZ,None,
,,,,,,calibration,0,24,2,250,11,N,1,left,0.7416602900193539,1,0,,,,,,,,,,,,,,,,,,,,,1,,,,,,,,,,,,,,,,,,,,,,,,,,,,,,,,,,,,,,,,,,,,,,122,159565,24,Male,1,2024/03/25_16:13:44,YZ,None,
,,,,,,calibration,0,24,2,250,12,F,0,right,0.5418397909961641,1,0,,,,,,,,,,,,,,,,,,,,,1,,,,,,,,,,,,,,,,,,,,,,,,,,,,,,,,,,,,,,,,,,,,,,122,159565,24,Male,1,2024/03/25_16:13:44,YZ,None,
,,,,,,calibration,0,24,2,250,13,C,0,right,0.6084747939894442,1,0,,,,,,,,,,,,,,,,,,,,,1,,,,,,,,,,,,,,,,,,,,,,,,,,,,,,,,,,,,,,,,,,,,,,122,159565,24,Male,1,2024/03/25_16:13:44,YZ,None,
,,,,,,calibration,0,24,2,250,14,J,0,right,0.5571962050162256,1,0,,,,,,,,,,,,,,,,,,,,,1,,,,,,,,,,,,,,,,,,,,,,,,,,,,,,,,,,,,,,,,,,,,,,122,159565,24,Male,1,2024/03/25_16:13:44,YZ,None,
,,,,,,calibration,0,24,2,250,15,F,0,right,0.8374065219832119,1,0,,,,,,,,,,,,,,,,,,,,,1,,,,,,,,,,,,,,,,,,,,,,,,,,,,,,,,,,,,,,,,,,,,,,122,159565,24,Male,1,2024/03/25_16:13:44,YZ,None,
,,,,,,calibration,0,24,2,250,16,V,0,right,nan,0,1,,,,,,,,,,,,,,,,,,,,,1,,,,,,,,,,,,,,,,,,,,,,,,,,,,,,,,,,,,,,,,,,,,,,122,159565,24,Male,1,2024/03/25_16:13:44,YZ,None,
,,,,,,calibration,0,24,2,250,17,F,1,right,nan,0,1,,,,,,,,,,,,,,,,,,,,,1,,,,,,,,,,,,,,,,,,,,,,,,,,,,,,,,,,,,,,,,,,,,,,122,159565,24,Male,1,2024/03/25_16:13:44,YZ,None,
,,,,,,calibration,0,24,2,250,18,J,0,right,0.8242162870010361,1,0,,,,,,,,,,,,,,,,,,,,,1,,,,,,,,,,,,,,,,,,,,,,,,,,,,,,,,,,,,,,,,,,,,,,122,159565,24,Male,1,2024/03/25_16:13:44,YZ,None,
,,,,,,calibration,0,24,2,250,19,V,0,left,0.45683512301184237,0,0,,,,,,,,,,,,,,,,,,,,,1,,,,,,,,,,,,,,,,,,,,,,,,,,,,,,,,,,,,,,,,,,,,,,122,159565,24,Male,1,2024/03/25_16:13:44,YZ,None,
,,,,,,calibration,0,24,2,250,20,Q,0,right,0.5595253770006821,1,0,,,,,,,,,,,,,,,,,,,,,1,,,,,,,,,,,,,,,,,,,,,,,,,,,,,,,,,,,,,,,,,,,,,,122,159565,24,Male,1,2024/03/25_16:13:44,YZ,None,
,,,,,,calibration,0,24,2,250,,,,,,,,0.8566666666666667,0.6,0.06666666666666667,0.9285714285714286,0.1,0.8333333333333334,0.6115201009476247,3,1,1,1,2,13,16,5,15,0,,,,1,,,,,,,,,,,,,,,,,,,,,,,,,,,,,,,,,,,,,,,,,,,,,,122,159565,24,Male,1,2024/03/25_16:13:44,YZ,None,
,,,,,,Calibration,0,,2,250,,,,,,,,,,,,,,,,,,,,,,,,,12,,,1,,,,,,,,,,,,,,,,,,,,,,,,,,,,,,,,,,,,,,,,,,,,,,122,159565,24,Male,1,2024/03/25_16:13:44,YZ,None,
,,,,,,calibration,0,10,2,202,1,F,0,right,0.6070539409993216,1,0,,,,,,,,,,,,,,,,,,,,,1,,,,,,,,,,,,,,,,,,,,,,,,,,,,,,,,,,,,,,,,,,,,,,122,159565,24,Male,1,2024/03/25_16:13:44,YZ,None,
,,,,,,calibration,0,10,2,202,2,S,0,right,0.573462448985083,1,0,,,,,,,,,,,,,,,,,,,,,1,,,,,,,,,,,,,,,,,,,,,,,,,,,,,,,,,,,,,,,,,,,,,,122,159565,24,Male,1,2024/03/25_16:13:44,YZ,None,
,,,,,,calibration,0,10,2,202,3,V,0,right,0.4388840349856764,1,0,,,,,,,,,,,,,,,,,,,,,1,,,,,,,,,,,,,,,,,,,,,,,,,,,,,,,,,,,,,,,,,,,,,,122,159565,24,Male,1,2024/03/25_16:13:44,YZ,None,
,,,,,,calibration,0,10,2,202,4,C,0,right,0.5907217649801169,1,0,,,,,,,,,,,,,,,,,,,,,1,,,,,,,,,,,,,,,,,,,,,,,,,,,,,,,,,,,,,,,,,,,,,,122,159565,24,Male,1,2024/03/25_16:13:44,YZ,None,
,,,,,,calibration,0,10,2,202,5,V,1,left,0.8200966650038026,1,0,,,,,,,,,,,,,,,,,,,,,1,,,,,,,,,,,,,,,,,,,,,,,,,,,,,,,,,,,,,,,,,,,,,,122,159565,24,Male,1,2024/03/25_16:13:44,YZ,None,
,,,,,,calibration,0,10,2,202,6,J,0,right,0.478927254996961,1,0,,,,,,,,,,,,,,,,,,,,,1,,,,,,,,,,,,,,,,,,,,,,,,,,,,,,,,,,,,,,,,,,,,,,122,159565,24,Male,1,2024/03/25_16:13:44,YZ,None,
,,,,,,calibration,0,10,2,202,7,S,0,right,0.7517143779841717,1,0,,,,,,,,,,,,,,,,,,,,,1,,,,,,,,,,,,,,,,,,,,,,,,,,,,,,,,,,,,,,,,,,,,,,122,159565,24,Male,1,2024/03/25_16:13:44,YZ,None,
,,,,,,calibration,0,10,2,202,8,J,1,right,0.44554899499053136,0,0,,,,,,,,,,,,,,,,,,,,,1,,,,,,,,,,,,,,,,,,,,,,,,,,,,,,,,,,,,,,,,,,,,,,122,159565,24,Male,1,2024/03/25_16:13:44,YZ,None,
,,,,,,calibration,0,10,2,202,9,Q,0,right,0.5520105939940549,1,0,,,,,,,,,,,,,,,,,,,,,1,,,,,,,,,,,,,,,,,,,,,,,,,,,,,,,,,,,,,,,,,,,,,,122,159565,24,Male,1,2024/03/25_16:13:44,YZ,None,
,,,,,,calibration,0,10,2,202,10,J,1,left,0.6374372619902715,1,0,,,,,,,,,,,,,,,,,,,,,1,,,,,,,,,,,,,,,,,,,,,,,,,,,,,,,,,,,,,,,,,,,,,,122,159565,24,Male,1,2024/03/25_16:13:44,YZ,None,
,,,,,,calibration,0,10,2,202,11,F,0,right,0.4547601559897885,1,0,,,,,,,,,,,,,,,,,,,,,1,,,,,,,,,,,,,,,,,,,,,,,,,,,,,,,,,,,,,,,,,,,,,,122,159565,24,Male,1,2024/03/25_16:13:44,YZ,None,
,,,,,,calibration,0,10,2,202,12,V,0,right,0.47286445600911975,1,0,,,,,,,,,,,,,,,,,,,,,1,,,,,,,,,,,,,,,,,,,,,,,,,,,,,,,,,,,,,,,,,,,,,,122,159565,24,Male,1,2024/03/25_16:13:44,YZ,None,
,,,,,,calibration,0,10,2,202,13,S,0,right,0.7088622699957341,1,0,,,,,,,,,,,,,,,,,,,,,1,,,,,,,,,,,,,,,,,,,,,,,,,,,,,,,,,,,,,,,,,,,,,,122,159565,24,Male,1,2024/03/25_16:13:44,YZ,None,
,,,,,,calibration,0,10,2,202,14,V,1,right,0.6617281050130259,0,0,,,,,,,,,,,,,,,,,,,,,1,,,,,,,,,,,,,,,,,,,,,,,,,,,,,,,,,,,,,,,,,,,,,,122,159565,24,Male,1,2024/03/25_16:13:44,YZ,None,
,,,,,,calibration,0,10,2,202,15,Q,0,right,0.7923918050073553,1,0,,,,,,,,,,,,,,,,,,,,,1,,,,,,,,,,,,,,,,,,,,,,,,,,,,,,,,,,,,,,,,,,,,,,122,159565,24,Male,1,2024/03/25_16:13:44,YZ,None,
,,,,,,calibration,0,10,2,202,16,F,0,left,0.39354976199683733,0,0,,,,,,,,,,,,,,,,,,,,,1,,,,,,,,,,,,,,,,,,,,,,,,,,,,,,,,,,,,,,,,,,,,,,122,159565,24,Male,1,2024/03/25_16:13:44,YZ,None,
,,,,,,calibration,0,10,2,202,17,V,0,right,0.5119741229864303,1,0,,,,,,,,,,,,,,,,,,,,,1,,,,,,,,,,,,,,,,,,,,,,,,,,,,,,,,,,,,,,,,,,,,,,122,159565,24,Male,1,2024/03/25_16:13:44,YZ,None,
,,,,,,calibration,0,10,2,202,18,F,1,left,0.7014917040069122,1,0,,,,,,,,,,,,,,,,,,,,,1,,,,,,,,,,,,,,,,,,,,,,,,,,,,,,,,,,,,,,,,,,,,,,122,159565,24,Male,1,2024/03/25_16:13:44,YZ,None,
,,,,,,calibration,0,10,2,202,19,J,0,right,0.4683648450009059,1,0,,,,,,,,,,,,,,,,,,,,,1,,,,,,,,,,,,,,,,,,,,,,,,,,,,,,,,,,,,,,,,,,,,,,122,159565,24,Male,1,2024/03/25_16:13:44,YZ,None,
,,,,,,calibration,0,10,2,202,20,F,1,left,0.42442768000182696,1,0,,,,,,,,,,,,,,,,,,,,,1,,,,,,,,,,,,,,,,,,,,,,,,,,,,,,,,,,,,,,,,,,,,,,122,159565,24,Male,1,2024/03/25_16:13:44,YZ,None,
,,,,,,calibration,0,10,2,202,21,X,0,right,0.5949634449789301,1,0,,,,,,,,,,,,,,,,,,,,,1,,,,,,,,,,,,,,,,,,,,,,,,,,,,,,,,,,,,,,,,,,,,,,122,159565,24,Male,1,2024/03/25_16:13:44,YZ,None,
,,,,,,calibration,0,10,2,202,,,,,,,,0.8777777777777778,0.6666666666666666,0.06666666666666667,0.9333333333333333,0.0,0.9333333333333333,0.575296937614136,4,1,0,0,0,14,18,6,15,0,,,,1,,,,,,,,,,,,,,,,,,,,,,,,,,,,,,,,,,,,,,,,,,,,,,122,159565,24,Male,1,2024/03/25_16:13:44,YZ,None,
,,,,,,Calibration,0,,2,202,,,,,,,,,,,,,,,,,,,,,,,,,13,,,1,,,,,,,,,,,,,,,,,,,,,,,,,,,,,,,,,,,,,,,,,,,,,,122,159565,24,Male,1,2024/03/25_16:13:44,YZ,None,
,,,,,,calibration,0,35,2,159,1,N,0,right,0.40012749802554026,1,0,,,,,,,,,,,,,,,,,,,,,1,,,,,,,,,,,,,,,,,,,,,,,,,,,,,,,,,,,,,,,,,,,,,,122,159565,24,Male,1,2024/03/25_16:13:44,YZ,None,
,,,,,,calibration,0,35,2,159,2,J,0,right,0.754936406010529,1,0,,,,,,,,,,,,,,,,,,,,,1,,,,,,,,,,,,,,,,,,,,,,,,,,,,,,,,,,,,,,,,,,,,,,122,159565,24,Male,1,2024/03/25_16:13:44,YZ,None,
,,,,,,calibration,0,35,2,159,3,V,0,right,0.5120786360057537,1,0,,,,,,,,,,,,,,,,,,,,,1,,,,,,,,,,,,,,,,,,,,,,,,,,,,,,,,,,,,,,,,,,,,,,122,159565,24,Male,1,2024/03/25_16:13:44,YZ,None,
,,,,,,calibration,0,35,2,159,4,N,0,left,0.809051313000964,0,0,,,,,,,,,,,,,,,,,,,,,1,,,,,,,,,,,,,,,,,,,,,,,,,,,,,,,,,,,,,,,,,,,,,,122,159565,24,Male,1,2024/03/25_16:13:44,YZ,None,
,,,,,,calibration,0,35,2,159,5,X,0,right,0.47484385600546375,1,0,,,,,,,,,,,,,,,,,,,,,1,,,,,,,,,,,,,,,,,,,,,,,,,,,,,,,,,,,,,,,,,,,,,,122,159565,24,Male,1,2024/03/25_16:13:44,YZ,None,
,,,,,,calibration,0,35,2,159,6,N,1,left,0.7088587839971296,1,0,,,,,,,,,,,,,,,,,,,,,1,,,,,,,,,,,,,,,,,,,,,,,,,,,,,,,,,,,,,,,,,,,,,,122,159565,24,Male,1,2024/03/25_16:13:44,YZ,None,
,,,,,,calibration,0,35,2,159,7,X,1,left,0.7530308109999169,1,0,,,,,,,,,,,,,,,,,,,,,1,,,,,,,,,,,,,,,,,,,,,,,,,,,,,,,,,,,,,,,,,,,,,,122,159565,24,Male,1,2024/03/25_16:13:44,YZ,None,
,,,,,,calibration,0,35,2,159,8,C,0,right,0.5345703049970325,1,0,,,,,,,,,,,,,,,,,,,,,1,,,,,,,,,,,,,,,,,,,,,,,,,,,,,,,,,,,,,,,,,,,,,,122,159565,24,Male,1,2024/03/25_16:13:44,YZ,None,
,,,,,,calibration,0,35,2,159,9,X,1,left,0.7616530609957408,1,0,,,,,,,,,,,,,,,,,,,,,1,,,,,,,,,,,,,,,,,,,,,,,,,,,,,,,,,,,,,,,,,,,,,,122,159565,24,Male,1,2024/03/25_16:13:44,YZ,None,
,,,,,,calibration,0,35,2,159,10,J,0,right,0.46166378702037036,1,0,,,,,,,,,,,,,,,,,,,,,1,,,,,,,,,,,,,,,,,,,,,,,,,,,,,,,,,,,,,,,,,,,,,,122,159565,24,Male,1,2024/03/25_16:13:44,YZ,None,
,,,,,,calibration,0,35,2,159,11,F,0,right,0.5574040779902134,1,0,,,,,,,,,,,,,,,,,,,,,1,,,,,,,,,,,,,,,,,,,,,,,,,,,,,,,,,,,,,,,,,,,,,,122,159565,24,Male,1,2024/03/25_16:13:44,YZ,None,
,,,,,,calibration,0,35,2,159,12,S,0,right,0.5682931880000979,1,0,,,,,,,,,,,,,,,,,,,,,1,,,,,,,,,,,,,,,,,,,,,,,,,,,,,,,,,,,,,,,,,,,,,,122,159565,24,Male,1,2024/03/25_16:13:44,YZ,None,
,,,,,,calibration,0,35,2,159,13,V,0,right,0.48835332100861706,1,0,,,,,,,,,,,,,,,,,,,,,1,,,,,,,,,,,,,,,,,,,,,,,,,,,,,,,,,,,,,,,,,,,,,,122,159565,24,Male,1,2024/03/25_16:13:44,YZ,None,
,,,,,,calibration,0,35,2,159,14,N,0,right,0.8600185799878091,1,0,,,,,,,,,,,,,,,,,,,,,1,,,,,,,,,,,,,,,,,,,,,,,,,,,,,,,,,,,,,,,,,,,,,,122,159565,24,Male,1,2024/03/25_16:13:44,YZ,None,
,,,,,,calibration,0,35,2,159,15,V,1,left,0.5725182229944039,1,0,,,,,,,,,,,,,,,,,,,,,1,,,,,,,,,,,,,,,,,,,,,,,,,,,,,,,,,,,,,,,,,,,,,,122,159565,24,Male,1,2024/03/25_16:13:44,YZ,None,
,,,,,,calibration,0,35,2,159,16,N,1,right,0.5425652150006499,0,0,,,,,,,,,,,,,,,,,,,,,1,,,,,,,,,,,,,,,,,,,,,,,,,,,,,,,,,,,,,,,,,,,,,,122,159565,24,Male,1,2024/03/25_16:13:44,YZ,None,
,,,,,,calibration,0,35,2,159,17,J,0,right,0.690608056000201,1,0,,,,,,,,,,,,,,,,,,,,,1,,,,,,,,,,,,,,,,,,,,,,,,,,,,,,,,,,,,,,,,,,,,,,122,159565,24,Male,1,2024/03/25_16:13:44,YZ,None,
,,,,,,calibration,0,35,2,159,18,N,1,left,0.6078304040129296,1,0,,,,,,,,,,,,,,,,,,,,,1,,,,,,,,,,,,,,,,,,,,,,,,,,,,,,,,,,,,,,,,,,,,,,122,159565,24,Male,1,2024/03/25_16:13:44,YZ,None,
,,,,,,calibration,0,35,2,159,19,F,0,right,0.585495207022177,1,0,,,,,,,,,,,,,,,,,,,,,1,,,,,,,,,,,,,,,,,,,,,,,,,,,,,,,,,,,,,,,,,,,,,,122,159565,24,Male,1,2024/03/25_16:13:44,YZ,None,
,,,,,,calibration,0,35,2,159,20,X,0,right,0.6176202570204623,1,0,,,,,,,,,,,,,,,,,,,,,1,,,,,,,,,,,,,,,,,,,,,,,,,,,,,,,,,,,,,,,,,,,,,,122,159565,24,Male,1,2024/03/25_16:13:44,YZ,None,
,,,,,,calibration,0,35,2,159,21,N,0,right,0.7090172409953084,1,0,,,,,,,,,,,,,,,,,,,,,1,,,,,,,,,,,,,,,,,,,,,,,,,,,,,,,,,,,,,,,,,,,,,,122,159565,24,Male,1,2024/03/25_16:13:44,YZ,None,
,,,,,,calibration,0,35,2,159,22,X,1,left,0.5644978100026492,1,0,,,,,,,,,,,,,,,,,,,,,1,,,,,,,,,,,,,,,,,,,,,,,,,,,,,,,,,,,,,,,,,,,,,,122,159565,24,Male,1,2024/03/25_16:13:44,YZ,None,
,,,,,,calibration,0,35,2,159,,,,,,,,0.9380952380952381,0.8571428571428571,0.06666666666666667,0.9333333333333333,0.0,0.9333333333333333,0.6152289107769982,6,1,0,0,0,14,20,7,15,0,,,,1,,,,,,,,,,,,,,,,,,,,,,,,,,,,,,,,,,,,,,,,,,,,,,122,159565,24,Male,1,2024/03/25_16:13:44,YZ,None,
,,,,,,Calibration,0,,2,159,,,,,,,,,,,,,,,,,,,,,,,,,14,,,1,,,,,,,,,,,,,,,,,,,,,,,,,,,,,,,,,,,,,,,,,,,,,,122,159565,24,Male,1,2024/03/25_16:13:44,YZ,None,
,,,,,,calibration,0,9,2,120,1,V,0,right,0.3889415169833228,1,0,,,,,,,,,,,,,,,,,,,,,1,,,,,,,,,,,,,,,,,,,,,,,,,,,,,,,,,,,,,,,,,,,,,,122,159565,24,Male,1,2024/03/25_16:13:44,YZ,None,
,,,,,,calibration,0,9,2,120,2,N,0,right,0.44960950399399735,1,0,,,,,,,,,,,,,,,,,,,,,1,,,,,,,,,,,,,,,,,,,,,,,,,,,,,,,,,,,,,,,,,,,,,,122,159565,24,Male,1,2024/03/25_16:13:44,YZ,None,
,,,,,,calibration,0,9,2,120,3,Q,0,right,0.5239575400191825,1,0,,,,,,,,,,,,,,,,,,,,,1,,,,,,,,,,,,,,,,,,,,,,,,,,,,,,,,,,,,,,,,,,,,,,122,159565,24,Male,1,2024/03/25_16:13:44,YZ,None,
,,,,,,calibration,0,9,2,120,4,N,1,left,0.41249077502288856,1,0,,,,,,,,,,,,,,,,,,,,,1,,,,,,,,,,,,,,,,,,,,,,,,,,,,,,,,,,,,,,,,,,,,,,122,159565,24,Male,1,2024/03/25_16:13:44,YZ,None,
,,,,,,calibration,0,9,2,120,5,X,0,right,0.7408245760016143,1,0,,,,,,,,,,,,,,,,,,,,,1,,,,,,,,,,,,,,,,,,,,,,,,,,,,,,,,,,,,,,,,,,,,,,122,159565,24,Male,1,2024/03/25_16:13:44,YZ,None,
,,,,,,calibration,0,9,2,120,6,N,1,right,nan,0,1,,,,,,,,,,,,,,,,,,,,,1,,,,,,,,,,,,,,,,,,,,,,,,,,,,,,,,,,,,,,,,,,,,,,122,159565,24,Male,1,2024/03/25_16:13:44,YZ,None,
,,,,,,calibration,0,9,2,120,7,J,0,right,0.607044208998559,1,0,,,,,,,,,,,,,,,,,,,,,1,,,,,,,,,,,,,,,,,,,,,,,,,,,,,,,,,,,,,,,,,,,,,,122,159565,24,Male,1,2024/03/25_16:13:44,YZ,None,
,,,,,,calibration,0,9,2,120,8,C,0,right,0.6798348559823353,1,0,,,,,,,,,,,,,,,,,,,,,1,,,,,,,,,,,,,,,,,,,,,,,,,,,,,,,,,,,,,,,,,,,,,,122,159565,24,Male,1,2024/03/25_16:13:44,YZ,None,
,,,,,,calibration,0,9,2,120,9,N,0,left,0.5311489040032029,0,0,,,,,,,,,,,,,,,,,,,,,1,,,,,,,,,,,,,,,,,,,,,,,,,,,,,,,,,,,,,,,,,,,,,,122,159565,24,Male,1,2024/03/25_16:13:44,YZ,None,
,,,,,,calibration,0,9,2,120,10,C,1,right,0.681203946005553,0,0,,,,,,,,,,,,,,,,,,,,,1,,,,,,,,,,,,,,,,,,,,,,,,,,,,,,,,,,,,,,,,,,,,,,122,159565,24,Male,1,2024/03/25_16:13:44,YZ,None,
,,,,,,calibration,0,9,2,120,11,V,0,left,0.6743118080194108,0,0,,,,,,,,,,,,,,,,,,,,,1,,,,,,,,,,,,,,,,,,,,,,,,,,,,,,,,,,,,,,,,,,,,,,122,159565,24,Male,1,2024/03/25_16:13:44,YZ,None,
,,,,,,calibration,0,9,2,120,12,N,0,right,0.5239784269942902,1,0,,,,,,,,,,,,,,,,,,,,,1,,,,,,,,,,,,,,,,,,,,,,,,,,,,,,,,,,,,,,,,,,,,,,122,159565,24,Male,1,2024/03/25_16:13:44,YZ,None,
,,,,,,calibration,0,9,2,120,13,C,0,right,0.9132902970013674,1,0,,,,,,,,,,,,,,,,,,,,,1,,,,,,,,,,,,,,,,,,,,,,,,,,,,,,,,,,,,,,,,,,,,,,122,159565,24,Male,1,2024/03/25_16:13:44,YZ,None,
,,,,,,calibration,0,9,2,120,14,N,1,left,0.6076928810216486,1,0,,,,,,,,,,,,,,,,,,,,,1,,,,,,,,,,,,,,,,,,,,,,,,,,,,,,,,,,,,,,,,,,,,,,122,159565,24,Male,1,2024/03/25_16:13:44,YZ,None,
,,,,,,calibration,0,9,2,120,15,C,1,left,0.46431658399524167,1,0,,,,,,,,,,,,,,,,,,,,,1,,,,,,,,,,,,,,,,,,,,,,,,,,,,,,,,,,,,,,,,,,,,,,122,159565,24,Male,1,2024/03/25_16:13:44,YZ,None,
,,,,,,calibration,0,9,2,120,16,F,0,right,0.5462201479822397,1,0,,,,,,,,,,,,,,,,,,,,,1,,,,,,,,,,,,,,,,,,,,,,,,,,,,,,,,,,,,,,,,,,,,,,122,159565,24,Male,1,2024/03/25_16:13:44,YZ,None,
,,,,,,calibration,0,9,2,120,17,X,0,right,0.7572340629994869,1,0,,,,,,,,,,,,,,,,,,,,,1,,,,,,,,,,,,,,,,,,,,,,,,,,,,,,,,,,,,,,,,,,,,,,122,159565,24,Male,1,2024/03/25_16:13:44,YZ,None,
,,,,,,calibration,0,9,2,120,18,S,0,right,0.5983057690027636,1,0,,,,,,,,,,,,,,,,,,,,,1,,,,,,,,,,,,,,,,,,,,,,,,,,,,,,,,,,,,,,,,,,,,,,122,159565,24,Male,1,2024/03/25_16:13:44,YZ,None,
,,,,,,calibration,0,9,2,120,19,C,0,right,0.9910134639940225,1,0,,,,,,,,,,,,,,,,,,,,,1,,,,,,,,,,,,,,,,,,,,,,,,,,,,,,,,,,,,,,,,,,,,,,122,159565,24,Male,1,2024/03/25_16:13:44,YZ,None,
,,,,,,calibration,0,9,2,120,20,J,0,right,0.697539417014923,1,0,,,,,,,,,,,,,,,,,,,,,1,,,,,,,,,,,,,,,,,,,,,,,,,,,,,,,,,,,,,,,,,,,,,,122,159565,24,Male,1,2024/03/25_16:13:44,YZ,None,
,,,,,,calibration,0,9,2,120,21,Q,0,right,0.648445325990906,1,0,,,,,,,,,,,,,,,,,,,,,1,,,,,,,,,,,,,,,,,,,,,,,,,,,,,,,,,,,,,,,,,,,,,,122,159565,24,Male,1,2024/03/25_16:13:44,YZ,None,
,,,,,,calibration,0,9,2,120,22,N,0,right,0.7147699370107148,1,0,,,,,,,,,,,,,,,,,,,,,1,,,,,,,,,,,,,,,,,,,,,,,,,,,,,,,,,,,,,,,,,,,,,,122,159565,24,Male,1,2024/03/25_16:13:44,YZ,None,
,,,,,,calibration,0,9,2,120,23,Q,1,left,0.5575906349986326,1,0,,,,,,,,,,,,,,,,,,,,,1,,,,,,,,,,,,,,,,,,,,,,,,,,,,,,,,,,,,,,,,,,,,,,122,159565,24,Male,1,2024/03/25_16:13:44,YZ,None,
,,,,,,calibration,0,9,2,120,,,,,,,,0.8480392156862745,0.6666666666666666,0.11764705882352941,0.8823529411764706,0.043478260869565216,0.8388746803069054,0.623171117410741,4,2,1,0,1,15,19,6,17,0,,,,1,,,,,,,,,,,,,,,,,,,,,,,,,,,,,,,,,,,,,,,,,,,,,,122,159565,24,Male,1,2024/03/25_16:13:44,YZ,None,
,,,,,,Calibration,0,,2,120,,,,,,,,,,,,,,,,,,,,,,,,,15,,,1,,,,,,,,,,,,,,,,,,,,,,,,,,,,,,,,,,,,,,,,,,,,,,122,159565,24,Male,1,2024/03/25_16:13:44,YZ,None,
,,,,,,CALIBRATION,0,,,,,,,,,,,,,,,,,,,,,,,,,,,,15,0.8480392156862745,120,1,,,,,,,,,,,,,,,,,,,,,,,,,,,,,,,,,,,,,,,,,,,,,,122,159565,24,Male,1,2024/03/25_16:13:44,YZ,None,
1,./instructions/inst_prac_1/Slide24.png,right,12.444609772006515,597.2959593489941,609.7405691210006,,,,,,,,,,,,,,,,,,,,,,,,,,,,,,,,,1,,,,,,,,,,,,,,,,,,,,,,,,,,,,,,,,,,,,,,,,,,,,,,122,159565,24,Male,1,2024/03/25_16:13:44,YZ,None,
2,./instructions/inst_prac_1/Slide25.png,right,3.330832925013965,609.7697749119834,613.1006078369974,,,,,,,,,,,,,,,,,,,,,,,,,,,,,,,,,1,,,,,,,,,,,,,,,,,,,,,,,,,,,,,,,,,,,,,,,,,,,,,,122,159565,24,Male,1,2024/03/25_16:13:44,YZ,None,
3,./instructions/inst_prac_1/Slide26.png,right,0.8985978930140845,613.1298315549793,614.0284294479934,,,,,,,,,,,,,,,,,,,,,,,,,,,,,,,,,1,,,,,,,,,,,,,,,,,,,,,,,,,,,,,,,,,,,,,,,,,,,,,,122,159565,24,Male,1,2024/03/25_16:13:44,YZ,None,
4,./instructions/inst_prac_1/Slide27.png,right,0.8279782230092678,614.0566992489912,614.8846774720005,,,,,,,,,,,,,,,,,,,,,,,,,,,,,,,,,1,,,,,,,,,,,,,,,,,,,,,,,,,,,,,,,,,,,,,,,,,,,,,,122,159565,24,Male,1,2024/03/25_16:13:44,YZ,None,
5,./instructions/inst_prac_1/Slide28.png,right,1.0912719390180428,614.9133518409799,616.0046237799979,,,,,,,,,,,,,,,,,,,,,,,,,,,,,,,,,1,,,,,,,,,,,,,,,,,,,,,,,,,,,,,,,,,,,,,,,,,,,,,,122,159565,24,Male,1,2024/03/25_16:13:44,YZ,None,
6,./instructions/inst_prac_1/Slide29.png,right,5.2989606840128545,616.0335206099844,621.3324812939973,,,,,,,,,,,,,,,,,,,,,,,,,,,,,,,,,1,,,,,,,,,,,,,,,,,,,,,,,,,,,,,,,,,,,,,,,,,,,,,,122,159565,24,Male,1,2024/03/25_16:13:44,YZ,None,
7,./instructions/inst_prac_1/Slide30.png,right,11.770742901979247,621.3618702579988,633.1326131599781,,,,,,,,,,,,,,,,,,,,,,,,,,,,,,,,,1,,,,,,,,,,,,,,,,,,,,,,,,,,,,,,,,,,,,,,,,,,,,,,122,159565,24,Male,1,2024/03/25_16:13:44,YZ,None,
,,,,,,practice,0,27,1,1250,1,S,0,right,0.7463644229865167,1,0,,,,,,,,,,,,,,,,,,,,,1,,,,,,,,,,,,,,,,,,,,,,,,,,,,,,,,,,,,,,,,,,,,,,122,159565,24,Male,1,2024/03/25_16:13:44,YZ,None,
,,,,,,practice,0,27,1,1250,2,S,1,left,0.564524789020652,1,0,,,,,,,,,,,,,,,,,,,,,1,,,,,,,,,,,,,,,,,,,,,,,,,,,,,,,,,,,,,,,,,,,,,,122,159565,24,Male,1,2024/03/25_16:13:44,YZ,None,
,,,,,,practice,0,27,1,1250,3,Q,0,right,0.7175508720101789,1,0,,,,,,,,,,,,,,,,,,,,,1,,,,,,,,,,,,,,,,,,,,,,,,,,,,,,,,,,,,,,,,,,,,,,122,159565,24,Male,1,2024/03/25_16:13:44,YZ,None,
,,,,,,practice,0,27,1,1250,4,X,0,right,0.581109127990203,1,0,,,,,,,,,,,,,,,,,,,,,1,,,,,,,,,,,,,,,,,,,,,,,,,,,,,,,,,,,,,,,,,,,,,,122,159565,24,Male,1,2024/03/25_16:13:44,YZ,None,
,,,,,,practice,0,27,1,1250,5,N,0,right,0.5501833900052588,1,0,,,,,,,,,,,,,,,,,,,,,1,,,,,,,,,,,,,,,,,,,,,,,,,,,,,,,,,,,,,,,,,,,,,,122,159565,24,Male,1,2024/03/25_16:13:44,YZ,None,
,,,,,,practice,0,27,1,1250,6,N,1,left,0.5687468000105582,1,0,,,,,,,,,,,,,,,,,,,,,1,,,,,,,,,,,,,,,,,,,,,,,,,,,,,,,,,,,,,,,,,,,,,,122,159565,24,Male,1,2024/03/25_16:13:44,YZ,None,
,,,,,,practice,0,27,1,1250,7,X,0,right,0.927465534012299,1,0,,,,,,,,,,,,,,,,,,,,,1,,,,,,,,,,,,,,,,,,,,,,,,,,,,,,,,,,,,,,,,,,,,,,122,159565,24,Male,1,2024/03/25_16:13:44,YZ,None,
,,,,,,practice,0,27,1,1250,8,X,1,left,0.5323765249922872,1,0,,,,,,,,,,,,,,,,,,,,,1,,,,,,,,,,,,,,,,,,,,,,,,,,,,,,,,,,,,,,,,,,,,,,122,159565,24,Male,1,2024/03/25_16:13:44,YZ,None,
,,,,,,practice,0,27,1,1250,9,C,0,right,0.5724953649914823,1,0,,,,,,,,,,,,,,,,,,,,,1,,,,,,,,,,,,,,,,,,,,,,,,,,,,,,,,,,,,,,,,,,,,,,122,159565,24,Male,1,2024/03/25_16:13:44,YZ,None,
,,,,,,practice,0,27,1,1250,10,V,0,right,0.5249574869812932,1,0,,,,,,,,,,,,,,,,,,,,,1,,,,,,,,,,,,,,,,,,,,,,,,,,,,,,,,,,,,,,,,,,,,,,122,159565,24,Male,1,2024/03/25_16:13:44,YZ,None,
,,,,,,practice,0,27,1,1250,,,,,,,,1.0,1.0,0.0,1.0,0.0,1.0,0.6285774313000729,3,0,0,0,0,7,10,3,7,0,,,,1,,,,,,,,,,,,,,,,,,,,,,,,,,,,,,,,,,,,,,,,,,,,,,122,159565,24,Male,1,2024/03/25_16:13:44,YZ,None,
1,./instructions/inst_prac_1_next/Slide35.png,right,1.8247259670170024,649.9558680479822,651.7805940149992,,,,,,,,,,,,,,,,,,,,,,,,,,,,,,,,,1,,,,,,,,,,,,,,,,,,,,,,,,,,,,,,,,,,,,,,,,,,,,,,122,159565,24,Male,1,2024/03/25_16:13:44,YZ,None,
,,,,,,practice,0,21,1,120,1,Q,0,right,0.5646797390072607,1,0,,,,,,,,,,,,,,,,,,,,,1,,,,,,,,,,,,,,,,,,,,,,,,,,,,,,,,,,,,,,,,,,,,,,122,159565,24,Male,1,2024/03/25_16:13:44,YZ,None,
,,,,,,practice,0,21,1,120,2,S,0,right,0.4482214259915054,1,0,,,,,,,,,,,,,,,,,,,,,1,,,,,,,,,,,,,,,,,,,,,,,,,,,,,,,,,,,,,,,,,,,,,,122,159565,24,Male,1,2024/03/25_16:13:44,YZ,None,
,,,,,,practice,0,21,1,120,3,J,0,right,0.5168442169961054,1,0,,,,,,,,,,,,,,,,,,,,,1,,,,,,,,,,,,,,,,,,,,,,,,,,,,,,,,,,,,,,,,,,,,,,122,159565,24,Male,1,2024/03/25_16:13:44,YZ,None,
,,,,,,practice,0,21,1,120,4,J,1,left,0.3842326599988155,1,0,,,,,,,,,,,,,,,,,,,,,1,,,,,,,,,,,,,,,,,,,,,,,,,,,,,,,,,,,,,,,,,,,,,,122,159565,24,Male,1,2024/03/25_16:13:44,YZ,None,
,,,,,,practice,0,21,1,120,5,F,0,right,0.4999255900038406,1,0,,,,,,,,,,,,,,,,,,,,,1,,,,,,,,,,,,,,,,,,,,,,,,,,,,,,,,,,,,,,,,,,,,,,122,159565,24,Male,1,2024/03/25_16:13:44,YZ,None,
,,,,,,practice,0,21,1,120,6,F,1,left,0.4796847600082401,1,0,,,,,,,,,,,,,,,,,,,,,1,,,,,,,,,,,,,,,,,,,,,,,,,,,,,,,,,,,,,,,,,,,,,,122,159565,24,Male,1,2024/03/25_16:13:44,YZ,None,
,,,,,,practice,0,21,1,120,7,V,0,right,0.46822409101878293,1,0,,,,,,,,,,,,,,,,,,,,,1,,,,,,,,,,,,,,,,,,,,,,,,,,,,,,,,,,,,,,,,,,,,,,122,159565,24,Male,1,2024/03/25_16:13:44,YZ,None,
,,,,,,practice,0,21,1,120,8,V,1,left,0.39866419302416034,1,0,,,,,,,,,,,,,,,,,,,,,1,,,,,,,,,,,,,,,,,,,,,,,,,,,,,,,,,,,,,,,,,,,,,,122,159565,24,Male,1,2024/03/25_16:13:44,YZ,None,
,,,,,,practice,0,21,1,120,9,F,0,right,0.540153930982342,1,0,,,,,,,,,,,,,,,,,,,,,1,,,,,,,,,,,,,,,,,,,,,,,,,,,,,,,,,,,,,,,,,,,,,,122,159565,24,Male,1,2024/03/25_16:13:44,YZ,None,
,,,,,,practice,0,21,1,120,10,Q,0,right,0.7887952719756868,1,0,,,,,,,,,,,,,,,,,,,,,1,,,,,,,,,,,,,,,,,,,,,,,,,,,,,,,,,,,,,,,,,,,,,,122,159565,24,Male,1,2024/03/25_16:13:44,YZ,None,
,,,,,,practice,0,21,1,120,11,S,0,right,0.5433637909882236,1,0,,,,,,,,,,,,,,,,,,,,,1,,,,,,,,,,,,,,,,,,,,,,,,,,,,,,,,,,,,,,,,,,,,,,122,159565,24,Male,1,2024/03/25_16:13:44,YZ,None,
,,,,,,practice,0,21,1,120,12,X,0,right,0.4816064429760445,1,0,,,,,,,,,,,,,,,,,,,,,1,,,,,,,,,,,,,,,,,,,,,,,,,,,,,,,,,,,,,,,,,,,,,,122,159565,24,Male,1,2024/03/25_16:13:44,YZ,None,
,,,,,,practice,0,21,1,120,13,N,0,right,0.46573756998986937,1,0,,,,,,,,,,,,,,,,,,,,,1,,,,,,,,,,,,,,,,,,,,,,,,,,,,,,,,,,,,,,,,,,,,,,122,159565,24,Male,1,2024/03/25_16:13:44,YZ,None,
,,,,,,practice,0,21,1,120,14,C,0,right,0.4405216940212995,1,0,,,,,,,,,,,,,,,,,,,,,1,,,,,,,,,,,,,,,,,,,,,,,,,,,,,,,,,,,,,,,,,,,,,,122,159565,24,Male,1,2024/03/25_16:13:44,YZ,None,
,,,,,,practice,0,21,1,120,15,C,1,left,0.46689250101917423,1,0,,,,,,,,,,,,,,,,,,,,,1,,,,,,,,,,,,,,,,,,,,,,,,,,,,,,,,,,,,,,,,,,,,,,122,159565,24,Male,1,2024/03/25_16:13:44,YZ,None,
,,,,,,practice,0,21,1,120,16,F,0,right,0.4734921409981325,1,0,,,,,,,,,,,,,,,,,,,,,1,,,,,,,,,,,,,,,,,,,,,,,,,,,,,,,,,,,,,,,,,,,,,,122,159565,24,Male,1,2024/03/25_16:13:44,YZ,None,
,,,,,,practice,0,21,1,120,17,Q,0,right,0.7006230170081835,1,0,,,,,,,,,,,,,,,,,,,,,1,,,,,,,,,,,,,,,,,,,,,,,,,,,,,,,,,,,,,,,,,,,,,,122,159565,24,Male,1,2024/03/25_16:13:44,YZ,None,
,,,,,,practice,0,21,1,120,18,Q,1,left,0.3757352399989031,1,0,,,,,,,,,,,,,,,,,,,,,1,,,,,,,,,,,,,,,,,,,,,,,,,,,,,,,,,,,,,,,,,,,,,,122,159565,24,Male,1,2024/03/25_16:13:44,YZ,None,
,,,,,,practice,0,21,1,120,19,S,0,right,0.46631093000178225,1,0,,,,,,,,,,,,,,,,,,,,,1,,,,,,,,,,,,,,,,,,,,,,,,,,,,,,,,,,,,,,,,,,,,,,122,159565,24,Male,1,2024/03/25_16:13:44,YZ,None,
,,,,,,practice,0,21,1,120,20,S,1,right,0.4893518789904192,0,0,,,,,,,,,,,,,,,,,,,,,1,,,,,,,,,,,,,,,,,,,,,,,,,,,,,,,,,,,,,,,,,,,,,,122,159565,24,Male,1,2024/03/25_16:13:44,YZ,None,
,,,,,,practice,0,21,1,120,21,N,0,right,1.250349184992956,1,0,,,,,,,,,,,,,,,,,,,,,1,,,,,,,,,,,,,,,,,,,,,,,,,,,,,,,,,,,,,,,,,,,,,,122,159565,24,Male,1,2024/03/25_16:13:44,YZ,None,
,,,,,,practice,0,21,1,120,22,F,0,right,1.008977103017969,1,0,,,,,,,,,,,,,,,,,,,,,1,,,,,,,,,,,,,,,,,,,,,,,,,,,,,,,,,,,,,,,,,,,,,,122,159565,24,Male,1,2024/03/25_16:13:44,YZ,None,
,,,,,,practice,0,21,1,120,23,F,1,left,0.4092671470134519,1,0,,,,,,,,,,,,,,,,,,,,,1,,,,,,,,,,,,,,,,,,,,,,,,,,,,,,,,,,,,,,,,,,,,,,122,159565,24,Male,1,2024/03/25_16:13:44,YZ,None,
,,,,,,practice,0,21,1,120,,,,,,,,0.9642857142857143,0.8571428571428571,0.0,1.0,0.0,1.0,0.550506718261876,6,0,0,0,0,16,22,7,16,0,,,,1,,,,,,,,,,,,,,,,,,,,,,,,,,,,,,,,,,,,,,,,,,,,,,122,159565,24,Male,1,2024/03/25_16:13:44,YZ,None,
,,,,,,practice,0,31,1,120,1,N,0,right,0.5331757200183347,1,0,,,,,,,,,,,,,,,,,,,,,1,,,,,,,,,,,,,,,,,,,,,,,,,,,,,,,,,,,,,,,,,,,,,,122,159565,24,Male,1,2024/03/25_16:13:44,YZ,None,
,,,,,,practice,0,31,1,120,2,X,0,right,0.5609932029910851,1,0,,,,,,,,,,,,,,,,,,,,,1,,,,,,,,,,,,,,,,,,,,,,,,,,,,,,,,,,,,,,,,,,,,,,122,159565,24,Male,1,2024/03/25_16:13:44,YZ,None,
,,,,,,practice,0,31,1,120,3,X,1,left,0.5437186880153604,1,0,,,,,,,,,,,,,,,,,,,,,1,,,,,,,,,,,,,,,,,,,,,,,,,,,,,,,,,,,,,,,,,,,,,,122,159565,24,Male,1,2024/03/25_16:13:44,YZ,None,
,,,,,,practice,0,31,1,120,4,Q,0,right,0.5778346909792162,1,0,,,,,,,,,,,,,,,,,,,,,1,,,,,,,,,,,,,,,,,,,,,,,,,,,,,,,,,,,,,,,,,,,,,,122,159565,24,Male,1,2024/03/25_16:13:44,YZ,None,
,,,,,,practice,0,31,1,120,5,Q,1,left,0.5719569770153612,1,0,,,,,,,,,,,,,,,,,,,,,1,,,,,,,,,,,,,,,,,,,,,,,,,,,,,,,,,,,,,,,,,,,,,,122,159565,24,Male,1,2024/03/25_16:13:44,YZ,None,
,,,,,,practice,0,31,1,120,6,C,0,right,0.48899157301639207,1,0,,,,,,,,,,,,,,,,,,,,,1,,,,,,,,,,,,,,,,,,,,,,,,,,,,,,,,,,,,,,,,,,,,,,122,159565,24,Male,1,2024/03/25_16:13:44,YZ,None,
,,,,,,practice,0,31,1,120,7,N,0,right,0.6565774149785284,1,0,,,,,,,,,,,,,,,,,,,,,1,,,,,,,,,,,,,,,,,,,,,,,,,,,,,,,,,,,,,,,,,,,,,,122,159565,24,Male,1,2024/03/25_16:13:44,YZ,None,
,,,,,,practice,0,31,1,120,8,N,1,left,0.44057424800121225,1,0,,,,,,,,,,,,,,,,,,,,,1,,,,,,,,,,,,,,,,,,,,,,,,,,,,,,,,,,,,,,,,,,,,,,122,159565,24,Male,1,2024/03/25_16:13:44,YZ,None,
,,,,,,practice,0,31,1,120,9,J,0,right,0.48887221500626765,1,0,,,,,,,,,,,,,,,,,,,,,1,,,,,,,,,,,,,,,,,,,,,,,,,,,,,,,,,,,,,,,,,,,,,,122,159565,24,Male,1,2024/03/25_16:13:44,YZ,None,
,,,,,,practice,0,31,1,120,10,F,0,right,0.6075875429960433,1,0,,,,,,,,,,,,,,,,,,,,,1,,,,,,,,,,,,,,,,,,,,,,,,,,,,,,,,,,,,,,,,,,,,,,122,159565,24,Male,1,2024/03/25_16:13:44,YZ,None,
,,,,,,practice,0,31,1,120,11,S,0,right,0.6253638569905888,1,0,,,,,,,,,,,,,,,,,,,,,1,,,,,,,,,,,,,,,,,,,,,,,,,,,,,,,,,,,,,,,,,,,,,,122,159565,24,Male,1,2024/03/25_16:13:44,YZ,None,
,,,,,,practice,0,31,1,120,12,N,0,right,0.8652331859921105,1,0,,,,,,,,,,,,,,,,,,,,,1,,,,,,,,,,,,,,,,,,,,,,,,,,,,,,,,,,,,,,,,,,,,,,122,159565,24,Male,1,2024/03/25_16:13:44,YZ,None,
,,,,,,practice,0,31,1,120,13,N,1,left,0.41803446400444955,1,0,,,,,,,,,,,,,,,,,,,,,1,,,,,,,,,,,,,,,,,,,,,,,,,,,,,,,,,,,,,,,,,,,,,,122,159565,24,Male,1,2024/03/25_16:13:44,YZ,None,
,,,,,,practice,0,31,1,120,14,S,0,right,0.5077876070281491,1,0,,,,,,,,,,,,,,,,,,,,,1,,,,,,,,,,,,,,,,,,,,,,,,,,,,,,,,,,,,,,,,,,,,,,122,159565,24,Male,1,2024/03/25_16:13:44,YZ,None,
,,,,,,practice,0,31,1,120,15,V,0,right,0.5041820910118986,1,0,,,,,,,,,,,,,,,,,,,,,1,,,,,,,,,,,,,,,,,,,,,,,,,,,,,,,,,,,,,,,,,,,,,,122,159565,24,Male,1,2024/03/25_16:13:44,YZ,None,
,,,,,,practice,0,31,1,120,16,C,0,right,0.5039195829886012,1,0,,,,,,,,,,,,,,,,,,,,,1,,,,,,,,,,,,,,,,,,,,,,,,,,,,,,,,,,,,,,,,,,,,,,122,159565,24,Male,1,2024/03/25_16:13:44,YZ,None,
,,,,,,practice,0,31,1,120,17,F,0,right,0.47219079997739755,1,0,,,,,,,,,,,,,,,,,,,,,1,,,,,,,,,,,,,,,,,,,,,,,,,,,,,,,,,,,,,,,,,,,,,,122,159565,24,Male,1,2024/03/25_16:13:44,YZ,None,
,,,,,,practice,0,31,1,120,18,N,0,right,0.4955110320006497,1,0,,,,,,,,,,,,,,,,,,,,,1,,,,,,,,,,,,,,,,,,,,,,,,,,,,,,,,,,,,,,,,,,,,,,122,159565,24,Male,1,2024/03/25_16:13:44,YZ,None,
,,,,,,practice,0,31,1,120,19,Q,0,right,0.5378427389950957,1,0,,,,,,,,,,,,,,,,,,,,,1,,,,,,,,,,,,,,,,,,,,,,,,,,,,,,,,,,,,,,,,,,,,,,122,159565,24,Male,1,2024/03/25_16:13:44,YZ,None,
,,,,,,practice,0,31,1,120,20,Q,1,left,0.5602973210043274,1,0,,,,,,,,,,,,,,,,,,,,,1,,,,,,,,,,,,,,,,,,,,,,,,,,,,,,,,,,,,,,,,,,,,,,122,159565,24,Male,1,2024/03/25_16:13:44,YZ,None,
,,,,,,practice,0,31,1,120,21,X,0,right,0.4097283720038831,1,0,,,,,,,,,,,,,,,,,,,,,1,,,,,,,,,,,,,,,,,,,,,,,,,,,,,,,,,,,,,,,,,,,,,,122,159565,24,Male,1,2024/03/25_16:13:44,YZ,None,
,,,,,,practice,0,31,1,120,22,X,1,left,0.4689807249815203,1,0,,,,,,,,,,,,,,,,,,,,,1,,,,,,,,,,,,,,,,,,,,,,,,,,,,,,,,,,,,,,,,,,,,,,122,159565,24,Male,1,2024/03/25_16:13:44,YZ,None,
,,,,,,practice,0,31,1,120,23,F,0,right,0.4392128780018538,1,0,,,,,,,,,,,,,,,,,,,,,1,,,,,,,,,,,,,,,,,,,,,,,,,,,,,,,,,,,,,,,,,,,,,,122,159565,24,Male,1,2024/03/25_16:13:44,YZ,None,
,,,,,,practice,0,31,1,120,,,,,,,,1.0,1.0,0.0,1.0,0.0,1.0,0.5338507359999273,6,0,0,0,0,17,23,6,17,0,,,,1,,,,,,,,,,,,,,,,,,,,,,,,,,,,,,,,,,,,,,,,,,,,,,122,159565,24,Male,1,2024/03/25_16:13:44,YZ,None,
1,./instructions/inst_prac_3/Slide37.png,right,7.993634600978112,705.0190854319953,713.0127200329734,,,,,,,,,,,,,,,,,,,,,,,,,,,,,,,,,1,,,,,,,,,,,,,,,,,,,,,,,,,,,,,,,,,,,,,,,,,,,,,,122,159565,24,Male,1,2024/03/25_16:13:44,YZ,None,
2,./instructions/inst_prac_3/Slide38.png,right,1.5700279839802533,713.0425534039969,714.6125813879771,,,,,,,,,,,,,,,,,,,,,,,,,,,,,,,,,1,,,,,,,,,,,,,,,,,,,,,,,,,,,,,,,,,,,,,,,,,,,,,,122,159565,24,Male,1,2024/03/25_16:13:44,YZ,None,
3,./instructions/inst_prac_3/Slide39.png,right,0.722970628994517,714.6415144109924,715.3644850399869,,,,,,,,,,,,,,,,,,,,,,,,,,,,,,,,,1,,,,,,,,,,,,,,,,,,,,,,,,,,,,,,,,,,,,,,,,,,,,,,122,159565,24,Male,1,2024/03/25_16:13:44,YZ,None,
4,./instructions/inst_prac_3/Slide40.png,right,0.7072873690049164,715.393210122973,716.1004974919779,,,,,,,,,,,,,,,,,,,,,,,,,,,,,,,,,1,,,,,,,,,,,,,,,,,,,,,,,,,,,,,,,,,,,,,,,,,,,,,,122,159565,24,Male,1,2024/03/25_16:13:44,YZ,None,
5,./instructions/inst_prac_3/Slide41.png,right,1.274877716001356,716.1297786759969,717.4046563919983,,,,,,,,,,,,,,,,,,,,,,,,,,,,,,,,,1,,,,,,,,,,,,,,,,,,,,,,,,,,,,,,,,,,,,,,,,,,,,,,122,159565,24,Male,1,2024/03/25_16:13:44,YZ,None,
4,./instructions/inst_prac_3/Slide42.png,left,0.9165374329895712,717.4321740549931,718.3487114879827,,,,,,,,,,,,,,,,,,,,,,,,,,,,,,,,,1,,,,,,,,,,,,,,,,,,,,,,,,,,,,,,,,,,,,,,,,,,,,,,122,159565,24,Male,1,2024/03/25_16:13:44,YZ,None,
5,./instructions/inst_prac_3/Slide41.png,right,1.739228621008806,718.3774727819837,720.1167014029925,,,,,,,,,,,,,,,,,,,,,,,,,,,,,,,,,1,,,,,,,,,,,,,,,,,,,,,,,,,,,,,,,,,,,,,,,,,,,,,,122,159565,24,Male,1,2024/03/25_16:13:44,YZ,None,
6,./instructions/inst_prac_3/Slide42.png,right,1.243336839019321,720.1452930139785,721.3886298529978,,,,,,,,,,,,,,,,,,,,,,,,,,,,,,,,,1,,,,,,,,,,,,,,,,,,,,,,,,,,,,,,,,,,,,,,,,,,,,,,122,159565,24,Male,1,2024/03/25_16:13:44,YZ,None,
7,./instructions/inst_prac_3/Slide43.png,right,6.5229102179873735,721.4177397530002,727.9406499709876,,,,,,,,,,,,,,,,,,,,,,,,,,,,,,,,,1,,,,,,,,,,,,,,,,,,,,,,,,,,,,,,,,,,,,,,,,,,,,,,122,159565,24,Male,1,2024/03/25_16:13:44,YZ,None,
8,./instructions/inst_prac_3/Slide44.png,right,2.2663869519892614,727.9701825309894,730.2365694829787,,,,,,,,,,,,,,,,,,,,,,,,,,,,,,,,,1,,,,,,,,,,,,,,,,,,,,,,,,,,,,,,,,,,,,,,,,,,,,,,122,159565,24,Male,1,2024/03/25_16:13:44,YZ,None,
,,,,,,practice,0,11,3,788,1,V,0,right,0.6817417849961203,1,0,,,,,,,,,,,,,,,,,,,,,1,,,,,,,,,,,,,,,,,,,,,,,,,,,,,,,,,,,,,,,,,,,,,,122,159565,24,Male,1,2024/03/25_16:13:44,YZ,None,
,,,,,,practice,0,11,3,788,2,N,0,right,0.75625176000176,1,0,,,,,,,,,,,,,,,,,,,,,1,,,,,,,,,,,,,,,,,,,,,,,,,,,,,,,,,,,,,,,,,,,,,,122,159565,24,Male,1,2024/03/25_16:13:44,YZ,None,
,,,,,,practice,0,11,3,788,3,N,0,right,0.6794332709978335,1,0,,,,,,,,,,,,,,,,,,,,,1,,,,,,,,,,,,,,,,,,,,,,,,,,,,,,,,,,,,,,,,,,,,,,122,159565,24,Male,1,2024/03/25_16:13:44,YZ,None,
,,,,,,practice,0,11,3,788,4,Q,0,right,0.7241447679989506,1,0,,,,,,,,,,,,,,,,,,,,,1,,,,,,,,,,,,,,,,,,,,,,,,,,,,,,,,,,,,,,,,,,,,,,122,159565,24,Male,1,2024/03/25_16:13:44,YZ,None,
,,,,,,practice,0,11,3,788,5,N,1,left,0.8086198240052909,1,0,,,,,,,,,,,,,,,,,,,,,1,,,,,,,,,,,,,,,,,,,,,,,,,,,,,,,,,,,,,,,,,,,,,,122,159565,24,Male,1,2024/03/25_16:13:44,YZ,None,
,,,,,,practice,0,11,3,788,6,Q,0,right,3.356539608008461,1,0,,,,,,,,,,,,,,,,,,,,,1,,,,,,,,,,,,,,,,,,,,,,,,,,,,,,,,,,,,,,,,,,,,,,122,159565,24,Male,1,2024/03/25_16:13:44,YZ,None,
,,,,,,practice,0,11,3,788,7,J,0,right,0.6201240019872785,1,0,,,,,,,,,,,,,,,,,,,,,1,,,,,,,,,,,,,,,,,,,,,,,,,,,,,,,,,,,,,,,,,,,,,,122,159565,24,Male,1,2024/03/25_16:13:44,YZ,None,
,,,,,,practice,0,11,3,788,8,N,1,right,0.5977710130100604,0,0,,,,,,,,,,,,,,,,,,,,,1,,,,,,,,,,,,,,,,,,,,,,,,,,,,,,,,,,,,,,,,,,,,,,122,159565,24,Male,1,2024/03/25_16:13:44,YZ,None,
,,,,,,practice,0,11,3,788,9,V,0,right,0.7232380660134368,1,0,,,,,,,,,,,,,,,,,,,,,1,,,,,,,,,,,,,,,,,,,,,,,,,,,,,,,,,,,,,,,,,,,,,,122,159565,24,Male,1,2024/03/25_16:13:44,YZ,None,
,,,,,,practice,0,11,3,788,10,J,1,left,0.5332707499910612,1,0,,,,,,,,,,,,,,,,,,,,,1,,,,,,,,,,,,,,,,,,,,,,,,,,,,,,,,,,,,,,,,,,,,,,122,159565,24,Male,1,2024/03/25_16:13:44,YZ,None,
,,,,,,practice,0,11,3,788,11,F,0,right,0.781156439014012,1,0,,,,,,,,,,,,,,,,,,,,,1,,,,,,,,,,,,,,,,,,,,,,,,,,,,,,,,,,,,,,,,,,,,,,122,159565,24,Male,1,2024/03/25_16:13:44,YZ,None,
,,,,,,practice,0,11,3,788,12,X,0,right,0.7965659420005977,1,0,,,,,,,,,,,,,,,,,,,,,1,,,,,,,,,,,,,,,,,,,,,,,,,,,,,,,,,,,,,,,,,,,,,,122,159565,24,Male,1,2024/03/25_16:13:44,YZ,None,
,,,,,,practice,0,11,3,788,13,J,1,left,0.5097508180188015,1,0,,,,,,,,,,,,,,,,,,,,,1,,,,,,,,,,,,,,,,,,,,,,,,,,,,,,,,,,,,,,,,,,,,,,122,159565,24,Male,1,2024/03/25_16:13:44,YZ,None,
,,,,,,practice,0,11,3,788,,,,,,,,0.9375,0.75,0.0,1.0,0.0,1.0,0.8898929266187434,3,0,0,0,0,9,12,4,9,0,,,,1,,,,,,,,,,,,,,,,,,,,,,,,,,,,,,,,,,,,,,,,,,,,,,122,159565,24,Male,1,2024/03/25_16:13:44,YZ,None,
1,./instructions/inst_prac_3_next/Slide49.png,right,5.746842649998143,756.0099120969826,761.7567547469807,,,,,,,,,,,,,,,,,,,,,,,,,,,,,,,,,1,,,,,,,,,,,,,,,,,,,,,,,,,,,,,,,,,,,,,,,,,,,,,,122,159565,24,Male,1,2024/03/25_16:13:44,YZ,None,
,,,,,,practice,0,10,3,120,1,N,0,right,0.6705028729920741,1,0,,,,,,,,,,,,,,,,,,,,,1,,,,,,,,,,,,,,,,,,,,,,,,,,,,,,,,,,,,,,,,,,,,,,122,159565,24,Male,1,2024/03/25_16:13:44,YZ,None,
,,,,,,practice,0,10,3,120,2,F,0,right,0.6153823059867136,1,0,,,,,,,,,,,,,,,,,,,,,1,,,,,,,,,,,,,,,,,,,,,,,,,,,,,,,,,,,,,,,,,,,,,,122,159565,24,Male,1,2024/03/25_16:13:44,YZ,None,
,,,,,,practice,0,10,3,120,3,Q,0,right,0.819425872003194,1,0,,,,,,,,,,,,,,,,,,,,,1,,,,,,,,,,,,,,,,,,,,,,,,,,,,,,,,,,,,,,,,,,,,,,122,159565,24,Male,1,2024/03/25_16:13:44,YZ,None,
,,,,,,practice,0,10,3,120,4,V,0,right,0.8969750789983664,1,0,,,,,,,,,,,,,,,,,,,,,1,,,,,,,,,,,,,,,,,,,,,,,,,,,,,,,,,,,,,,,,,,,,,,122,159565,24,Male,1,2024/03/25_16:13:44,YZ,None,
,,,,,,practice,0,10,3,120,5,C,0,right,0.6601143799780402,1,0,,,,,,,,,,,,,,,,,,,,,1,,,,,,,,,,,,,,,,,,,,,,,,,,,,,,,,,,,,,,,,,,,,,,122,159565,24,Male,1,2024/03/25_16:13:44,YZ,None,
,,,,,,practice,0,10,3,120,6,Q,1,right,1.1157993560191244,0,0,,,,,,,,,,,,,,,,,,,,,1,,,,,,,,,,,,,,,,,,,,,,,,,,,,,,,,,,,,,,,,,,,,,,122,159565,24,Male,1,2024/03/25_16:13:44,YZ,None,
,,,,,,practice,0,10,3,120,7,C,0,left,1.2636035589966923,0,0,,,,,,,,,,,,,,,,,,,,,1,,,,,,,,,,,,,,,,,,,,,,,,,,,,,,,,,,,,,,,,,,,,,,122,159565,24,Male,1,2024/03/25_16:13:44,YZ,None,
,,,,,,practice,0,10,3,120,8,C,1,right,1.9170443860057276,0,0,,,,,,,,,,,,,,,,,,,,,1,,,,,,,,,,,,,,,,,,,,,,,,,,,,,,,,,,,,,,,,,,,,,,122,159565,24,Male,1,2024/03/25_16:13:44,YZ,None,
,,,,,,practice,0,10,3,120,9,X,0,right,1.1779249419923872,1,0,,,,,,,,,,,,,,,,,,,,,1,,,,,,,,,,,,,,,,,,,,,,,,,,,,,,,,,,,,,,,,,,,,,,122,159565,24,Male,1,2024/03/25_16:13:44,YZ,None,
,,,,,,practice,0,10,3,120,10,S,0,right,1.1124909729987849,1,0,,,,,,,,,,,,,,,,,,,,,1,,,,,,,,,,,,,,,,,,,,,,,,,,,,,,,,,,,,,,,,,,,,,,122,159565,24,Male,1,2024/03/25_16:13:44,YZ,None,
,,,,,,practice,0,10,3,120,11,X,0,left,0.6488990990037564,0,0,,,,,,,,,,,,,,,,,,,,,1,,,,,,,,,,,,,,,,,,,,,,,,,,,,,,,,,,,,,,,,,,,,,,122,159565,24,Male,1,2024/03/25_16:13:44,YZ,None,
,,,,,,practice,0,10,3,120,12,N,0,right,0.9891076720086858,1,0,,,,,,,,,,,,,,,,,,,,,1,,,,,,,,,,,,,,,,,,,,,,,,,,,,,,,,,,,,,,,,,,,,,,122,159565,24,Male,1,2024/03/25_16:13:44,YZ,None,
,,,,,,practice,0,10,3,120,13,V,0,right,0.6981178959831595,1,0,,,,,,,,,,,,,,,,,,,,,1,,,,,,,,,,,,,,,,,,,,,,,,,,,,,,,,,,,,,,,,,,,,,,122,159565,24,Male,1,2024/03/25_16:13:44,YZ,None,
,,,,,,practice,0,10,3,120,14,Q,0,right,0.8565513279754668,1,0,,,,,,,,,,,,,,,,,,,,,1,,,,,,,,,,,,,,,,,,,,,,,,,,,,,,,,,,,,,,,,,,,,,,122,159565,24,Male,1,2024/03/25_16:13:44,YZ,None,
,,,,,,practice,0,10,3,120,15,X,0,left,0.6584442520106677,0,0,,,,,,,,,,,,,,,,,,,,,1,,,,,,,,,,,,,,,,,,,,,,,,,,,,,,,,,,,,,,,,,,,,,,122,159565,24,Male,1,2024/03/25_16:13:44,YZ,None,
,,,,,,practice,0,10,3,120,16,V,1,right,0.78901846401277,0,0,,,,,,,,,,,,,,,,,,,,,1,,,,,,,,,,,,,,,,,,,,,,,,,,,,,,,,,,,,,,,,,,,,,,122,159565,24,Male,1,2024/03/25_16:13:44,YZ,None,
,,,,,,practice,0,10,3,120,17,C,0,right,0.6982755310018547,1,0,,,,,,,,,,,,,,,,,,,,,1,,,,,,,,,,,,,,,,,,,,,,,,,,,,,,,,,,,,,,,,,,,,,,122,159565,24,Male,1,2024/03/25_16:13:44,YZ,None,
,,,,,,practice,0,10,3,120,18,X,1,right,0.9616109750058968,0,0,,,,,,,,,,,,,,,,,,,,,1,,,,,,,,,,,,,,,,,,,,,,,,,,,,,,,,,,,,,,,,,,,,,,122,159565,24,Male,1,2024/03/25_16:13:44,YZ,None,
,,,,,,practice,0,10,3,120,19,V,1,left,0.3760601310059428,1,0,,,,,,,,,,,,,,,,,,,,,1,,,,,,,,,,,,,,,,,,,,,,,,,,,,,,,,,,,,,,,,,,,,,,122,159565,24,Male,1,2024/03/25_16:13:44,YZ,None,
,,,,,,practice,0,10,3,120,20,F,0,right,0.7007634410110768,1,0,,,,,,,,,,,,,,,,,,,,,1,,,,,,,,,,,,,,,,,,,,,,,,,,,,,,,,,,,,,,,,,,,,,,122,159565,24,Male,1,2024/03/25_16:13:44,YZ,None,
,,,,,,practice,0,10,3,120,21,X,1,right,0.6451417080243118,0,0,,,,,,,,,,,,,,,,,,,,,1,,,,,,,,,,,,,,,,,,,,,,,,,,,,,,,,,,,,,,,,,,,,,,122,159565,24,Male,1,2024/03/25_16:13:44,YZ,None,
,,,,,,practice,0,10,3,120,22,C,0,right,1.2442599349888042,1,0,,,,,,,,,,,,,,,,,,,,,1,,,,,,,,,,,,,,,,,,,,,,,,,,,,,,,,,,,,,,,,,,,,,,122,159565,24,Male,1,2024/03/25_16:13:44,YZ,None,
,,,,,,practice,0,10,3,120,23,V,0,right,0.8208263629931025,1,0,,,,,,,,,,,,,,,,,,,,,1,,,,,,,,,,,,,,,,,,,,,,,,,,,,,,,,,,,,,,,,,,,,,,122,159565,24,Male,1,2024/03/25_16:13:44,YZ,None,
,,,,,,practice,0,10,3,120,,,,,,,,0.011437908496732069,0.16666666666666666,0.17647058823529413,0.8235294117647058,0.0,0.8235294117647058,0.8841887183042,1,3,0,0,0,14,15,6,17,0,,,,1,,,,,,,,,,,,,,,,,,,,,,,,,,,,,,,,,,,,,,,,,,,,,,122,159565,24,Male,1,2024/03/25_16:13:44,YZ,None,
,,,,,,practice,0,23,3,120,1,N,0,right,1.0259030059969518,1,0,,,,,,,,,,,,,,,,,,,,,1,,,,,,,,,,,,,,,,,,,,,,,,,,,,,,,,,,,,,,,,,,,,,,122,159565,24,Male,1,2024/03/25_16:13:44,YZ,None,
,,,,,,practice,0,23,3,120,2,V,0,right,0.38437333799083717,1,0,,,,,,,,,,,,,,,,,,,,,1,,,,,,,,,,,,,,,,,,,,,,,,,,,,,,,,,,,,,,,,,,,,,,122,159565,24,Male,1,2024/03/25_16:13:44,YZ,None,
,,,,,,practice,0,23,3,120,3,S,0,right,0.7087285599845927,1,0,,,,,,,,,,,,,,,,,,,,,1,,,,,,,,,,,,,,,,,,,,,,,,,,,,,,,,,,,,,,,,,,,,,,122,159565,24,Male,1,2024/03/25_16:13:44,YZ,None,
,,,,,,practice,0,23,3,120,4,N,1,left,0.6927892469975632,1,0,,,,,,,,,,,,,,,,,,,,,1,,,,,,,,,,,,,,,,,,,,,,,,,,,,,,,,,,,,,,,,,,,,,,122,159565,24,Male,1,2024/03/25_16:13:44,YZ,None,
,,,,,,practice,0,23,3,120,5,C,0,right,0.5615883140126243,1,0,,,,,,,,,,,,,,,,,,,,,1,,,,,,,,,,,,,,,,,,,,,,,,,,,,,,,,,,,,,,,,,,,,,,122,159565,24,Male,1,2024/03/25_16:13:44,YZ,None,
,,,,,,practice,0,23,3,120,6,S,1,left,0.4126999690197408,1,0,,,,,,,,,,,,,,,,,,,,,1,,,,,,,,,,,,,,,,,,,,,,,,,,,,,,,,,,,,,,,,,,,,,,122,159565,24,Male,1,2024/03/25_16:13:44,YZ,None,
,,,,,,practice,0,23,3,120,7,F,0,right,1.1474315140221734,1,0,,,,,,,,,,,,,,,,,,,,,1,,,,,,,,,,,,,,,,,,,,,,,,,,,,,,,,,,,,,,,,,,,,,,122,159565,24,Male,1,2024/03/25_16:13:44,YZ,None,
,,,,,,practice,0,23,3,120,8,N,0,right,1.487685310014058,1,0,,,,,,,,,,,,,,,,,,,,,1,,,,,,,,,,,,,,,,,,,,,,,,,,,,,,,,,,,,,,,,,,,,,,122,159565,24,Male,1,2024/03/25_16:13:44,YZ,None,
,,,,,,practice,0,23,3,120,9,S,1,left,0.6171808810031507,1,0,,,,,,,,,,,,,,,,,,,,,1,,,,,,,,,,,,,,,,,,,,,,,,,,,,,,,,,,,,,,,,,,,,,,122,159565,24,Male,1,2024/03/25_16:13:44,YZ,None,
,,,,,,practice,0,23,3,120,10,C,0,right,0.652449779008748,1,0,,,,,,,,,,,,,,,,,,,,,1,,,,,,,,,,,,,,,,,,,,,,,,,,,,,,,,,,,,,,,,,,,,,,122,159565,24,Male,1,2024/03/25_16:13:44,YZ,None,
,,,,,,practice,0,23,3,120,11,F,0,right,1.2560459389933385,1,0,,,,,,,,,,,,,,,,,,,,,1,,,,,,,,,,,,,,,,,,,,,,,,,,,,,,,,,,,,,,,,,,,,,,122,159565,24,Male,1,2024/03/25_16:13:44,YZ,None,
,,,,,,practice,0,23,3,120,12,S,1,left,0.8324753449996933,1,0,,,,,,,,,,,,,,,,,,,,,1,,,,,,,,,,,,,,,,,,,,,,,,,,,,,,,,,,,,,,,,,,,,,,122,159565,24,Male,1,2024/03/25_16:13:44,YZ,None,
,,,,,,practice,0,23,3,120,13,S,0,right,0.7964263059839141,1,0,,,,,,,,,,,,,,,,,,,,,1,,,,,,,,,,,,,,,,,,,,,,,,,,,,,,,,,,,,,,,,,,,,,,122,159565,24,Male,1,2024/03/25_16:13:44,YZ,None,
,,,,,,practice,0,23,3,120,14,Q,0,right,0.6365141030109953,1,0,,,,,,,,,,,,,,,,,,,,,1,,,,,,,,,,,,,,,,,,,,,,,,,,,,,,,,,,,,,,,,,,,,,,122,159565,24,Male,1,2024/03/25_16:13:44,YZ,None,
,,,,,,practice,0,23,3,120,15,J,0,right,1.0719795879849698,1,0,,,,,,,,,,,,,,,,,,,,,1,,,,,,,,,,,,,,,,,,,,,,,,,,,,,,,,,,,,,,,,,,,,,,122,159565,24,Male,1,2024/03/25_16:13:44,YZ,None,
,,,,,,practice,0,23,3,120,16,V,0,left,0.7691496869956609,0,0,,,,,,,,,,,,,,,,,,,,,1,,,,,,,,,,,,,,,,,,,,,,,,,,,,,,,,,,,,,,,,,,,,,,122,159565,24,Male,1,2024/03/25_16:13:44,YZ,None,
,,,,,,practice,0,23,3,120,17,S,0,left,0.6655999509966932,0,0,,,,,,,,,,,,,,,,,,,,,1,,,,,,,,,,,,,,,,,,,,,,,,,,,,,,,,,,,,,,,,,,,,,,122,159565,24,Male,1,2024/03/25_16:13:44,YZ,None,
,,,,,,practice,0,23,3,120,18,N,0,right,1.2374618310132064,1,0,,,,,,,,,,,,,,,,,,,,,1,,,,,,,,,,,,,,,,,,,,,,,,,,,,,,,,,,,,,,,,,,,,,,122,159565,24,Male,1,2024/03/25_16:13:44,YZ,None,
,,,,,,practice,0,23,3,120,19,V,1,right,1.4334111670032144,0,0,,,,,,,,,,,,,,,,,,,,,1,,,,,,,,,,,,,,,,,,,,,,,,,,,,,,,,,,,,,,,,,,,,,,122,159565,24,Male,1,2024/03/25_16:13:44,YZ,None,
,,,,,,practice,0,23,3,120,20,J,0,right,1.6481658399861772,1,0,,,,,,,,,,,,,,,,,,,,,1,,,,,,,,,,,,,,,,,,,,,,,,,,,,,,,,,,,,,,,,,,,,,,122,159565,24,Male,1,2024/03/25_16:13:44,YZ,None,
,,,,,,practice,0,23,3,120,21,V,0,left,0.7144399349926971,0,0,,,,,,,,,,,,,,,,,,,,,1,,,,,,,,,,,,,,,,,,,,,,,,,,,,,,,,,,,,,,,,,,,,,,122,159565,24,Male,1,2024/03/25_16:13:44,YZ,None,
,,,,,,practice,0,23,3,120,22,J,0,right,1.2086965369817335,1,0,,,,,,,,,,,,,,,,,,,,,1,,,,,,,,,,,,,,,,,,,,,,,,,,,,,,,,,,,,,,,,,,,,,,122,159565,24,Male,1,2024/03/25_16:13:44,YZ,None,
,,,,,,practice,0,23,3,120,23,J,1,left,0.6536123559926637,1,0,,,,,,,,,,,,,,,,,,,,,1,,,,,,,,,,,,,,,,,,,,,,,,,,,,,,,,,,,,,,,,,,,,,,122,159565,24,Male,1,2024/03/25_16:13:44,YZ,None,
,,,,,,practice,0,23,3,120,,,,,,,,0.8848039215686274,0.8333333333333334,0.17647058823529413,0.8235294117647058,0.0,0.8235294117647058,0.8962960218689303,5,3,0,0,0,14,19,6,17,0,,,,1,,,,,,,,,,,,,,,,,,,,,,,,,,,,,,,,,,,,,,,,,,,,,,122,159565,24,Male,1,2024/03/25_16:13:44,YZ,None,
1,./instructions/inst_prac_main/Slide51.png,right,4.436071283998899,830.9445119449811,835.38058322898,,,,,,,,,,,,,,,,,,,,,,,,,,,,,,,,,1,,,,,,,,,,,,,,,,,,,,,,,,,,,,,,,,,,,,,,,,,,,,,,122,159565,24,Male,1,2024/03/25_16:13:44,YZ,None,
2,./instructions/inst_prac_main/Slide52.png,right,34.97870336601045,835.4098957979877,870.3885991639982,,,,,,,,,,,,,,,,,,,,,,,,,,,,,,,,,1,,,,,,,,,,,,,,,,,,,,,,,,,,,,,,,,,,,,,,,,,,,,,,122,159565,24,Male,1,2024/03/25_16:13:44,YZ,None,
3,./instructions/inst_prac_main/Slide53.png,right,9.154407048015855,870.418111402978,879.5725184509938,,,,,,,,,,,,,,,,,,,,,,,,,,,,,,,,,1,,,,,,,,,,,,,,,,,,,,,,,,,,,,,,,,,,,,,,,,,,,,,,122,159565,24,Male,1,2024/03/25_16:13:44,YZ,None,
4,./instructions/inst_prac_main/Slide54.png,right,13.516307870013407,879.6003842379723,893.1166921079857,,,,,,,,,,,,,,,,,,,,,,,,,,,,,,,,,1,,,,,,,,,,,,,,,,,,,,,,,,,,,,,,,,,,,,,,,,,,,,,,122,159565,24,Male,1,2024/03/25_16:13:44,YZ,None,
,,,,,,practice_main,0,1,1,120,1,S,0,right,0.6734807110042311,1,0,,,,,,,,,,,,,,,,,,,,,1,,,,,,,,,,,,,,,,,,,,,,,,,,,,,,,,,,,,,,,,,,,,,,122,159565,24,Male,1,2024/03/25_16:13:44,YZ,None,
,,,,,,practice_main,0,1,1,120,2,S,1,left,0.6361273520160466,1,0,,,,,,,,,,,,,,,,,,,,,1,,,,,,,,,,,,,,,,,,,,,,,,,,,,,,,,,,,,,,,,,,,,,,122,159565,24,Male,1,2024/03/25_16:13:44,YZ,None,
,,,,,,practice_main,0,1,1,120,3,J,0,right,0.4088965900009498,1,0,,,,,,,,,,,,,,,,,,,,,1,,,,,,,,,,,,,,,,,,,,,,,,,,,,,,,,,,,,,,,,,,,,,,122,159565,24,Male,1,2024/03/25_16:13:44,YZ,None,
,,,,,,practice_main,0,1,1,120,4,X,0,right,0.5526865049905609,1,0,,,,,,,,,,,,,,,,,,,,,1,,,,,,,,,,,,,,,,,,,,,,,,,,,,,,,,,,,,,,,,,,,,,,122,159565,24,Male,1,2024/03/25_16:13:44,YZ,None,
,,,,,,practice_main,0,1,1,120,5,S,0,right,0.5465858899988234,1,0,,,,,,,,,,,,,,,,,,,,,1,,,,,,,,,,,,,,,,,,,,,,,,,,,,,,,,,,,,,,,,,,,,,,122,159565,24,Male,1,2024/03/25_16:13:44,YZ,None,
,,,,,,practice_main,0,1,1,120,6,J,0,right,0.7487637430022005,1,0,,,,,,,,,,,,,,,,,,,,,1,,,,,,,,,,,,,,,,,,,,,,,,,,,,,,,,,,,,,,,,,,,,,,122,159565,24,Male,1,2024/03/25_16:13:44,YZ,None,
,,,,,,practice_main,0,1,1,120,7,X,0,right,0.7315846630081069,1,0,,,,,,,,,,,,,,,,,,,,,1,,,,,,,,,,,,,,,,,,,,,,,,,,,,,,,,,,,,,,,,,,,,,,122,159565,24,Male,1,2024/03/25_16:13:44,YZ,None,
,,,,,,practice_main,0,1,1,120,8,X,1,left,0.37109194000368007,1,0,,,,,,,,,,,,,,,,,,,,,1,,,,,,,,,,,,,,,,,,,,,,,,,,,,,,,,,,,,,,,,,,,,,,122,159565,24,Male,1,2024/03/25_16:13:44,YZ,None,
,,,,,,practice_main,0,1,1,120,9,Q,0,right,0.45603381798719056,1,0,,,,,,,,,,,,,,,,,,,,,1,,,,,,,,,,,,,,,,,,,,,,,,,,,,,,,,,,,,,,,,,,,,,,122,159565,24,Male,1,2024/03/25_16:13:44,YZ,None,
,,,,,,practice_main,0,1,1,120,10,V,0,right,0.4239689219975844,1,0,,,,,,,,,,,,,,,,,,,,,1,,,,,,,,,,,,,,,,,,,,,,,,,,,,,,,,,,,,,,,,,,,,,,122,159565,24,Male,1,2024/03/25_16:13:44,YZ,None,
,,,,,,practice_main,0,1,1,120,11,V,1,left,0.4491783010016661,1,0,,,,,,,,,,,,,,,,,,,,,1,,,,,,,,,,,,,,,,,,,,,,,,,,,,,,,,,,,,,,,,,,,,,,122,159565,24,Male,1,2024/03/25_16:13:44,YZ,None,
,,,,,,practice_main,0,1,1,120,12,N,0,right,0.6175167020119261,1,0,,,,,,,,,,,,,,,,,,,,,1,,,,,,,,,,,,,,,,,,,,,,,,,,,,,,,,,,,,,,,,,,,,,,122,159565,24,Male,1,2024/03/25_16:13:44,YZ,None,
,,,,,,practice_main,0,1,1,120,13,J,0,right,0.7225485340168234,1,0,,,,,,,,,,,,,,,,,,,,,1,,,,,,,,,,,,,,,,,,,,,,,,,,,,,,,,,,,,,,,,,,,,,,122,159565,24,Male,1,2024/03/25_16:13:44,YZ,None,
,,,,,,practice_main,0,1,1,120,14,X,0,right,0.580633100005798,1,0,,,,,,,,,,,,,,,,,,,,,1,,,,,,,,,,,,,,,,,,,,,,,,,,,,,,,,,,,,,,,,,,,,,,122,159565,24,Male,1,2024/03/25_16:13:44,YZ,None,
,,,,,,practice_main,0,1,1,120,15,X,1,left,0.3529924610047601,1,0,,,,,,,,,,,,,,,,,,,,,1,,,,,,,,,,,,,,,,,,,,,,,,,,,,,,,,,,,,,,,,,,,,,,122,159565,24,Male,1,2024/03/25_16:13:44,YZ,None,
,,,,,,practice_main,0,1,1,120,16,C,0,right,0.4317846160265617,1,0,,,,,,,,,,,,,,,,,,,,,1,,,,,,,,,,,,,,,,,,,,,,,,,,,,,,,,,,,,,,,,,,,,,,122,159565,24,Male,1,2024/03/25_16:13:44,YZ,None,
,,,,,,practice_main,0,1,1,120,17,C,1,left,0.3894170870189555,1,0,,,,,,,,,,,,,,,,,,,,,1,,,,,,,,,,,,,,,,,,,,,,,,,,,,,,,,,,,,,,,,,,,,,,122,159565,24,Male,1,2024/03/25_16:13:44,YZ,None,
,,,,,,practice_main,0,1,1,120,18,S,0,right,0.4814613640191965,1,0,,,,,,,,,,,,,,,,,,,,,1,,,,,,,,,,,,,,,,,,,,,,,,,,,,,,,,,,,,,,,,,,,,,,122,159565,24,Male,1,2024/03/25_16:13:44,YZ,None,
,,,,,,practice_main,0,1,1,120,19,S,1,left,0.35447640900383703,1,0,,,,,,,,,,,,,,,,,,,,,1,,,,,,,,,,,,,,,,,,,,,,,,,,,,,,,,,,,,,,,,,,,,,,122,159565,24,Male,1,2024/03/25_16:13:44,YZ,None,
,,,,,,practice_main,0,1,1,120,20,Q,0,right,0.36467645698576234,1,0,,,,,,,,,,,,,,,,,,,,,1,,,,,,,,,,,,,,,,,,,,,,,,,,,,,,,,,,,,,,,,,,,,,,122,159565,24,Male,1,2024/03/25_16:13:44,YZ,None,
,,,,,,practice_main,0,1,1,120,21,X,0,right,0.36256404902087525,1,0,,,,,,,,,,,,,,,,,,,,,1,,,,,,,,,,,,,,,,,,,,,,,,,,,,,,,,,,,,,,,,,,,,,,122,159565,24,Male,1,2024/03/25_16:13:44,YZ,None,
,,,,,,practice_main,0,1,1,120,22,N,0,right,0.4473314310016576,1,0,,,,,,,,,,,,,,,,,,,,,1,,,,,,,,,,,,,,,,,,,,,,,,,,,,,,,,,,,,,,,,,,,,,,122,159565,24,Male,1,2024/03/25_16:13:44,YZ,None,
,,,,,,practice_main,0,1,1,120,23,X,0,right,0.5124495069903787,1,0,,,,,,,,,,,,,,,,,,,,,1,,,,,,,,,,,,,,,,,,,,,,,,,,,,,,,,,,,,,,,,,,,,,,122,159565,24,Male,1,2024/03/25_16:13:44,YZ,None,
,,,,,,practice_main,0,1,1,120,,,,,,,,1.0,1.0,0.0,1.0,0.0,1.0,0.5050543544398944,6,0,0,0,0,17,23,6,17,0,,,,1,,,,,,,,,,,,,,,,,,,,,,,,,,,,,,,,,,,,,,,,,,,,,,122,159565,24,Male,1,2024/03/25_16:13:44,YZ,None,
,,,,,240325_164711,PRACTICE,0,1,1,120,,,,,,,,,,,,,,,,,,,,,,,,,,,,1,21,1,1,cue2.png,easy,B,40,2.6257944960088935,0,896.1744038189936,898.8402759149903,,,,,,,,,,,,,,,,,,,,,,,,,,,,,,,,,,,122,159565,24,Male,1,2024/03/25_16:13:44,YZ,None,
,,,,,,practice_main,0,2,1,120,1,C,0,right,0.4430471219820902,1,0,,,,,,,,,,,,,,,,,,,,,1,,,,,,,,,,,,,,,,,,,,,,,,,,,,,,,,,,,,,,,,,,,,,,122,159565,24,Male,1,2024/03/25_16:13:44,YZ,None,
,,,,,,practice_main,0,2,1,120,2,X,0,right,0.36480971600394696,1,0,,,,,,,,,,,,,,,,,,,,,1,,,,,,,,,,,,,,,,,,,,,,,,,,,,,,,,,,,,,,,,,,,,,,122,159565,24,Male,1,2024/03/25_16:13:44,YZ,None,
,,,,,,practice_main,0,2,1,120,3,V,0,right,0.40477478300454095,1,0,,,,,,,,,,,,,,,,,,,,,1,,,,,,,,,,,,,,,,,,,,,,,,,,,,,,,,,,,,,,,,,,,,,,122,159565,24,Male,1,2024/03/25_16:13:44,YZ,None,
,,,,,,practice_main,0,2,1,120,4,J,0,right,0.40181573599693365,1,0,,,,,,,,,,,,,,,,,,,,,1,,,,,,,,,,,,,,,,,,,,,,,,,,,,,,,,,,,,,,,,,,,,,,122,159565,24,Male,1,2024/03/25_16:13:44,YZ,None,
,,,,,,practice_main,0,2,1,120,5,J,1,left,0.3919476049777586,1,0,,,,,,,,,,,,,,,,,,,,,1,,,,,,,,,,,,,,,,,,,,,,,,,,,,,,,,,,,,,,,,,,,,,,122,159565,24,Male,1,2024/03/25_16:13:44,YZ,None,
,,,,,,practice_main,0,2,1,120,6,Q,0,right,0.37636441900394857,1,0,,,,,,,,,,,,,,,,,,,,,1,,,,,,,,,,,,,,,,,,,,,,,,,,,,,,,,,,,,,,,,,,,,,,122,159565,24,Male,1,2024/03/25_16:13:44,YZ,None,
,,,,,,practice_main,0,2,1,120,7,F,0,right,0.425728566973703,1,0,,,,,,,,,,,,,,,,,,,,,1,,,,,,,,,,,,,,,,,,,,,,,,,,,,,,,,,,,,,,,,,,,,,,122,159565,24,Male,1,2024/03/25_16:13:44,YZ,None,
,,,,,,practice_main,0,2,1,120,8,F,1,left,0.3487945179804228,1,0,,,,,,,,,,,,,,,,,,,,,1,,,,,,,,,,,,,,,,,,,,,,,,,,,,,,,,,,,,,,,,,,,,,,122,159565,24,Male,1,2024/03/25_16:13:44,YZ,None,
,,,,,,practice_main,0,2,1,120,9,J,0,right,0.41784528602147475,1,0,,,,,,,,,,,,,,,,,,,,,1,,,,,,,,,,,,,,,,,,,,,,,,,,,,,,,,,,,,,,,,,,,,,,122,159565,24,Male,1,2024/03/25_16:13:44,YZ,None,
,,,,,,practice_main,0,2,1,120,10,J,1,left,0.5242170600104146,1,0,,,,,,,,,,,,,,,,,,,,,1,,,,,,,,,,,,,,,,,,,,,,,,,,,,,,,,,,,,,,,,,,,,,,122,159565,24,Male,1,2024/03/25_16:13:44,YZ,None,
,,,,,,practice_main,0,2,1,120,11,V,0,right,0.4115243299747817,1,0,,,,,,,,,,,,,,,,,,,,,1,,,,,,,,,,,,,,,,,,,,,,,,,,,,,,,,,,,,,,,,,,,,,,122,159565,24,Male,1,2024/03/25_16:13:44,YZ,None,
,,,,,,practice_main,0,2,1,120,12,J,0,left,0.5764245530008338,0,0,,,,,,,,,,,,,,,,,,,,,1,,,,,,,,,,,,,,,,,,,,,,,,,,,,,,,,,,,,,,,,,,,,,,122,159565,24,Male,1,2024/03/25_16:13:44,YZ,None,
,,,,,,practice_main,0,2,1,120,13,F,0,right,0.6249203820188995,1,0,,,,,,,,,,,,,,,,,,,,,1,,,,,,,,,,,,,,,,,,,,,,,,,,,,,,,,,,,,,,,,,,,,,,122,159565,24,Male,1,2024/03/25_16:13:44,YZ,None,
,,,,,,practice_main,0,2,1,120,14,F,1,left,0.37746601802064106,1,0,,,,,,,,,,,,,,,,,,,,,1,,,,,,,,,,,,,,,,,,,,,,,,,,,,,,,,,,,,,,,,,,,,,,122,159565,24,Male,1,2024/03/25_16:13:44,YZ,None,
,,,,,,practice_main,0,2,1,120,15,V,0,right,0.39607815400813706,1,0,,,,,,,,,,,,,,,,,,,,,1,,,,,,,,,,,,,,,,,,,,,,,,,,,,,,,,,,,,,,,,,,,,,,122,159565,24,Male,1,2024/03/25_16:13:44,YZ,None,
,,,,,,practice_main,0,2,1,120,16,V,1,left,0.4261173850100022,1,0,,,,,,,,,,,,,,,,,,,,,1,,,,,,,,,,,,,,,,,,,,,,,,,,,,,,,,,,,,,,,,,,,,,,122,159565,24,Male,1,2024/03/25_16:13:44,YZ,None,
,,,,,,practice_main,0,2,1,120,17,X,0,right,0.5119636250019539,1,0,,,,,,,,,,,,,,,,,,,,,1,,,,,,,,,,,,,,,,,,,,,,,,,,,,,,,,,,,,,,,,,,,,,,122,159565,24,Male,1,2024/03/25_16:13:44,YZ,None,
,,,,,,practice_main,0,2,1,120,18,C,0,right,0.3789747429837007,1,0,,,,,,,,,,,,,,,,,,,,,1,,,,,,,,,,,,,,,,,,,,,,,,,,,,,,,,,,,,,,,,,,,,,,122,159565,24,Male,1,2024/03/25_16:13:44,YZ,None,
,,,,,,practice_main,0,2,1,120,19,C,1,right,0.3729196499916725,0,0,,,,,,,,,,,,,,,,,,,,,1,,,,,,,,,,,,,,,,,,,,,,,,,,,,,,,,,,,,,,,,,,,,,,122,159565,24,Male,1,2024/03/25_16:13:44,YZ,None,
,,,,,,practice_main,0,2,1,120,20,X,0,right,0.6760458970093168,1,0,,,,,,,,,,,,,,,,,,,,,1,,,,,,,,,,,,,,,,,,,,,,,,,,,,,,,,,,,,,,,,,,,,,,122,159565,24,Male,1,2024/03/25_16:13:44,YZ,None,
,,,,,,practice_main,0,2,1,120,21,V,0,right,0.4988976390159223,1,0,,,,,,,,,,,,,,,,,,,,,1,,,,,,,,,,,,,,,,,,,,,,,,,,,,,,,,,,,,,,,,,,,,,,122,159565,24,Male,1,2024/03/25_16:13:44,YZ,None,
,,,,,,practice_main,0,2,1,120,22,S,0,right,0.4234110139950644,1,0,,,,,,,,,,,,,,,,,,,,,1,,,,,,,,,,,,,,,,,,,,,,,,,,,,,,,,,,,,,,,,,,,,,,122,159565,24,Male,1,2024/03/25_16:13:44,YZ,None,
,,,,,,practice_main,0,2,1,120,23,J,0,right,0.46370529898558743,1,0,,,,,,,,,,,,,,,,,,,,,1,,,,,,,,,,,,,,,,,,,,,,,,,,,,,,,,,,,,,,,,,,,,,,122,159565,24,Male,1,2024/03/25_16:13:44,YZ,None,
,,,,,,practice_main,0,2,1,120,,,,,,,,0.9338235294117647,0.8333333333333334,0.058823529411764705,0.9411764705882353,0.0,0.9411764705882353,0.44512145656398905,5,1,0,0,0,16,21,6,17,0,,,,1,,,,,,,,,,,,,,,,,,,,,,,,,,,,,,,,,,,,,,,,,,,,,,122,159565,24,Male,1,2024/03/25_16:13:44,YZ,None,
,,,,,240325_164745,PRACTICE,0,2,1,120,,,,,,,,,,,,,,,,,,,,,,,,,,,,1,38,2,2,cue2.png,easy,B,38,1.882007006002823,0,931.7260874659987,933.6241667139984,,,,,,,,,,,,,,,,,,,,,,,,,,,,,,,,,,,122,159565,24,Male,1,2024/03/25_16:13:44,YZ,None,
,,,,,,practice_main,0,3,1,120,1,N,0,right,0.6004438050149474,1,0,,,,,,,,,,,,,,,,,,,,,1,,,,,,,,,,,,,,,,,,,,,,,,,,,,,,,,,,,,,,,,,,,,,,122,159565,24,Male,1,2024/03/25_16:13:44,YZ,None,
,,,,,,practice_main,0,3,1,120,2,X,0,right,0.4164694469945971,1,0,,,,,,,,,,,,,,,,,,,,,1,,,,,,,,,,,,,,,,,,,,,,,,,,,,,,,,,,,,,,,,,,,,,,122,159565,24,Male,1,2024/03/25_16:13:44,YZ,None,
,,,,,,practice_main,0,3,1,120,3,F,0,right,0.464866256021196,1,0,,,,,,,,,,,,,,,,,,,,,1,,,,,,,,,,,,,,,,,,,,,,,,,,,,,,,,,,,,,,,,,,,,,,122,159565,24,Male,1,2024/03/25_16:13:44,YZ,None,
,,,,,,practice_main,0,3,1,120,4,J,0,right,0.46026531502138823,1,0,,,,,,,,,,,,,,,,,,,,,1,,,,,,,,,,,,,,,,,,,,,,,,,,,,,,,,,,,,,,,,,,,,,,122,159565,24,Male,1,2024/03/25_16:13:44,YZ,None,
,,,,,,practice_main,0,3,1,120,5,J,1,left,0.38913158798823133,1,0,,,,,,,,,,,,,,,,,,,,,1,,,,,,,,,,,,,,,,,,,,,,,,,,,,,,,,,,,,,,,,,,,,,,122,159565,24,Male,1,2024/03/25_16:13:44,YZ,None,
,,,,,,practice_main,0,3,1,120,6,S,0,right,0.4403064209909644,1,0,,,,,,,,,,,,,,,,,,,,,1,,,,,,,,,,,,,,,,,,,,,,,,,,,,,,,,,,,,,,,,,,,,,,122,159565,24,Male,1,2024/03/25_16:13:44,YZ,None,
