Instruction,Stimulus,Key,RT,START,END,Phase,Block,TrialN,NbackLevel,ISI,LetterN,Letter,Letter_isSame,Letter_Resp,Letter_RT,Letter_Accuracy,Letter_Timeout,Trial_A_measure,Trial_HR,Trial_FAR,Trial_CDR,Trial_MSR,Trial_ACC,Trial_RT,Trial_HitsCount,Trial_FAsCount,Trial_SameNoRespCount,Trial_DiffNoRespCount,Trial_NoRespCount,Trial_CDsCount,Trial_CorrectRespCount,Trial_SameLetterCount,Trial_DiffLetterCount,Trial_InvalidLetterCount,TrialCountCali,CaliEnd_A_measure,ISI_calibrated,Run,TrialIndex,TrialNumber_total,TrialNumber_valid,CueLearning,TrialDemandLearning,CueMapping,OnlineRating,OnlineRatingRT,OnlineRatingTimeOut,CueSTART,RatingSTART,OfflineRatingTimePoint,OfflineRatingQuesIndex,CueFigure,TrialDemand,OfflineRating,OfflineRatingRT,CueStart,OfflineRatingStart,PhaseType,CueLeft,CueDemandLeft,CueRight,CueDemandRight,Choice,ChoiceDemand,TaskDemand,ChoiceRT,ChoiceTimeOut,ChoiceSTART,CueCheck,CueDemandCheck,CorrectAnswer,Answer,AnswerDemand,AnswerRT,AnswerACC,AnswerTimeOut,CheckSTART,DemandRatingQuesIndex,QuesTLX,DemandLevel,DemandRating,DemandRatingRT,QuesStart,PID,SONA,Age,Gender,Run,TIME,EXPERIMENTER,frameRate,
1,./instructions/inst_begin/Slide2.png,right,16.9082161289989,0.22928297700127587,17.137499106000178,,,,,,,,,,,,,,,,,,,,,,,,,,,,,,,,,1,,,,,,,,,,,,,,,,,,,,,,,,,,,,,,,,,,,,,,,,,,,,,,84,158626,19,Female,1,2024/03/13_08:45:09,YZ,None,
2,./instructions/inst_begin/Slide3.png,right,8.344352988991886,17.17696974100545,25.521322729997337,,,,,,,,,,,,,,,,,,,,,,,,,,,,,,,,,1,,,,,,,,,,,,,,,,,,,,,,,,,,,,,,,,,,,,,,,,,,,,,,84,158626,19,Female,1,2024/03/13_08:45:09,YZ,None,
3,./instructions/inst_begin/Slide4.png,right,7.25988384700031,25.549650002998533,32.80953384999884,,,,,,,,,,,,,,,,,,,,,,,,,,,,,,,,,1,,,,,,,,,,,,,,,,,,,,,,,,,,,,,,,,,,,,,,,,,,,,,,84,158626,19,Female,1,2024/03/13_08:45:09,YZ,None,
1,./instructions/inst_prac_2/Slide6.png,right,7.7154596310138,32.86186144099338,40.57732107200718,,,,,,,,,,,,,,,,,,,,,,,,,,,,,,,,,1,,,,,,,,,,,,,,,,,,,,,,,,,,,,,,,,,,,,,,,,,,,,,,84,158626,19,Female,1,2024/03/13_08:45:09,YZ,None,
2,./instructions/inst_prac_2/Slide7.png,right,10.78641879899078,40.60695043600572,51.3933692349965,,,,,,,,,,,,,,,,,,,,,,,,,,,,,,,,,1,,,,,,,,,,,,,,,,,,,,,,,,,,,,,,,,,,,,,,,,,,,,,,84,158626,19,Female,1,2024/03/13_08:45:09,YZ,None,
3,./instructions/inst_prac_2/Slide8.png,right,12.293175101003726,51.420119642003556,63.71329474300728,,,,,,,,,,,,,,,,,,,,,,,,,,,,,,,,,1,,,,,,,,,,,,,,,,,,,,,,,,,,,,,,,,,,,,,,,,,,,,,,84,158626,19,Female,1,2024/03/13_08:45:09,YZ,None,
4,./instructions/inst_prac_2/Slide9.png,right,4.817122478998499,63.760337977000745,68.57746045599924,,,,,,,,,,,,,,,,,,,,,,,,,,,,,,,,,1,,,,,,,,,,,,,,,,,,,,,,,,,,,,,,,,,,,,,,,,,,,,,,84,158626,19,Female,1,2024/03/13_08:45:09,YZ,None,
5,./instructions/inst_prac_2/Slide10.png,right,1.081438815992442,68.62406094100152,69.70549975699396,,,,,,,,,,,,,,,,,,,,,,,,,,,,,,,,,1,,,,,,,,,,,,,,,,,,,,,,,,,,,,,,,,,,,,,,,,,,,,,,84,158626,19,Female,1,2024/03/13_08:45:09,YZ,None,
6,./instructions/inst_prac_2/Slide11.png,right,1.021134381997399,69.73231237300206,70.75344675499946,,,,,,,,,,,,,,,,,,,,,,,,,,,,,,,,,1,,,,,,,,,,,,,,,,,,,,,,,,,,,,,,,,,,,,,,,,,,,,,,84,158626,19,Female,1,2024/03/13_08:45:09,YZ,None,
7,./instructions/inst_prac_2/Slide12.png,right,0.891518233998795,70.78188617600244,71.67340441000124,,,,,,,,,,,,,,,,,,,,,,,,,,,,,,,,,1,,,,,,,,,,,,,,,,,,,,,,,,,,,,,,,,,,,,,,,,,,,,,,84,158626,19,Female,1,2024/03/13_08:45:09,YZ,None,
8,./instructions/inst_prac_2/Slide13.png,right,0.7810354050016031,71.70036765599798,72.48140306099958,,,,,,,,,,,,,,,,,,,,,,,,,,,,,,,,,1,,,,,,,,,,,,,,,,,,,,,,,,,,,,,,,,,,,,,,,,,,,,,,84,158626,19,Female,1,2024/03/13_08:45:09,YZ,None,
9,./instructions/inst_prac_2/Slide14.png,right,11.802372714999365,72.5110824519943,84.31345516699366,,,,,,,,,,,,,,,,,,,,,,,,,,,,,,,,,1,,,,,,,,,,,,,,,,,,,,,,,,,,,,,,,,,,,,,,,,,,,,,,84,158626,19,Female,1,2024/03/13_08:45:09,YZ,None,
10,./instructions/inst_prac_2/Slide15.png,right,10.818597181991208,84.35893334100547,95.17753052299668,,,,,,,,,,,,,,,,,,,,,,,,,,,,,,,,,1,,,,,,,,,,,,,,,,,,,,,,,,,,,,,,,,,,,,,,,,,,,,,,84,158626,19,Female,1,2024/03/13_08:45:09,YZ,None,
,,,,,,practice,0,34,2,2583,1,J,0,right,1.4806121319998056,1,0,,,,,,,,,,,,,,,,,,,,,1,,,,,,,,,,,,,,,,,,,,,,,,,,,,,,,,,,,,,,,,,,,,,,84,158626,19,Female,1,2024/03/13_08:45:09,YZ,None,
,,,,,,practice,0,34,2,2583,2,C,0,right,0.9139190089917975,1,0,,,,,,,,,,,,,,,,,,,,,1,,,,,,,,,,,,,,,,,,,,,,,,,,,,,,,,,,,,,,,,,,,,,,84,158626,19,Female,1,2024/03/13_08:45:09,YZ,None,
,,,,,,practice,0,34,2,2583,3,J,1,left,0.6445577039994532,1,0,,,,,,,,,,,,,,,,,,,,,1,,,,,,,,,,,,,,,,,,,,,,,,,,,,,,,,,,,,,,,,,,,,,,84,158626,19,Female,1,2024/03/13_08:45:09,YZ,None,
,,,,,,practice,0,34,2,2583,4,V,0,right,0.6839364659972489,1,0,,,,,,,,,,,,,,,,,,,,,1,,,,,,,,,,,,,,,,,,,,,,,,,,,,,,,,,,,,,,,,,,,,,,84,158626,19,Female,1,2024/03/13_08:45:09,YZ,None,
,,,,,,practice,0,34,2,2583,5,Q,0,right,0.6063032539968845,1,0,,,,,,,,,,,,,,,,,,,,,1,,,,,,,,,,,,,,,,,,,,,,,,,,,,,,,,,,,,,,,,,,,,,,84,158626,19,Female,1,2024/03/13_08:45:09,YZ,None,
,,,,,,practice,0,34,2,2583,6,V,1,left,0.7637355560000287,1,0,,,,,,,,,,,,,,,,,,,,,1,,,,,,,,,,,,,,,,,,,,,,,,,,,,,,,,,,,,,,,,,,,,,,84,158626,19,Female,1,2024/03/13_08:45:09,YZ,None,
,,,,,,practice,0,34,2,2583,,,,,,,,1.0,1.0,0.0,1.0,0.0,1.0,0.848844020164203,2,0,0,0,0,4,6,2,4,0,,,,1,,,,,,,,,,,,,,,,,,,,,,,,,,,,,,,,,,,,,,,,,,,,,,84,158626,19,Female,1,2024/03/13_08:45:09,YZ,None,
1,./instructions/inst_to_cali/Slide20.png,right,3.6637297550041694,106.63374402000045,110.29747377500462,,,,,,,,,,,,,,,,,,,,,,,,,,,,,,,,,1,,,,,,,,,,,,,,,,,,,,,,,,,,,,,,,,,,,,,,,,,,,,,,84,158626,19,Female,1,2024/03/13_08:45:09,YZ,None,
1,./instructions/inst_cali/Slide22.png,right,11.776953171007335,110.35250547299802,122.12945864400535,,,,,,,,,,,,,,,,,,,,,,,,,,,,,,,,,1,,,,,,,,,,,,,,,,,,,,,,,,,,,,,,,,,,,,,,,,,,,,,,84,158626,19,Female,1,2024/03/13_08:45:09,YZ,None,
,,,,,,calibration,0,9,2,583,1,S,0,right,0.23583818499173503,1,0,,,,,,,,,,,,,,,,,,,,,1,,,,,,,,,,,,,,,,,,,,,,,,,,,,,,,,,,,,,,,,,,,,,,84,158626,19,Female,1,2024/03/13_08:45:09,YZ,None,
,,,,,,calibration,0,9,2,583,2,F,0,right,0.5126460869942093,1,0,,,,,,,,,,,,,,,,,,,,,1,,,,,,,,,,,,,,,,,,,,,,,,,,,,,,,,,,,,,,,,,,,,,,84,158626,19,Female,1,2024/03/13_08:45:09,YZ,None,
,,,,,,calibration,0,9,2,583,3,V,0,right,0.4366441119927913,1,0,,,,,,,,,,,,,,,,,,,,,1,,,,,,,,,,,,,,,,,,,,,,,,,,,,,,,,,,,,,,,,,,,,,,84,158626,19,Female,1,2024/03/13_08:45:09,YZ,None,
,,,,,,calibration,0,9,2,583,4,X,0,right,0.4466114930110052,1,0,,,,,,,,,,,,,,,,,,,,,1,,,,,,,,,,,,,,,,,,,,,,,,,,,,,,,,,,,,,,,,,,,,,,84,158626,19,Female,1,2024/03/13_08:45:09,YZ,None,
,,,,,,calibration,0,9,2,583,5,N,0,right,0.5899524419946829,1,0,,,,,,,,,,,,,,,,,,,,,1,,,,,,,,,,,,,,,,,,,,,,,,,,,,,,,,,,,,,,,,,,,,,,84,158626,19,Female,1,2024/03/13_08:45:09,YZ,None,
,,,,,,calibration,0,9,2,583,6,J,0,right,0.4322518519911682,1,0,,,,,,,,,,,,,,,,,,,,,1,,,,,,,,,,,,,,,,,,,,,,,,,,,,,,,,,,,,,,,,,,,,,,84,158626,19,Female,1,2024/03/13_08:45:09,YZ,None,
,,,,,,calibration,0,9,2,583,7,F,0,right,0.5488321180018829,1,0,,,,,,,,,,,,,,,,,,,,,1,,,,,,,,,,,,,,,,,,,,,,,,,,,,,,,,,,,,,,,,,,,,,,84,158626,19,Female,1,2024/03/13_08:45:09,YZ,None,
,,,,,,calibration,0,9,2,583,8,N,0,right,0.8475168269942515,1,0,,,,,,,,,,,,,,,,,,,,,1,,,,,,,,,,,,,,,,,,,,,,,,,,,,,,,,,,,,,,,,,,,,,,84,158626,19,Female,1,2024/03/13_08:45:09,YZ,None,
,,,,,,calibration,0,9,2,583,9,S,0,left,0.468510241000331,0,0,,,,,,,,,,,,,,,,,,,,,1,,,,,,,,,,,,,,,,,,,,,,,,,,,,,,,,,,,,,,,,,,,,,,84,158626,19,Female,1,2024/03/13_08:45:09,YZ,None,
,,,,,,calibration,0,9,2,583,10,J,0,right,0.3433923720003804,1,0,,,,,,,,,,,,,,,,,,,,,1,,,,,,,,,,,,,,,,,,,,,,,,,,,,,,,,,,,,,,,,,,,,,,84,158626,19,Female,1,2024/03/13_08:45:09,YZ,None,
,,,,,,calibration,0,9,2,583,11,S,1,left,0.8414385180076351,1,0,,,,,,,,,,,,,,,,,,,,,1,,,,,,,,,,,,,,,,,,,,,,,,,,,,,,,,,,,,,,,,,,,,,,84,158626,19,Female,1,2024/03/13_08:45:09,YZ,None,
,,,,,,calibration,0,9,2,583,12,J,1,left,0.6787617050140398,1,0,,,,,,,,,,,,,,,,,,,,,1,,,,,,,,,,,,,,,,,,,,,,,,,,,,,,,,,,,,,,,,,,,,,,84,158626,19,Female,1,2024/03/13_08:45:09,YZ,None,
,,,,,,calibration,0,9,2,583,13,V,0,right,0.5993694389908342,1,0,,,,,,,,,,,,,,,,,,,,,1,,,,,,,,,,,,,,,,,,,,,,,,,,,,,,,,,,,,,,,,,,,,,,84,158626,19,Female,1,2024/03/13_08:45:09,YZ,None,
,,,,,,calibration,0,9,2,583,14,J,1,left,0.5760240300005535,1,0,,,,,,,,,,,,,,,,,,,,,1,,,,,,,,,,,,,,,,,,,,,,,,,,,,,,,,,,,,,,,,,,,,,,84,158626,19,Female,1,2024/03/13_08:45:09,YZ,None,
,,,,,,calibration,0,9,2,583,15,V,1,left,1.124871908003115,1,0,,,,,,,,,,,,,,,,,,,,,1,,,,,,,,,,,,,,,,,,,,,,,,,,,,,,,,,,,,,,,,,,,,,,84,158626,19,Female,1,2024/03/13_08:45:09,YZ,None,
,,,,,,calibration,0,9,2,583,,,,,,,,0.9772727272727273,1.0,0.09090909090909091,0.9090909090909091,0.0,0.9090909090909091,0.5788440885992411,4,1,0,0,0,10,14,4,11,0,,,,1,,,,,,,,,,,,,,,,,,,,,,,,,,,,,,,,,,,,,,,,,,,,,,84,158626,19,Female,1,2024/03/13_08:45:09,YZ,None,
,,,,,,Calibration,0,,2,583,,,,,,,,,,,,,,,,,,,,,,,,,1,,,1,,,,,,,,,,,,,,,,,,,,,,,,,,,,,,,,,,,,,,,,,,,,,,84,158626,19,Female,1,2024/03/13_08:45:09,YZ,None,
,,,,,,calibration,0,9,2,500,1,J,0,right,0.7585131209925748,1,0,,,,,,,,,,,,,,,,,,,,,1,,,,,,,,,,,,,,,,,,,,,,,,,,,,,,,,,,,,,,,,,,,,,,84,158626,19,Female,1,2024/03/13_08:45:09,YZ,None,
,,,,,,calibration,0,9,2,500,2,N,0,right,0.537881883996306,1,0,,,,,,,,,,,,,,,,,,,,,1,,,,,,,,,,,,,,,,,,,,,,,,,,,,,,,,,,,,,,,,,,,,,,84,158626,19,Female,1,2024/03/13_08:45:09,YZ,None,
,,,,,,calibration,0,9,2,500,3,J,1,left,0.4147579529962968,1,0,,,,,,,,,,,,,,,,,,,,,1,,,,,,,,,,,,,,,,,,,,,,,,,,,,,,,,,,,,,,,,,,,,,,84,158626,19,Female,1,2024/03/13_08:45:09,YZ,None,
,,,,,,calibration,0,9,2,500,4,F,0,right,0.5177294780005468,1,0,,,,,,,,,,,,,,,,,,,,,1,,,,,,,,,,,,,,,,,,,,,,,,,,,,,,,,,,,,,,,,,,,,,,84,158626,19,Female,1,2024/03/13_08:45:09,YZ,None,
,,,,,,calibration,0,9,2,500,5,C,0,right,0.5123545649985317,1,0,,,,,,,,,,,,,,,,,,,,,1,,,,,,,,,,,,,,,,,,,,,,,,,,,,,,,,,,,,,,,,,,,,,,84,158626,19,Female,1,2024/03/13_08:45:09,YZ,None,
,,,,,,calibration,0,9,2,500,6,F,1,left,0.421583745002863,1,0,,,,,,,,,,,,,,,,,,,,,1,,,,,,,,,,,,,,,,,,,,,,,,,,,,,,,,,,,,,,,,,,,,,,84,158626,19,Female,1,2024/03/13_08:45:09,YZ,None,
,,,,,,calibration,0,9,2,500,7,X,0,right,0.4955803000048036,1,0,,,,,,,,,,,,,,,,,,,,,1,,,,,,,,,,,,,,,,,,,,,,,,,,,,,,,,,,,,,,,,,,,,,,84,158626,19,Female,1,2024/03/13_08:45:09,YZ,None,
,,,,,,calibration,0,9,2,500,8,J,0,right,0.7069331899983808,1,0,,,,,,,,,,,,,,,,,,,,,1,,,,,,,,,,,,,,,,,,,,,,,,,,,,,,,,,,,,,,,,,,,,,,84,158626,19,Female,1,2024/03/13_08:45:09,YZ,None,
,,,,,,calibration,0,9,2,500,9,Q,0,right,0.6548295060056262,1,0,,,,,,,,,,,,,,,,,,,,,1,,,,,,,,,,,,,,,,,,,,,,,,,,,,,,,,,,,,,,,,,,,,,,84,158626,19,Female,1,2024/03/13_08:45:09,YZ,None,
,,,,,,calibration,0,9,2,500,10,J,1,left,0.3539826960040955,1,0,,,,,,,,,,,,,,,,,,,,,1,,,,,,,,,,,,,,,,,,,,,,,,,,,,,,,,,,,,,,,,,,,,,,84,158626,19,Female,1,2024/03/13_08:45:09,YZ,None,
,,,,,,calibration,0,9,2,500,11,F,0,right,0.8598002789949533,1,0,,,,,,,,,,,,,,,,,,,,,1,,,,,,,,,,,,,,,,,,,,,,,,,,,,,,,,,,,,,,,,,,,,,,84,158626,19,Female,1,2024/03/13_08:45:09,YZ,None,
,,,,,,calibration,0,9,2,500,12,J,1,left,0.8700560610013781,1,0,,,,,,,,,,,,,,,,,,,,,1,,,,,,,,,,,,,,,,,,,,,,,,,,,,,,,,,,,,,,,,,,,,,,84,158626,19,Female,1,2024/03/13_08:45:09,YZ,None,
,,,,,,calibration,0,9,2,500,13,F,1,left,0.7802709699899424,1,0,,,,,,,,,,,,,,,,,,,,,1,,,,,,,,,,,,,,,,,,,,,,,,,,,,,,,,,,,,,,,,,,,,,,84,158626,19,Female,1,2024/03/13_08:45:09,YZ,None,
,,,,,,calibration,0,9,2,500,14,X,0,right,0.4711479809921002,1,0,,,,,,,,,,,,,,,,,,,,,1,,,,,,,,,,,,,,,,,,,,,,,,,,,,,,,,,,,,,,,,,,,,,,84,158626,19,Female,1,2024/03/13_08:45:09,YZ,None,
,,,,,,calibration,0,9,2,500,15,V,0,right,0.7161663739971118,1,0,,,,,,,,,,,,,,,,,,,,,1,,,,,,,,,,,,,,,,,,,,,,,,,,,,,,,,,,,,,,,,,,,,,,84,158626,19,Female,1,2024/03/13_08:45:09,YZ,None,
,,,,,,calibration,0,9,2,500,16,C,0,right,0.8312260020029498,1,0,,,,,,,,,,,,,,,,,,,,,1,,,,,,,,,,,,,,,,,,,,,,,,,,,,,,,,,,,,,,,,,,,,,,84,158626,19,Female,1,2024/03/13_08:45:09,YZ,None,
,,,,,,calibration,0,9,2,500,,,,,,,,1.0,1.0,0.0,1.0,0.0,1.0,0.6189258815611538,5,0,0,0,0,11,16,5,11,0,,,,1,,,,,,,,,,,,,,,,,,,,,,,,,,,,,,,,,,,,,,,,,,,,,,84,158626,19,Female,1,2024/03/13_08:45:09,YZ,None,
,,,,,,Calibration,0,,2,500,,,,,,,,,,,,,,,,,,,,,,,,,2,,,1,,,,,,,,,,,,,,,,,,,,,,,,,,,,,,,,,,,,,,,,,,,,,,84,158626,19,Female,1,2024/03/13_08:45:09,YZ,None,
,,,,,,calibration,0,32,2,426,1,N,0,right,0.9032537750026677,1,0,,,,,,,,,,,,,,,,,,,,,1,,,,,,,,,,,,,,,,,,,,,,,,,,,,,,,,,,,,,,,,,,,,,,84,158626,19,Female,1,2024/03/13_08:45:09,YZ,None,
,,,,,,calibration,0,32,2,426,2,X,0,right,0.4661490669968771,1,0,,,,,,,,,,,,,,,,,,,,,1,,,,,,,,,,,,,,,,,,,,,,,,,,,,,,,,,,,,,,,,,,,,,,84,158626,19,Female,1,2024/03/13_08:45:09,YZ,None,
,,,,,,calibration,0,32,2,426,3,N,1,right,nan,0,1,,,,,,,,,,,,,,,,,,,,,1,,,,,,,,,,,,,,,,,,,,,,,,,,,,,,,,,,,,,,,,,,,,,,84,158626,19,Female,1,2024/03/13_08:45:09,YZ,None,
,,,,,,calibration,0,32,2,426,4,C,0,right,0.9421618350024801,1,0,,,,,,,,,,,,,,,,,,,,,1,,,,,,,,,,,,,,,,,,,,,,,,,,,,,,,,,,,,,,,,,,,,,,84,158626,19,Female,1,2024/03/13_08:45:09,YZ,None,
,,,,,,calibration,0,32,2,426,5,J,0,left,0.5936061190004693,0,0,,,,,,,,,,,,,,,,,,,,,1,,,,,,,,,,,,,,,,,,,,,,,,,,,,,,,,,,,,,,,,,,,,,,84,158626,19,Female,1,2024/03/13_08:45:09,YZ,None,
,,,,,,calibration,0,32,2,426,6,X,0,right,0.4659564650064567,1,0,,,,,,,,,,,,,,,,,,,,,1,,,,,,,,,,,,,,,,,,,,,,,,,,,,,,,,,,,,,,,,,,,,,,84,158626,19,Female,1,2024/03/13_08:45:09,YZ,None,
,,,,,,calibration,0,32,2,426,7,V,0,right,0.6659400899952743,1,0,,,,,,,,,,,,,,,,,,,,,1,,,,,,,,,,,,,,,,,,,,,,,,,,,,,,,,,,,,,,,,,,,,,,84,158626,19,Female,1,2024/03/13_08:45:09,YZ,None,
,,,,,,calibration,0,32,2,426,8,C,0,left,0.7855556110007456,0,0,,,,,,,,,,,,,,,,,,,,,1,,,,,,,,,,,,,,,,,,,,,,,,,,,,,,,,,,,,,,,,,,,,,,84,158626,19,Female,1,2024/03/13_08:45:09,YZ,None,
,,,,,,calibration,0,32,2,426,9,Q,0,left,0.9024202690052334,0,0,,,,,,,,,,,,,,,,,,,,,1,,,,,,,,,,,,,,,,,,,,,,,,,,,,,,,,,,,,,,,,,,,,,,84,158626,19,Female,1,2024/03/13_08:45:09,YZ,None,
,,,,,,calibration,0,32,2,426,10,C,1,left,0.6360243359958986,1,0,,,,,,,,,,,,,,,,,,,,,1,,,,,,,,,,,,,,,,,,,,,,,,,,,,,,,,,,,,,,,,,,,,,,84,158626,19,Female,1,2024/03/13_08:45:09,YZ,None,
,,,,,,calibration,0,32,2,426,11,Q,1,left,0.5558523210056592,1,0,,,,,,,,,,,,,,,,,,,,,1,,,,,,,,,,,,,,,,,,,,,,,,,,,,,,,,,,,,,,,,,,,,,,84,158626,19,Female,1,2024/03/13_08:45:09,YZ,None,
,,,,,,calibration,0,32,2,426,12,J,0,right,0.5339945430023363,1,0,,,,,,,,,,,,,,,,,,,,,1,,,,,,,,,,,,,,,,,,,,,,,,,,,,,,,,,,,,,,,,,,,,,,84,158626,19,Female,1,2024/03/13_08:45:09,YZ,None,
,,,,,,calibration,0,32,2,426,13,X,0,right,0.7244359259930206,1,0,,,,,,,,,,,,,,,,,,,,,1,,,,,,,,,,,,,,,,,,,,,,,,,,,,,,,,,,,,,,,,,,,,,,84,158626,19,Female,1,2024/03/13_08:45:09,YZ,None,
,,,,,,calibration,0,32,2,426,14,F,0,right,0.6074615219986299,1,0,,,,,,,,,,,,,,,,,,,,,1,,,,,,,,,,,,,,,,,,,,,,,,,,,,,,,,,,,,,,,,,,,,,,84,158626,19,Female,1,2024/03/13_08:45:09,YZ,None,
,,,,,,calibration,0,32,2,426,15,X,1,left,0.48505658299836796,1,0,,,,,,,,,,,,,,,,,,,,,1,,,,,,,,,,,,,,,,,,,,,,,,,,,,,,,,,,,,,,,,,,,,,,84,158626,19,Female,1,2024/03/13_08:45:09,YZ,None,
,,,,,,calibration,0,32,2,426,16,V,0,right,0.5121424030076014,1,0,,,,,,,,,,,,,,,,,,,,,1,,,,,,,,,,,,,,,,,,,,,,,,,,,,,,,,,,,,,,,,,,,,,,84,158626,19,Female,1,2024/03/13_08:45:09,YZ,None,
,,,,,,calibration,0,32,2,426,17,X,1,left,0.6820766349992482,1,0,,,,,,,,,,,,,,,,,,,,,1,,,,,,,,,,,,,,,,,,,,,,,,,,,,,,,,,,,,,,,,,,,,,,84,158626,19,Female,1,2024/03/13_08:45:09,YZ,None,
,,,,,,calibration,0,32,2,426,,,,,,,,0.8374999999999999,0.8,0.25,0.75,0.058823529411764705,0.6911764705882353,0.6538804687506854,4,3,1,0,1,9,13,5,12,0,,,,1,,,,,,,,,,,,,,,,,,,,,,,,,,,,,,,,,,,,,,,,,,,,,,84,158626,19,Female,1,2024/03/13_08:45:09,YZ,None,
,,,,,,Calibration,0,,2,426,,,,,,,,,,,,,,,,,,,,,,,,,3,,,1,,,,,,,,,,,,,,,,,,,,,,,,,,,,,,,,,,,,,,,,,,,,,,84,158626,19,Female,1,2024/03/13_08:45:09,YZ,None,
,,,,,,calibration,0,2,2,426,1,C,0,right,0.7355311719875317,1,0,,,,,,,,,,,,,,,,,,,,,1,,,,,,,,,,,,,,,,,,,,,,,,,,,,,,,,,,,,,,,,,,,,,,84,158626,19,Female,1,2024/03/13_08:45:09,YZ,None,
,,,,,,calibration,0,2,2,426,2,C,0,right,0.8750869079958647,1,0,,,,,,,,,,,,,,,,,,,,,1,,,,,,,,,,,,,,,,,,,,,,,,,,,,,,,,,,,,,,,,,,,,,,84,158626,19,Female,1,2024/03/13_08:45:09,YZ,None,
,,,,,,calibration,0,2,2,426,3,C,1,left,0.3665500950010028,1,0,,,,,,,,,,,,,,,,,,,,,1,,,,,,,,,,,,,,,,,,,,,,,,,,,,,,,,,,,,,,,,,,,,,,84,158626,19,Female,1,2024/03/13_08:45:09,YZ,None,
,,,,,,calibration,0,2,2,426,4,V,0,right,0.4640005580004072,1,0,,,,,,,,,,,,,,,,,,,,,1,,,,,,,,,,,,,,,,,,,,,,,,,,,,,,,,,,,,,,,,,,,,,,84,158626,19,Female,1,2024/03/13_08:45:09,YZ,None,
,,,,,,calibration,0,2,2,426,5,N,0,right,0.7755128139979206,1,0,,,,,,,,,,,,,,,,,,,,,1,,,,,,,,,,,,,,,,,,,,,,,,,,,,,,,,,,,,,,,,,,,,,,84,158626,19,Female,1,2024/03/13_08:45:09,YZ,None,
,,,,,,calibration,0,2,2,426,6,C,0,right,nan,0,1,,,,,,,,,,,,,,,,,,,,,1,,,,,,,,,,,,,,,,,,,,,,,,,,,,,,,,,,,,,,,,,,,,,,84,158626,19,Female,1,2024/03/13_08:45:09,YZ,None,
,,,,,,calibration,0,2,2,426,7,F,0,right,0.6079175359918736,1,0,,,,,,,,,,,,,,,,,,,,,1,,,,,,,,,,,,,,,,,,,,,,,,,,,,,,,,,,,,,,,,,,,,,,84,158626,19,Female,1,2024/03/13_08:45:09,YZ,None,
,,,,,,calibration,0,2,2,426,8,S,0,right,0.5717928219964961,1,0,,,,,,,,,,,,,,,,,,,,,1,,,,,,,,,,,,,,,,,,,,,,,,,,,,,,,,,,,,,,,,,,,,,,84,158626,19,Female,1,2024/03/13_08:45:09,YZ,None,
,,,,,,calibration,0,2,2,426,9,J,0,right,0.6460885020060232,1,0,,,,,,,,,,,,,,,,,,,,,1,,,,,,,,,,,,,,,,,,,,,,,,,,,,,,,,,,,,,,,,,,,,,,84,158626,19,Female,1,2024/03/13_08:45:09,YZ,None,
,,,,,,calibration,0,2,2,426,10,Q,0,right,0.5487545799987856,1,0,,,,,,,,,,,,,,,,,,,,,1,,,,,,,,,,,,,,,,,,,,,,,,,,,,,,,,,,,,,,,,,,,,,,84,158626,19,Female,1,2024/03/13_08:45:09,YZ,None,
,,,,,,calibration,0,2,2,426,11,X,0,right,0.5415098759985995,1,0,,,,,,,,,,,,,,,,,,,,,1,,,,,,,,,,,,,,,,,,,,,,,,,,,,,,,,,,,,,,,,,,,,,,84,158626,19,Female,1,2024/03/13_08:45:09,YZ,None,
,,,,,,calibration,0,2,2,426,12,Q,1,left,0.591657375000068,1,0,,,,,,,,,,,,,,,,,,,,,1,,,,,,,,,,,,,,,,,,,,,,,,,,,,,,,,,,,,,,,,,,,,,,84,158626,19,Female,1,2024/03/13_08:45:09,YZ,None,
,,,,,,calibration,0,2,2,426,13,X,1,left,nan,0,1,,,,,,,,,,,,,,,,,,,,,1,,,,,,,,,,,,,,,,,,,,,,,,,,,,,,,,,,,,,,,,,,,,,,84,158626,19,Female,1,2024/03/13_08:45:09,YZ,None,
,,,,,,calibration,0,2,2,426,14,C,0,right,0.8324376280070283,1,0,,,,,,,,,,,,,,,,,,,,,1,,,,,,,,,,,,,,,,,,,,,,,,,,,,,,,,,,,,,,,,,,,,,,84,158626,19,Female,1,2024/03/13_08:45:09,YZ,None,
,,,,,,calibration,0,2,2,426,15,X,1,left,0.43126091999874916,1,0,,,,,,,,,,,,,,,,,,,,,1,,,,,,,,,,,,,,,,,,,,,,,,,,,,,,,,,,,,,,,,,,,,,,84,158626,19,Female,1,2024/03/13_08:45:09,YZ,None,
,,,,,,calibration,0,2,2,426,16,J,0,right,0.6335868500027573,1,0,,,,,,,,,,,,,,,,,,,,,1,,,,,,,,,,,,,,,,,,,,,,,,,,,,,,,,,,,,,,,,,,,,,,84,158626,19,Female,1,2024/03/13_08:45:09,YZ,None,
,,,,,,calibration,0,2,2,426,17,X,1,left,0.8039807280001696,1,0,,,,,,,,,,,,,,,,,,,,,1,,,,,,,,,,,,,,,,,,,,,,,,,,,,,,,,,,,,,,,,,,,,,,84,158626,19,Female,1,2024/03/13_08:45:09,YZ,None,
,,,,,,calibration,0,2,2,426,,,,,,,,0.95,0.8,0.0,1.0,0.11764705882352941,0.8823529411764706,0.6283778909322185,4,0,1,1,2,11,15,5,12,0,,,,1,,,,,,,,,,,,,,,,,,,,,,,,,,,,,,,,,,,,,,,,,,,,,,84,158626,19,Female,1,2024/03/13_08:45:09,YZ,None,
,,,,,,Calibration,0,,2,426,,,,,,,,,,,,,,,,,,,,,,,,,4,,,1,,,,,,,,,,,,,,,,,,,,,,,,,,,,,,,,,,,,,,,,,,,,,,84,158626,19,Female,1,2024/03/13_08:45:09,YZ,None,
,,,,,,calibration,0,25,2,361,1,S,0,right,0.9475883729901398,1,0,,,,,,,,,,,,,,,,,,,,,1,,,,,,,,,,,,,,,,,,,,,,,,,,,,,,,,,,,,,,,,,,,,,,84,158626,19,Female,1,2024/03/13_08:45:09,YZ,None,
,,,,,,calibration,0,25,2,361,2,Q,0,left,0.7724789369967766,0,0,,,,,,,,,,,,,,,,,,,,,1,,,,,,,,,,,,,,,,,,,,,,,,,,,,,,,,,,,,,,,,,,,,,,84,158626,19,Female,1,2024/03/13_08:45:09,YZ,None,
,,,,,,calibration,0,25,2,361,3,X,0,left,nan,0,1,,,,,,,,,,,,,,,,,,,,,1,,,,,,,,,,,,,,,,,,,,,,,,,,,,,,,,,,,,,,,,,,,,,,84,158626,19,Female,1,2024/03/13_08:45:09,YZ,None,
,,,,,,calibration,0,25,2,361,4,Q,1,left,0.5123618670040742,1,0,,,,,,,,,,,,,,,,,,,,,1,,,,,,,,,,,,,,,,,,,,,,,,,,,,,,,,,,,,,,,,,,,,,,84,158626,19,Female,1,2024/03/13_08:45:09,YZ,None,
,,,,,,calibration,0,25,2,361,5,S,0,left,0.8077668190089753,0,0,,,,,,,,,,,,,,,,,,,,,1,,,,,,,,,,,,,,,,,,,,,,,,,,,,,,,,,,,,,,,,,,,,,,84,158626,19,Female,1,2024/03/13_08:45:09,YZ,None,
,,,,,,calibration,0,25,2,361,6,X,0,left,0.8626366520038573,0,0,,,,,,,,,,,,,,,,,,,,,1,,,,,,,,,,,,,,,,,,,,,,,,,,,,,,,,,,,,,,,,,,,,,,84,158626,19,Female,1,2024/03/13_08:45:09,YZ,None,
,,,,,,calibration,0,25,2,361,7,V,0,right,0.42640886099252384,1,0,,,,,,,,,,,,,,,,,,,,,1,,,,,,,,,,,,,,,,,,,,,,,,,,,,,,,,,,,,,,,,,,,,,,84,158626,19,Female,1,2024/03/13_08:45:09,YZ,None,
,,,,,,calibration,0,25,2,361,8,X,1,left,0.6155727389996173,1,0,,,,,,,,,,,,,,,,,,,,,1,,,,,,,,,,,,,,,,,,,,,,,,,,,,,,,,,,,,,,,,,,,,,,84,158626,19,Female,1,2024/03/13_08:45:09,YZ,None,
,,,,,,calibration,0,25,2,361,9,S,0,right,0.7758990330039524,1,0,,,,,,,,,,,,,,,,,,,,,1,,,,,,,,,,,,,,,,,,,,,,,,,,,,,,,,,,,,,,,,,,,,,,84,158626,19,Female,1,2024/03/13_08:45:09,YZ,None,
,,,,,,calibration,0,25,2,361,10,J,0,right,0.5267063909996068,1,0,,,,,,,,,,,,,,,,,,,,,1,,,,,,,,,,,,,,,,,,,,,,,,,,,,,,,,,,,,,,,,,,,,,,84,158626,19,Female,1,2024/03/13_08:45:09,YZ,None,
,,,,,,calibration,0,25,2,361,11,Q,0,right,0.4605719449900789,1,0,,,,,,,,,,,,,,,,,,,,,1,,,,,,,,,,,,,,,,,,,,,,,,,,,,,,,,,,,,,,,,,,,,,,84,158626,19,Female,1,2024/03/13_08:45:09,YZ,None,
,,,,,,calibration,0,25,2,361,12,V,0,right,0.8482018949871417,1,0,,,,,,,,,,,,,,,,,,,,,1,,,,,,,,,,,,,,,,,,,,,,,,,,,,,,,,,,,,,,,,,,,,,,84,158626,19,Female,1,2024/03/13_08:45:09,YZ,None,
,,,,,,calibration,0,25,2,361,13,Q,1,left,0.7410442850086838,1,0,,,,,,,,,,,,,,,,,,,,,1,,,,,,,,,,,,,,,,,,,,,,,,,,,,,,,,,,,,,,,,,,,,,,84,158626,19,Female,1,2024/03/13_08:45:09,YZ,None,
,,,,,,calibration,0,25,2,361,14,S,0,right,0.8368490650027525,1,0,,,,,,,,,,,,,,,,,,,,,1,,,,,,,,,,,,,,,,,,,,,,,,,,,,,,,,,,,,,,,,,,,,,,84,158626,19,Female,1,2024/03/13_08:45:09,YZ,None,
,,,,,,calibration,0,25,2,361,15,X,0,right,0.6401165699935518,1,0,,,,,,,,,,,,,,,,,,,,,1,,,,,,,,,,,,,,,,,,,,,,,,,,,,,,,,,,,,,,,,,,,,,,84,158626,19,Female,1,2024/03/13_08:45:09,YZ,None,
,,,,,,calibration,0,25,2,361,16,S,1,left,0.5678692319925176,1,0,,,,,,,,,,,,,,,,,,,,,1,,,,,,,,,,,,,,,,,,,,,,,,,,,,,,,,,,,,,,,,,,,,,,84,158626,19,Female,1,2024/03/13_08:45:09,YZ,None,
,,,,,,calibration,0,25,2,361,17,C,0,right,0.3830001629976323,1,0,,,,,,,,,,,,,,,,,,,,,1,,,,,,,,,,,,,,,,,,,,,,,,,,,,,,,,,,,,,,,,,,,,,,84,158626,19,Female,1,2024/03/13_08:45:09,YZ,None,
,,,,,,calibration,0,25,2,361,18,S,1,left,0.5494596049975371,1,0,,,,,,,,,,,,,,,,,,,,,1,,,,,,,,,,,,,,,,,,,,,,,,,,,,,,,,,,,,,,,,,,,,,,84,158626,19,Female,1,2024/03/13_08:45:09,YZ,None,
,,,,,,calibration,0,25,2,361,,,,,,,,0.9423076923076923,1.0,0.23076923076923078,0.75,0.05555555555555555,0.7136752136752136,0.6632077901158482,5,3,0,1,1,9,14,5,13,0,,,,1,,,,,,,,,,,,,,,,,,,,,,,,,,,,,,,,,,,,,,,,,,,,,,84,158626,19,Female,1,2024/03/13_08:45:09,YZ,None,
,,,,,,Calibration,0,,2,361,,,,,,,,,,,,,,,,,,,,,,,,,5,,,1,,,,,,,,,,,,,,,,,,,,,,,,,,,,,,,,,,,,,,,,,,,,,,84,158626,19,Female,1,2024/03/13_08:45:09,YZ,None,
,,,,,,calibration,0,12,2,303,1,N,0,right,0.2246175670006778,1,0,,,,,,,,,,,,,,,,,,,,,1,,,,,,,,,,,,,,,,,,,,,,,,,,,,,,,,,,,,,,,,,,,,,,84,158626,19,Female,1,2024/03/13_08:45:09,YZ,None,
,,,,,,calibration,0,12,2,303,2,C,0,right,0.375514352999744,1,0,,,,,,,,,,,,,,,,,,,,,1,,,,,,,,,,,,,,,,,,,,,,,,,,,,,,,,,,,,,,,,,,,,,,84,158626,19,Female,1,2024/03/13_08:45:09,YZ,None,
,,,,,,calibration,0,12,2,303,3,F,0,right,0.6908246259990847,1,0,,,,,,,,,,,,,,,,,,,,,1,,,,,,,,,,,,,,,,,,,,,,,,,,,,,,,,,,,,,,,,,,,,,,84,158626,19,Female,1,2024/03/13_08:45:09,YZ,None,
,,,,,,calibration,0,12,2,303,4,C,1,left,0.5232621330069378,1,0,,,,,,,,,,,,,,,,,,,,,1,,,,,,,,,,,,,,,,,,,,,,,,,,,,,,,,,,,,,,,,,,,,,,84,158626,19,Female,1,2024/03/13_08:45:09,YZ,None,
,,,,,,calibration,0,12,2,303,5,J,0,right,0.49767552700359374,1,0,,,,,,,,,,,,,,,,,,,,,1,,,,,,,,,,,,,,,,,,,,,,,,,,,,,,,,,,,,,,,,,,,,,,84,158626,19,Female,1,2024/03/13_08:45:09,YZ,None,
,,,,,,calibration,0,12,2,303,6,V,0,right,0.770322449010564,1,0,,,,,,,,,,,,,,,,,,,,,1,,,,,,,,,,,,,,,,,,,,,,,,,,,,,,,,,,,,,,,,,,,,,,84,158626,19,Female,1,2024/03/13_08:45:09,YZ,None,
,,,,,,calibration,0,12,2,303,7,Q,0,right,0.5575344120006775,1,0,,,,,,,,,,,,,,,,,,,,,1,,,,,,,,,,,,,,,,,,,,,,,,,,,,,,,,,,,,,,,,,,,,,,84,158626,19,Female,1,2024/03/13_08:45:09,YZ,None,
,,,,,,calibration,0,12,2,303,8,X,0,right,0.9897269249922829,1,0,,,,,,,,,,,,,,,,,,,,,1,,,,,,,,,,,,,,,,,,,,,,,,,,,,,,,,,,,,,,,,,,,,,,84,158626,19,Female,1,2024/03/13_08:45:09,YZ,None,
,,,,,,calibration,0,12,2,303,9,J,0,right,0.7421464990038658,1,0,,,,,,,,,,,,,,,,,,,,,1,,,,,,,,,,,,,,,,,,,,,,,,,,,,,,,,,,,,,,,,,,,,,,84,158626,19,Female,1,2024/03/13_08:45:09,YZ,None,
,,,,,,calibration,0,12,2,303,10,Q,0,left,0.5123951579880668,0,0,,,,,,,,,,,,,,,,,,,,,1,,,,,,,,,,,,,,,,,,,,,,,,,,,,,,,,,,,,,,,,,,,,,,84,158626,19,Female,1,2024/03/13_08:45:09,YZ,None,
,,,,,,calibration,0,12,2,303,11,J,1,right,0.5409171270002844,0,0,,,,,,,,,,,,,,,,,,,,,1,,,,,,,,,,,,,,,,,,,,,,,,,,,,,,,,,,,,,,,,,,,,,,84,158626,19,Female,1,2024/03/13_08:45:09,YZ,None,
,,,,,,calibration,0,12,2,303,12,V,0,right,0.7566361609933665,1,0,,,,,,,,,,,,,,,,,,,,,1,,,,,,,,,,,,,,,,,,,,,,,,,,,,,,,,,,,,,,,,,,,,,,84,158626,19,Female,1,2024/03/13_08:45:09,YZ,None,
,,,,,,calibration,0,12,2,303,13,Q,0,right,0.49390036100521684,1,0,,,,,,,,,,,,,,,,,,,,,1,,,,,,,,,,,,,,,,,,,,,,,,,,,,,,,,,,,,,,,,,,,,,,84,158626,19,Female,1,2024/03/13_08:45:09,YZ,None,
,,,,,,calibration,0,12,2,303,14,V,1,left,0.6802839199954178,1,0,,,,,,,,,,,,,,,,,,,,,1,,,,,,,,,,,,,,,,,,,,,,,,,,,,,,,,,,,,,,,,,,,,,,84,158626,19,Female,1,2024/03/13_08:45:09,YZ,None,
,,,,,,calibration,0,12,2,303,15,X,0,right,0.46806443299283274,1,0,,,,,,,,,,,,,,,,,,,,,1,,,,,,,,,,,,,,,,,,,,,,,,,,,,,,,,,,,,,,,,,,,,,,84,158626,19,Female,1,2024/03/13_08:45:09,YZ,None,
,,,,,,calibration,0,12,2,303,16,V,1,left,0.7908511519926833,1,0,,,,,,,,,,,,,,,,,,,,,1,,,,,,,,,,,,,,,,,,,,,,,,,,,,,,,,,,,,,,,,,,,,,,84,158626,19,Female,1,2024/03/13_08:45:09,YZ,None,
,,,,,,calibration,0,12,2,303,17,X,1,left,0.9587808929936728,1,0,,,,,,,,,,,,,,,,,,,,,1,,,,,,,,,,,,,,,,,,,,,,,,,,,,,,,,,,,,,,,,,,,,,,84,158626,19,Female,1,2024/03/13_08:45:09,YZ,None,
,,,,,,calibration,0,12,2,303,18,Q,0,right,0.5583279049897101,1,0,,,,,,,,,,,,,,,,,,,,,1,,,,,,,,,,,,,,,,,,,,,,,,,,,,,,,,,,,,,,,,,,,,,,84,158626,19,Female,1,2024/03/13_08:45:09,YZ,None,
,,,,,,calibration,0,12,2,303,19,V,0,left,0.9247686279995833,0,0,,,,,,,,,,,,,,,,,,,,,1,,,,,,,,,,,,,,,,,,,,,,,,,,,,,,,,,,,,,,,,,,,,,,84,158626,19,Female,1,2024/03/13_08:45:09,YZ,None,
,,,,,,calibration,0,12,2,303,,,,,,,,0.8857142857142858,0.8,0.14285714285714285,0.8571428571428571,0.0,0.8571428571428572,0.6345552752088559,4,2,0,0,0,12,16,5,14,0,,,,1,,,,,,,,,,,,,,,,,,,,,,,,,,,,,,,,,,,,,,,,,,,,,,84,158626,19,Female,1,2024/03/13_08:45:09,YZ,None,
,,,,,,Calibration,0,,2,303,,,,,,,,,,,,,,,,,,,,,,,,,6,,,1,,,,,,,,,,,,,,,,,,,,,,,,,,,,,,,,,,,,,,,,,,,,,,84,158626,19,Female,1,2024/03/13_08:45:09,YZ,None,
,,,,,,calibration,0,17,2,250,1,F,0,right,0.4125645439926302,1,0,,,,,,,,,,,,,,,,,,,,,1,,,,,,,,,,,,,,,,,,,,,,,,,,,,,,,,,,,,,,,,,,,,,,84,158626,19,Female,1,2024/03/13_08:45:09,YZ,None,
,,,,,,calibration,0,17,2,250,2,J,0,right,0.5580518319911789,1,0,,,,,,,,,,,,,,,,,,,,,1,,,,,,,,,,,,,,,,,,,,,,,,,,,,,,,,,,,,,,,,,,,,,,84,158626,19,Female,1,2024/03/13_08:45:09,YZ,None,
,,,,,,calibration,0,17,2,250,3,Q,0,left,0.6926757909968728,0,0,,,,,,,,,,,,,,,,,,,,,1,,,,,,,,,,,,,,,,,,,,,,,,,,,,,,,,,,,,,,,,,,,,,,84,158626,19,Female,1,2024/03/13_08:45:09,YZ,None,
,,,,,,calibration,0,17,2,250,4,J,1,left,0.7491344429872697,1,0,,,,,,,,,,,,,,,,,,,,,1,,,,,,,,,,,,,,,,,,,,,,,,,,,,,,,,,,,,,,,,,,,,,,84,158626,19,Female,1,2024/03/13_08:45:09,YZ,None,
,,,,,,calibration,0,17,2,250,5,F,0,right,0.35066844000539277,1,0,,,,,,,,,,,,,,,,,,,,,1,,,,,,,,,,,,,,,,,,,,,,,,,,,,,,,,,,,,,,,,,,,,,,84,158626,19,Female,1,2024/03/13_08:45:09,YZ,None,
,,,,,,calibration,0,17,2,250,6,J,1,left,0.4720129860070301,1,0,,,,,,,,,,,,,,,,,,,,,1,,,,,,,,,,,,,,,,,,,,,,,,,,,,,,,,,,,,,,,,,,,,,,84,158626,19,Female,1,2024/03/13_08:45:09,YZ,None,
,,,,,,calibration,0,17,2,250,7,F,1,left,0.6797985839948524,1,0,,,,,,,,,,,,,,,,,,,,,1,,,,,,,,,,,,,,,,,,,,,,,,,,,,,,,,,,,,,,,,,,,,,,84,158626,19,Female,1,2024/03/13_08:45:09,YZ,None,
,,,,,,calibration,0,17,2,250,8,X,0,right,0.494590585003607,1,0,,,,,,,,,,,,,,,,,,,,,1,,,,,,,,,,,,,,,,,,,,,,,,,,,,,,,,,,,,,,,,,,,,,,84,158626,19,Female,1,2024/03/13_08:45:09,YZ,None,
,,,,,,calibration,0,17,2,250,9,F,1,right,0.45163961299113,0,0,,,,,,,,,,,,,,,,,,,,,1,,,,,,,,,,,,,,,,,,,,,,,,,,,,,,,,,,,,,,,,,,,,,,84,158626,19,Female,1,2024/03/13_08:45:09,YZ,None,
,,,,,,calibration,0,17,2,250,10,C,0,right,0.5498284510103986,1,0,,,,,,,,,,,,,,,,,,,,,1,,,,,,,,,,,,,,,,,,,,,,,,,,,,,,,,,,,,,,,,,,,,,,84,158626,19,Female,1,2024/03/13_08:45:09,YZ,None,
,,,,,,calibration,0,17,2,250,11,X,0,left,0.624105202005012,0,0,,,,,,,,,,,,,,,,,,,,,1,,,,,,,,,,,,,,,,,,,,,,,,,,,,,,,,,,,,,,,,,,,,,,84,158626,19,Female,1,2024/03/13_08:45:09,YZ,None,
,,,,,,calibration,0,17,2,250,12,N,0,right,0.3204440709960181,1,0,,,,,,,,,,,,,,,,,,,,,1,,,,,,,,,,,,,,,,,,,,,,,,,,,,,,,,,,,,,,,,,,,,,,84,158626,19,Female,1,2024/03/13_08:45:09,YZ,None,
,,,,,,calibration,0,17,2,250,13,F,0,left,0.5240455739985919,0,0,,,,,,,,,,,,,,,,,,,,,1,,,,,,,,,,,,,,,,,,,,,,,,,,,,,,,,,,,,,,,,,,,,,,84,158626,19,Female,1,2024/03/13_08:45:09,YZ,None,
,,,,,,calibration,0,17,2,250,14,C,0,right,0.4272815550066298,1,0,,,,,,,,,,,,,,,,,,,,,1,,,,,,,,,,,,,,,,,,,,,,,,,,,,,,,,,,,,,,,,,,,,,,84,158626,19,Female,1,2024/03/13_08:45:09,YZ,None,
,,,,,,calibration,0,17,2,250,15,F,1,left,0.4897409959958168,1,0,,,,,,,,,,,,,,,,,,,,,1,,,,,,,,,,,,,,,,,,,,,,,,,,,,,,,,,,,,,,,,,,,,,,84,158626,19,Female,1,2024/03/13_08:45:09,YZ,None,
,,,,,,calibration,0,17,2,250,16,X,0,right,0.46032146298966836,1,0,,,,,,,,,,,,,,,,,,,,,1,,,,,,,,,,,,,,,,,,,,,,,,,,,,,,,,,,,,,,,,,,,,,,84,158626,19,Female,1,2024/03/13_08:45:09,YZ,None,
,,,,,,calibration,0,17,2,250,17,V,0,right,0.5192982110020239,1,0,,,,,,,,,,,,,,,,,,,,,1,,,,,,,,,,,,,,,,,,,,,,,,,,,,,,,,,,,,,,,,,,,,,,84,158626,19,Female,1,2024/03/13_08:45:09,YZ,None,
,,,,,,calibration,0,17,2,250,18,S,0,right,0.6761610289977398,1,0,,,,,,,,,,,,,,,,,,,,,1,,,,,,,,,,,,,,,,,,,,,,,,,,,,,,,,,,,,,,,,,,,,,,84,158626,19,Female,1,2024/03/13_08:45:09,YZ,None,
,,,,,,calibration,0,17,2,250,19,C,0,right,0.5122164240019629,1,0,,,,,,,,,,,,,,,,,,,,,1,,,,,,,,,,,,,,,,,,,,,,,,,,,,,,,,,,,,,,,,,,,,,,84,158626,19,Female,1,2024/03/13_08:45:09,YZ,None,
,,,,,,calibration,0,17,2,250,20,S,1,left,0.44904500000120606,1,0,,,,,,,,,,,,,,,,,,,,,1,,,,,,,,,,,,,,,,,,,,,,,,,,,,,,,,,,,,,,,,,,,,,,84,158626,19,Female,1,2024/03/13_08:45:09,YZ,None,
,,,,,,calibration,0,17,2,250,,,,,,,,0.8690476190476191,0.8333333333333334,0.21428571428571427,0.7857142857142857,0.0,0.7857142857142857,0.5206812396987516,5,3,0,0,0,11,16,6,14,0,,,,1,,,,,,,,,,,,,,,,,,,,,,,,,,,,,,,,,,,,,,,,,,,,,,84,158626,19,Female,1,2024/03/13_08:45:09,YZ,None,
,,,,,,Calibration,0,,2,250,,,,,,,,,,,,,,,,,,,,,,,,,7,,,1,,,,,,,,,,,,,,,,,,,,,,,,,,,,,,,,,,,,,,,,,,,,,,84,158626,19,Female,1,2024/03/13_08:45:09,YZ,None,
,,,,,,calibration,0,4,2,202,1,N,0,right,0.33866716000193264,1,0,,,,,,,,,,,,,,,,,,,,,1,,,,,,,,,,,,,,,,,,,,,,,,,,,,,,,,,,,,,,,,,,,,,,84,158626,19,Female,1,2024/03/13_08:45:09,YZ,None,
,,,,,,calibration,0,4,2,202,2,S,0,right,nan,0,1,,,,,,,,,,,,,,,,,,,,,1,,,,,,,,,,,,,,,,,,,,,,,,,,,,,,,,,,,,,,,,,,,,,,84,158626,19,Female,1,2024/03/13_08:45:09,YZ,None,
,,,,,,calibration,0,4,2,202,3,N,1,right,0.39240830499329604,0,0,,,,,,,,,,,,,,,,,,,,,1,,,,,,,,,,,,,,,,,,,,,,,,,,,,,,,,,,,,,,,,,,,,,,84,158626,19,Female,1,2024/03/13_08:45:09,YZ,None,
,,,,,,calibration,0,4,2,202,4,V,0,right,0.8822322619962506,1,0,,,,,,,,,,,,,,,,,,,,,1,,,,,,,,,,,,,,,,,,,,,,,,,,,,,,,,,,,,,,,,,,,,,,84,158626,19,Female,1,2024/03/13_08:45:09,YZ,None,
,,,,,,calibration,0,4,2,202,5,C,0,right,nan,0,1,,,,,,,,,,,,,,,,,,,,,1,,,,,,,,,,,,,,,,,,,,,,,,,,,,,,,,,,,,,,,,,,,,,,84,158626,19,Female,1,2024/03/13_08:45:09,YZ,None,
,,,,,,calibration,0,4,2,202,6,V,1,right,0.0,0,0,,,,,,,,,,,,,,,,,,,,,1,,,,,,,,,,,,,,,,,,,,,,,,,,,,,,,,,,,,,,,,,,,,,,84,158626,19,Female,1,2024/03/13_08:45:09,YZ,None,
,,,,,,calibration,0,4,2,202,7,F,0,right,0.6471180359949358,1,0,,,,,,,,,,,,,,,,,,,,,1,,,,,,,,,,,,,,,,,,,,,,,,,,,,,,,,,,,,,,,,,,,,,,84,158626,19,Female,1,2024/03/13_08:45:09,YZ,None,
,,,,,,calibration,0,4,2,202,8,V,1,left,0.7219001290068263,1,0,,,,,,,,,,,,,,,,,,,,,1,,,,,,,,,,,,,,,,,,,,,,,,,,,,,,,,,,,,,,,,,,,,,,84,158626,19,Female,1,2024/03/13_08:45:09,YZ,None,
,,,,,,calibration,0,4,2,202,9,X,0,right,0.4982071489939699,1,0,,,,,,,,,,,,,,,,,,,,,1,,,,,,,,,,,,,,,,,,,,,,,,,,,,,,,,,,,,,,,,,,,,,,84,158626,19,Female,1,2024/03/13_08:45:09,YZ,None,
,,,,,,calibration,0,4,2,202,10,N,0,right,nan,0,1,,,,,,,,,,,,,,,,,,,,,1,,,,,,,,,,,,,,,,,,,,,,,,,,,,,,,,,,,,,,,,,,,,,,84,158626,19,Female,1,2024/03/13_08:45:09,YZ,None,
,,,,,,calibration,0,4,2,202,11,V,0,right,0.0,1,0,,,,,,,,,,,,,,,,,,,,,1,,,,,,,,,,,,,,,,,,,,,,,,,,,,,,,,,,,,,,,,,,,,,,84,158626,19,Female,1,2024/03/13_08:45:09,YZ,None,
,,,,,,calibration,0,4,2,202,12,X,0,right,0.5992078970011789,1,0,,,,,,,,,,,,,,,,,,,,,1,,,,,,,,,,,,,,,,,,,,,,,,,,,,,,,,,,,,,,,,,,,,,,84,158626,19,Female,1,2024/03/13_08:45:09,YZ,None,
,,,,,,calibration,0,4,2,202,13,Q,0,right,0.8209066050039837,1,0,,,,,,,,,,,,,,,,,,,,,1,,,,,,,,,,,,,,,,,,,,,,,,,,,,,,,,,,,,,,,,,,,,,,84,158626,19,Female,1,2024/03/13_08:45:09,YZ,None,
,,,,,,calibration,0,4,2,202,14,C,0,right,0.4539844550017733,1,0,,,,,,,,,,,,,,,,,,,,,1,,,,,,,,,,,,,,,,,,,,,,,,,,,,,,,,,,,,,,,,,,,,,,84,158626,19,Female,1,2024/03/13_08:45:09,YZ,None,
,,,,,,calibration,0,4,2,202,15,Q,1,left,0.4652840619964991,1,0,,,,,,,,,,,,,,,,,,,,,1,,,,,,,,,,,,,,,,,,,,,,,,,,,,,,,,,,,,,,,,,,,,,,84,158626,19,Female,1,2024/03/13_08:45:09,YZ,None,
,,,,,,calibration,0,4,2,202,16,C,1,left,0.5184769260085886,1,0,,,,,,,,,,,,,,,,,,,,,1,,,,,,,,,,,,,,,,,,,,,,,,,,,,,,,,,,,,,,,,,,,,,,84,158626,19,Female,1,2024/03/13_08:45:09,YZ,None,
,,,,,,calibration,0,4,2,202,17,X,0,right,0.4489658769889502,1,0,,,,,,,,,,,,,,,,,,,,,1,,,,,,,,,,,,,,,,,,,,,,,,,,,,,,,,,,,,,,,,,,,,,,84,158626,19,Female,1,2024/03/13_08:45:09,YZ,None,
,,,,,,calibration,0,4,2,202,18,Q,0,right,0.7438869829929899,1,0,,,,,,,,,,,,,,,,,,,,,1,,,,,,,,,,,,,,,,,,,,,,,,,,,,,,,,,,,,,,,,,,,,,,84,158626,19,Female,1,2024/03/13_08:45:09,YZ,None,
,,,,,,calibration,0,4,2,202,19,X,1,left,0.596483820991125,1,0,,,,,,,,,,,,,,,,,,,,,1,,,,,,,,,,,,,,,,,,,,,,,,,,,,,,,,,,,,,,,,,,,,,,84,158626,19,Female,1,2024/03/13_08:45:09,YZ,None,
,,,,,,calibration,0,4,2,202,20,Q,1,left,0.5124007099948358,1,0,,,,,,,,,,,,,,,,,,,,,1,,,,,,,,,,,,,,,,,,,,,,,,,,,,,,,,,,,,,,,,,,,,,,84,158626,19,Female,1,2024/03/13_08:45:09,YZ,None,
,,,,,,calibration,0,4,2,202,21,V,0,right,0.6422226549912011,1,0,,,,,,,,,,,,,,,,,,,,,1,,,,,,,,,,,,,,,,,,,,,,,,,,,,,,,,,,,,,,,,,,,,,,84,158626,19,Female,1,2024/03/13_08:45:09,YZ,None,
,,,,,,calibration,0,4,2,202,,,,,,,,0.9285714285714286,0.7142857142857143,0.0,1.0,0.14285714285714285,0.8571428571428572,0.515686279553241,5,0,0,3,3,11,16,7,14,0,,,,1,,,,,,,,,,,,,,,,,,,,,,,,,,,,,,,,,,,,,,,,,,,,,,84,158626,19,Female,1,2024/03/13_08:45:09,YZ,None,
,,,,,,Calibration,0,,2,202,,,,,,,,,,,,,,,,,,,,,,,,,8,,,1,,,,,,,,,,,,,,,,,,,,,,,,,,,,,,,,,,,,,,,,,,,,,,84,158626,19,Female,1,2024/03/13_08:45:09,YZ,None,
,,,,,,calibration,0,5,2,159,1,S,0,right,0.4764780049881665,1,0,,,,,,,,,,,,,,,,,,,,,1,,,,,,,,,,,,,,,,,,,,,,,,,,,,,,,,,,,,,,,,,,,,,,84,158626,19,Female,1,2024/03/13_08:45:09,YZ,None,
,,,,,,calibration,0,5,2,159,2,C,0,right,0.4735273410042282,1,0,,,,,,,,,,,,,,,,,,,,,1,,,,,,,,,,,,,,,,,,,,,,,,,,,,,,,,,,,,,,,,,,,,,,84,158626,19,Female,1,2024/03/13_08:45:09,YZ,None,
,,,,,,calibration,0,5,2,159,3,Q,0,right,0.5818791429919656,1,0,,,,,,,,,,,,,,,,,,,,,1,,,,,,,,,,,,,,,,,,,,,,,,,,,,,,,,,,,,,,,,,,,,,,84,158626,19,Female,1,2024/03/13_08:45:09,YZ,None,
,,,,,,calibration,0,5,2,159,4,F,0,right,0.5121308029920328,1,0,,,,,,,,,,,,,,,,,,,,,1,,,,,,,,,,,,,,,,,,,,,,,,,,,,,,,,,,,,,,,,,,,,,,84,158626,19,Female,1,2024/03/13_08:45:09,YZ,None,
,,,,,,calibration,0,5,2,159,5,C,0,left,0.44040479901013896,0,0,,,,,,,,,,,,,,,,,,,,,1,,,,,,,,,,,,,,,,,,,,,,,,,,,,,,,,,,,,,,,,,,,,,,84,158626,19,Female,1,2024/03/13_08:45:09,YZ,None,
,,,,,,calibration,0,5,2,159,6,F,1,right,0.5122041589929722,0,0,,,,,,,,,,,,,,,,,,,,,1,,,,,,,,,,,,,,,,,,,,,,,,,,,,,,,,,,,,,,,,,,,,,,84,158626,19,Female,1,2024/03/13_08:45:09,YZ,None,
,,,,,,calibration,0,5,2,159,7,C,1,left,0.5911495100008324,1,0,,,,,,,,,,,,,,,,,,,,,1,,,,,,,,,,,,,,,,,,,,,,,,,,,,,,,,,,,,,,,,,,,,,,84,158626,19,Female,1,2024/03/13_08:45:09,YZ,None,
,,,,,,calibration,0,5,2,159,8,J,0,right,0.478236515991739,1,0,,,,,,,,,,,,,,,,,,,,,1,,,,,,,,,,,,,,,,,,,,,,,,,,,,,,,,,,,,,,,,,,,,,,84,158626,19,Female,1,2024/03/13_08:45:09,YZ,None,
,,,,,,calibration,0,5,2,159,9,C,1,left,0.4664474040037021,1,0,,,,,,,,,,,,,,,,,,,,,1,,,,,,,,,,,,,,,,,,,,,,,,,,,,,,,,,,,,,,,,,,,,,,84,158626,19,Female,1,2024/03/13_08:45:09,YZ,None,
,,,,,,calibration,0,5,2,159,10,S,0,right,0.5128453990037087,1,0,,,,,,,,,,,,,,,,,,,,,1,,,,,,,,,,,,,,,,,,,,,,,,,,,,,,,,,,,,,,,,,,,,,,84,158626,19,Female,1,2024/03/13_08:45:09,YZ,None,
,,,,,,calibration,0,5,2,159,11,F,0,left,0.48325928499980364,0,0,,,,,,,,,,,,,,,,,,,,,1,,,,,,,,,,,,,,,,,,,,,,,,,,,,,,,,,,,,,,,,,,,,,,84,158626,19,Female,1,2024/03/13_08:45:09,YZ,None,
,,,,,,calibration,0,5,2,159,12,J,0,left,nan,0,1,,,,,,,,,,,,,,,,,,,,,1,,,,,,,,,,,,,,,,,,,,,,,,,,,,,,,,,,,,,,,,,,,,,,84,158626,19,Female,1,2024/03/13_08:45:09,YZ,None,
,,,,,,calibration,0,5,2,159,13,F,1,right,0.06707571700098924,0,0,,,,,,,,,,,,,,,,,,,,,1,,,,,,,,,,,,,,,,,,,,,,,,,,,,,,,,,,,,,,,,,,,,,,84,158626,19,Female,1,2024/03/13_08:45:09,YZ,None,
,,,,,,calibration,0,5,2,159,14,Q,0,right,0.5958181570022134,1,0,,,,,,,,,,,,,,,,,,,,,1,,,,,,,,,,,,,,,,,,,,,,,,,,,,,,,,,,,,,,,,,,,,,,84,158626,19,Female,1,2024/03/13_08:45:09,YZ,None,
,,,,,,calibration,0,5,2,159,15,F,1,left,0.48065598199900705,1,0,,,,,,,,,,,,,,,,,,,,,1,,,,,,,,,,,,,,,,,,,,,,,,,,,,,,,,,,,,,,,,,,,,,,84,158626,19,Female,1,2024/03/13_08:45:09,YZ,None,
,,,,,,calibration,0,5,2,159,16,V,0,right,0.42343737099145073,1,0,,,,,,,,,,,,,,,,,,,,,1,,,,,,,,,,,,,,,,,,,,,,,,,,,,,,,,,,,,,,,,,,,,,,84,158626,19,Female,1,2024/03/13_08:45:09,YZ,None,
,,,,,,calibration,0,5,2,159,17,C,0,right,0.5250086689920863,1,0,,,,,,,,,,,,,,,,,,,,,1,,,,,,,,,,,,,,,,,,,,,,,,,,,,,,,,,,,,,,,,,,,,,,84,158626,19,Female,1,2024/03/13_08:45:09,YZ,None,
,,,,,,calibration,0,5,2,159,18,F,0,left,0.41064537900092546,0,0,,,,,,,,,,,,,,,,,,,,,1,,,,,,,,,,,,,,,,,,,,,,,,,,,,,,,,,,,,,,,,,,,,,,84,158626,19,Female,1,2024/03/13_08:45:09,YZ,None,
,,,,,,calibration,0,5,2,159,19,V,0,left,0.8404949489922728,0,0,,,,,,,,,,,,,,,,,,,,,1,,,,,,,,,,,,,,,,,,,,,,,,,,,,,,,,,,,,,,,,,,,,,,84,158626,19,Female,1,2024/03/13_08:45:09,YZ,None,
,,,,,,calibration,0,5,2,159,20,J,0,right,0.6744170489982935,1,0,,,,,,,,,,,,,,,,,,,,,1,,,,,,,,,,,,,,,,,,,,,,,,,,,,,,,,,,,,,,,,,,,,,,84,158626,19,Female,1,2024/03/13_08:45:09,YZ,None,
,,,,,,calibration,0,5,2,159,21,C,0,left,0.6415586229995824,0,0,,,,,,,,,,,,,,,,,,,,,1,,,,,,,,,,,,,,,,,,,,,,,,,,,,,,,,,,,,,,,,,,,,,,84,158626,19,Female,1,2024/03/13_08:45:09,YZ,None,
,,,,,,calibration,0,5,2,159,22,J,1,left,0.487710765999509,1,0,,,,,,,,,,,,,,,,,,,,,1,,,,,,,,,,,,,,,,,,,,,,,,,,,,,,,,,,,,,,,,,,,,,,84,158626,19,Female,1,2024/03/13_08:45:09,YZ,None,
,,,,,,calibration,0,5,2,159,,,,,,,,0.734375,0.6666666666666666,0.3125,0.6666666666666666,0.045454545454545456,0.6420454545454546,0.5083516679026486,4,5,0,1,1,10,14,6,16,0,,,,1,,,,,,,,,,,,,,,,,,,,,,,,,,,,,,,,,,,,,,,,,,,,,,84,158626,19,Female,1,2024/03/13_08:45:09,YZ,None,
,,,,,,Calibration,0,,2,159,,,,,,,,,,,,,,,,,,,,,,,,,9,,,1,,,,,,,,,,,,,,,,,,,,,,,,,,,,,,,,,,,,,,,,,,,,,,84,158626,19,Female,1,2024/03/13_08:45:09,YZ,None,
,,,,,,calibration,0,29,2,202,1,C,0,right,0.27203080800245516,1,0,,,,,,,,,,,,,,,,,,,,,1,,,,,,,,,,,,,,,,,,,,,,,,,,,,,,,,,,,,,,,,,,,,,,84,158626,19,Female,1,2024/03/13_08:45:09,YZ,None,
,,,,,,calibration,0,29,2,202,2,C,0,left,0.6182519680005498,0,0,,,,,,,,,,,,,,,,,,,,,1,,,,,,,,,,,,,,,,,,,,,,,,,,,,,,,,,,,,,,,,,,,,,,84,158626,19,Female,1,2024/03/13_08:45:09,YZ,None,
,,,,,,calibration,0,29,2,202,3,C,1,left,0.4071595699933823,1,0,,,,,,,,,,,,,,,,,,,,,1,,,,,,,,,,,,,,,,,,,,,,,,,,,,,,,,,,,,,,,,,,,,,,84,158626,19,Female,1,2024/03/13_08:45:09,YZ,None,
,,,,,,calibration,0,29,2,202,4,X,0,right,0.4807774599903496,1,0,,,,,,,,,,,,,,,,,,,,,1,,,,,,,,,,,,,,,,,,,,,,,,,,,,,,,,,,,,,,,,,,,,,,84,158626,19,Female,1,2024/03/13_08:45:09,YZ,None,
,,,,,,calibration,0,29,2,202,5,C,1,left,0.5724281410075491,1,0,,,,,,,,,,,,,,,,,,,,,1,,,,,,,,,,,,,,,,,,,,,,,,,,,,,,,,,,,,,,,,,,,,,,84,158626,19,Female,1,2024/03/13_08:45:09,YZ,None,
,,,,,,calibration,0,29,2,202,6,Q,0,right,0.5180937160039321,1,0,,,,,,,,,,,,,,,,,,,,,1,,,,,,,,,,,,,,,,,,,,,,,,,,,,,,,,,,,,,,,,,,,,,,84,158626,19,Female,1,2024/03/13_08:45:09,YZ,None,
,,,,,,calibration,0,29,2,202,7,J,0,right,0.42780985799618065,1,0,,,,,,,,,,,,,,,,,,,,,1,,,,,,,,,,,,,,,,,,,,,,,,,,,,,,,,,,,,,,,,,,,,,,84,158626,19,Female,1,2024/03/13_08:45:09,YZ,None,
,,,,,,calibration,0,29,2,202,8,S,0,left,0.6081406800076365,0,0,,,,,,,,,,,,,,,,,,,,,1,,,,,,,,,,,,,,,,,,,,,,,,,,,,,,,,,,,,,,,,,,,,,,84,158626,19,Female,1,2024/03/13_08:45:09,YZ,None,
,,,,,,calibration,0,29,2,202,9,J,1,left,0.6422714780055685,1,0,,,,,,,,,,,,,,,,,,,,,1,,,,,,,,,,,,,,,,,,,,,,,,,,,,,,,,,,,,,,,,,,,,,,84,158626,19,Female,1,2024/03/13_08:45:09,YZ,None,
,,,,,,calibration,0,29,2,202,10,S,1,left,0.6351053890102776,1,0,,,,,,,,,,,,,,,,,,,,,1,,,,,,,,,,,,,,,,,,,,,,,,,,,,,,,,,,,,,,,,,,,,,,84,158626,19,Female,1,2024/03/13_08:45:09,YZ,None,
,,,,,,calibration,0,29,2,202,11,Q,0,right,0.5124957220104989,1,0,,,,,,,,,,,,,,,,,,,,,1,,,,,,,,,,,,,,,,,,,,,,,,,,,,,,,,,,,,,,,,,,,,,,84,158626,19,Female,1,2024/03/13_08:45:09,YZ,None,
,,,,,,calibration,0,29,2,202,12,C,0,right,0.5419472049979959,1,0,,,,,,,,,,,,,,,,,,,,,1,,,,,,,,,,,,,,,,,,,,,,,,,,,,,,,,,,,,,,,,,,,,,,84,158626,19,Female,1,2024/03/13_08:45:09,YZ,None,
,,,,,,calibration,0,29,2,202,13,Q,1,left,0.47430805100884754,1,0,,,,,,,,,,,,,,,,,,,,,1,,,,,,,,,,,,,,,,,,,,,,,,,,,,,,,,,,,,,,,,,,,,,,84,158626,19,Female,1,2024/03/13_08:45:09,YZ,None,
,,,,,,calibration,0,29,2,202,14,X,0,right,0.42092156600847375,1,0,,,,,,,,,,,,,,,,,,,,,1,,,,,,,,,,,,,,,,,,,,,,,,,,,,,,,,,,,,,,,,,,,,,,84,158626,19,Female,1,2024/03/13_08:45:09,YZ,None,
,,,,,,calibration,0,29,2,202,15,Q,1,right,0.5128386829892406,0,0,,,,,,,,,,,,,,,,,,,,,1,,,,,,,,,,,,,,,,,,,,,,,,,,,,,,,,,,,,,,,,,,,,,,84,158626,19,Female,1,2024/03/13_08:45:09,YZ,None,
,,,,,,calibration,0,29,2,202,16,X,1,left,0.5480775939940941,1,0,,,,,,,,,,,,,,,,,,,,,1,,,,,,,,,,,,,,,,,,,,,,,,,,,,,,,,,,,,,,,,,,,,,,84,158626,19,Female,1,2024/03/13_08:45:09,YZ,None,
,,,,,,calibration,0,29,2,202,17,C,0,right,0.5121943480044138,1,0,,,,,,,,,,,,,,,,,,,,,1,,,,,,,,,,,,,,,,,,,,,,,,,,,,,,,,,,,,,,,,,,,,,,84,158626,19,Female,1,2024/03/13_08:45:09,YZ,None,
,,,,,,calibration,0,29,2,202,18,V,0,right,0.5756706190004479,1,0,,,,,,,,,,,,,,,,,,,,,1,,,,,,,,,,,,,,,,,,,,,,,,,,,,,,,,,,,,,,,,,,,,,,84,158626,19,Female,1,2024/03/13_08:45:09,YZ,None,
,,,,,,calibration,0,29,2,202,19,S,0,right,0.512385695008561,1,0,,,,,,,,,,,,,,,,,,,,,1,,,,,,,,,,,,,,,,,,,,,,,,,,,,,,,,,,,,,,,,,,,,,,84,158626,19,Female,1,2024/03/13_08:45:09,YZ,None,
,,,,,,calibration,0,29,2,202,20,N,0,right,0.47791942399635445,1,0,,,,,,,,,,,,,,,,,,,,,1,,,,,,,,,,,,,,,,,,,,,,,,,,,,,,,,,,,,,,,,,,,,,,84,158626,19,Female,1,2024/03/13_08:45:09,YZ,None,
,,,,,,calibration,0,29,2,202,21,C,0,right,0.36444417999882717,1,0,,,,,,,,,,,,,,,,,,,,,1,,,,,,,,,,,,,,,,,,,,,,,,,,,,,,,,,,,,,,,,,,,,,,84,158626,19,Female,1,2024/03/13_08:45:09,YZ,None,
,,,,,,calibration,0,29,2,202,,,,,,,,0.9081632653061225,0.8571428571428571,0.14285714285714285,0.8571428571428571,0.0,0.8571428571428572,0.5064415311921732,6,2,0,0,0,12,18,7,14,0,,,,1,,,,,,,,,,,,,,,,,,,,,,,,,,,,,,,,,,,,,,,,,,,,,,84,158626,19,Female,1,2024/03/13_08:45:09,YZ,None,
,,,,,,Calibration,0,,2,202,,,,,,,,,,,,,,,,,,,,,,,,,10,,,1,,,,,,,,,,,,,,,,,,,,,,,,,,,,,,,,,,,,,,,,,,,,,,84,158626,19,Female,1,2024/03/13_08:45:09,YZ,None,
,,,,,,calibration,0,31,2,159,1,F,0,right,0.40775151998968795,1,0,,,,,,,,,,,,,,,,,,,,,1,,,,,,,,,,,,,,,,,,,,,,,,,,,,,,,,,,,,,,,,,,,,,,84,158626,19,Female,1,2024/03/13_08:45:09,YZ,None,
,,,,,,calibration,0,31,2,159,2,Q,0,right,0.30677863500022795,1,0,,,,,,,,,,,,,,,,,,,,,1,,,,,,,,,,,,,,,,,,,,,,,,,,,,,,,,,,,,,,,,,,,,,,84,158626,19,Female,1,2024/03/13_08:45:09,YZ,None,
,,,,,,calibration,0,31,2,159,3,J,0,right,0.35329842699866276,1,0,,,,,,,,,,,,,,,,,,,,,1,,,,,,,,,,,,,,,,,,,,,,,,,,,,,,,,,,,,,,,,,,,,,,84,158626,19,Female,1,2024/03/13_08:45:09,YZ,None,
,,,,,,calibration,0,31,2,159,4,Q,1,left,0.5842628790123854,1,0,,,,,,,,,,,,,,,,,,,,,1,,,,,,,,,,,,,,,,,,,,,,,,,,,,,,,,,,,,,,,,,,,,,,84,158626,19,Female,1,2024/03/13_08:45:09,YZ,None,
,,,,,,calibration,0,31,2,159,5,V,0,right,0.6823401730071055,1,0,,,,,,,,,,,,,,,,,,,,,1,,,,,,,,,,,,,,,,,,,,,,,,,,,,,,,,,,,,,,,,,,,,,,84,158626,19,Female,1,2024/03/13_08:45:09,YZ,None,
,,,,,,calibration,0,31,2,159,6,J,0,left,0.9410568629973568,0,0,,,,,,,,,,,,,,,,,,,,,1,,,,,,,,,,,,,,,,,,,,,,,,,,,,,,,,,,,,,,,,,,,,,,84,158626,19,Female,1,2024/03/13_08:45:09,YZ,None,
,,,,,,calibration,0,31,2,159,7,Q,0,left,nan,0,1,,,,,,,,,,,,,,,,,,,,,1,,,,,,,,,,,,,,,,,,,,,,,,,,,,,,,,,,,,,,,,,,,,,,84,158626,19,Female,1,2024/03/13_08:45:09,YZ,None,
,,,,,,calibration,0,31,2,159,8,J,1,left,0.8593957979901461,1,0,,,,,,,,,,,,,,,,,,,,,1,,,,,,,,,,,,,,,,,,,,,,,,,,,,,,,,,,,,,,,,,,,,,,84,158626,19,Female,1,2024/03/13_08:45:09,YZ,None,
,,,,,,calibration,0,31,2,159,9,C,0,right,0.4271309549949365,1,0,,,,,,,,,,,,,,,,,,,,,1,,,,,,,,,,,,,,,,,,,,,,,,,,,,,,,,,,,,,,,,,,,,,,84,158626,19,Female,1,2024/03/13_08:45:09,YZ,None,
,,,,,,calibration,0,31,2,159,10,X,0,right,0.44822677000775,1,0,,,,,,,,,,,,,,,,,,,,,1,,,,,,,,,,,,,,,,,,,,,,,,,,,,,,,,,,,,,,,,,,,,,,84,158626,19,Female,1,2024/03/13_08:45:09,YZ,None,
,,,,,,calibration,0,31,2,159,11,N,0,right,0.5002502139977878,1,0,,,,,,,,,,,,,,,,,,,,,1,,,,,,,,,,,,,,,,,,,,,,,,,,,,,,,,,,,,,,,,,,,,,,84,158626,19,Female,1,2024/03/13_08:45:09,YZ,None,
,,,,,,calibration,0,31,2,159,12,X,1,left,0.547341523997602,1,0,,,,,,,,,,,,,,,,,,,,,1,,,,,,,,,,,,,,,,,,,,,,,,,,,,,,,,,,,,,,,,,,,,,,84,158626,19,Female,1,2024/03/13_08:45:09,YZ,None,
,,,,,,calibration,0,31,2,159,13,V,0,right,0.4520771249954123,1,0,,,,,,,,,,,,,,,,,,,,,1,,,,,,,,,,,,,,,,,,,,,,,,,,,,,,,,,,,,,,,,,,,,,,84,158626,19,Female,1,2024/03/13_08:45:09,YZ,None,
,,,,,,calibration,0,31,2,159,14,S,0,right,0.3198720410000533,1,0,,,,,,,,,,,,,,,,,,,,,1,,,,,,,,,,,,,,,,,,,,,,,,,,,,,,,,,,,,,,,,,,,,,,84,158626,19,Female,1,2024/03/13_08:45:09,YZ,None,
,,,,,,calibration,0,31,2,159,15,J,0,right,0.44802888100093696,1,0,,,,,,,,,,,,,,,,,,,,,1,,,,,,,,,,,,,,,,,,,,,,,,,,,,,,,,,,,,,,,,,,,,,,84,158626,19,Female,1,2024/03/13_08:45:09,YZ,None,
,,,,,,calibration,0,31,2,159,16,S,1,left,0.43682206100493204,1,0,,,,,,,,,,,,,,,,,,,,,1,,,,,,,,,,,,,,,,,,,,,,,,,,,,,,,,,,,,,,,,,,,,,,84,158626,19,Female,1,2024/03/13_08:45:09,YZ,None,
,,,,,,calibration,0,31,2,159,17,J,1,left,0.8847825689881574,1,0,,,,,,,,,,,,,,,,,,,,,1,,,,,,,,,,,,,,,,,,,,,,,,,,,,,,,,,,,,,,,,,,,,,,84,158626,19,Female,1,2024/03/13_08:45:09,YZ,None,
,,,,,,calibration,0,31,2,159,18,C,0,right,0.6155832929944154,1,0,,,,,,,,,,,,,,,,,,,,,1,,,,,,,,,,,,,,,,,,,,,,,,,,,,,,,,,,,,,,,,,,,,,,84,158626,19,Female,1,2024/03/13_08:45:09,YZ,None,
,,,,,,calibration,0,31,2,159,19,J,1,left,0.6918855710100615,1,0,,,,,,,,,,,,,,,,,,,,,1,,,,,,,,,,,,,,,,,,,,,,,,,,,,,,,,,,,,,,,,,,,,,,84,158626,19,Female,1,2024/03/13_08:45:09,YZ,None,
,,,,,,calibration,0,31,2,159,20,Q,0,right,0.8013911020098021,1,0,,,,,,,,,,,,,,,,,,,,,1,,,,,,,,,,,,,,,,,,,,,,,,,,,,,,,,,,,,,,,,,,,,,,84,158626,19,Female,1,2024/03/13_08:45:09,YZ,None,
,,,,,,calibration,0,31,2,159,21,S,0,right,0.8436757939925883,1,0,,,,,,,,,,,,,,,,,,,,,1,,,,,,,,,,,,,,,,,,,,,,,,,,,,,,,,,,,,,,,,,,,,,,84,158626,19,Female,1,2024/03/13_08:45:09,YZ,None,
,,,,,,calibration,0,31,2,159,22,F,0,right,0.5424413500004448,1,0,,,,,,,,,,,,,,,,,,,,,1,,,,,,,,,,,,,,,,,,,,,,,,,,,,,,,,,,,,,,,,,,,,,,84,158626,19,Female,1,2024/03/13_08:45:09,YZ,None,
,,,,,,calibration,0,31,2,159,,,,,,,,0.984375,1.0,0.0625,0.9333333333333333,0.045454545454545456,0.8920454545454546,0.5759235021424025,6,1,0,1,1,14,20,6,16,0,,,,1,,,,,,,,,,,,,,,,,,,,,,,,,,,,,,,,,,,,,,,,,,,,,,84,158626,19,Female,1,2024/03/13_08:45:09,YZ,None,
,,,,,,Calibration,0,,2,159,,,,,,,,,,,,,,,,,,,,,,,,,11,,,1,,,,,,,,,,,,,,,,,,,,,,,,,,,,,,,,,,,,,,,,,,,,,,84,158626,19,Female,1,2024/03/13_08:45:09,YZ,None,
,,,,,,calibration,0,24,2,120,1,F,0,right,0.613653019987396,1,0,,,,,,,,,,,,,,,,,,,,,1,,,,,,,,,,,,,,,,,,,,,,,,,,,,,,,,,,,,,,,,,,,,,,84,158626,19,Female,1,2024/03/13_08:45:09,YZ,None,
,,,,,,calibration,0,24,2,120,2,X,0,right,0.4266188030014746,1,0,,,,,,,,,,,,,,,,,,,,,1,,,,,,,,,,,,,,,,,,,,,,,,,,,,,,,,,,,,,,,,,,,,,,84,158626,19,Female,1,2024/03/13_08:45:09,YZ,None,
,,,,,,calibration,0,24,2,120,3,F,1,left,0.7087346679909388,1,0,,,,,,,,,,,,,,,,,,,,,1,,,,,,,,,,,,,,,,,,,,,,,,,,,,,,,,,,,,,,,,,,,,,,84,158626,19,Female,1,2024/03/13_08:45:09,YZ,None,
,,,,,,calibration,0,24,2,120,4,V,0,right,0.38811389000329655,1,0,,,,,,,,,,,,,,,,,,,,,1,,,,,,,,,,,,,,,,,,,,,,,,,,,,,,,,,,,,,,,,,,,,,,84,158626,19,Female,1,2024/03/13_08:45:09,YZ,None,
,,,,,,calibration,0,24,2,120,5,F,1,right,0.9747332760016434,0,0,,,,,,,,,,,,,,,,,,,,,1,,,,,,,,,,,,,,,,,,,,,,,,,,,,,,,,,,,,,,,,,,,,,,84,158626,19,Female,1,2024/03/13_08:45:09,YZ,None,
,,,,,,calibration,0,24,2,120,6,Q,0,right,0.6564682540047215,1,0,,,,,,,,,,,,,,,,,,,,,1,,,,,,,,,,,,,,,,,,,,,,,,,,,,,,,,,,,,,,,,,,,,,,84,158626,19,Female,1,2024/03/13_08:45:09,YZ,None,
,,,,,,calibration,0,24,2,120,7,S,0,right,0.45644214199273847,1,0,,,,,,,,,,,,,,,,,,,,,1,,,,,,,,,,,,,,,,,,,,,,,,,,,,,,,,,,,,,,,,,,,,,,84,158626,19,Female,1,2024/03/13_08:45:09,YZ,None,
,,,,,,calibration,0,24,2,120,8,V,0,right,0.41400928399525583,1,0,,,,,,,,,,,,,,,,,,,,,1,,,,,,,,,,,,,,,,,,,,,,,,,,,,,,,,,,,,,,,,,,,,,,84,158626,19,Female,1,2024/03/13_08:45:09,YZ,None,
,,,,,,calibration,0,24,2,120,9,J,0,right,0.45823875900532585,1,0,,,,,,,,,,,,,,,,,,,,,1,,,,,,,,,,,,,,,,,,,,,,,,,,,,,,,,,,,,,,,,,,,,,,84,158626,19,Female,1,2024/03/13_08:45:09,YZ,None,
,,,,,,calibration,0,24,2,120,10,V,1,left,0.6232492249982897,1,0,,,,,,,,,,,,,,,,,,,,,1,,,,,,,,,,,,,,,,,,,,,,,,,,,,,,,,,,,,,,,,,,,,,,84,158626,19,Female,1,2024/03/13_08:45:09,YZ,None,
,,,,,,calibration,0,24,2,120,11,J,1,left,0.8255928440048592,1,0,,,,,,,,,,,,,,,,,,,,,1,,,,,,,,,,,,,,,,,,,,,,,,,,,,,,,,,,,,,,,,,,,,,,84,158626,19,Female,1,2024/03/13_08:45:09,YZ,None,
,,,,,,calibration,0,24,2,120,12,X,0,right,0.4286033120006323,1,0,,,,,,,,,,,,,,,,,,,,,1,,,,,,,,,,,,,,,,,,,,,,,,,,,,,,,,,,,,,,,,,,,,,,84,158626,19,Female,1,2024/03/13_08:45:09,YZ,None,
,,,,,,calibration,0,24,2,120,13,F,0,right,0.34369159099878743,1,0,,,,,,,,,,,,,,,,,,,,,1,,,,,,,,,,,,,,,,,,,,,,,,,,,,,,,,,,,,,,,,,,,,,,84,158626,19,Female,1,2024/03/13_08:45:09,YZ,None,
,,,,,,calibration,0,24,2,120,14,X,1,left,0.40105928300181404,1,0,,,,,,,,,,,,,,,,,,,,,1,,,,,,,,,,,,,,,,,,,,,,,,,,,,,,,,,,,,,,,,,,,,,,84,158626,19,Female,1,2024/03/13_08:45:09,YZ,None,
,,,,,,calibration,0,24,2,120,15,J,0,right,0.42392384000413585,1,0,,,,,,,,,,,,,,,,,,,,,1,,,,,,,,,,,,,,,,,,,,,,,,,,,,,,,,,,,,,,,,,,,,,,84,158626,19,Female,1,2024/03/13_08:45:09,YZ,None,
,,,,,,calibration,0,24,2,120,16,Q,0,right,0.5327141919988208,1,0,,,,,,,,,,,,,,,,,,,,,1,,,,,,,,,,,,,,,,,,,,,,,,,,,,,,,,,,,,,,,,,,,,,,84,158626,19,Female,1,2024/03/13_08:45:09,YZ,None,
,,,,,,calibration,0,24,2,120,17,F,0,right,0.9240342569974018,1,0,,,,,,,,,,,,,,,,,,,,,1,,,,,,,,,,,,,,,,,,,,,,,,,,,,,,,,,,,,,,,,,,,,,,84,158626,19,Female,1,2024/03/13_08:45:09,YZ,None,
,,,,,,calibration,0,24,2,120,18,Q,1,right,0.9205942489934387,0,0,,,,,,,,,,,,,,,,,,,,,1,,,,,,,,,,,,,,,,,,,,,,,,,,,,,,,,,,,,,,,,,,,,,,84,158626,19,Female,1,2024/03/13_08:45:09,YZ,None,
,,,,,,calibration,0,24,2,120,19,X,0,right,0.8031161290127784,1,0,,,,,,,,,,,,,,,,,,,,,1,,,,,,,,,,,,,,,,,,,,,,,,,,,,,,,,,,,,,,,,,,,,,,84,158626,19,Female,1,2024/03/13_08:45:09,YZ,None,
,,,,,,calibration,0,24,2,120,20,Q,1,left,0.6304206470085774,1,0,,,,,,,,,,,,,,,,,,,,,1,,,,,,,,,,,,,,,,,,,,,,,,,,,,,,,,,,,,,,,,,,,,,,84,158626,19,Female,1,2024/03/13_08:45:09,YZ,None,
,,,,,,calibration,0,24,2,120,21,S,0,right,0.4354179250076413,1,0,,,,,,,,,,,,,,,,,,,,,1,,,,,,,,,,,,,,,,,,,,,,,,,,,,,,,,,,,,,,,,,,,,,,84,158626,19,Female,1,2024/03/13_08:45:09,YZ,None,
,,,,,,calibration,0,24,2,120,22,V,0,right,0.6853486519976286,1,0,,,,,,,,,,,,,,,,,,,,,1,,,,,,,,,,,,,,,,,,,,,,,,,,,,,,,,,,,,,,,,,,,,,,84,158626,19,Female,1,2024/03/13_08:45:09,YZ,None,
,,,,,,calibration,0,24,2,120,23,F,0,right,0.3469052469881717,1,0,,,,,,,,,,,,,,,,,,,,,1,,,,,,,,,,,,,,,,,,,,,,,,,,,,,,,,,,,,,,,,,,,,,,84,158626,19,Female,1,2024/03/13_08:45:09,YZ,None,
,,,,,,calibration,0,24,2,120,,,,,,,,0.9285714285714286,0.7142857142857143,0.0,1.0,0.0,1.0,0.5835514560432943,5,0,0,0,0,16,21,7,16,0,,,,1,,,,,,,,,,,,,,,,,,,,,,,,,,,,,,,,,,,,,,,,,,,,,,84,158626,19,Female,1,2024/03/13_08:45:09,YZ,None,
,,,,,,Calibration,0,,2,120,,,,,,,,,,,,,,,,,,,,,,,,,12,,,1,,,,,,,,,,,,,,,,,,,,,,,,,,,,,,,,,,,,,,,,,,,,,,84,158626,19,Female,1,2024/03/13_08:45:09,YZ,None,
,,,,,,calibration,0,19,2,83,1,C,0,right,0.5123044149950147,1,0,,,,,,,,,,,,,,,,,,,,,1,,,,,,,,,,,,,,,,,,,,,,,,,,,,,,,,,,,,,,,,,,,,,,84,158626,19,Female,1,2024/03/13_08:45:09,YZ,None,
,,,,,,calibration,0,19,2,83,2,N,0,right,0.37331809400347993,1,0,,,,,,,,,,,,,,,,,,,,,1,,,,,,,,,,,,,,,,,,,,,,,,,,,,,,,,,,,,,,,,,,,,,,84,158626,19,Female,1,2024/03/13_08:45:09,YZ,None,
,,,,,,calibration,0,19,2,83,3,S,0,right,0.4331626119965222,1,0,,,,,,,,,,,,,,,,,,,,,1,,,,,,,,,,,,,,,,,,,,,,,,,,,,,,,,,,,,,,,,,,,,,,84,158626,19,Female,1,2024/03/13_08:45:09,YZ,None,
,,,,,,calibration,0,19,2,83,4,C,0,left,0.6655964989913628,0,0,,,,,,,,,,,,,,,,,,,,,1,,,,,,,,,,,,,,,,,,,,,,,,,,,,,,,,,,,,,,,,,,,,,,84,158626,19,Female,1,2024/03/13_08:45:09,YZ,None,
,,,,,,calibration,0,19,2,83,5,S,1,right,0.5592255230003502,0,0,,,,,,,,,,,,,,,,,,,,,1,,,,,,,,,,,,,,,,,,,,,,,,,,,,,,,,,,,,,,,,,,,,,,84,158626,19,Female,1,2024/03/13_08:45:09,YZ,None,
,,,,,,calibration,0,19,2,83,6,C,1,right,0.6078317939973203,0,0,,,,,,,,,,,,,,,,,,,,,1,,,,,,,,,,,,,,,,,,,,,,,,,,,,,,,,,,,,,,,,,,,,,,84,158626,19,Female,1,2024/03/13_08:45:09,YZ,None,
,,,,,,calibration,0,19,2,83,7,X,0,right,0.5188680340070277,1,0,,,,,,,,,,,,,,,,,,,,,1,,,,,,,,,,,,,,,,,,,,,,,,,,,,,,,,,,,,,,,,,,,,,,84,158626,19,Female,1,2024/03/13_08:45:09,YZ,None,
,,,,,,calibration,0,19,2,83,8,C,1,left,0.5780989510094514,1,0,,,,,,,,,,,,,,,,,,,,,1,,,,,,,,,,,,,,,,,,,,,,,,,,,,,,,,,,,,,,,,,,,,,,84,158626,19,Female,1,2024/03/13_08:45:09,YZ,None,
,,,,,,calibration,0,19,2,83,9,S,0,right,0.5240860729973065,1,0,,,,,,,,,,,,,,,,,,,,,1,,,,,,,,,,,,,,,,,,,,,,,,,,,,,,,,,,,,,,,,,,,,,,84,158626,19,Female,1,2024/03/13_08:45:09,YZ,None,
,,,,,,calibration,0,19,2,83,10,C,1,left,0.6391193159943214,1,0,,,,,,,,,,,,,,,,,,,,,1,,,,,,,,,,,,,,,,,,,,,,,,,,,,,,,,,,,,,,,,,,,,,,84,158626,19,Female,1,2024/03/13_08:45:09,YZ,None,
,,,,,,calibration,0,19,2,83,11,J,0,right,0.3915706370025873,1,0,,,,,,,,,,,,,,,,,,,,,1,,,,,,,,,,,,,,,,,,,,,,,,,,,,,,,,,,,,,,,,,,,,,,84,158626,19,Female,1,2024/03/13_08:45:09,YZ,None,
,,,,,,calibration,0,19,2,83,12,F,0,right,0.4925081599940313,1,0,,,,,,,,,,,,,,,,,,,,,1,,,,,,,,,,,,,,,,,,,,,,,,,,,,,,,,,,,,,,,,,,,,,,84,158626,19,Female,1,2024/03/13_08:45:09,YZ,None,
,,,,,,calibration,0,19,2,83,13,V,0,right,0.45252782199531794,1,0,,,,,,,,,,,,,,,,,,,,,1,,,,,,,,,,,,,,,,,,,,,,,,,,,,,,,,,,,,,,,,,,,,,,84,158626,19,Female,1,2024/03/13_08:45:09,YZ,None,
,,,,,,calibration,0,19,2,83,14,F,1,left,0.6684859240049263,1,0,,,,,,,,,,,,,,,,,,,,,1,,,,,,,,,,,,,,,,,,,,,,,,,,,,,,,,,,,,,,,,,,,,,,84,158626,19,Female,1,2024/03/13_08:45:09,YZ,None,
,,,,,,calibration,0,19,2,83,15,Q,0,right,0.3962767879856983,1,0,,,,,,,,,,,,,,,,,,,,,1,,,,,,,,,,,,,,,,,,,,,,,,,,,,,,,,,,,,,,,,,,,,,,84,158626,19,Female,1,2024/03/13_08:45:09,YZ,None,
,,,,,,calibration,0,19,2,83,16,V,0,right,0.2682484359975206,1,0,,,,,,,,,,,,,,,,,,,,,1,,,,,,,,,,,,,,,,,,,,,,,,,,,,,,,,,,,,,,,,,,,,,,84,158626,19,Female,1,2024/03/13_08:45:09,YZ,None,
,,,,,,calibration,0,19,2,83,17,Q,1,left,0.4321983889967669,1,0,,,,,,,,,,,,,,,,,,,,,1,,,,,,,,,,,,,,,,,,,,,,,,,,,,,,,,,,,,,,,,,,,,,,84,158626,19,Female,1,2024/03/13_08:45:09,YZ,None,
,,,,,,calibration,0,19,2,83,18,X,0,right,0.36331159999826923,1,0,,,,,,,,,,,,,,,,,,,,,1,,,,,,,,,,,,,,,,,,,,,,,,,,,,,,,,,,,,,,,,,,,,,,84,158626,19,Female,1,2024/03/13_08:45:09,YZ,None,
,,,,,,calibration,0,19,2,83,19,Q,1,left,0.6132768160023261,1,0,,,,,,,,,,,,,,,,,,,,,1,,,,,,,,,,,,,,,,,,,,,,,,,,,,,,,,,,,,,,,,,,,,,,84,158626,19,Female,1,2024/03/13_08:45:09,YZ,None,
,,,,,,calibration,0,19,2,83,20,J,0,right,0.31746930100780446,1,0,,,,,,,,,,,,,,,,,,,,,1,,,,,,,,,,,,,,,,,,,,,,,,,,,,,,,,,,,,,,,,,,,,,,84,158626,19,Female,1,2024/03/13_08:45:09,YZ,None,
,,,,,,calibration,0,19,2,83,21,V,0,right,0.4180684450111585,1,0,,,,,,,,,,,,,,,,,,,,,1,,,,,,,,,,,,,,,,,,,,,,,,,,,,,,,,,,,,,,,,,,,,,,84,158626,19,Female,1,2024/03/13_08:45:09,YZ,None,
,,,,,,calibration,0,19,2,83,22,Q,0,right,0.6953461550001521,1,0,,,,,,,,,,,,,,,,,,,,,1,,,,,,,,,,,,,,,,,,,,,,,,,,,,,,,,,,,,,,,,,,,,,,84,158626,19,Female,1,2024/03/13_08:45:09,YZ,None,
,,,,,,calibration,0,19,2,83,23,V,1,left,0.5446077280066675,1,0,,,,,,,,,,,,,,,,,,,,,1,,,,,,,,,,,,,,,,,,,,,,,,,,,,,,,,,,,,,,,,,,,,,,84,158626,19,Female,1,2024/03/13_08:45:09,YZ,None,
,,,,,,calibration,0,19,2,83,24,N,0,right,0.3098584270046558,1,0,,,,,,,,,,,,,,,,,,,,,1,,,,,,,,,,,,,,,,,,,,,,,,,,,,,,,,,,,,,,,,,,,,,,84,158626,19,Female,1,2024/03/13_08:45:09,YZ,None,
,,,,,,calibration,0,19,2,83,,,,,,,,0.90625,0.75,0.0625,0.9375,0.0,0.9375,0.49064024745833495,6,1,0,0,0,15,21,8,16,0,,,,1,,,,,,,,,,,,,,,,,,,,,,,,,,,,,,,,,,,,,,,,,,,,,,84,158626,19,Female,1,2024/03/13_08:45:09,YZ,None,
,,,,,,Calibration,0,,2,83,,,,,,,,,,,,,,,,,,,,,,,,,13,,,1,,,,,,,,,,,,,,,,,,,,,,,,,,,,,,,,,,,,,,,,,,,,,,84,158626,19,Female,1,2024/03/13_08:45:09,YZ,None,
,,,,,,calibration,0,20,2,50,1,X,0,right,0.3400859469984425,1,0,,,,,,,,,,,,,,,,,,,,,1,,,,,,,,,,,,,,,,,,,,,,,,,,,,,,,,,,,,,,,,,,,,,,84,158626,19,Female,1,2024/03/13_08:45:09,YZ,None,
,,,,,,calibration,0,20,2,50,2,S,0,right,0.6491573210078059,1,0,,,,,,,,,,,,,,,,,,,,,1,,,,,,,,,,,,,,,,,,,,,,,,,,,,,,,,,,,,,,,,,,,,,,84,158626,19,Female,1,2024/03/13_08:45:09,YZ,None,
,,,,,,calibration,0,20,2,50,3,C,0,right,0.2993207889958285,1,0,,,,,,,,,,,,,,,,,,,,,1,,,,,,,,,,,,,,,,,,,,,,,,,,,,,,,,,,,,,,,,,,,,,,84,158626,19,Female,1,2024/03/13_08:45:09,YZ,None,
,,,,,,calibration,0,20,2,50,4,F,0,right,0.7318707929953234,1,0,,,,,,,,,,,,,,,,,,,,,1,,,,,,,,,,,,,,,,,,,,,,,,,,,,,,,,,,,,,,,,,,,,,,84,158626,19,Female,1,2024/03/13_08:45:09,YZ,None,
,,,,,,calibration,0,20,2,50,5,J,0,right,0.5412672420061426,1,0,,,,,,,,,,,,,,,,,,,,,1,,,,,,,,,,,,,,,,,,,,,,,,,,,,,,,,,,,,,,,,,,,,,,84,158626,19,Female,1,2024/03/13_08:45:09,YZ,None,
,,,,,,calibration,0,20,2,50,6,N,0,right,0.34882935899076983,1,0,,,,,,,,,,,,,,,,,,,,,1,,,,,,,,,,,,,,,,,,,,,,,,,,,,,,,,,,,,,,,,,,,,,,84,158626,19,Female,1,2024/03/13_08:45:09,YZ,None,
,,,,,,calibration,0,20,2,50,7,X,0,right,0.39897267999185715,1,0,,,,,,,,,,,,,,,,,,,,,1,,,,,,,,,,,,,,,,,,,,,,,,,,,,,,,,,,,,,,,,,,,,,,84,158626,19,Female,1,2024/03/13_08:45:09,YZ,None,
,,,,,,calibration,0,20,2,50,8,V,0,right,0.4420298559998628,1,0,,,,,,,,,,,,,,,,,,,,,1,,,,,,,,,,,,,,,,,,,,,,,,,,,,,,,,,,,,,,,,,,,,,,84,158626,19,Female,1,2024/03/13_08:45:09,YZ,None,
,,,,,,calibration,0,20,2,50,9,X,1,right,0.289330511004664,0,0,,,,,,,,,,,,,,,,,,,,,1,,,,,,,,,,,,,,,,,,,,,,,,,,,,,,,,,,,,,,,,,,,,,,84,158626,19,Female,1,2024/03/13_08:45:09,YZ,None,
,,,,,,calibration,0,20,2,50,10,V,1,left,0.7623628220026148,1,0,,,,,,,,,,,,,,,,,,,,,1,,,,,,,,,,,,,,,,,,,,,,,,,,,,,,,,,,,,,,,,,,,,,,84,158626,19,Female,1,2024/03/13_08:45:09,YZ,None,
,,,,,,calibration,0,20,2,50,11,J,0,right,0.4820215189974988,1,0,,,,,,,,,,,,,,,,,,,,,1,,,,,,,,,,,,,,,,,,,,,,,,,,,,,,,,,,,,,,,,,,,,,,84,158626,19,Female,1,2024/03/13_08:45:09,YZ,None,
,,,,,,calibration,0,20,2,50,12,X,0,right,0.5840742550062714,1,0,,,,,,,,,,,,,,,,,,,,,1,,,,,,,,,,,,,,,,,,,,,,,,,,,,,,,,,,,,,,,,,,,,,,84,158626,19,Female,1,2024/03/13_08:45:09,YZ,None,
,,,,,,calibration,0,20,2,50,13,N,0,right,0.38910546401166357,1,0,,,,,,,,,,,,,,,,,,,,,1,,,,,,,,,,,,,,,,,,,,,,,,,,,,,,,,,,,,,,,,,,,,,,84,158626,19,Female,1,2024/03/13_08:45:09,YZ,None,
,,,,,,calibration,0,20,2,50,14,X,1,left,0.589422281991574,1,0,,,,,,,,,,,,,,,,,,,,,1,,,,,,,,,,,,,,,,,,,,,,,,,,,,,,,,,,,,,,,,,,,,,,84,158626,19,Female,1,2024/03/13_08:45:09,YZ,None,
,,,,,,calibration,0,20,2,50,15,V,0,right,0.6352569139999105,1,0,,,,,,,,,,,,,,,,,,,,,1,,,,,,,,,,,,,,,,,,,,,,,,,,,,,,,,,,,,,,,,,,,,,,84,158626,19,Female,1,2024/03/13_08:45:09,YZ,None,
,,,,,,calibration,0,20,2,50,16,Q,0,right,0.30938108199916314,1,0,,,,,,,,,,,,,,,,,,,,,1,,,,,,,,,,,,,,,,,,,,,,,,,,,,,,,,,,,,,,,,,,,,,,84,158626,19,Female,1,2024/03/13_08:45:09,YZ,None,
,,,,,,calibration,0,20,2,50,17,V,1,left,0.5121357439929852,1,0,,,,,,,,,,,,,,,,,,,,,1,,,,,,,,,,,,,,,,,,,,,,,,,,,,,,,,,,,,,,,,,,,,,,84,158626,19,Female,1,2024/03/13_08:45:09,YZ,None,
,,,,,,calibration,0,20,2,50,18,F,0,right,0.42900477499642875,1,0,,,,,,,,,,,,,,,,,,,,,1,,,,,,,,,,,,,,,,,,,,,,,,,,,,,,,,,,,,,,,,,,,,,,84,158626,19,Female,1,2024/03/13_08:45:09,YZ,None,
,,,,,,calibration,0,20,2,50,19,V,1,left,0.7137684170011198,1,0,,,,,,,,,,,,,,,,,,,,,1,,,,,,,,,,,,,,,,,,,,,,,,,,,,,,,,,,,,,,,,,,,,,,84,158626,19,Female,1,2024/03/13_08:45:09,YZ,None,
,,,,,,calibration,0,20,2,50,20,X,0,right,0.540695339004742,1,0,,,,,,,,,,,,,,,,,,,,,1,,,,,,,,,,,,,,,,,,,,,,,,,,,,,,,,,,,,,,,,,,,,,,84,158626,19,Female,1,2024/03/13_08:45:09,YZ,None,
,,,,,,calibration,0,20,2,50,21,N,0,right,0.34926138300215825,1,0,,,,,,,,,,,,,,,,,,,,,1,,,,,,,,,,,,,,,,,,,,,,,,,,,,,,,,,,,,,,,,,,,,,,84,158626,19,Female,1,2024/03/13_08:45:09,YZ,None,
,,,,,,calibration,0,20,2,50,22,X,1,left,0.5330528339982266,1,0,,,,,,,,,,,,,,,,,,,,,1,,,,,,,,,,,,,,,,,,,,,,,,,,,,,,,,,,,,,,,,,,,,,,84,158626,19,Female,1,2024/03/13_08:45:09,YZ,None,
,,,,,,calibration,0,20,2,50,23,C,0,right,0.3636909740016563,1,0,,,,,,,,,,,,,,,,,,,,,1,,,,,,,,,,,,,,,,,,,,,,,,,,,,,,,,,,,,,,,,,,,,,,84,158626,19,Female,1,2024/03/13_08:45:09,YZ,None,
,,,,,,calibration,0,20,2,50,24,X,1,right,0.3087366890104022,0,0,,,,,,,,,,,,,,,,,,,,,1,,,,,,,,,,,,,,,,,,,,,,,,,,,,,,,,,,,,,,,,,,,,,,84,158626,19,Female,1,2024/03/13_08:45:09,YZ,None,
,,,,,,calibration,0,20,2,50,25,J,0,right,0.42074620799394324,1,0,,,,,,,,,,,,,,,,,,,,,1,,,,,,,,,,,,,,,,,,,,,,,,,,,,,,,,,,,,,,,,,,,,,,84,158626,19,Female,1,2024/03/13_08:45:09,YZ,None,
,,,,,,calibration,0,20,2,50,,,,,,,,0.9285714285714286,0.7142857142857143,0.0,1.0,0.0,1.0,0.4785432479600422,5,0,0,0,0,18,23,7,18,0,,,,1,,,,,,,,,,,,,,,,,,,,,,,,,,,,,,,,,,,,,,,,,,,,,,84,158626,19,Female,1,2024/03/13_08:45:09,YZ,None,
,,,,,,Calibration,0,,2,50,,,,,,,,,,,,,,,,,,,,,,,,,14,,,1,,,,,,,,,,,,,,,,,,,,,,,,,,,,,,,,,,,,,,,,,,,,,,84,158626,19,Female,1,2024/03/13_08:45:09,YZ,None,
,,,,,,calibration,0,7,2,19,1,C,0,right,0.0809456489951117,1,0,,,,,,,,,,,,,,,,,,,,,1,,,,,,,,,,,,,,,,,,,,,,,,,,,,,,,,,,,,,,,,,,,,,,84,158626,19,Female,1,2024/03/13_08:45:09,YZ,None,
,,,,,,calibration,0,7,2,19,2,Q,0,right,0.343392404000042,1,0,,,,,,,,,,,,,,,,,,,,,1,,,,,,,,,,,,,,,,,,,,,,,,,,,,,,,,,,,,,,,,,,,,,,84,158626,19,Female,1,2024/03/13_08:45:09,YZ,None,
,,,,,,calibration,0,7,2,19,3,C,1,right,0.2327765649970388,0,0,,,,,,,,,,,,,,,,,,,,,1,,,,,,,,,,,,,,,,,,,,,,,,,,,,,,,,,,,,,,,,,,,,,,84,158626,19,Female,1,2024/03/13_08:45:09,YZ,None,
,,,,,,calibration,0,7,2,19,4,N,0,right,0.36069937600404955,1,0,,,,,,,,,,,,,,,,,,,,,1,,,,,,,,,,,,,,,,,,,,,,,,,,,,,,,,,,,,,,,,,,,,,,84,158626,19,Female,1,2024/03/13_08:45:09,YZ,None,
,,,,,,calibration,0,7,2,19,5,X,0,right,0.5672062630037544,1,0,,,,,,,,,,,,,,,,,,,,,1,,,,,,,,,,,,,,,,,,,,,,,,,,,,,,,,,,,,,,,,,,,,,,84,158626,19,Female,1,2024/03/13_08:45:09,YZ,None,
,,,,,,calibration,0,7,2,19,6,S,0,right,0.43550223899364937,1,0,,,,,,,,,,,,,,,,,,,,,1,,,,,,,,,,,,,,,,,,,,,,,,,,,,,,,,,,,,,,,,,,,,,,84,158626,19,Female,1,2024/03/13_08:45:09,YZ,None,
,,,,,,calibration,0,7,2,19,7,V,0,right,0.3375190759979887,1,0,,,,,,,,,,,,,,,,,,,,,1,,,,,,,,,,,,,,,,,,,,,,,,,,,,,,,,,,,,,,,,,,,,,,84,158626,19,Female,1,2024/03/13_08:45:09,YZ,None,
,,,,,,calibration,0,7,2,19,8,X,0,right,0.3838487890025135,1,0,,,,,,,,,,,,,,,,,,,,,1,,,,,,,,,,,,,,,,,,,,,,,,,,,,,,,,,,,,,,,,,,,,,,84,158626,19,Female,1,2024/03/13_08:45:09,YZ,None,
,,,,,,calibration,0,7,2,19,9,V,1,left,0.4731208649900509,1,0,,,,,,,,,,,,,,,,,,,,,1,,,,,,,,,,,,,,,,,,,,,,,,,,,,,,,,,,,,,,,,,,,,,,84,158626,19,Female,1,2024/03/13_08:45:09,YZ,None,
,,,,,,calibration,0,7,2,19,10,C,0,right,0.3553997560084099,1,0,,,,,,,,,,,,,,,,,,,,,1,,,,,,,,,,,,,,,,,,,,,,,,,,,,,,,,,,,,,,,,,,,,,,84,158626,19,Female,1,2024/03/13_08:45:09,YZ,None,
,,,,,,calibration,0,7,2,19,11,V,1,left,0.48442798100586515,1,0,,,,,,,,,,,,,,,,,,,,,1,,,,,,,,,,,,,,,,,,,,,,,,,,,,,,,,,,,,,,,,,,,,,,84,158626,19,Female,1,2024/03/13_08:45:09,YZ,None,
,,,,,,calibration,0,7,2,19,12,C,1,right,0.40921414700278547,0,0,,,,,,,,,,,,,,,,,,,,,1,,,,,,,,,,,,,,,,,,,,,,,,,,,,,,,,,,,,,,,,,,,,,,84,158626,19,Female,1,2024/03/13_08:45:09,YZ,None,
,,,,,,calibration,0,7,2,19,13,Q,0,right,0.7178060430014739,1,0,,,,,,,,,,,,,,,,,,,,,1,,,,,,,,,,,,,,,,,,,,,,,,,,,,,,,,,,,,,,,,,,,,,,84,158626,19,Female,1,2024/03/13_08:45:09,YZ,None,
,,,,,,calibration,0,7,2,19,14,X,0,right,0.5475695360073587,1,0,,,,,,,,,,,,,,,,,,,,,1,,,,,,,,,,,,,,,,,,,,,,,,,,,,,,,,,,,,,,,,,,,,,,84,158626,19,Female,1,2024/03/13_08:45:09,YZ,None,
,,,,,,calibration,0,7,2,19,15,V,0,left,0.6990299070021138,0,0,,,,,,,,,,,,,,,,,,,,,1,,,,,,,,,,,,,,,,,,,,,,,,,,,,,,,,,,,,,,,,,,,,,,84,158626,19,Female,1,2024/03/13_08:45:09,YZ,None,
,,,,,,calibration,0,7,2,19,16,N,0,right,0.355893597996328,1,0,,,,,,,,,,,,,,,,,,,,,1,,,,,,,,,,,,,,,,,,,,,,,,,,,,,,,,,,,,,,,,,,,,,,84,158626,19,Female,1,2024/03/13_08:45:09,YZ,None,
,,,,,,calibration,0,7,2,19,17,S,0,right,0.5821035599947209,1,0,,,,,,,,,,,,,,,,,,,,,1,,,,,,,,,,,,,,,,,,,,,,,,,,,,,,,,,,,,,,,,,,,,,,84,158626,19,Female,1,2024/03/13_08:45:09,YZ,None,
,,,,,,calibration,0,7,2,19,18,Q,0,right,0.34694777900585905,1,0,,,,,,,,,,,,,,,,,,,,,1,,,,,,,,,,,,,,,,,,,,,,,,,,,,,,,,,,,,,,,,,,,,,,84,158626,19,Female,1,2024/03/13_08:45:09,YZ,None,
,,,,,,calibration,0,7,2,19,19,V,0,right,0.5385331580037018,1,0,,,,,,,,,,,,,,,,,,,,,1,,,,,,,,,,,,,,,,,,,,,,,,,,,,,,,,,,,,,,,,,,,,,,84,158626,19,Female,1,2024/03/13_08:45:09,YZ,None,
,,,,,,calibration,0,7,2,19,20,J,0,right,0.7558289449953008,1,0,,,,,,,,,,,,,,,,,,,,,1,,,,,,,,,,,,,,,,,,,,,,,,,,,,,,,,,,,,,,,,,,,,,,84,158626,19,Female,1,2024/03/13_08:45:09,YZ,None,
,,,,,,calibration,0,7,2,19,21,V,1,right,0.6192543439974543,0,0,,,,,,,,,,,,,,,,,,,,,1,,,,,,,,,,,,,,,,,,,,,,,,,,,,,,,,,,,,,,,,,,,,,,84,158626,19,Female,1,2024/03/13_08:45:09,YZ,None,
,,,,,,calibration,0,7,2,19,22,J,1,right,0.33838332099549007,0,0,,,,,,,,,,,,,,,,,,,,,1,,,,,,,,,,,,,,,,,,,,,,,,,,,,,,,,,,,,,,,,,,,,,,84,158626,19,Female,1,2024/03/13_08:45:09,YZ,None,
,,,,,,calibration,0,7,2,19,23,F,0,right,0.41281211900059134,1,0,,,,,,,,,,,,,,,,,,,,,1,,,,,,,,,,,,,,,,,,,,,,,,,,,,,,,,,,,,,,,,,,,,,,84,158626,19,Female,1,2024/03/13_08:45:09,YZ,None,
,,,,,,calibration,0,7,2,19,24,Q,0,right,0.250220696994802,1,0,,,,,,,,,,,,,,,,,,,,,1,,,,,,,,,,,,,,,,,,,,,,,,,,,,,,,,,,,,,,,,,,,,,,84,158626,19,Female,1,2024/03/13_08:45:09,YZ,None,
,,,,,,calibration,0,7,2,19,25,C,0,right,0.34492770399083383,1,0,,,,,,,,,,,,,,,,,,,,,1,,,,,,,,,,,,,,,,,,,,,,,,,,,,,,,,,,,,,,,,,,,,,,84,158626,19,Female,1,2024/03/13_08:45:09,YZ,None,
,,,,,,calibration,0,7,2,19,26,Q,1,left,0.6582425559900003,1,0,,,,,,,,,,,,,,,,,,,,,1,,,,,,,,,,,,,,,,,,,,,,,,,,,,,,,,,,,,,,,,,,,,,,84,158626,19,Female,1,2024/03/13_08:45:09,YZ,None,
,,,,,,calibration,0,7,2,19,,,,,,,,0.8132832080200502,0.42857142857142855,0.05263157894736842,0.9473684210526315,0.0,0.9473684210526316,0.44736947603758803,3,1,0,0,0,18,21,7,19,0,,,,1,,,,,,,,,,,,,,,,,,,,,,,,,,,,,,,,,,,,,,,,,,,,,,84,158626,19,Female,1,2024/03/13_08:45:09,YZ,None,
,,,,,,Calibration,0,,2,19,,,,,,,,,,,,,,,,,,,,,,,,,15,,,1,,,,,,,,,,,,,,,,,,,,,,,,,,,,,,,,,,,,,,,,,,,,,,84,158626,19,Female,1,2024/03/13_08:45:09,YZ,None,
,,,,,,CALIBRATION,0,,,,,,,,,,,,,,,,,,,,,,,,,,,,15,0.8132832080200502,19,1,,,,,,,,,,,,,,,,,,,,,,,,,,,,,,,,,,,,,,,,,,,,,,84,158626,19,Female,1,2024/03/13_08:45:09,YZ,None,
-1,./instructions/inst_prac_1/Slide24.png,left,40.89848436000466,497.1270365620003,538.025520922005,,,,,,,,,,,,,,,,,,,,,,,,,,,,,,,,,1,,,,,,,,,,,,,,,,,,,,,,,,,,,,,,,,,,,,,,,,,,,,,,84,158626,19,Female,1,2024/03/13_08:45:09,YZ,None,
-2,./instructions/inst_prac_1/Slide30.png,left,1.9052650990051916,538.0883800500014,539.9936451490066,,,,,,,,,,,,,,,,,,,,,,,,,,,,,,,,,1,,,,,,,,,,,,,,,,,,,,,,,,,,,,,,,,,,,,,,,,,,,,,,84,158626,19,Female,1,2024/03/13_08:45:09,YZ,None,
-3,./instructions/inst_prac_1/Slide29.png,left,1.7591315600002417,540.0264070309931,541.7855385909934,,,,,,,,,,,,,,,,,,,,,,,,,,,,,,,,,1,,,,,,,,,,,,,,,,,,,,,,,,,,,,,,,,,,,,,,,,,,,,,,84,158626,19,Female,1,2024/03/13_08:45:09,YZ,None,
-4,./instructions/inst_prac_1/Slide28.png,left,1.6720737099967664,541.8255547209992,543.497628430996,,,,,,,,,,,,,,,,,,,,,,,,,,,,,,,,,1,,,,,,,,,,,,,,,,,,,,,,,,,,,,,,,,,,,,,,,,,,,,,,84,158626,19,Female,1,2024/03/13_08:45:09,YZ,None,
-5,./instructions/inst_prac_1/Slide27.png,left,0.5809558199980529,543.5245974220015,544.1055532419996,,,,,,,,,,,,,,,,,,,,,,,,,,,,,,,,,1,,,,,,,,,,,,,,,,,,,,,,,,,,,,,,,,,,,,,,,,,,,,,,84,158626,19,Female,1,2024/03/13_08:45:09,YZ,None,
-6,./instructions/inst_prac_1/Slide26.png,left,0.5389948939991882,544.1346030669956,544.6735979609948,,,,,,,,,,,,,,,,,,,,,,,,,,,,,,,,,1,,,,,,,,,,,,,,,,,,,,,,,,,,,,,,,,,,,,,,,,,,,,,,84,158626,19,Female,1,2024/03/13_08:45:09,YZ,None,
-7,./instructions/inst_prac_1/Slide25.png,left,0.7231044689979171,544.7183781380008,545.4414826069988,,,,,,,,,,,,,,,,,,,,,,,,,,,,,,,,,1,,,,,,,,,,,,,,,,,,,,,,,,,,,,,,,,,,,,,,,,,,,,,,84,158626,19,Female,1,2024/03/13_08:45:09,YZ,None,
,,,,,,practice,0,19,1,1250,1,Q,0,right,1.5692443860025378,1,0,,,,,,,,,,,,,,,,,,,,,1,,,,,,,,,,,,,,,,,,,,,,,,,,,,,,,,,,,,,,,,,,,,,,84,158626,19,Female,1,2024/03/13_08:45:09,YZ,None,
,,,,,,practice,0,19,1,1250,2,Q,1,left,0.6409208989934996,1,0,,,,,,,,,,,,,,,,,,,,,1,,,,,,,,,,,,,,,,,,,,,,,,,,,,,,,,,,,,,,,,,,,,,,84,158626,19,Female,1,2024/03/13_08:45:09,YZ,None,
,,,,,,practice,0,19,1,1250,3,V,0,right,0.3931504139909521,1,0,,,,,,,,,,,,,,,,,,,,,1,,,,,,,,,,,,,,,,,,,,,,,,,,,,,,,,,,,,,,,,,,,,,,84,158626,19,Female,1,2024/03/13_08:45:09,YZ,None,
,,,,,,practice,0,19,1,1250,4,F,0,right,0.42796615400584415,1,0,,,,,,,,,,,,,,,,,,,,,1,,,,,,,,,,,,,,,,,,,,,,,,,,,,,,,,,,,,,,,,,,,,,,84,158626,19,Female,1,2024/03/13_08:45:09,YZ,None,
,,,,,,practice,0,19,1,1250,5,F,1,left,0.6066796359955333,1,0,,,,,,,,,,,,,,,,,,,,,1,,,,,,,,,,,,,,,,,,,,,,,,,,,,,,,,,,,,,,,,,,,,,,84,158626,19,Female,1,2024/03/13_08:45:09,YZ,None,
,,,,,,practice,0,19,1,1250,6,C,0,right,0.5068325519969221,1,0,,,,,,,,,,,,,,,,,,,,,1,,,,,,,,,,,,,,,,,,,,,,,,,,,,,,,,,,,,,,,,,,,,,,84,158626,19,Female,1,2024/03/13_08:45:09,YZ,None,
,,,,,,practice,0,19,1,1250,7,N,0,right,0.5200152979959967,1,0,,,,,,,,,,,,,,,,,,,,,1,,,,,,,,,,,,,,,,,,,,,,,,,,,,,,,,,,,,,,,,,,,,,,84,158626,19,Female,1,2024/03/13_08:45:09,YZ,None,
,,,,,,practice,0,19,1,1250,8,F,0,right,1.3006557269982295,1,0,,,,,,,,,,,,,,,,,,,,,1,,,,,,,,,,,,,,,,,,,,,,,,,,,,,,,,,,,,,,,,,,,,,,84,158626,19,Female,1,2024/03/13_08:45:09,YZ,None,
,,,,,,practice,0,19,1,1250,9,F,1,left,0.6240193980047479,1,0,,,,,,,,,,,,,,,,,,,,,1,,,,,,,,,,,,,,,,,,,,,,,,,,,,,,,,,,,,,,,,,,,,,,84,158626,19,Female,1,2024/03/13_08:45:09,YZ,None,
,,,,,,practice,0,19,1,1250,10,J,0,right,0.4790880579967052,1,0,,,,,,,,,,,,,,,,,,,,,1,,,,,,,,,,,,,,,,,,,,,,,,,,,,,,,,,,,,,,,,,,,,,,84,158626,19,Female,1,2024/03/13_08:45:09,YZ,None,
,,,,,,practice,0,19,1,1250,,,,,,,,1.0,1.0,0.0,1.0,0.0,1.0,0.7068572521980968,3,0,0,0,0,7,10,3,7,0,,,,1,,,,,,,,,,,,,,,,,,,,,,,,,,,,,,,,,,,,,,,,,,,,,,84,158626,19,Female,1,2024/03/13_08:45:09,YZ,None,
1,./instructions/inst_prac_1_next/Slide35.png,right,2.1760602699941956,563.0573349640035,565.2333952339977,,,,,,,,,,,,,,,,,,,,,,,,,,,,,,,,,1,,,,,,,,,,,,,,,,,,,,,,,,,,,,,,,,,,,,,,,,,,,,,,84,158626,19,Female,1,2024/03/13_08:45:09,YZ,None,
,,,,,,practice,0,18,1,19,1,Q,0,right,0.7676676480041351,1,0,,,,,,,,,,,,,,,,,,,,,1,,,,,,,,,,,,,,,,,,,,,,,,,,,,,,,,,,,,,,,,,,,,,,84,158626,19,Female,1,2024/03/13_08:45:09,YZ,None,
,,,,,,practice,0,18,1,19,2,Q,1,left,0.30524915701244026,1,0,,,,,,,,,,,,,,,,,,,,,1,,,,,,,,,,,,,,,,,,,,,,,,,,,,,,,,,,,,,,,,,,,,,,84,158626,19,Female,1,2024/03/13_08:45:09,YZ,None,
,,,,,,practice,0,18,1,19,3,C,0,right,0.38045256600889843,1,0,,,,,,,,,,,,,,,,,,,,,1,,,,,,,,,,,,,,,,,,,,,,,,,,,,,,,,,,,,,,,,,,,,,,84,158626,19,Female,1,2024/03/13_08:45:09,YZ,None,
,,,,,,practice,0,18,1,19,4,V,0,right,0.3363897949893726,1,0,,,,,,,,,,,,,,,,,,,,,1,,,,,,,,,,,,,,,,,,,,,,,,,,,,,,,,,,,,,,,,,,,,,,84,158626,19,Female,1,2024/03/13_08:45:09,YZ,None,
,,,,,,practice,0,18,1,19,5,F,0,right,0.4512662880006246,1,0,,,,,,,,,,,,,,,,,,,,,1,,,,,,,,,,,,,,,,,,,,,,,,,,,,,,,,,,,,,,,,,,,,,,84,158626,19,Female,1,2024/03/13_08:45:09,YZ,None,
,,,,,,practice,0,18,1,19,6,F,1,left,0.5450827710010344,1,0,,,,,,,,,,,,,,,,,,,,,1,,,,,,,,,,,,,,,,,,,,,,,,,,,,,,,,,,,,,,,,,,,,,,84,158626,19,Female,1,2024/03/13_08:45:09,YZ,None,
,,,,,,practice,0,18,1,19,7,N,0,right,0.3884145060001174,1,0,,,,,,,,,,,,,,,,,,,,,1,,,,,,,,,,,,,,,,,,,,,,,,,,,,,,,,,,,,,,,,,,,,,,84,158626,19,Female,1,2024/03/13_08:45:09,YZ,None,
,,,,,,practice,0,18,1,19,8,C,0,right,0.536085486994125,1,0,,,,,,,,,,,,,,,,,,,,,1,,,,,,,,,,,,,,,,,,,,,,,,,,,,,,,,,,,,,,,,,,,,,,84,158626,19,Female,1,2024/03/13_08:45:09,YZ,None,
,,,,,,practice,0,18,1,19,9,V,0,right,0.3522139459964819,1,0,,,,,,,,,,,,,,,,,,,,,1,,,,,,,,,,,,,,,,,,,,,,,,,,,,,,,,,,,,,,,,,,,,,,84,158626,19,Female,1,2024/03/13_08:45:09,YZ,None,
,,,,,,practice,0,18,1,19,10,V,1,left,0.5221988409903133,1,0,,,,,,,,,,,,,,,,,,,,,1,,,,,,,,,,,,,,,,,,,,,,,,,,,,,,,,,,,,,,,,,,,,,,84,158626,19,Female,1,2024/03/13_08:45:09,YZ,None,
,,,,,,practice,0,18,1,19,11,J,0,right,0.3808087079960387,1,0,,,,,,,,,,,,,,,,,,,,,1,,,,,,,,,,,,,,,,,,,,,,,,,,,,,,,,,,,,,,,,,,,,,,84,158626,19,Female,1,2024/03/13_08:45:09,YZ,None,
,,,,,,practice,0,18,1,19,12,C,0,right,0.3857918670109939,1,0,,,,,,,,,,,,,,,,,,,,,1,,,,,,,,,,,,,,,,,,,,,,,,,,,,,,,,,,,,,,,,,,,,,,84,158626,19,Female,1,2024/03/13_08:45:09,YZ,None,
,,,,,,practice,0,18,1,19,13,N,0,right,0.35675822099437937,1,0,,,,,,,,,,,,,,,,,,,,,1,,,,,,,,,,,,,,,,,,,,,,,,,,,,,,,,,,,,,,,,,,,,,,84,158626,19,Female,1,2024/03/13_08:45:09,YZ,None,
,,,,,,practice,0,18,1,19,14,J,0,right,0.35272232700663153,1,0,,,,,,,,,,,,,,,,,,,,,1,,,,,,,,,,,,,,,,,,,,,,,,,,,,,,,,,,,,,,,,,,,,,,84,158626,19,Female,1,2024/03/13_08:45:09,YZ,None,
,,,,,,practice,0,18,1,19,15,J,1,left,0.5354737820016453,1,0,,,,,,,,,,,,,,,,,,,,,1,,,,,,,,,,,,,,,,,,,,,,,,,,,,,,,,,,,,,,,,,,,,,,84,158626,19,Female,1,2024/03/13_08:45:09,YZ,None,
,,,,,,practice,0,18,1,19,16,F,0,right,0.6662441609951202,1,0,,,,,,,,,,,,,,,,,,,,,1,,,,,,,,,,,,,,,,,,,,,,,,,,,,,,,,,,,,,,,,,,,,,,84,158626,19,Female,1,2024/03/13_08:45:09,YZ,None,
,,,,,,practice,0,18,1,19,17,S,0,right,0.3929777820012532,1,0,,,,,,,,,,,,,,,,,,,,,1,,,,,,,,,,,,,,,,,,,,,,,,,,,,,,,,,,,,,,,,,,,,,,84,158626,19,Female,1,2024/03/13_08:45:09,YZ,None,
,,,,,,practice,0,18,1,19,18,S,1,left,0.5058447729970794,1,0,,,,,,,,,,,,,,,,,,,,,1,,,,,,,,,,,,,,,,,,,,,,,,,,,,,,,,,,,,,,,,,,,,,,84,158626,19,Female,1,2024/03/13_08:45:09,YZ,None,
,,,,,,practice,0,18,1,19,19,Q,0,right,0.42456891501205973,1,0,,,,,,,,,,,,,,,,,,,,,1,,,,,,,,,,,,,,,,,,,,,,,,,,,,,,,,,,,,,,,,,,,,,,84,158626,19,Female,1,2024/03/13_08:45:09,YZ,None,
,,,,,,practice,0,18,1,19,20,V,0,right,0.3536849669908406,1,0,,,,,,,,,,,,,,,,,,,,,1,,,,,,,,,,,,,,,,,,,,,,,,,,,,,,,,,,,,,,,,,,,,,,84,158626,19,Female,1,2024/03/13_08:45:09,YZ,None,
,,,,,,practice,0,18,1,19,21,Q,0,right,0.7034923189930851,1,0,,,,,,,,,,,,,,,,,,,,,1,,,,,,,,,,,,,,,,,,,,,,,,,,,,,,,,,,,,,,,,,,,,,,84,158626,19,Female,1,2024/03/13_08:45:09,YZ,None,
,,,,,,practice,0,18,1,19,22,Q,1,left,0.5916803490108578,1,0,,,,,,,,,,,,,,,,,,,,,1,,,,,,,,,,,,,,,,,,,,,,,,,,,,,,,,,,,,,,,,,,,,,,84,158626,19,Female,1,2024/03/13_08:45:09,YZ,None,
,,,,,,practice,0,18,1,19,23,J,0,right,0.33556040198891424,1,0,,,,,,,,,,,,,,,,,,,,,1,,,,,,,,,,,,,,,,,,,,,,,,,,,,,,,,,,,,,,,,,,,,,,84,158626,19,Female,1,2024/03/13_08:45:09,YZ,None,
,,,,,,practice,0,18,1,19,24,J,1,left,0.3923119469982339,1,0,,,,,,,,,,,,,,,,,,,,,1,,,,,,,,,,,,,,,,,,,,,,,,,,,,,,,,,,,,,,,,,,,,,,84,158626,19,Female,1,2024/03/13_08:45:09,YZ,None,
,,,,,,practice,0,18,1,19,25,C,0,right,0.35923239299154375,1,0,,,,,,,,,,,,,,,,,,,,,1,,,,,,,,,,,,,,,,,,,,,,,,,,,,,,,,,,,,,,,,,,,,,,84,158626,19,Female,1,2024/03/13_08:45:09,YZ,None,
,,,,,,practice,0,18,1,19,26,C,1,left,0.5534138599905418,1,0,,,,,,,,,,,,,,,,,,,,,1,,,,,,,,,,,,,,,,,,,,,,,,,,,,,,,,,,,,,,,,,,,,,,84,158626,19,Female,1,2024/03/13_08:45:09,YZ,None,
,,,,,,practice,0,18,1,19,,,,,,,,1.0,1.0,0.0,1.0,0.0,1.0,0.4567533760760293,8,0,0,0,0,18,26,8,18,0,,,,1,,,,,,,,,,,,,,,,,,,,,,,,,,,,,,,,,,,,,,,,,,,,,,84,158626,19,Female,1,2024/03/13_08:45:09,YZ,None,
,,,,,,practice,0,14,1,19,1,X,0,right,0.691174952997244,1,0,,,,,,,,,,,,,,,,,,,,,1,,,,,,,,,,,,,,,,,,,,,,,,,,,,,,,,,,,,,,,,,,,,,,84,158626,19,Female,1,2024/03/13_08:45:09,YZ,None,
,,,,,,practice,0,14,1,19,2,V,0,right,0.3274932880012784,1,0,,,,,,,,,,,,,,,,,,,,,1,,,,,,,,,,,,,,,,,,,,,,,,,,,,,,,,,,,,,,,,,,,,,,84,158626,19,Female,1,2024/03/13_08:45:09,YZ,None,
,,,,,,practice,0,14,1,19,3,Q,0,right,0.35706358500465285,1,0,,,,,,,,,,,,,,,,,,,,,1,,,,,,,,,,,,,,,,,,,,,,,,,,,,,,,,,,,,,,,,,,,,,,84,158626,19,Female,1,2024/03/13_08:45:09,YZ,None,
,,,,,,practice,0,14,1,19,4,V,0,right,0.5603880080016097,1,0,,,,,,,,,,,,,,,,,,,,,1,,,,,,,,,,,,,,,,,,,,,,,,,,,,,,,,,,,,,,,,,,,,,,84,158626,19,Female,1,2024/03/13_08:45:09,YZ,None,
,,,,,,practice,0,14,1,19,5,F,0,right,0.36230038398934994,1,0,,,,,,,,,,,,,,,,,,,,,1,,,,,,,,,,,,,,,,,,,,,,,,,,,,,,,,,,,,,,,,,,,,,,84,158626,19,Female,1,2024/03/13_08:45:09,YZ,None,
,,,,,,practice,0,14,1,19,6,F,1,left,0.4431726690090727,1,0,,,,,,,,,,,,,,,,,,,,,1,,,,,,,,,,,,,,,,,,,,,,,,,,,,,,,,,,,,,,,,,,,,,,84,158626,19,Female,1,2024/03/13_08:45:09,YZ,None,
,,,,,,practice,0,14,1,19,7,X,0,right,0.3462479909940157,1,0,,,,,,,,,,,,,,,,,,,,,1,,,,,,,,,,,,,,,,,,,,,,,,,,,,,,,,,,,,,,,,,,,,,,84,158626,19,Female,1,2024/03/13_08:45:09,YZ,None,
,,,,,,practice,0,14,1,19,8,F,0,right,0.30328294000355527,1,0,,,,,,,,,,,,,,,,,,,,,1,,,,,,,,,,,,,,,,,,,,,,,,,,,,,,,,,,,,,,,,,,,,,,84,158626,19,Female,1,2024/03/13_08:45:09,YZ,None,
,,,,,,practice,0,14,1,19,9,F,1,right,0.33636463498987723,0,0,,,,,,,,,,,,,,,,,,,,,1,,,,,,,,,,,,,,,,,,,,,,,,,,,,,,,,,,,,,,,,,,,,,,84,158626,19,Female,1,2024/03/13_08:45:09,YZ,None,
,,,,,,practice,0,14,1,19,10,N,0,right,0.6826815809909021,1,0,,,,,,,,,,,,,,,,,,,,,1,,,,,,,,,,,,,,,,,,,,,,,,,,,,,,,,,,,,,,,,,,,,,,84,158626,19,Female,1,2024/03/13_08:45:09,YZ,None,
,,,,,,practice,0,14,1,19,11,N,1,left,0.42385018499044236,1,0,,,,,,,,,,,,,,,,,,,,,1,,,,,,,,,,,,,,,,,,,,,,,,,,,,,,,,,,,,,,,,,,,,,,84,158626,19,Female,1,2024/03/13_08:45:09,YZ,None,
,,,,,,practice,0,14,1,19,12,S,0,right,0.4320597289915895,1,0,,,,,,,,,,,,,,,,,,,,,1,,,,,,,,,,,,,,,,,,,,,,,,,,,,,,,,,,,,,,,,,,,,,,84,158626,19,Female,1,2024/03/13_08:45:09,YZ,None,
,,,,,,practice,0,14,1,19,13,S,1,right,0.2905674500070745,0,0,,,,,,,,,,,,,,,,,,,,,1,,,,,,,,,,,,,,,,,,,,,,,,,,,,,,,,,,,,,,,,,,,,,,84,158626,19,Female,1,2024/03/13_08:45:09,YZ,None,
,,,,,,practice,0,14,1,19,14,Q,0,right,0.38877844100352377,1,0,,,,,,,,,,,,,,,,,,,,,1,,,,,,,,,,,,,,,,,,,,,,,,,,,,,,,,,,,,,,,,,,,,,,84,158626,19,Female,1,2024/03/13_08:45:09,YZ,None,
,,,,,,practice,0,14,1,19,15,V,0,right,0.5217814939969685,1,0,,,,,,,,,,,,,,,,,,,,,1,,,,,,,,,,,,,,,,,,,,,,,,,,,,,,,,,,,,,,,,,,,,,,84,158626,19,Female,1,2024/03/13_08:45:09,YZ,None,
,,,,,,practice,0,14,1,19,16,V,1,left,0.6629551710066153,1,0,,,,,,,,,,,,,,,,,,,,,1,,,,,,,,,,,,,,,,,,,,,,,,,,,,,,,,,,,,,,,,,,,,,,84,158626,19,Female,1,2024/03/13_08:45:09,YZ,None,
,,,,,,practice,0,14,1,19,17,C,0,right,0.3644575530051952,1,0,,,,,,,,,,,,,,,,,,,,,1,,,,,,,,,,,,,,,,,,,,,,,,,,,,,,,,,,,,,,,,,,,,,,84,158626,19,Female,1,2024/03/13_08:45:09,YZ,None,
,,,,,,practice,0,14,1,19,18,X,0,right,0.4238139770022826,1,0,,,,,,,,,,,,,,,,,,,,,1,,,,,,,,,,,,,,,,,,,,,,,,,,,,,,,,,,,,,,,,,,,,,,84,158626,19,Female,1,2024/03/13_08:45:09,YZ,None,
,,,,,,practice,0,14,1,19,19,C,0,right,0.8078492009954061,1,0,,,,,,,,,,,,,,,,,,,,,1,,,,,,,,,,,,,,,,,,,,,,,,,,,,,,,,,,,,,,,,,,,,,,84,158626,19,Female,1,2024/03/13_08:45:09,YZ,None,
,,,,,,practice,0,14,1,19,20,C,1,left,0.4485946679924382,1,0,,,,,,,,,,,,,,,,,,,,,1,,,,,,,,,,,,,,,,,,,,,,,,,,,,,,,,,,,,,,,,,,,,,,84,158626,19,Female,1,2024/03/13_08:45:09,YZ,None,
,,,,,,practice,0,14,1,19,21,N,0,right,0.3002064630127279,1,0,,,,,,,,,,,,,,,,,,,,,1,,,,,,,,,,,,,,,,,,,,,,,,,,,,,,,,,,,,,,,,,,,,,,84,158626,19,Female,1,2024/03/13_08:45:09,YZ,None,
,,,,,,practice,0,14,1,19,22,S,0,right,0.37538407699321397,1,0,,,,,,,,,,,,,,,,,,,,,1,,,,,,,,,,,,,,,,,,,,,,,,,,,,,,,,,,,,,,,,,,,,,,84,158626,19,Female,1,2024/03/13_08:45:09,YZ,None,
,,,,,,practice,0,14,1,19,23,S,1,left,0.37643225899955723,1,0,,,,,,,,,,,,,,,,,,,,,1,,,,,,,,,,,,,,,,,,,,,,,,,,,,,,,,,,,,,,,,,,,,,,84,158626,19,Female,1,2024/03/13_08:45:09,YZ,None,
,,,,,,practice,0,14,1,19,24,C,0,right,0.21805225500429515,1,0,,,,,,,,,,,,,,,,,,,,,1,,,,,,,,,,,,,,,,,,,,,,,,,,,,,,,,,,,,,,,,,,,,,,84,158626,19,Female,1,2024/03/13_08:45:09,YZ,None,
,,,,,,practice,0,14,1,19,25,V,0,right,0.335504803006188,1,0,,,,,,,,,,,,,,,,,,,,,1,,,,,,,,,,,,,,,,,,,,,,,,,,,,,,,,,,,,,,,,,,,,,,84,158626,19,Female,1,2024/03/13_08:45:09,YZ,None,
,,,,,,practice,0,14,1,19,26,F,0,right,0.4011036790034268,1,0,,,,,,,,,,,,,,,,,,,,,1,,,,,,,,,,,,,,,,,,,,,,,,,,,,,,,,,,,,,,,,,,,,,,84,158626,19,Female,1,2024/03/13_08:45:09,YZ,None,
,,,,,,practice,0,14,1,19,,,,,,,,0.9285714285714286,0.7142857142857143,0.0,1.0,0.0,1.0,0.4300600553458655,5,0,0,0,0,19,24,7,19,0,,,,1,,,,,,,,,,,,,,,,,,,,,,,,,,,,,,,,,,,,,,,,,,,,,,84,158626,19,Female,1,2024/03/13_08:45:09,YZ,None,
1,./instructions/inst_prac_3/Slide37.png,right,3.875072454000474,619.7984525089996,623.6735249630001,,,,,,,,,,,,,,,,,,,,,,,,,,,,,,,,,1,,,,,,,,,,,,,,,,,,,,,,,,,,,,,,,,,,,,,,,,,,,,,,84,158626,19,Female,1,2024/03/13_08:45:09,YZ,None,
2,./instructions/inst_prac_3/Slide38.png,right,1.5875673889968311,623.7017945499974,625.2893619389943,,,,,,,,,,,,,,,,,,,,,,,,,,,,,,,,,1,,,,,,,,,,,,,,,,,,,,,,,,,,,,,,,,,,,,,,,,,,,,,,84,158626,19,Female,1,2024/03/13_08:45:09,YZ,None,
3,./instructions/inst_prac_3/Slide39.png,right,0.6105629749945365,625.3191301460029,625.9296931209974,,,,,,,,,,,,,,,,,,,,,,,,,,,,,,,,,1,,,,,,,,,,,,,,,,,,,,,,,,,,,,,,,,,,,,,,,,,,,,,,84,158626,19,Female,1,2024/03/13_08:45:09,YZ,None,
4,./instructions/inst_prac_3/Slide40.png,right,0.7297328730055597,625.95971861,626.6894514830055,,,,,,,,,,,,,,,,,,,,,,,,,,,,,,,,,1,,,,,,,,,,,,,,,,,,,,,,,,,,,,,,,,,,,,,,,,,,,,,,84,158626,19,Female,1,2024/03/13_08:45:09,YZ,None,
5,./instructions/inst_prac_3/Slide41.png,right,1.1934172199980821,626.7200070660037,627.9134242860018,,,,,,,,,,,,,,,,,,,,,,,,,,,,,,,,,1,,,,,,,,,,,,,,,,,,,,,,,,,,,,,,,,,,,,,,,,,,,,,,84,158626,19,Female,1,2024/03/13_08:45:09,YZ,None,
4,./instructions/inst_prac_3/Slide42.png,left,1.181440749001922,627.940181265003,629.121622014005,,,,,,,,,,,,,,,,,,,,,,,,,,,,,,,,,1,,,,,,,,,,,,,,,,,,,,,,,,,,,,,,,,,,,,,,,,,,,,,,84,158626,19,Female,1,2024/03/13_08:45:09,YZ,None,
5,./instructions/inst_prac_3/Slide41.png,right,1.9068162619951181,629.1505103579984,631.0573266199935,,,,,,,,,,,,,,,,,,,,,,,,,,,,,,,,,1,,,,,,,,,,,,,,,,,,,,,,,,,,,,,,,,,,,,,,,,,,,,,,84,158626,19,Female,1,2024/03/13_08:45:09,YZ,None,
4,./instructions/inst_prac_3/Slide42.png,left,0.8834677940030815,631.086241994999,631.9697097890021,,,,,,,,,,,,,,,,,,,,,,,,,,,,,,,,,1,,,,,,,,,,,,,,,,,,,,,,,,,,,,,,,,,,,,,,,,,,,,,,84,158626,19,Female,1,2024/03/13_08:45:09,YZ,None,
5,./instructions/inst_prac_3/Slide41.png,right,1.2829287589993328,631.9985215049965,633.2814502639958,,,,,,,,,,,,,,,,,,,,,,,,,,,,,,,,,1,,,,,,,,,,,,,,,,,,,,,,,,,,,,,,,,,,,,,,,,,,,,,,84,158626,19,Female,1,2024/03/13_08:45:09,YZ,None,
6,./instructions/inst_prac_3/Slide42.png,right,0.2527120189915877,633.3088446860056,633.5615567049972,,,,,,,,,,,,,,,,,,,,,,,,,,,,,,,,,1,,,,,,,,,,,,,,,,,,,,,,,,,,,,,,,,,,,,,,,,,,,,,,84,158626,19,Female,1,2024/03/13_08:45:09,YZ,None,
7,./instructions/inst_prac_3/Slide43.png,right,6.89746201899834,633.591700310004,640.4891623290023,,,,,,,,,,,,,,,,,,,,,,,,,,,,,,,,,1,,,,,,,,,,,,,,,,,,,,,,,,,,,,,,,,,,,,,,,,,,,,,,84,158626,19,Female,1,2024/03/13_08:45:09,YZ,None,
8,./instructions/inst_prac_3/Slide44.png,right,3.0224020419991575,640.5308950549952,643.5532970969944,,,,,,,,,,,,,,,,,,,,,,,,,,,,,,,,,1,,,,,,,,,,,,,,,,,,,,,,,,,,,,,,,,,,,,,,,,,,,,,,84,158626,19,Female,1,2024/03/13_08:45:09,YZ,None,
,,,,,,practice,0,21,3,788,1,X,0,right,0.995369248004863,1,0,,,,,,,,,,,,,,,,,,,,,1,,,,,,,,,,,,,,,,,,,,,,,,,,,,,,,,,,,,,,,,,,,,,,84,158626,19,Female,1,2024/03/13_08:45:09,YZ,None,
,,,,,,practice,0,21,3,788,2,J,0,right,0.5650901869958034,1,0,,,,,,,,,,,,,,,,,,,,,1,,,,,,,,,,,,,,,,,,,,,,,,,,,,,,,,,,,,,,,,,,,,,,84,158626,19,Female,1,2024/03/13_08:45:09,YZ,None,
,,,,,,practice,0,21,3,788,3,S,0,right,0.25275263699586503,1,0,,,,,,,,,,,,,,,,,,,,,1,,,,,,,,,,,,,,,,,,,,,,,,,,,,,,,,,,,,,,,,,,,,,,84,158626,19,Female,1,2024/03/13_08:45:09,YZ,None,
,,,,,,practice,0,21,3,788,4,Q,0,right,0.5177477370016277,1,0,,,,,,,,,,,,,,,,,,,,,1,,,,,,,,,,,,,,,,,,,,,,,,,,,,,,,,,,,,,,,,,,,,,,84,158626,19,Female,1,2024/03/13_08:45:09,YZ,None,
,,,,,,practice,0,21,3,788,5,J,1,right,0.24582457900396548,0,0,,,,,,,,,,,,,,,,,,,,,1,,,,,,,,,,,,,,,,,,,,,,,,,,,,,,,,,,,,,,,,,,,,,,84,158626,19,Female,1,2024/03/13_08:45:09,YZ,None,
,,,,,,practice,0,21,3,788,6,S,1,left,2.2266961709974566,1,0,,,,,,,,,,,,,,,,,,,,,1,,,,,,,,,,,,,,,,,,,,,,,,,,,,,,,,,,,,,,,,,,,,,,84,158626,19,Female,1,2024/03/13_08:45:09,YZ,None,
,,,,,,practice,0,21,3,788,7,S,0,right,3.3509879119956167,1,0,,,,,,,,,,,,,,,,,,,,,1,,,,,,,,,,,,,,,,,,,,,,,,,,,,,,,,,,,,,,,,,,,,,,84,158626,19,Female,1,2024/03/13_08:45:09,YZ,None,
,,,,,,practice,0,21,3,788,8,N,0,right,2.0361552850081353,1,0,,,,,,,,,,,,,,,,,,,,,1,,,,,,,,,,,,,,,,,,,,,,,,,,,,,,,,,,,,,,,,,,,,,,84,158626,19,Female,1,2024/03/13_08:45:09,YZ,None,
,,,,,,practice,0,21,3,788,9,C,0,right,1.709903230992495,1,0,,,,,,,,,,,,,,,,,,,,,1,,,,,,,,,,,,,,,,,,,,,,,,,,,,,,,,,,,,,,,,,,,,,,84,158626,19,Female,1,2024/03/13_08:45:09,YZ,None,
,,,,,,practice,0,21,3,788,10,S,1,right,1.7231884380016709,0,0,,,,,,,,,,,,,,,,,,,,,1,,,,,,,,,,,,,,,,,,,,,,,,,,,,,,,,,,,,,,,,,,,,,,84,158626,19,Female,1,2024/03/13_08:45:09,YZ,None,
,,,,,,practice,0,21,3,788,11,Q,0,right,0.5330158040014794,1,0,,,,,,,,,,,,,,,,,,,,,1,,,,,,,,,,,,,,,,,,,,,,,,,,,,,,,,,,,,,,,,,,,,,,84,158626,19,Female,1,2024/03/13_08:45:09,YZ,None,
,,,,,,practice,0,21,3,788,12,F,0,right,0.860666519991355,1,0,,,,,,,,,,,,,,,,,,,,,1,,,,,,,,,,,,,,,,,,,,,,,,,,,,,,,,,,,,,,,,,,,,,,84,158626,19,Female,1,2024/03/13_08:45:09,YZ,None,
,,,,,,practice,0,21,3,788,13,S,1,left,0.5819434879958862,1,0,,,,,,,,,,,,,,,,,,,,,1,,,,,,,,,,,,,,,,,,,,,,,,,,,,,,,,,,,,,,,,,,,,,,84,158626,19,Female,1,2024/03/13_08:45:09,YZ,None,
,,,,,,practice,0,21,3,788,,,,,,,,0.875,0.5,0.0,1.0,0.0,1.0,1.1999493259220169,2,0,0,0,0,9,11,4,9,0,,,,1,,,,,,,,,,,,,,,,,,,,,,,,,,,,,,,,,,,,,,,,,,,,,,84,158626,19,Female,1,2024/03/13_08:45:09,YZ,None,
1,./instructions/inst_prac_3_next/Slide49.png,right,1.224680179002462,673.8811034380051,675.1057836170075,,,,,,,,,,,,,,,,,,,,,,,,,,,,,,,,,1,,,,,,,,,,,,,,,,,,,,,,,,,,,,,,,,,,,,,,,,,,,,,,84,158626,19,Female,1,2024/03/13_08:45:09,YZ,None,
,,,,,,practice,0,8,3,19,1,C,0,right,0.5613138970074942,1,0,,,,,,,,,,,,,,,,,,,,,1,,,,,,,,,,,,,,,,,,,,,,,,,,,,,,,,,,,,,,,,,,,,,,84,158626,19,Female,1,2024/03/13_08:45:09,YZ,None,
,,,,,,practice,0,8,3,19,2,J,0,right,0.47269371199945454,1,0,,,,,,,,,,,,,,,,,,,,,1,,,,,,,,,,,,,,,,,,,,,,,,,,,,,,,,,,,,,,,,,,,,,,84,158626,19,Female,1,2024/03/13_08:45:09,YZ,None,
,,,,,,practice,0,8,3,19,3,X,0,right,0.23332772300636861,1,0,,,,,,,,,,,,,,,,,,,,,1,,,,,,,,,,,,,,,,,,,,,,,,,,,,,,,,,,,,,,,,,,,,,,84,158626,19,Female,1,2024/03/13_08:45:09,YZ,None,
,,,,,,practice,0,8,3,19,4,N,0,right,0.5062338400020963,1,0,,,,,,,,,,,,,,,,,,,,,1,,,,,,,,,,,,,,,,,,,,,,,,,,,,,,,,,,,,,,,,,,,,,,84,158626,19,Female,1,2024/03/13_08:45:09,YZ,None,
,,,,,,practice,0,8,3,19,5,X,0,right,0.8005820359976497,1,0,,,,,,,,,,,,,,,,,,,,,1,,,,,,,,,,,,,,,,,,,,,,,,,,,,,,,,,,,,,,,,,,,,,,84,158626,19,Female,1,2024/03/13_08:45:09,YZ,None,
,,,,,,practice,0,8,3,19,6,X,1,left,0.6949636319914134,1,0,,,,,,,,,,,,,,,,,,,,,1,,,,,,,,,,,,,,,,,,,,,,,,,,,,,,,,,,,,,,,,,,,,,,84,158626,19,Female,1,2024/03/13_08:45:09,YZ,None,
,,,,,,practice,0,8,3,19,7,N,1,left,1.0043970330007141,1,0,,,,,,,,,,,,,,,,,,,,,1,,,,,,,,,,,,,,,,,,,,,,,,,,,,,,,,,,,,,,,,,,,,,,84,158626,19,Female,1,2024/03/13_08:45:09,YZ,None,
,,,,,,practice,0,8,3,19,8,J,0,right,1.3132745970069664,1,0,,,,,,,,,,,,,,,,,,,,,1,,,,,,,,,,,,,,,,,,,,,,,,,,,,,,,,,,,,,,,,,,,,,,84,158626,19,Female,1,2024/03/13_08:45:09,YZ,None,
,,,,,,practice,0,8,3,19,9,X,1,right,0.8501253310096217,0,0,,,,,,,,,,,,,,,,,,,,,1,,,,,,,,,,,,,,,,,,,,,,,,,,,,,,,,,,,,,,,,,,,,,,84,158626,19,Female,1,2024/03/13_08:45:09,YZ,None,
,,,,,,practice,0,8,3,19,10,N,1,left,0.2891276689915685,1,0,,,,,,,,,,,,,,,,,,,,,1,,,,,,,,,,,,,,,,,,,,,,,,,,,,,,,,,,,,,,,,,,,,,,84,158626,19,Female,1,2024/03/13_08:45:09,YZ,None,
,,,,,,practice,0,8,3,19,11,N,0,right,0.061202329001389444,1,0,,,,,,,,,,,,,,,,,,,,,1,,,,,,,,,,,,,,,,,,,,,,,,,,,,,,,,,,,,,,,,,,,,,,84,158626,19,Female,1,2024/03/13_08:45:09,YZ,None,
,,,,,,practice,0,8,3,19,12,J,0,right,0.048233556997729465,1,0,,,,,,,,,,,,,,,,,,,,,1,,,,,,,,,,,,,,,,,,,,,,,,,,,,,,,,,,,,,,,,,,,,,,84,158626,19,Female,1,2024/03/13_08:45:09,YZ,None,
,,,,,,practice,0,8,3,19,13,Q,0,left,0.0004636369994841516,0,0,,,,,,,,,,,,,,,,,,,,,1,,,,,,,,,,,,,,,,,,,,,,,,,,,,,,,,,,,,,,,,,,,,,,84,158626,19,Female,1,2024/03/13_08:45:09,YZ,None,
,,,,,,practice,0,8,3,19,14,C,0,right,0.05013987600977998,1,0,,,,,,,,,,,,,,,,,,,,,1,,,,,,,,,,,,,,,,,,,,,,,,,,,,,,,,,,,,,,,,,,,,,,84,158626,19,Female,1,2024/03/13_08:45:09,YZ,None,
,,,,,,practice,0,8,3,19,15,N,0,left,0.18112251099955756,0,0,,,,,,,,,,,,,,,,,,,,,1,,,,,,,,,,,,,,,,,,,,,,,,,,,,,,,,,,,,,,,,,,,,,,84,158626,19,Female,1,2024/03/13_08:45:09,YZ,None,
,,,,,,practice,0,8,3,19,16,Q,1,right,0.035914852007408626,0,0,,,,,,,,,,,,,,,,,,,,,1,,,,,,,,,,,,,,,,,,,,,,,,,,,,,,,,,,,,,,,,,,,,,,84,158626,19,Female,1,2024/03/13_08:45:09,YZ,None,
,,,,,,practice,0,8,3,19,17,V,0,right,0.01684770498832222,1,0,,,,,,,,,,,,,,,,,,,,,1,,,,,,,,,,,,,,,,,,,,,,,,,,,,,,,,,,,,,,,,,,,,,,84,158626,19,Female,1,2024/03/13_08:45:09,YZ,None,
,,,,,,practice,0,8,3,19,18,S,0,right,0.30618909499025904,1,0,,,,,,,,,,,,,,,,,,,,,1,,,,,,,,,,,,,,,,,,,,,,,,,,,,,,,,,,,,,,,,,,,,,,84,158626,19,Female,1,2024/03/13_08:45:09,YZ,None,
,,,,,,practice,0,8,3,19,19,N,0,right,0.2768464450055035,1,0,,,,,,,,,,,,,,,,,,,,,1,,,,,,,,,,,,,,,,,,,,,,,,,,,,,,,,,,,,,,,,,,,,,,84,158626,19,Female,1,2024/03/13_08:45:09,YZ,None,
,,,,,,practice,0,8,3,19,20,J,0,right,0.46072182699572295,1,0,,,,,,,,,,,,,,,,,,,,,1,,,,,,,,,,,,,,,,,,,,,,,,,,,,,,,,,,,,,,,,,,,,,,84,158626,19,Female,1,2024/03/13_08:45:09,YZ,None,
,,,,,,practice,0,8,3,19,21,C,0,right,0.3159959040058311,1,0,,,,,,,,,,,,,,,,,,,,,1,,,,,,,,,,,,,,,,,,,,,,,,,,,,,,,,,,,,,,,,,,,,,,84,158626,19,Female,1,2024/03/13_08:45:09,YZ,None,
,,,,,,practice,0,8,3,19,22,C,0,left,0.8484645470016403,0,0,,,,,,,,,,,,,,,,,,,,,1,,,,,,,,,,,,,,,,,,,,,,,,,,,,,,,,,,,,,,,,,,,,,,84,158626,19,Female,1,2024/03/13_08:45:09,YZ,None,
,,,,,,practice,0,8,3,19,23,J,1,right,0.3407481739996001,0,0,,,,,,,,,,,,,,,,,,,,,1,,,,,,,,,,,,,,,,,,,,,,,,,,,,,,,,,,,,,,,,,,,,,,84,158626,19,Female,1,2024/03/13_08:45:09,YZ,None,
,,,,,,practice,0,8,3,19,24,X,0,left,0.37830617900181096,0,0,,,,,,,,,,,,,,,,,,,,,1,,,,,,,,,,,,,,,,,,,,,,,,,,,,,,,,,,,,,,,,,,,,,,84,158626,19,Female,1,2024/03/13_08:45:09,YZ,None,
,,,,,,practice,0,8,3,19,25,C,1,right,0.2925876000081189,0,0,,,,,,,,,,,,,,,,,,,,,1,,,,,,,,,,,,,,,,,,,,,,,,,,,,,,,,,,,,,,,,,,,,,,84,158626,19,Female,1,2024/03/13_08:45:09,YZ,None,
,,,,,,practice,0,8,3,19,26,F,0,right,0.37261856500117574,1,0,,,,,,,,,,,,,,,,,,,,,1,,,,,,,,,,,,,,,,,,,,,,,,,,,,,,,,,,,,,,,,,,,,,,84,158626,19,Female,1,2024/03/13_08:45:09,YZ,None,
,,,,,,practice,0,8,3,19,,,,,,,,0.681704260651629,0.42857142857142855,0.21052631578947367,0.7894736842105263,0.0,0.7894736842105263,0.41201701050102624,3,4,0,0,0,15,18,7,19,0,,,,1,,,,,,,,,,,,,,,,,,,,,,,,,,,,,,,,,,,,,,,,,,,,,,84,158626,19,Female,1,2024/03/13_08:45:09,YZ,None,
,,,,,,practice,0,34,3,19,1,V,0,right,0.587363152008038,1,0,,,,,,,,,,,,,,,,,,,,,1,,,,,,,,,,,,,,,,,,,,,,,,,,,,,,,,,,,,,,,,,,,,,,84,158626,19,Female,1,2024/03/13_08:45:09,YZ,None,
,,,,,,practice,0,34,3,19,2,Q,0,right,0.8957917899970198,1,0,,,,,,,,,,,,,,,,,,,,,1,,,,,,,,,,,,,,,,,,,,,,,,,,,,,,,,,,,,,,,,,,,,,,84,158626,19,Female,1,2024/03/13_08:45:09,YZ,None,
,,,,,,practice,0,34,3,19,3,Q,0,right,0.25755662299343385,1,0,,,,,,,,,,,,,,,,,,,,,1,,,,,,,,,,,,,,,,,,,,,,,,,,,,,,,,,,,,,,,,,,,,,,84,158626,19,Female,1,2024/03/13_08:45:09,YZ,None,
,,,,,,practice,0,34,3,19,4,V,1,left,0.4337157709960593,1,0,,,,,,,,,,,,,,,,,,,,,1,,,,,,,,,,,,,,,,,,,,,,,,,,,,,,,,,,,,,,,,,,,,,,84,158626,19,Female,1,2024/03/13_08:45:09,YZ,None,
,,,,,,practice,0,34,3,19,5,N,0,right,0.7597284759976901,1,0,,,,,,,,,,,,,,,,,,,,,1,,,,,,,,,,,,,,,,,,,,,,,,,,,,,,,,,,,,,,,,,,,,,,84,158626,19,Female,1,2024/03/13_08:45:09,YZ,None,
,,,,,,practice,0,34,3,19,6,F,0,right,0.8075253300048644,1,0,,,,,,,,,,,,,,,,,,,,,1,,,,,,,,,,,,,,,,,,,,,,,,,,,,,,,,,,,,,,,,,,,,,,84,158626,19,Female,1,2024/03/13_08:45:09,YZ,None,
,,,,,,practice,0,34,3,19,7,V,1,left,1.0812855470139766,1,0,,,,,,,,,,,,,,,,,,,,,1,,,,,,,,,,,,,,,,,,,,,,,,,,,,,,,,,,,,,,,,,,,,,,84,158626,19,Female,1,2024/03/13_08:45:09,YZ,None,
,,,,,,practice,0,34,3,19,8,J,0,right,1.2361584470054368,1,0,,,,,,,,,,,,,,,,,,,,,1,,,,,,,,,,,,,,,,,,,,,,,,,,,,,,,,,,,,,,,,,,,,,,84,158626,19,Female,1,2024/03/13_08:45:09,YZ,None,
,,,,,,practice,0,34,3,19,9,C,0,right,0.6001957060070708,1,0,,,,,,,,,,,,,,,,,,,,,1,,,,,,,,,,,,,,,,,,,,,,,,,,,,,,,,,,,,,,,,,,,,,,84,158626,19,Female,1,2024/03/13_08:45:09,YZ,None,
,,,,,,practice,0,34,3,19,10,N,0,left,0.8104134039895143,0,0,,,,,,,,,,,,,,,,,,,,,1,,,,,,,,,,,,,,,,,,,,,,,,,,,,,,,,,,,,,,,,,,,,,,84,158626,19,Female,1,2024/03/13_08:45:09,YZ,None,
,,,,,,practice,0,34,3,19,11,V,0,left,1.1762524299992947,0,0,,,,,,,,,,,,,,,,,,,,,1,,,,,,,,,,,,,,,,,,,,,,,,,,,,,,,,,,,,,,,,,,,,,,84,158626,19,Female,1,2024/03/13_08:45:09,YZ,None,
,,,,,,practice,0,34,3,19,12,V,0,left,0.7018343169911532,0,0,,,,,,,,,,,,,,,,,,,,,1,,,,,,,,,,,,,,,,,,,,,,,,,,,,,,,,,,,,,,,,,,,,,,84,158626,19,Female,1,2024/03/13_08:45:09,YZ,None,
,,,,,,practice,0,34,3,19,13,N,1,right,0.38078370499715675,0,0,,,,,,,,,,,,,,,,,,,,,1,,,,,,,,,,,,,,,,,,,,,,,,,,,,,,,,,,,,,,,,,,,,,,84,158626,19,Female,1,2024/03/13_08:45:09,YZ,None,
,,,,,,practice,0,34,3,19,14,V,1,left,1.7007509929972002,1,0,,,,,,,,,,,,,,,,,,,,,1,,,,,,,,,,,,,,,,,,,,,,,,,,,,,,,,,,,,,,,,,,,,,,84,158626,19,Female,1,2024/03/13_08:45:09,YZ,None,
,,,,,,practice,0,34,3,19,15,F,0,right,1.454996189000667,1,0,,,,,,,,,,,,,,,,,,,,,1,,,,,,,,,,,,,,,,,,,,,,,,,,,,,,,,,,,,,,,,,,,,,,84,158626,19,Female,1,2024/03/13_08:45:09,YZ,None,
,,,,,,practice,0,34,3,19,16,N,1,right,0.8358371420035837,0,0,,,,,,,,,,,,,,,,,,,,,1,,,,,,,,,,,,,,,,,,,,,,,,,,,,,,,,,,,,,,,,,,,,,,84,158626,19,Female,1,2024/03/13_08:45:09,YZ,None,
,,,,,,practice,0,34,3,19,17,X,0,right,0.6554978280037176,1,0,,,,,,,,,,,,,,,,,,,,,1,,,,,,,,,,,,,,,,,,,,,,,,,,,,,,,,,,,,,,,,,,,,,,84,158626,19,Female,1,2024/03/13_08:45:09,YZ,None,
,,,,,,practice,0,34,3,19,18,V,0,left,0.5283730030059814,0,0,,,,,,,,,,,,,,,,,,,,,1,,,,,,,,,,,,,,,,,,,,,,,,,,,,,,,,,,,,,,,,,,,,,,84,158626,19,Female,1,2024/03/13_08:45:09,YZ,None,
,,,,,,practice,0,34,3,19,19,N,1,left,1.2334033260121942,1,0,,,,,,,,,,,,,,,,,,,,,1,,,,,,,,,,,,,,,,,,,,,,,,,,,,,,,,,,,,,,,,,,,,,,84,158626,19,Female,1,2024/03/13_08:45:09,YZ,None,
,,,,,,practice,0,34,3,19,20,C,0,right,0.4575861040066229,1,0,,,,,,,,,,,,,,,,,,,,,1,,,,,,,,,,,,,,,,,,,,,,,,,,,,,,,,,,,,,,,,,,,,,,84,158626,19,Female,1,2024/03/13_08:45:09,YZ,None,
,,,,,,practice,0,34,3,19,21,V,1,right,0.5143539619894,0,0,,,,,,,,,,,,,,,,,,,,,1,,,,,,,,,,,,,,,,,,,,,,,,,,,,,,,,,,,,,,,,,,,,,,84,158626,19,Female,1,2024/03/13_08:45:09,YZ,None,
,,,,,,practice,0,34,3,19,22,S,0,left,0.42133477100287564,0,0,,,,,,,,,,,,,,,,,,,,,1,,,,,,,,,,,,,,,,,,,,,,,,,,,,,,,,,,,,,,,,,,,,,,84,158626,19,Female,1,2024/03/13_08:45:09,YZ,None,
,,,,,,practice,0,34,3,19,23,F,0,right,0.2730251339962706,1,0,,,,,,,,,,,,,,,,,,,,,1,,,,,,,,,,,,,,,,,,,,,,,,,,,,,,,,,,,,,,,,,,,,,,84,158626,19,Female,1,2024/03/13_08:45:09,YZ,None,
,,,,,,practice,0,34,3,19,24,V,1,left,0.42606099900149275,1,0,,,,,,,,,,,,,,,,,,,,,1,,,,,,,,,,,,,,,,,,,,,,,,,,,,,,,,,,,,,,,,,,,,,,84,158626,19,Female,1,2024/03/13_08:45:09,YZ,None,
,,,,,,practice,0,34,3,19,25,N,0,left,0.6332795670023188,0,0,,,,,,,,,,,,,,,,,,,,,1,,,,,,,,,,,,,,,,,,,,,,,,,,,,,,,,,,,,,,,,,,,,,,84,158626,19,Female,1,2024/03/13_08:45:09,YZ,None,
,,,,,,practice,0,34,3,19,26,N,0,left,0.4579089149920037,0,0,,,,,,,,,,,,,,,,,,,,,1,,,,,,,,,,,,,,,,,,,,,,,,,,,,,,,,,,,,,,,,,,,,,,84,158626,19,Female,1,2024/03/13_08:45:09,YZ,None,
,,,,,,practice,0,34,3,19,,,,,,,,0.6631944444444444,0.625,0.3888888888888889,0.6111111111111112,0.0,0.6111111111111112,0.7431158704236552,5,7,0,0,0,11,16,8,18,0,,,,1,,,,,,,,,,,,,,,,,,,,,,,,,,,,,,,,,,,,,,,,,,,,,,84,158626,19,Female,1,2024/03/13_08:45:09,YZ,None,
1,./instructions/inst_redo_3/Slide47.png,right,8.810825620006653,735.0225072030007,743.8333328230074,,,,,,,,,,,,,,,,,,,,,,,,,,,,,,,,,1,,,,,,,,,,,,,,,,,,,,,,,,,,,,,,,,,,,,,,,,,,,,,,84,158626,19,Female,1,2024/03/13_08:45:09,YZ,None,
,,,,,,practice,0,10,3,19,1,Q,0,right,1.1925884350057459,1,0,,,,,,,,,,,,,,,,,,,,,1,,,,,,,,,,,,,,,,,,,,,,,,,,,,,,,,,,,,,,,,,,,,,,84,158626,19,Female,1,2024/03/13_08:45:09,YZ,None,
,,,,,,practice,0,10,3,19,2,S,0,right,1.6764744819956832,1,0,,,,,,,,,,,,,,,,,,,,,1,,,,,,,,,,,,,,,,,,,,,,,,,,,,,,,,,,,,,,,,,,,,,,84,158626,19,Female,1,2024/03/13_08:45:09,YZ,None,
,,,,,,practice,0,10,3,19,3,J,0,right,1.2734878170012962,1,0,,,,,,,,,,,,,,,,,,,,,1,,,,,,,,,,,,,,,,,,,,,,,,,,,,,,,,,,,,,,,,,,,,,,84,158626,19,Female,1,2024/03/13_08:45:09,YZ,None,
,,,,,,practice,0,10,3,19,4,Q,1,left,0.9365650999970967,1,0,,,,,,,,,,,,,,,,,,,,,1,,,,,,,,,,,,,,,,,,,,,,,,,,,,,,,,,,,,,,,,,,,,,,84,158626,19,Female,1,2024/03/13_08:45:09,YZ,None,
,,,,,,practice,0,10,3,19,5,C,0,right,1.5834859260066878,1,0,,,,,,,,,,,,,,,,,,,,,1,,,,,,,,,,,,,,,,,,,,,,,,,,,,,,,,,,,,,,,,,,,,,,84,158626,19,Female,1,2024/03/13_08:45:09,YZ,None,
,,,,,,practice,0,10,3,19,6,J,1,left,2.463147136993939,1,0,,,,,,,,,,,,,,,,,,,,,1,,,,,,,,,,,,,,,,,,,,,,,,,,,,,,,,,,,,,,,,,,,,,,84,158626,19,Female,1,2024/03/13_08:45:09,YZ,None,
,,,,,,practice,0,10,3,19,7,J,0,right,0.7962594170094235,1,0,,,,,,,,,,,,,,,,,,,,,1,,,,,,,,,,,,,,,,,,,,,,,,,,,,,,,,,,,,,,,,,,,,,,84,158626,19,Female,1,2024/03/13_08:45:09,YZ,None,
,,,,,,practice,0,10,3,19,8,Q,0,left,3.3165351539937546,0,0,,,,,,,,,,,,,,,,,,,,,1,,,,,,,,,,,,,,,,,,,,,,,,,,,,,,,,,,,,,,,,,,,,,,84,158626,19,Female,1,2024/03/13_08:45:09,YZ,None,
,,,,,,practice,0,10,3,19,9,C,0,right,2.017237006992218,1,0,,,,,,,,,,,,,,,,,,,,,1,,,,,,,,,,,,,,,,,,,,,,,,,,,,,,,,,,,,,,,,,,,,,,84,158626,19,Female,1,2024/03/13_08:45:09,YZ,None,
,,,,,,practice,0,10,3,19,10,N,0,right,3.3272840139979962,1,0,,,,,,,,,,,,,,,,,,,,,1,,,,,,,,,,,,,,,,,,,,,,,,,,,,,,,,,,,,,,,,,,,,,,84,158626,19,Female,1,2024/03/13_08:45:09,YZ,None,
,,,,,,practice,0,10,3,19,11,Q,1,left,1.2405883369938238,1,0,,,,,,,,,,,,,,,,,,,,,1,,,,,,,,,,,,,,,,,,,,,,,,,,,,,,,,,,,,,,,,,,,,,,84,158626,19,Female,1,2024/03/13_08:45:09,YZ,None,
,,,,,,practice,0,10,3,19,12,F,0,right,0.772570878994884,1,0,,,,,,,,,,,,,,,,,,,,,1,,,,,,,,,,,,,,,,,,,,,,,,,,,,,,,,,,,,,,,,,,,,,,84,158626,19,Female,1,2024/03/13_08:45:09,YZ,None,
,,,,,,practice,0,10,3,19,13,N,1,right,1.711996765996446,0,0,,,,,,,,,,,,,,,,,,,,,1,,,,,,,,,,,,,,,,,,,,,,,,,,,,,,,,,,,,,,,,,,,,,,84,158626,19,Female,1,2024/03/13_08:45:09,YZ,None,
,,,,,,practice,0,10,3,19,14,S,0,left,0.8084244810015662,0,0,,,,,,,,,,,,,,,,,,,,,1,,,,,,,,,,,,,,,,,,,,,,,,,,,,,,,,,,,,,,,,,,,,,,84,158626,19,Female,1,2024/03/13_08:45:09,YZ,None,
,,,,,,practice,0,10,3,19,15,N,0,right,0.7365133370039985,1,0,,,,,,,,,,,,,,,,,,,,,1,,,,,,,,,,,,,,,,,,,,,,,,,,,,,,,,,,,,,,,,,,,,,,84,158626,19,Female,1,2024/03/13_08:45:09,YZ,None,
,,,,,,practice,0,10,3,19,16,N,1,left,0.8238282759994036,1,0,,,,,,,,,,,,,,,,,,,,,1,,,,,,,,,,,,,,,,,,,,,,,,,,,,,,,,,,,,,,,,,,,,,,84,158626,19,Female,1,2024/03/13_08:45:09,YZ,None,
,,,,,,practice,0,10,3,19,17,F,0,right,1.717421553999884,1,0,,,,,,,,,,,,,,,,,,,,,1,,,,,,,,,,,,,,,,,,,,,,,,,,,,,,,,,,,,,,,,,,,,,,84,158626,19,Female,1,2024/03/13_08:45:09,YZ,None,
,,,,,,practice,0,10,3,19,18,S,0,left,0.9063019970053574,0,0,,,,,,,,,,,,,,,,,,,,,1,,,,,,,,,,,,,,,,,,,,,,,,,,,,,,,,,,,,,,,,,,,,,,84,158626,19,Female,1,2024/03/13_08:45:09,YZ,None,
