"","PID","Gender","Phase","Block","TrialN","TrialIndex","NbackLevel","ISI","Trial_A_measure","Trial_A_measure_pre","Trial_RT","Trial_ACC","Trial_RT_pre","Trial_ACC_pre","TrialDemandLearning","TrialTransition","TrialDemandLearning_pre","TrialTransition_pre","OnlineRating","OnlineRatingRT","CueLearning","CueMapping","PhaseType","CueLeft","CueDemandLeft","CueRight","CueDemandRight","Choice","ChoiceDemand","TaskDemand","ChoiceRT","OnlineRatingMean","OnlineRatingSD","RTZ","ACCZ","RT_preZ","ACC_preZ","OnlineRatingZ"
"1",90,"Female","TEST",1,1,1,1,120,0.916666666666667,,0.446226247045991,1,,,"easy",,,,51,1.99010784502025,"cue2.png","B","","","","","","","","easy",,41.04,19.1832835392416,0.976325293024781,0.952397137965813,,,0.519202042738182
"2",90,"Female","TEST",1,2,2,3,120,0.786764705882353,0.916666666666667,0.518353965386505,0.882352941176471,0.446226247045991,1,"hard","switch","easy",,52,1.75278734200401,"cue1.png","B","","","","","","","","hard",,41.04,19.1832835392416,1.88585745366522,-0.497810168730048,0.972852182822101,0.960974207418248,0.571330761888602
"3",90,"Female","TEST",1,3,3,3,120,0.875,0.786764705882353,0.497081704248558,0.869565217391304,0.518353965386505,0.882352941176471,"hard","repetition","hard","switch",48,1.9057777459966,"cue1.png","B","","","","","","","","hard",,41.04,19.1832835392416,1.61761375929013,-0.655441397718728,1.89176325660146,-0.483633057410848,0.362815885286923
"4",90,"Female","TEST",1,4,4,3,120,0.830882352941177,0.875,0.610244616916727,0.941176470588235,0.497081704248558,0.869565217391304,"hard","repetition","hard","repetition",33,1.26889569300693,"cue1.png","B","","","","","","","","hard",,41.04,19.1832835392416,3.0446006490949,0.227293484617883,1.62075348707425,-0.640655586196619,-0.419114901969376
"5",90,"Female","TEST",1,5,5,1,120,1,0.830882352941177,0.445804710087427,1,0.610244616916727,0.941176470588235,"easy","switch","hard","repetition",47,1.45377810997888,"cue2.png","B","","","","","","","","easy",,41.04,19.1832835392416,0.971009702437231,0.952397137965813,3.06245517935553,0.2386705750037,0.310687166136503
"6",90,"Female","TEST",1,6,6,3,120,0.0483630952380952,1,0.580348724428664,0.72554347826087,0.445804710087427,1,"hard","switch","easy","switch",55,1.2284847489791,"cue1.png","B","","","","","","","","hard",,41.04,19.1832835392416,2.66761276822818,-2.43076311420374,0.967481778931008,0.960974207418248,0.727716919339862
"7",90,"Female","TEST",1,7,7,3,120,0.0114379084967321,0.0483630952380952,0.432629973347977,0.823529411764706,0.580348724428664,0.72554347826087,"hard","repetition","hard","switch",46,1.28049288000329,"cue1.png","B","","","","","","","","hard",,41.04,19.1832835392416,0.804875973987232,-1.22291382207798,2.68157987510558,-2.40912181664637,0.258558446986083
"8",90,"Female","TEST",1,8,8,1,120,1,0.0114379084967321,0.402341860183779,0.956521739130435,0.432629973347977,0.823529411764706,"easy","switch","hard","repetition",38,1.4113017799973,"cue2.png","B","","","","","","","","easy",,41.04,19.1832835392416,0.422942181517867,0.4164509594043,0.799634912808692,-1.2059366898254,-0.158471306217276
"9",90,"Female","TEST",1,9,9,1,120,1,1,0.434378271258143,1,0.402341860183779,0.956521739130435,"easy","repetition","easy","switch",54,1.41368921400863,"cue2.png","B","","","","","","","","easy",,41.04,19.1832835392416,0.82692205020122,0.952397137965813,0.413762695708068,0.427097609546626,0.675588200189442
"10",90,"Female","TEST",1,10,10,3,120,0.909313725490196,1,0.529579836347535,0.882352941176471,0.434378271258143,1,"hard","switch","easy","repetition",55,1.60411325798486,"cue1.png","B","","","","","","","","hard",,41.04,19.1832835392416,2.02741594054336,-0.497810168730048,0.821908323736957,0.960974207418248,0.727716919339862
"11",90,"Female","TEST",1,11,11,1,120,0.958333333333333,0.909313725490196,0.495200375086152,1,0.529579836347535,0.882352941176471,"easy","switch","hard","switch",31,1.16090817199438,"cue2.png","B","","","","","","","","easy",,41.04,19.1832835392416,1.59389015597469,0.952397137965813,2.03478146619196,-0.483633057410848,-0.523372340270216
"12",90,"Female","TEST",1,12,12,3,120,0.774509803921569,0.958333333333333,0.5198513011729,0.941176470588235,0.495200375086152,1,"hard","switch","easy","switch",54,0.817806323000696,"cue1.png","B","","","","","","","","hard",,41.04,19.1832835392416,1.90473889181878,0.227293484617883,1.59678525072166,0.960974207418248,0.675588200189442
"13",90,"Female","TEST",1,13,13,1,120,0.916666666666667,0.774509803921569,0.447708547049526,1,0.5198513011729,0.941176470588235,"easy","switch","hard","switch",26,1.3127898130042,"cue2.png","B","","","","","","","","easy",,41.04,19.1832835392416,0.995017129616197,0.952397137965813,1.91083939635661,0.2386705750037,-0.784015936022315
"14",90,"Female","TEST",1,14,14,3,120,0.0557598039215687,0.916666666666667,0.516639114475332,0.677749360613811,0.447708547049526,1,"hard","switch","easy","switch",54,1.36859678998007,"cue1.png","B","","","","","","","","hard",,41.04,19.1832835392416,1.86423314486548,-3.01990983254894,0.991736765881848,0.960974207418248,0.675588200189442
"15",90,"Female","TEST",1,15,15,1,120,0.916666666666667,0.0557598039215687,0.453341353215206,1,0.516639114475332,0.677749360613811,"easy","switch","hard","switch",19,0.769224070012569,"cue2.png","B","","","","","","","","easy",,41.04,19.1832835392416,1.06604694284491,0.952397137965813,1.86991596226839,-2.99599351798319,-1.14891697007525
"16",90,"Female","TEST",1,16,16,1,120,0.958333333333333,0.916666666666667,0.43457855569305,1,0.453341353215206,1,"easy","repetition","easy","switch",55,0.905412749998504,"cue2.png","B","","","","","","","","easy",,41.04,19.1832835392416,0.829447641458165,0.952397137965813,1.06349902429213,0.960974207418248,0.727716919339862
"17",90,"Female","TEST",1,17,17,3,120,0.808035714285714,0.958333333333333,0.501025823132791,0.831521739130435,0.43457855569305,1,"hard","switch","easy","repetition",62,1.20449906797148,"cue1.png","B","","","","","","","","hard",,41.04,19.1832835392416,1.66734918768209,-1.12439430396005,0.824459958384173,0.960974207418248,1.0926179533928
"18",90,"Female","TEST",1,18,18,3,120,0.751116071428571,0.808035714285714,0.327844022699814,0.9375,0.501025823132791,0.831521739130435,"hard","repetition","hard","switch",18,0.778400608018273,"cue1.png","B","","","","","","","","hard",,41.04,19.1832835392416,-0.516477235161102,0.181974506283637,1.67100177722415,-1.10779760933429,-1.20104568922567
"19",90,"Female","TEST",1,19,19,1,120,0.958333333333333,0.751116071428571,0.378672043827069,1,0.327844022699814,0.9375,"easy","switch","hard","repetition",5,0.748433594999369,"cue2.png","B","","","","","","","","easy",,41.04,19.1832835392416,0.124465261573644,0.952397137965813,-0.535343825497082,0.193526597977791,-1.87871903818113
"20",90,"Female","TEST",1,20,20,1,120,0.985294117647059,0.958333333333333,0.454614784751902,0.81074168797954,0.378672043827069,1,"easy","repetition","easy","switch",57,1.42995196100674,"cue2.png","B","","","","","","","","easy",,41.04,19.1832835392416,1.08210494334246,-1.38054505106666,0.112207941656079,0.960974207418248,0.831974357640702
"21",90,"Female","TEST",1,21,21,1,120,0.958333333333333,0.985294117647059,0.384423826824945,1,0.454614784751902,0.81074168797954,"easy","repetition","easy","repetition",62,1.2211275039881,"cue2.png","B","","","","","","","","easy",,41.04,19.1832835392416,0.196995375348979,0.952397137965813,1.0797226116687,-1.36295921861117,1.0926179533928
"22",90,"Female","TEST",1,22,22,3,120,0.882352941176471,0.958333333333333,0.438830290608483,0.941176470588235,0.384423826824945,1,"hard","switch","easy","repetition",59,1.02879641600884,"cue1.png","B","","","","","","","","hard",,41.04,19.1832835392416,0.883062114965383,0.227293484617883,0.185485971411181,0.960974207418248,0.936231795941541
"23",90,"Female","TEST",1,23,23,1,120,0.715686274509804,0.882352941176471,0.347897895728238,0.838874680306905,0.438830290608483,0.941176470588235,"easy","switch","hard","switch",24,0.6044556540146,"cue2.png","B","","","","","","","","easy",,41.04,19.1832835392416,-0.263597442421198,-1.03375634729156,0.878627293584219,0.2386705750037,-0.888273374323155
"24",90,"Female","TEST",1,24,24,3,120,0.75297619047619,0.715686274509804,0.341733200906839,0.831521739130435,0.347897895728238,0.838874680306905,"hard","switch","easy","switch",50,1.02995172899682,"cue1.png","B","","","","","","","","hard",,41.04,19.1832835392416,-0.341334383636016,-1.12439430396005,-0.27985638707588,-1.01750965528247,0.467073323587762
"25",90,"Female","TEST",1,25,25,3,120,0.0764705882352941,0.75297619047619,0.346722123785066,0.705882352941176,0.341733200906839,0.831521739130435,"hard","repetition","hard","switch",21,0.52095635200385,"cue1.png","B","","","","","","","","hard",,41.04,19.1832835392416,-0.278423953234212,-2.67312112877384,-0.358394936030248,-1.10779760933429,-1.04465953177441
"26",90,"Female","TEST",1,26,26,1,120,0.928571428571429,0.0764705882352941,0.395292945264373,1,0.346722123785066,0.705882352941176,"easy","switch","hard","repetition",5,0.738193585973931,"cue2.png","B","","","","","","","","easy",,41.04,19.1832835392416,0.334055204855845,0.952397137965813,-0.294835785893394,-2.65054395465449,-1.87871903818113
"27",90,"Female","TEST",1,27,27,1,120,0.939732142857143,0.928571428571429,0.398777828912463,0.9375,0.395292945264373,1,"easy","repetition","easy","switch",53,0.471260649996111,"cue2.png","B","","","","","","","","easy",,41.04,19.1832835392416,0.377999666526799,0.181974506283637,0.323959134378268,0.960974207418248,0.623459481039022
"28",90,"Female","TEST",1,28,28,3,120,0.205882352941176,0.939732142857143,0.309804688363908,0.780051150895141,0.398777828912463,0.9375,"hard","switch","easy","repetition",51,1.36148890398908,"cue1.png","B","","","","","","","","hard",,41.04,19.1832835392416,-0.743953649396101,-1.75886000063949,0.368356742520324,0.193526597977791,0.519202042738182
"29",90,"Female","TEST",1,29,29,1,120,0.875,0.205882352941176,0.397207921524698,0.91304347826087,0.309804688363908,0.780051150895141,"easy","switch","hard","switch",26,1.23375541801215,"cue2.png","B","","","","","","","","easy",,41.04,19.1832835392416,0.35820309883755,-0.119495219157214,-0.765165930871535,-1.73981328769702,-0.784015936022315
"30",90,"Female","TEST",1,30,30,1,120,0.985294117647059,0.875,0.425214054390697,0.941176470588235,0.397207921524698,0.91304347826087,"easy","repetition","easy","switch",62,1.73930583000765,"cue2.png","B","","","","","","","","easy",,41.04,19.1832835392416,0.711361068101729,0.227293484617883,0.348356036597331,-0.106778988324996,1.0926179533928
"31",90,"Female","TEST",1,31,31,3,120,0.656862745098039,0.985294117647059,0.35231164643546,0.823529411764706,0.425214054390697,0.941176470588235,"hard","switch","easy","repetition",49,0.810847783985082,"cue1.png","B","","","","","","","","hard",,41.04,19.1832835392416,-0.207939946112828,-1.22291382207798,0.705155699977872,0.2386705750037,0.414944604437342
"32",90,"Female","TEST",1,32,32,1,120,0.882352941176471,0.656862745098039,0.37768627373937,0.941176470588235,0.35231164643546,0.823529411764706,"easy","switch","hard","switch",22,0.413844619004522,"cue2.png","B","","","","","","","","easy",,41.04,19.1832835392416,0.11203467845819,0.227293484617883,-0.223624961833498,-1.2059366898254,-0.992530812623995
"33",90,"Female","TEST",1,33,33,3,120,0.742647058823529,0.882352941176471,0.285298787607842,0.823529411764706,0.37768627373937,0.941176470588235,"hard","switch","easy","switch",60,0.762888211000245,"cue1.png","B","","","","","","","","hard",,41.04,19.1832835392416,-1.05297361253813,-1.22291382207798,0.0996491768617891,0.2386705750037,0.988360515091961
"34",90,"Female","TEST",1,34,34,3,120,0.0557598039215687,0.742647058823529,0.25867687847526,0.764705882352941,0.285298787607842,0.823529411764706,"hard","repetition","hard","switch",23,1.2711212959839,"cue1.png","B","","","","","","","","hard",,41.04,19.1832835392416,-1.38867648919671,-1.94801747542591,-1.07737244586728,-1.2059366898254,-0.940402093473575
"35",90,"Female","TEST",1,35,35,3,120,0.75297619047619,0.0557598039215687,0.339805761226506,0.831521739130435,0.25867687847526,0.764705882352941,"hard","repetition","hard","repetition",6,0.485664640000323,"cue1.png","B","","","","","","","","hard",,41.04,19.1832835392416,-0.36563944162609,-1.12439430396005,-1.41653702322971,-1.92824032223994,-1.82659031903071
"36",90,"Female","TEST",1,36,36,1,120,0.875,0.75297619047619,0.388436501302868,1,0.339805761226506,0.831521739130435,"easy","switch","hard","repetition",12,0.461333240993554,"cue2.png","B","","","","","","","","easy",,41.04,19.1832835392416,0.247595291328883,0.952397137965813,-0.3829506229014,-1.10779760933429,-1.51381800412819
"37",90,"Female","TEST",1,37,37,3,120,0.715686274509804,0.875,0.252795864431866,0.882352941176471,0.388436501302868,1,"hard","switch","easy","switch",66,0.728611754981102,"cue1.png","B","","","","","","","","hard",,41.04,19.1832835392416,-1.46283620938074,-0.497810168730048,0.236607663571576,0.960974207418248,1.30113282999448
"38",90,"Female","TEST",1,38,38,1,120,1,0.715686274509804,0.437104725953364,1,0.252795864431866,0.882352941176471,"easy","switch","hard","switch",40,1.06178419297794,"cue2.png","B","","","","","","","","easy",,41.04,19.1832835392416,0.861302705612023,0.952397137965813,-1.49146146356781,-0.483633057410848,-0.0542138679164367
"39",90,"Female","TEST",1,39,39,1,120,0.928571428571429,1,0.370048023094899,0.956521739130435,0.437104725953364,1,"easy","repetition","easy","switch",64,0.820698425988667,"cue2.png","B","","","","","","","","easy",,41.04,19.1832835392416,0.015716164965495,0.4164509594043,0.856643505567727,0.960974207418248,1.19687539169364
"40",90,"Female","TEST",1,40,40,3,120,0.191176470588235,0.928571428571429,0.346765599138135,0.721227621483376,0.370048023094899,0.956521739130435,"hard","switch","easy","repetition",65,0.647890166001162,"cue1.png","B","","","","","","","","hard",,41.04,19.1832835392416,-0.277875728048092,-2.48396365398742,0.00233744618468823,0.427097609546626,1.24900411084406
"41",90,"Female","TEST",1,41,41,3,120,0.656862745098039,0.191176470588235,0.283009259694549,0.823529411764706,0.346765599138135,0.721227621483376,"hard","repetition","hard","switch",20,0.84514038998168,"cue1.png","B","","","","","","","","hard",,41.04,19.1832835392416,-1.08184461134046,-1.22291382207798,-0.294281907519158,-2.46211692011157,-1.09678825092483
"42",90,"Female","TEST",1,42,42,1,120,0.916666666666667,0.656862745098039,0.357263369784367,1,0.283009259694549,0.823529411764706,"easy","switch","hard","repetition",26,1.00373239198234,"cue2.png","B","","","","","","","","easy",,41.04,19.1832835392416,-0.14549860261764,0.952397137965813,-1.10654115661616,-1.2059366898254,-0.784015936022315
"43",90,"Female","TEST",1,43,43,3,120,0.0114379084967321,0.916666666666667,0.248520293500571,0.780051150895141,0.357263369784367,1,"hard","switch","easy","switch",62,1.194275759015,"cue1.png","B","","","","","","","","hard",,41.04,19.1832835392416,-1.51675125558744,-1.75886000063949,-0.160539735733316,0.960974207418248,1.0926179533928
"44",90,"Female","TEST",1,44,44,1,120,0.892857142857143,0.0114379084967321,0.365404653392034,1,0.248520293500571,0.780051150895141,"easy","switch","hard","switch",15,0.935062203003326,"cue2.png","B","","","","","","","","easy",,41.04,19.1832835392416,-0.0428368320745841,0.952397137965813,-1.5459324709127,-1.73981328769702,-1.35743184667693
"45",90,"Female","TEST",1,45,45,3,120,0.75297619047619,0.892857142857143,0.395923433726156,0.831521739130435,0.365404653392034,1,"hard","switch","easy","switch",65,0.755025558988564,"cue1.png","B","","","","","","","","hard",,41.04,19.1832835392416,0.342005678627901,-1.12439430396005,-0.0568193376119533,0.960974207418248,1.24900411084406
"46",90,"Female","TEST",1,46,46,3,120,0.688725490196078,0.75297619047619,0.34993658500025,0.81074168797954,0.395923433726156,0.831521739130435,"hard","repetition","hard","switch",11,1.18911231702077,"cue1.png","B","","","","","","","","hard",,41.04,19.1832835392416,-0.237889524562295,-1.38054505106666,0.331991591840563,-1.10779760933429,-1.56594672327861
"47",90,"Female","TEST",1,47,47,1,120,0.882352941176471,0.688725490196078,0.380877166476516,0.941176470588235,0.34993658500025,0.81074168797954,"easy","switch","hard","repetition",28,1.46016991999932,"cue2.png","B","","","","","","","","easy",,41.04,19.1832835392416,0.15227190808865,0.227293484617883,-0.253883374326422,-1.36295921861117,-0.679758497721475
"48",90,"Female","TEST",1,48,48,1,120,0.916666666666667,0.882352941176471,0.372298215737354,1,0.380877166476516,0.941176470588235,"easy","repetition","easy","switch",62,1.05182630001218,"cue2.png","B","","","","","","","","easy",,41.04,19.1832835392416,0.0440911451123323,0.952397137965813,0.140301324730423,0.2386705750037,1.0926179533928
"49",90,"Female","TEST",1,49,49,3,120,0.656862745098039,0.916666666666667,0.326062985130272,0.823529411764706,0.372298215737354,1,"hard","switch","easy","repetition",60,0.761818254977698,"cue1.png","B","","","","","","","","hard",,41.04,19.1832835392416,-0.538936159220778,-1.22291382207798,0.0310050234332359,0.960974207418248,0.988360515091961
"50",90,"Female","TEST",1,50,50,1,120,0.928571428571429,0.656862745098039,0.383559231305971,1,0.326062985130272,0.823529411764706,"easy","switch","hard","switch",23,1.12808433600003,"cue2.png","B","","","","","","","","easy",,41.04,19.1832835392416,0.186092806287529,0.952397137965813,-0.55803434147518,-1.2059366898254,-0.940402093473575
"51",108,"Female","TEST",1,1,1,1,1250,1,,0.464299288899929,1,,,"easy",,,,22,0.785722811997402,"cue2.png","B","","","","","","","","easy",,43.8,14.3711729599535,-0.299195525988915,0.964834096819299,,,-1.51692558851999
"52",108,"Female","TEST",1,2,2,3,1250,0.916666666666667,1,0.506391803700535,1,0.464299288899929,1,"hard","switch","easy",,54,0.952883011996164,"cue1.png","B","","","","","","","","hard",,43.8,14.3711729599535,0.508776370121254,0.964834096819299,-0.304579875359749,0.975457504463052,0.709754174445133
"53",108,"Female","TEST",1,3,3,3,1250,0.547619047619048,0.916666666666667,0.484167806201731,0.714285714285714,0.506391803700535,1,"hard","repetition","hard","switch",39,1.34673274800298,"cue1.png","B","","","","","","","","hard",,43.8,14.3711729599535,0.0821835309118023,-1.53827322983454,0.505608355395402,0.975457504463052,-0.334001964444768
"54",108,"Female","TEST",1,4,4,3,1250,0.690476190476191,0.547619047619048,0.442538935302582,0.857142857142857,0.484167806201731,0.714285714285714,"hard","repetition","hard","repetition",60,0.554903354000999,"cue1.png","B","","","","","","","","hard",,43.8,14.3711729599535,-0.716888653599877,-0.286719566507622,0.0778453362658407,-1.51556762626598,1.12725663000109
"55",108,"Female","TEST",1,5,5,1,1250,0.916666666666667,0.690476190476191,0.42361790540017,1,0.442538935302582,0.857142857142857,"easy","switch","hard","repetition",19,1.38766905300145,"cue2.png","B","","","","","","","","easy",,43.8,14.3711729599535,-1.08008055313422,0.964834096819299,-0.723418770235824,-0.270055060901465,-1.72567681629797
"56",108,"Female","TEST",1,6,6,3,1250,0.833333333333333,0.916666666666667,0.475736150296871,0.857142857142857,0.42361790540017,1,"hard","switch","easy","switch",56,1.5856798820023,"cue1.png","B","","","","","","","","hard",,43.8,14.3711729599535,-0.0796633209826419,-0.286719566507622,-1.08760693559771,0.975457504463052,0.848921659630454
"57",108,"Female","TEST",1,7,7,3,1250,0.75,0.833333333333333,0.477610254801402,0.714285714285714,0.475736150296871,0.857142857142857,"hard","repetition","hard","switch",36,1.28058189600415,"cue1.png","B","","","","","","","","hard",,43.8,14.3711729599535,-0.0436896145598242,-1.53827322983454,-0.0844454751113053,-0.270055060901465,-0.542753192222749
"58",108,"Female","TEST",1,8,8,1,1250,1,0.75,0.570623317301215,1,0.477610254801402,0.714285714285714,"easy","switch","hard","repetition",57,0.953977570999996,"cue2.png","B","","","","","","","","easy",,43.8,14.3711729599535,1.7417095431523,0.964834096819299,-0.0483730897960199,-1.51556762626598,0.918505402223114
"59",108,"Female","TEST",1,9,9,1,1250,0.75,1,0.500241062100395,0.714285714285714,0.570623317301215,1,"easy","repetition","easy","switch",33,0.79817827999068,"cue2.png","B","","","","","","","","easy",,43.8,14.3711729599535,0.39071199747233,-1.53827322983454,1.7419235674794,0.975457504463052,-0.751504420000729
"60",108,"Female","TEST",1,10,10,3,1250,1,0.75,0.471640872697753,1,0.500241062100395,0.714285714285714,"hard","switch","easy","repetition",56,0.570792655998957,"cue1.png","B","","","","","","","","hard",,43.8,14.3711729599535,-0.158272765500996,0.964834096819299,0.387220122274722,-1.51556762626598,0.848921659630454
"61",108,"Female","TEST",1,11,11,1,1250,1,1,0.498558846200467,1,0.471640872697753,1,"easy","switch","hard","switch",39,0.636240763007663,"cue2.png","B","","","","","","","","easy",,43.8,14.3711729599535,0.35842162050698,0.964834096819299,-0.163270551925966,0.975457504463052,-0.334001964444768
"62",108,"Female","TEST",1,12,12,3,1250,0.547619047619048,1,0.494574922598258,0.714285714285714,0.498558846200467,1,"hard","switch","easy","switch",75,1.8140570250107,"cue1.png","B","","","","","","","","hard",,43.8,14.3711729599535,0.281949632029151,-1.53827322983454,0.354841170098387,0.975457504463052,2.171012768891
"63",108,"Female","TEST",1,13,13,1,1250,1,0.547619047619048,0.576735044401721,1,0.494574922598258,0.714285714285714,"easy","switch","hard","switch",27,1.26909709000029,"cue2.png","B","","","","","","","","easy",,43.8,14.3711729599535,1.85902502685042,0.964834096819299,0.278159412545358,-1.51556762626598,-1.16900687555669
"64",108,"Female","TEST",1,14,14,3,1250,0.690476190476191,1,0.53230978139909,0.857142857142857,0.576735044401721,1,"hard","switch","easy","switch",63,2.38404503300262,"cue1.png","B","","","","","","","","hard",,43.8,14.3711729599535,1.00627569235564,-0.286719566507622,1.85956085738411,0.975457504463052,1.33600785777907
"65",108,"Female","TEST",1,15,15,1,1250,1,0.690476190476191,0.483504377400095,1,0.53230978139909,0.857142857142857,"easy","switch","hard","switch",32,0.652752383990446,"cue2.png","B","","","","","","","","easy",,43.8,14.3711729599535,0.0694489193227605,0.964834096819299,1.00447235997707,-0.270055060901465,-0.821088162593389
"66",108,"Female","TEST",1,16,16,1,1250,1,1,0.447340148301737,1,0.483504377400095,1,"easy","repetition","easy","switch",19,1.15491777499847,"cue2.png","B","","","","","","","","easy",,43.8,14.3711729599535,-0.624728677201888,0.964834096819299,0.0650757925696414,0.975457504463052,-1.72567681629797
"67",108,"Female","TEST",1,17,17,3,1250,0.964285714285714,1,0.437847971600422,0.857142857142857,0.447340148301737,1,"hard","switch","easy","repetition",59,1.3992851160001,"cue1.png","B","","","","","","","","hard",,43.8,14.3711729599535,-0.806932378831603,-0.286719566507622,-0.631005991296613,0.975457504463052,1.05767288740843
"68",108,"Female","TEST",1,18,18,3,1250,0.833333333333333,0.964285714285714,0.558069048113086,0.757142857142857,0.437847971600422,0.857142857142857,"hard","repetition","hard","switch",60,1.16951362699911,"cue1.png","B","","","","","","","","hard",,43.8,14.3711729599535,1.5007285343373,-1.16280713083647,-0.813709492954411,-0.270055060901465,1.12725663000109
"69",108,"Female","TEST",1,19,19,1,1250,1,0.833333333333333,0.516497321896895,1,0.558069048113086,0.757142857142857,"easy","switch","hard","repetition",36,1.5187718780071,"cue2.png","B","","","","","","","","easy",,43.8,14.3711729599535,0.702753250261745,0.964834096819299,1.50028152755529,-1.14191385665663,-0.542753192222749
"70",108,"Female","TEST",1,20,20,1,1250,0.75,1,0.50946387219883,0.714285714285714,0.516497321896895,1,"easy","repetition","easy","switch",29,1.36482021500706,"cue2.png","B","","","","","","","","easy",,43.8,14.3711729599535,0.567745168286582,-1.53827322983454,0.7001173303796,0.975457504463052,-1.02983939037137
"71",108,"Female","TEST",1,21,21,1,1250,0.916666666666667,0.75,0.559863763199246,1,0.50946387219883,0.714285714285714,"easy","repetition","easy","repetition",25,1.5474912179925,"cue2.png","B","","","","","","","","easy",,43.8,14.3711729599535,1.53517834941752,0.964834096819299,0.564738909917572,-1.51556762626598,-1.30817436074201
"72",108,"Female","TEST",1,22,22,3,1250,0.75,0.916666666666667,0.479427252199093,0.714285714285714,0.559863763199246,1,"hard","switch","easy","repetition",57,1.55628989299294,"cue1.png","B","","","","","","","","hard",,43.8,14.3711729599535,-0.00881208729413377,-1.53827322983454,1.53482584136627,0.975457504463052,0.918505402223114
"73",108,"Female","TEST",1,23,23,1,1250,1,0.75,0.495825699200213,1,0.479427252199093,0.714285714285714,"easy","switch","hard","switch",38,1.84924719200353,"cue2.png","B","","","","","","","","easy",,43.8,14.3711729599535,0.305958469407465,0.964834096819299,-0.0133998905491846,-1.51556762626598,-0.403585707037428
"74",108,"Female","TEST",1,24,24,3,1250,0.833333333333333,1,0.643366956998943,0.857142857142857,0.495825699200213,1,"hard","switch","easy","switch",54,1.06549473600171,"cue1.png","B","","","","","","","","hard",,43.8,14.3711729599535,3.13803420502975,-0.286719566507622,0.302234108177312,0.975457504463052,0.709754174445133
"75",108,"Female","TEST",1,25,25,3,1250,0.75,0.833333333333333,0.532446802599588,0.714285714285714,0.643366956998943,0.857142857142857,"hard","repetition","hard","switch",36,2.98387602699222,"cue1.png","B","","","","","","","","hard",,43.8,14.3711729599535,1.0089058340732,-1.53827322983454,3.14207846496116,-0.270055060901465,-0.542753192222749
"76",108,"Female","TEST",1,26,26,1,1250,0.916666666666667,0.75,0.471961632801685,1,0.532446802599588,0.714285714285714,"easy","switch","hard","repetition",57,2.20387937499618,"cue2.png","B","","","","","","","","easy",,43.8,14.3711729599535,-0.152115729016049,0.964834096819299,1.00710971639385,-1.51556762626598,0.918505402223114
"77",108,"Female","TEST",1,27,27,1,1250,1,0.916666666666667,0.49844901579927,1,0.471961632801685,1,"easy","repetition","easy","switch",40,1.25369018300262,"cue2.png","B","","","","","","","","easy",,43.8,14.3711729599535,0.356313410105998,0.964834096819299,-0.157096626173783,0.975457504463052,-0.264418221852108
"78",108,"Female","TEST",1,28,28,3,1250,0.75,1,0.474586718199134,0.714285714285714,0.49844901579927,1,"hard","switch","easy","repetition",56,1.66351200100326,"cue1.png","B","","","","","","","","hard",,43.8,14.3711729599535,-0.101726835977106,-1.53827322983454,0.352727176699539,0.975457504463052,0.848921659630454
"79",108,"Female","TEST",1,29,29,1,1250,1,0.75,0.476216157601448,1,0.474586718199134,0.714285714285714,"easy","switch","hard","switch",38,1.3777596539876,"cue2.png","B","","","","","","","","easy",,43.8,14.3711729599535,-0.0704495114998133,0.964834096819299,-0.106569512177029,-1.51556762626598,-0.403585707037428
"80",108,"Female","TEST",1,30,30,1,1250,0.833333333333333,1,0.524050655595784,0.857142857142857,0.476216157601448,1,"easy","repetition","easy","switch",39,0.919378799997503,"cue2.png","B","","","","","","","","easy",,43.8,14.3711729599535,0.847740580658922,-0.286719566507622,-0.0752063913766527,0.975457504463052,-0.334001964444768
"81",108,"Female","TEST",1,31,31,3,1250,0.547619047619048,0.833333333333333,0.554853647401615,0.714285714285714,0.524050655595784,0.857142857142857,"hard","switch","easy","repetition",38,0.898721664998448,"cue1.png","B","","","","","","","","hard",,43.8,14.3711729599535,1.43900845365531,-1.53827322983454,0.845502373178643,-0.270055060901465,-0.403585707037428
"82",108,"Female","TEST",1,32,32,1,1250,1,0.547619047619048,0.470904589198472,1,0.554853647401615,0.714285714285714,"easy","switch","hard","switch",60,1.10529186500935,"cue2.png","B","","","","","","","","easy",,43.8,14.3711729599535,-0.172405833525262,0.964834096819299,1.43839214351786,-1.51556762626598,1.12725663000109
"83",108,"Female","TEST",1,33,33,3,1250,0.547619047619048,1,0.456807207598467,0.714285714285714,0.470904589198472,1,"hard","switch","easy","switch",56,1.03950063799857,"cue1.png","B","","","","","","","","hard",,43.8,14.3711729599535,-0.443007107777944,-1.53827322983454,-0.177442388140626,0.975457504463052,0.848921659630454
"84",108,"Female","TEST",1,34,34,3,1250,0.214285714285714,0.547619047619048,0.556851742396248,0.857142857142857,0.456807207598467,0.714285714285714,"hard","repetition","hard","switch",36,0.931554893002613,"cue1.png","B","","","","","","","","hard",,43.8,14.3711729599535,1.4773621754291,-0.286719566507622,-0.448785944373646,-1.51556762626598,-0.542753192222749
"85",108,"Female","TEST",1,35,35,3,1250,1,0.214285714285714,0.441210329701425,1,0.556851742396248,0.857142857142857,"hard","repetition","hard","repetition",57,1.38764872700267,"cue1.png","B","","","","","","","","hard",,43.8,14.3711729599535,-0.742391429849626,0.964834096819299,1.47685107276576,-0.270055060901465,0.918505402223114
"86",108,"Female","TEST",1,36,36,1,1250,0.833333333333333,1,0.539724516699789,0.857142857142857,0.441210329701425,1,"easy","switch","hard","repetition",39,0.735149291998823,"cue2.png","B","","","","","","","","easy",,43.8,14.3711729599535,1.14860260649798,-0.286719566507622,-0.748991502738776,0.975457504463052,-0.334001964444768
"87",108,"Female","TEST",1,37,37,3,1250,0.75,0.833333333333333,0.391342094001528,0.614285714285714,0.539724516699789,0.857142857142857,"hard","switch","easy","switch",36,1.59020941201015,"cue1.png","B","","","","","","","","hard",,43.8,14.3711729599535,-1.69961941076215,-2.41436079416339,1.14718968877646,-0.270055060901465,-0.542753192222749
"88",108,"Female","TEST",1,38,38,1,1250,0.142857142857143,0.75,0.472004240400565,0.571428571428571,0.391342094001528,0.614285714285714,"easy","switch","hard","switch",36,0.872339759007446,"cue2.png","B","","","","","","","","easy",,43.8,14.3711729599535,-0.151297870006704,-2.78982689316147,-1.70884524024933,-2.38742642202114,-0.542753192222749
"89",108,"Female","TEST",1,39,39,1,1250,0.964285714285714,0.142857142857143,0.537385840102797,0.857142857142857,0.472004240400565,0.571428571428571,"easy","repetition","easy","switch",36,0.863568910004687,"cue2.png","B","","","","","","","","easy",,43.8,14.3711729599535,1.10371137171643,-0.286719566507622,-0.156276523708612,-2.7610801916305,-0.542753192222749
"90",108,"Female","TEST",1,40,40,3,1250,0.916666666666667,0.964285714285714,0.611620528403728,1,0.537385840102797,0.857142857142857,"hard","switch","easy","repetition",59,2.44908937500441,"cue1.png","B","","","","","","","","hard",,43.8,14.3711729599535,2.5286569267106,0.964834096819299,1.10217531357458,-0.270055060901465,1.05767288740843
"91",108,"Female","TEST",1,41,41,3,1250,0.964285714285714,0.916666666666667,0.519997746801528,0.857142857142857,0.611620528403728,1,"hard","repetition","hard","switch",31,0.919881224996061,"cue1.png","B","","","","","","","","hard",,43.8,14.3711729599535,0.769944411464266,-0.286719566507622,2.53102961368222,0.975457504463052,-0.890671905186049
"92",108,"Female","TEST",1,42,42,1,1250,0.690476190476191,0.964285714285714,0.508065453101881,0.857142857142857,0.519997746801528,0.857142857142857,"easy","switch","hard","repetition",40,1.8786031500058,"cue2.png","B","","","","","","","","easy",,43.8,14.3711729599535,0.540902311910068,-0.286719566507622,0.767492802570073,-0.270055060901465,-0.264418221852108
"93",108,"Female","TEST",1,43,43,3,1250,1,0.690476190476191,0.524776391399791,1,0.508065453101881,0.857142857142857,"hard","switch","easy","switch",62,1.65336077401298,"cue1.png","B","","","","","","","","hard",,43.8,14.3711729599535,0.861671184150231,0.964834096819299,0.537822421335726,-0.270055060901465,1.26642411518641
"94",108,"Female","TEST",1,44,44,1,1250,0.833333333333333,1,0.626978339397465,0.857142857142857,0.524776391399791,1,"easy","switch","hard","switch",30,1.35429744700377,"cue2.png","B","","","","","","","","easy",,43.8,14.3711729599535,2.82345232507279,-0.286719566507622,0.85947118948316,0.975457504463052,-0.960255647778709
"95",108,"Female","TEST",1,45,45,3,1250,0.916666666666667,0.833333333333333,0.459149505702953,1,0.626978339397465,0.857142857142857,"hard","switch","easy","switch",63,2.80518455899437,"cue1.png","B","","","","","","","","hard",,43.8,14.3711729599535,-0.398046357637411,0.964834096819299,2.82663366053543,-0.270055060901465,1.33600785777907
"96",108,"Female","TEST",1,46,46,3,1250,0.178571428571429,0.916666666666667,0.466041186498478,0.714285714285714,0.459149505702953,1,"hard","repetition","hard","switch",56,1.41848284199659,"cue1.png","B","","","","","","","","hard",,43.8,14.3711729599535,-0.265759550205655,-1.53827322983454,-0.403701863126325,0.975457504463052,0.848921659630454
"97",108,"Female","TEST",1,47,47,1,1250,1,0.178571428571429,0.498739882801601,1,0.466041186498478,0.714285714285714,"easy","switch","hard","repetition",34,1.23003575101029,"cue2.png","B","","","","","","","","easy",,43.8,14.3711729599535,0.361896644191751,0.964834096819299,-0.271052181891908,-1.51556762626598,-0.681920677408069
"98",108,"Female","TEST",1,48,48,1,1250,0.964285714285714,1,0.512042093797936,0.857142857142857,0.498739882801601,1,"easy","repetition","easy","switch",12,2.18042697200144,"cue2.png","B","","","","","","","","easy",,43.8,14.3711729599535,0.617234503953255,-0.286719566507622,0.358325726064443,0.975457504463052,-2.21276301444659
"99",108,"Female","TEST",1,49,49,3,1250,0.5,0.964285714285714,0.524059557498549,1,0.512042093797936,0.857142857142857,"hard","switch","easy","repetition",59,1.03910503498628,"cue1.png","B","","","","","","","","hard",,43.8,14.3711729599535,0.847911453967171,0.964834096819299,0.614363998980773,-0.270055060901465,1.05767288740843
"100",108,"Female","TEST",1,50,50,1,1250,1,0.5,0.394666801503627,1,0.524059557498549,1,"easy","switch","hard","switch",39,1.80839540300076,"cue2.png","B","","","","","","","","easy",,43.8,14.3711729599535,-1.63580117045964,0.964834096819299,0.845673715206702,0.975457504463052,-0.334001964444768
"101",70,"Female","TEST",1,1,1,1,361,0.958333333333333,,0.510319373295608,0.944444444444444,,,"easy",,,,31,1.63482105200819,"cue2.png","B","","","","","","","","easy",,28.74,26.5343904688052,0.0905483643116991,0.6389269702861,,,0.0851724859727583
"102",70,"Female","TEST",1,2,2,3,361,0.833333333333333,0.958333333333333,0.41782008521633,0.777777777777778,0.510319373295608,0.944444444444444,"hard","switch","easy",,54,1.00451887400413,"cue1.png","B","","","","","","","","hard",,28.74,26.5343904688052,-1.0258622766964,-0.171659072158782,0.0999727397703356,0.652840721829092,0.951972121978705
"103",70,"Female","TEST",1,3,3,3,361,0.791666666666667,0.833333333333333,0.420176052143298,0.388888888888889,0.41782008521633,0.777777777777778,"hard","repetition","hard","switch",54,1.72884437500034,"cue1.png","B","","","","","","","","hard",,28.74,26.5343904688052,-0.997427176256748,-2.06302650453017,-1.00773181330012,-0.152808940212251,0.951972121978705
"104",70,"Female","TEST",1,4,4,3,361,0.868055555555555,0.791666666666667,0.424194370438272,0.805555555555556,0.420176052143298,0.388888888888889,"hard","repetition","hard","repetition",33,1.96476746599365,"cue1.png","B","","","","","","","","hard",,28.74,26.5343904688052,-0.948928497006144,-0.0365613984179685,-0.979518457867052,-2.03265815164205,0.16054636736458
"105",70,"Female","TEST",1,5,5,1,361,0.95,0.868055555555555,0.482431147278274,1,0.424194370438272,0.805555555555556,"easy","switch","hard","repetition",34,2.38914066099096,"cue2.png","B","","","","","","","","easy",,28.74,26.5343904688052,-0.246045710422224,0.909122317767728,-0.931397985121211,-0.0185339965386938,0.19823330806049
"106",70,"Female","TEST",1,6,6,3,361,0.569230769230769,0.95,0.521738609667712,0.67948717948718,0.482431147278274,1,"hard","switch","easy","switch",26,1.32856158800132,"cue1.png","B","","","","","","","","hard",,28.74,26.5343904688052,0.228371662876736,-0.649696994626277,-0.233996478565517,0.921390609176206,-0.103262217506795
"107",70,"Female","TEST",1,7,7,3,361,0.75,0.569230769230769,0.479749085751488,0.583333333333333,0.521738609667712,0.67948717948718,"hard","repetition","hard","switch",9,1.28005515199038,"cue1.png","B","","","","","","","","hard",,28.74,26.5343904688052,-0.278416576085269,-1.11734278834448,0.236721253025121,-0.627935663980222,-0.743940209337277
"108",70,"Female","TEST",1,8,8,1,361,1,0.75,0.513963570498163,1,0.479749085751488,0.583333333333333,"easy","switch","hard","repetition",2,0.954062418997637,"cue2.png","B","","","","","","","","easy",,28.74,26.5343904688052,0.134531627527489,0.909122317767728,-0.266114907004544,-1.09273354592715,-1.00774879420865
"109",70,"Female","TEST",1,9,9,1,361,1,1,0.528182915108725,1,0.513963570498163,1,"easy","repetition","easy","switch",18,1.24810993499705,"cue2.png","B","","","","","","","","easy",,28.74,26.5343904688052,0.306150544397277,0.909122317767728,0.143613008980805,0.921390609176206,-0.404757743074081
"110",70,"Female","TEST",1,10,10,3,361,0.229166666666667,1,0.526073300372445,0.361111111111111,0.528182915108725,1,"hard","switch","easy","repetition",1,1.32802540400007,"cue1.png","B","","","","","","","","hard",,28.74,26.5343904688052,0.280688766378066,-2.19812417827099,0.313893592689704,0.921390609176206,-1.04543573490456
"111",70,"Female","TEST",1,11,11,1,361,0.95,0.229166666666667,0.602777008333457,1,0.526073300372445,0.361111111111111,"easy","switch","hard","switch",51,1.68038478298695,"cue2.png","B","","","","","","","","easy",,28.74,26.5343904688052,1.20645627822159,0.909122317767728,0.28863037286256,-2.16693309531561,0.838911299890972
"112",70,"Female","TEST",1,12,12,3,361,0.5,0.95,0.398851882067781,0.666666666666667,0.602777008333457,1,"hard","switch","easy","switch",0,1.8976780219964,"cue1.png","B","","","","","","","","hard",,28.74,26.5343904688052,-1.25479705312078,-0.712049767122037,1.20717848615158,0.921390609176206,-1.08312267560047
"113",70,"Female","TEST",1,13,13,1,361,0.85,0.5,0.467686564625183,0.888888888888889,0.398851882067781,0.666666666666667,"easy","switch","hard","switch",51,1.19857451600546,"cue2.png","B","","","","","","","","easy",,28.74,26.5343904688052,-0.424003933809046,0.368731622804472,-1.23488129117724,-0.689908714906479,0.838911299890972
"114",70,"Female","TEST",1,14,14,3,361,0.75,0.85,0.609709402561748,0.805555555555556,0.467686564625183,0.888888888888889,"hard","switch","easy","switch",0,1.52947797399247,"cue1.png","B","","","","","","","","hard",,28.74,26.5343904688052,1.29012609714489,-0.0365613984179685,-0.4105669330749,0.384290834481977,-1.08312267560047
"115",70,"Female","TEST",1,15,15,1,361,0.9,0.75,0.500931418562686,0.888888888888889,0.609709402561748,0.805555555555556,"easy","switch","hard","switch",55,1.78828052499739,"cue2.png","B","","","","","","","","easy",,28.74,26.5343904688052,-0.0227585894905135,0.368731622804472,1.29019582401235,-0.0185339965386938,0.989659062674615
"116",70,"Female","TEST",1,16,16,1,361,0.916666666666667,0.9,0.498727737001092,1,0.500931418562686,0.888888888888889,"easy","repetition","easy","switch",56,2.74680719399475,"cue2.png","B","","","","","","","","easy",,28.74,26.5343904688052,-0.0493556973801339,0.909122317767728,-0.012450614156066,0.384290834481977,1.02734600337053
"117",70,"Female","TEST",1,17,17,3,361,0.230769230769231,0.916666666666667,0.380779871901905,0.478632478632479,0.498727737001092,1,"hard","switch","easy","repetition",0,1.89518168500217,"cue1.png","B","","","","","","","","hard",,28.74,26.5343904688052,-1.47291532054245,-1.62655709705985,-0.0388403102281449,0.921390609176206,-1.08312267560047
"118",70,"Female","TEST",1,18,18,3,361,0.85,0.230769230769231,0.630774955414167,0.867521367521368,0.380779871901905,0.478632478632479,"hard","repetition","hard","switch",0,1.06187331900583,"cue1.png","B","","","","","","","","hard",,28.74,26.5343904688052,1.54437462004166,0.264810335311539,-1.45129861026751,-1.59884679515825,-1.08312267560047
"119",70,"Female","TEST",1,19,19,1,361,0.95,0.85,0.484020703412277,0.944444444444444,0.630774955414167,0.867521367521368,"easy","switch","hard","repetition",59,2.18719783899724,"cue2.png","B","","","","","","","","easy",,28.74,26.5343904688052,-0.226860726198771,0.6389269702861,1.54246164456192,0.281002416271549,1.14040682545826
"120",70,"Female","TEST",1,20,20,1,361,0.85,0.95,0.384189592687108,0.811965811965812,0.484020703412277,0.944444444444444,"easy","repetition","easy","switch",54,2.89799865300301,"cue2.png","B","","","","","","","","easy",,28.74,26.5343904688052,-1.43176204632261,-0.00538501217008851,-0.214961104309577,0.652840721829092,0.951972121978705
"121",70,"Female","TEST",1,21,21,1,361,0.875,0.85,0.430446097002459,0.888888888888889,0.384189592687108,0.811965811965812,"easy","repetition","easy","repetition",63,0.911263677000534,"cue2.png","B","","","","","","","","easy",,28.74,26.5343904688052,-0.873473926426641,0.368731622804472,-1.41046626099331,0.0124525289244347,1.2911545882419
"122",70,"Female","TEST",1,22,22,3,361,0.961538461538462,0.875,0.545949210410232,0.790598290598291,0.430446097002459,0.888888888888889,"hard","switch","easy","repetition",0,1.12762298400048,"cue1.png","B","","","","","","","","hard",,28.74,26.5343904688052,0.520579017715861,-0.109306299663022,-0.85653183075939,0.384290834481977,-1.08312267560047
"123",70,"Female","TEST",1,23,23,1,361,0.915384615384615,0.961538461538462,0.504553377608115,0.923076923076923,0.545949210410232,0.790598290598291,"easy","switch","hard","switch",53,0.778475554005126,"cue2.png","B","","","","","","","","easy",,28.74,26.5343904688052,0.020956272575744,0.535005682793167,0.526649891741513,-0.0908358892859941,0.914285181282794
"124",70,"Female","TEST",1,24,24,3,361,0.8125,0.915384615384615,0.583820933706353,0.861111111111111,0.504553377608115,0.923076923076923,"hard","switch","easy","switch",0,0.904908140000771,"cue1.png","B","","","","","","","","hard",,28.74,26.5343904688052,0.977667885739001,0.233633949063659,0.0309233469734294,0.549552303618663,-1.08312267560047
"125",70,"Female","TEST",1,25,25,3,361,0.0256410256410256,0.8125,0.417336075998987,0.713675213675214,0.583820933706353,0.861111111111111,"hard","repetition","hard","switch",1,0.963058895998984,"cue1.png","B","","","","","","","","hard",,28.74,26.5343904688052,-1.03170397614954,-0.483422934637584,0.980174250672608,0.25001589080842,-1.04543573490456
"126",70,"Female","TEST",1,26,26,1,361,1,0.0256410256410256,0.548785551390514,1,0.417336075998987,0.713675213675214,"easy","switch","hard","repetition",52,0.770054014996276,"cue2.png","B","","","","","","","","easy",,28.74,26.5343904688052,0.554811943370375,0.909122317767728,-1.01352795751822,-0.462674194843537,0.876598240586883
"127",70,"Female","TEST",1,27,27,1,361,0.95,1,0.505117869610129,1,0.548785551390514,1,"easy","repetition","easy","switch",52,0.963096182007575,"cue2.png","B","","","","","","","","easy",,28.74,26.5343904688052,0.0277693507182623,0.909122317767728,0.560615859298205,0.921390609176206,0.876598240586883
"128",70,"Female","TEST",1,28,28,3,361,0.8,0.95,0.465198215002042,0.722222222222222,0.505117869610129,1,"hard","switch","easy","repetition",0,0.861721570996451,"cue1.png","B","","","","","","","","hard",,28.74,26.5343904688052,-0.454036813580423,-0.44185441964041,0.0376832947934158,0.921390609176206,-1.08312267560047
"129",70,"Female","TEST",1,29,29,1,361,0.9,0.8,0.466839074390009,1,0.465198215002042,0.722222222222222,"easy","switch","hard","switch",63,0.811044299989589,"cue2.png","B","","","","","","","","easy",,28.74,26.5343904688052,-0.434232630011414,0.909122317767728,-0.440365607901692,-0.421358827559365,1.2911545882419
"130",70,"Female","TEST",1,30,30,1,361,0.95,0.9,0.478042883721678,1,0.466839074390009,1,"easy","repetition","easy","switch",53,1.00092843800667,"cue2.png","B","","","","","","","","easy",,28.74,26.5343904688052,-0.299009405947451,0.909122317767728,-0.420715862992933,0.921390609176206,0.914285181282794
"131",70,"Female","TEST",1,31,31,3,361,0.75,0.95,0.524513284874956,0.805555555555556,0.478042883721678,1,"hard","switch","easy","repetition",0,0.621511075994931,"cue1.png","B","","","","","","","","hard",,28.74,26.5343904688052,0.261860319827844,-0.0365613984179685,-0.286547148118213,0.921390609176206,-1.08312267560047
"132",70,"Female","TEST",1,32,32,1,361,1,0.75,0.539677887610904,1,0.524513284874956,0.805555555555556,"easy","switch","hard","switch",51,1.94466373599425,"cue2.png","B","","","","","","","","easy",,28.74,26.5343904688052,0.444887932392408,0.909122317767728,0.269948755897594,-0.0185339965386938,0.838911299890972
"133",70,"Female","TEST",1,33,33,3,361,0.645833333333333,1,0.450777876294417,0.861111111111111,0.539677887610904,1,"hard","switch","easy","switch",0,1.19514311099192,"cue1.png","B","","","","","","","","hard",,28.74,26.5343904688052,-0.628081608026147,0.233633949063659,0.451549067045034,0.921390609176206,-1.08312267560047
"134",70,"Female","TEST",1,34,34,3,361,0.8,0.645833333333333,0.536955230727802,0.611111111111111,0.450777876294417,0.861111111111111,"hard","repetition","hard","switch",1,1.02287062100368,"cue1.png","B","","","","","","","","hard",,28.74,26.5343904688052,0.412027105252819,-0.982245114603665,-0.613053151502723,0.25001589080842,-1.04543573490456
"135",70,"Female","TEST",1,35,35,3,361,0.875,0.8,0.396045262617498,0.722222222222222,0.536955230727802,0.611111111111111,"hard","repetition","hard","repetition",0,1.04519999699551,"cue1.png","B","","","","","","","","hard",,28.74,26.5343904688052,-1.28867125782677,-0.44185441964041,0.418944497988512,-0.958458602253594,-1.08312267560047
"136",70,"Female","TEST",1,36,36,1,361,0.9,0.875,0.530463861999225,1,0.396045262617498,0.722222222222222,"easy","switch","hard","repetition",53,1.28158502100268,"cue2.png","B","","","","","","","","easy",,28.74,26.5343904688052,0.333680198224951,0.909122317767728,-1.26849133519347,-0.421358827559365,0.914285181282794
"137",70,"Female","TEST",1,37,37,3,361,0.211538461538462,0.9,0.601567536748917,0.512820512820513,0.530463861999225,1,"hard","switch","easy","switch",0,0.955072846001713,"cue1.png","B","","","","","","","","hard",,28.74,26.5343904688052,1.19185868536423,-1.46028303707116,0.341208562441184,0.921390609176206,-1.08312267560047
"138",70,"Female","TEST",1,38,38,1,361,0.95,0.211538461538462,0.46482661588251,0.944444444444444,0.601567536748917,0.512820512820513,"easy","switch","hard","switch",51,1.57012336500338,"cue2.png","B","","","","","","","","easy",,28.74,26.5343904688052,-0.458521790922938,0.6389269702861,1.19269472947817,-1.43358532602157,0.838911299890972
"139",70,"Female","TEST",1,39,39,1,361,1,0.95,0.508753899834119,1,0.46482661588251,0.944444444444444,"easy","repetition","easy","switch",56,0.969604454992805,"cue2.png","B","","","","","","","","easy",,28.74,26.5343904688052,0.071654043426498,0.909122317767728,-0.444815610114352,0.652840721829092,1.02734600337053
"140",70,"Female","TEST",1,40,40,3,361,0.684615384615385,1,0.626900278888772,0.423076923076923,0.508753899834119,1,"hard","switch","easy","repetition",0,1.05465528600325,"cue1.png","B","","","","","","","","hard",,28.74,26.5343904688052,1.49760961035091,-1.89675244454148,0.081225762177205,0.921390609176206,-1.08312267560047
"141",70,"Female","TEST",1,41,41,3,361,0.85,0.684615384615385,0.494551396552803,0.923076923076923,0.626900278888772,0.423076923076923,"hard","repetition","hard","switch",0,1.90637245100515,"cue1.png","B","","","","","","","","hard",,28.74,26.5343904688052,-0.0997616087526159,0.535005682793167,1.49606132172726,-1.86739668250537,-1.08312267560047
"142",70,"Female","TEST",1,42,42,1,361,1,0.85,0.522707059609982,1,0.494551396552803,0.923076923076923,"easy","switch","hard","repetition",58,0.782111881999299,"cue2.png","B","","","","","","","","easy",,28.74,26.5343904688052,0.240060269819384,0.909122317767728,-0.0888531419569308,0.549552303618663,1.10271988476235
"143",70,"Female","TEST",1,43,43,3,361,0.211538461538462,1,0.434792662062137,0.735042735042735,0.522707059609982,1,"hard","switch","easy","switch",0,0.954169673001161,"cue1.png","B","","","","","","","","hard",,28.74,26.5343904688052,-0.821013506619965,-0.379501647144649,0.248318708883954,0.921390609176206,-1.08312267560047
"144",70,"Female","TEST",1,44,44,1,361,0.95,0.211538461538462,0.478004958997998,1,0.434792662062137,0.735042735042735,"easy","switch","hard","switch",55,1.36208366599749,"cue2.png","B","","","","","","","","easy",,28.74,26.5343904688052,-0.299467134498157,0.909122317767728,-0.804480512237945,-0.359385776633108,0.989659062674615
"145",70,"Female","TEST",1,45,45,3,361,0.684615384615385,0.95,0.615055706726377,0.534188034188034,0.478004958997998,1,"hard","switch","easy","switch",0,0.588489524001488,"cue1.png","B","","","","","","","","hard",,28.74,26.5343904688052,1.35465276522413,-1.35636174957823,-0.2870013071714,0.921390609176206,-1.08312267560047
"146",70,"Female","TEST",1,46,46,3,361,0.9,0.684615384615385,0.494308970117024,0.944444444444444,0.615055706726377,0.534188034188034,"hard","repetition","hard","switch",2,2.39019826099684,"cue1.png","B","","","","","","","","hard",,28.74,26.5343904688052,-0.102687549678061,0.6389269702861,1.35421929476796,-1.33029690781114,-1.00774879420865
"147",70,"Female","TEST",1,47,47,1,361,0.95,0.9,0.4877761998901,1,0.494308970117024,0.944444444444444,"easy","switch","hard","repetition",61,0.638932076006313,"cue2.png","B","","","","","","","","easy",,28.74,26.5343904688052,-0.18153414783077,0.909122317767728,-0.0917562655622416,0.652840721829092,1.21578070685008
"148",70,"Female","TEST",1,48,48,1,361,0.85,0.95,0.459167578118093,0.944444444444444,0.4877761998901,1,"easy","repetition","easy","switch",62,1.31256837600085,"cue2.png","B","","","","","","","","easy",,28.74,26.5343904688052,-0.526822965010322,0.6389269702861,-0.169987995500795,0.921390609176206,1.25346764754599
"149",70,"Female","TEST",1,49,49,3,361,0.85,0.85,0.509009821125801,0.888888888888889,0.459167578118093,0.944444444444444,"hard","switch","easy","repetition",0,0.90366574699874,"cue1.png","B","","","","","","","","hard",,28.74,26.5343904688052,0.0747428591268917,0.368731622804472,-0.512584152205938,0.652840721829092,-1.08312267560047
"150",70,"Female","TEST",1,50,50,1,361,1,0.85,0.514713653054463,1,0.509009821125801,0.888888888888889,"easy","switch","hard","switch",62,0.399170572985895,"cue2.png","B","","","","","","","","easy",,28.74,26.5343904688052,0.143584671771146,0.909122317767728,0.084290490413611,0.384290834481977,1.25346764754599
"151",42,"Female","TEST",1,1,1,1,788,0.9375,,0.376937351,1,,,"easy",,,,73,1.252211482,"cue2.png","B",,"","","","","","","easy",,46.14,19.4443318428874,0.0836696005601183,1.09014276348322,,,1.38137942805297
"152",42,"Female","TEST",1,2,2,3,788,0.791666667,0.9375,0.343667598,0.888888889,0.376937351,1,"hard","switch","easy",,38,0.467804235,"cue1.png","B",,"","","","","","","hard",,46.14,19.4443318428874,-0.518486843237271,-0.0767016614396781,0.0877878604542542,1.10679966569488,-0.418630995694385
"153",42,"Female","TEST",1,3,3,3,788,0.194444444,0.791666667,0.43423599,0.777777778,0.343667598,0.888888889,"hard","repetition","hard","switch",46,1.369069684,"cue1.png","B",,"","","","","","","hard",,46.14,19.4443318428874,1.12073004085465,-1.24354608636258,-0.526323660467675,-0.0568876622701939,-0.00720004169498945
"154",42,"Female","TEST",1,4,4,3,788,0.875,0.194444444,0.397029434,1,0.43423599,0.777777778,"hard","repetition","hard","repetition",41,0.883846305,"cue1.png","B",,"","","","","","","hard",,46.14,19.4443318428874,0.4473205494494,1.09014276348322,1.14543786293689,-1.22057499023526,-0.264344387944612
"155",42,"Female","TEST",1,5,5,1,788,0.9375,0.875,0.39981635,1,0.397029434,1,"easy","switch","hard","repetition",67,0.819990829,"cue2.png","B",,"","","","","","","easy",,46.14,19.4443318428874,0.497761543938359,1.09014276348322,0.458658652600492,1.10679966569488,1.07280621255342
"156",42,"Female","TEST",1,6,6,3,788,0.791666667,0.9375,0.370150421,0.888888889,0.39981635,1,"hard","switch","easy","switch",38,1.167642908,"cue1.png","B",,"","","","","","","hard",,46.14,19.4443318428874,-0.0391685110754505,-0.0767016614396781,0.510101091125408,1.10679966569488,-0.418630995694385
"157",42,"Female","TEST",1,7,7,3,788,0.791666667,0.791666667,0.370065112,0.888888889,0.370150421,0.888888889,"hard","repetition","hard","switch",41,0.734018597,"cue1.png","B",,"","","","","","","hard",,46.14,19.4443318428874,-0.0407125370880251,-0.0767016614396781,-0.037489051120372,-0.0568876622701939,-0.264344387944612
"158",42,"Female","TEST",1,8,8,1,788,1,0.791666667,0.398217759,1,0.370065112,0.888888889,"easy","switch","hard","repetition",59,1.382553555,"cue2.png","B",,"","","","","","","easy",,46.14,19.4443318428874,0.468828300230583,1.09014276348322,-0.0390637318743394,-0.0568876622701939,0.661375258554028
"159",42,"Female","TEST",1,9,9,1,788,0.972222222,1,0.405040422,0.888888889,0.398217759,1,"easy","repetition","easy","switch",60,0.550609308,"cue2.png","B",,"","","","","","","easy",,46.14,19.4443318428874,0.592313151149315,-0.0767016614396781,0.480593413375529,1.10679966569488,0.712804127803952
"160",42,"Female","TEST",1,10,10,3,788,0.791666667,0.972222222,0.331728102,0.888888889,0.405040422,0.888888889,"hard","switch","easy","repetition",31,0.367632284,"cue1.png","B",,"","","","","","","hard",,46.14,19.4443318428874,-0.734582359548833,-0.0767016614396781,0.606529904447998,-0.0568876622701939,-0.778633080443856
"161",42,"Female","TEST",1,11,11,1,788,1,0.791666667,0.356435238,1,0.331728102,0.888888889,"easy","switch","hard","switch",60,0.650707928,"cue2.png","B",,"","","","","","","easy",,46.14,19.4443318428874,-0.287402569840793,1.09014276348322,-0.746709488027059,-0.0568876622701939,0.712804127803952
"162",42,"Female","TEST",1,12,12,3,788,0.875,1,0.364201557,1,0.356435238,1,"hard","switch","easy","switch",36,0.350849967,"cue1.png","B",,"","","","","","","hard",,46.14,19.4443318428874,-0.146838285205553,1.09014276348322,-0.290651492448163,1.10679966569488,-0.521488734194234
"163",42,"Female","TEST",1,13,13,1,788,0.9375,0.875,0.341368298,1,0.364201557,1,"easy","switch","hard","switch",53,0.384912635,"cue2.png","B",,"","","","","","","easy",,46.14,19.4443318428874,-0.560102370446726,1.09014276348322,-0.147296476465481,1.10679966569488,0.352802043054481
"164",42,"Female","TEST",1,14,14,3,788,0.673611111,0.9375,0.326670064,0.888888889,0.341368298,1,"hard","switch","easy","switch",41,0.301894738,"cue1.png","B",,"","","","","","","hard",,46.14,19.4443318428874,-0.826128881540508,-0.0767016614396781,-0.568765412892341,1.10679966569488,-0.264344387944612
"165",42,"Female","TEST",1,15,15,1,788,0.791666667,0.673611111,0.406965959,0.888888889,0.326670064,0.888888889,"easy","switch","hard","switch",63,1.052497083,"cue2.png","B",,"","","","","","","easy",,46.14,19.4443318428874,0.627163861111613,-0.0767016614396781,-0.840073553851682,-0.0568876622701939,0.867090735553726
"166",42,"Female","TEST",1,16,16,1,788,0.875,0.791666667,0.447548788,1,0.406965959,0.888888889,"easy","repetition","easy","switch",47,1.199347685,"cue2.png","B",,"","","","","","","easy",,46.14,19.4443318428874,1.36168124661422,1.09014276348322,0.64207253248198,-0.0568876622701939,0.044228827554935
"167",42,"Female","TEST",1,17,17,3,788,0.9375,0.875,0.352369169,1,0.447548788,1,"hard","switch","easy","repetition",46,1.768438072,"cue1.png","B",,"","","","","","","hard",,46.14,19.4443318428874,-0.36099523069628,1.09014276348322,1.39117285915121,1.10679966569488,-0.00720004169498945
"168",42,"Female","TEST",1,18,18,3,788,0.534722222,0.9375,0.27518635,0.777777778,0.352369169,1,"hard","repetition","hard","switch",59,0.636981588,"cue1.png","B",,"","","","","","","hard",,46.14,19.4443318428874,-1.75794373858865,-1.24354608636258,-0.365705245259719,1.10679966569488,0.661375258554028
"169",42,"Female","TEST",1,19,19,1,788,1,0.534722222,0.377651257,1,0.27518635,0.777777778,"easy","switch","hard","repetition",52,0.651110318,"cue2.png","B",,"","","","","","","easy",,46.14,19.4443318428874,0.09659073941455,1.09014276348322,-1.79038845120754,-1.22057499023526,0.301373173804557
"170",42,"Female","TEST",1,20,20,1,788,1,1,0.348920982,1,0.377651257,1,"easy","repetition","easy","switch",54,0.785819688,"cue2.png","B",,"","","","","","","easy",,46.14,19.4443318428874,-0.4234047118087,1.09014276348322,0.100965532661659,1.10679966569488,0.404230912304406
"171",42,"Female","TEST",1,21,21,1,788,0.9375,1,0.371040378,1,0.348920982,1,"easy","repetition","easy","repetition",54,1.451552155,"cue2.png","B",,"","","","","","","easy",,46.14,19.4443318428874,-0.0230609871556729,1.09014276348322,-0.429353790020277,1.10679966569488,0.404230912304406
"172",42,"Female","TEST",1,22,22,3,788,0.791666667,0.9375,0.340430559,0.888888889,0.371040378,1,"hard","switch","easy","repetition",40,1.704462926,"cue1.png","B",,"","","","","","","hard",,46.14,19.4443318428874,-0.577074711102519,-0.0767016614396781,-0.0210617320830134,1.10679966569488,-0.315773257194536
"173",42,"Female","TEST",1,23,23,1,788,1,0.791666667,0.34288059,1,0.340430559,0.888888889,"easy","switch","hard","switch",57,1.272705042,"cue2.png","B",,"","","","","","","easy",,46.14,19.4443318428874,-0.532731070975304,1.09014276348322,-0.586074718540562,-0.0568876622701939,0.558517520054179
"174",42,"Female","TEST",1,24,24,3,788,0.166666667,1,0.367215387,0.666666667,0.34288059,1,"hard","switch","easy","switch",42,0.750446775,"cue1.png","B",,"","","","","","","hard",,46.14,19.4443318428874,-0.0922903252309217,-2.41039051128548,-0.540850689864549,1.10679966569488,-0.212915518694687
"175",42,"Female","TEST",1,25,25,3,788,0.875,0.166666667,0.443726713,1,0.367215387,0.666666667,"hard","repetition","hard","switch",58,1.021277994,"cue1.png","B",,"","","","","","","hard",,46.14,19.4443318428874,1.29250468585265,1.09014276348322,-0.0916655336959287,-2.38426231820034,0.609946389304103
"176",42,"Female","TEST",1,26,26,1,788,1,0.875,0.368633189,1,0.443726713,1,"easy","switch","hard","repetition",47,2.136755235,"cue2.png","B",,"","","","","","","easy",,46.14,19.4443318428874,-0.0666292206736138,1.09014276348322,1.32062288268076,1.10679966569488,0.044228827554935
"177",42,"Female","TEST",1,27,27,1,788,0.9375,1,0.333297531,0.923076923,0.368633189,1,"easy","repetition","easy","switch",59,1.718419003,"cue2.png","B",,"","","","","","","easy",,46.14,19.4443318428874,-0.706176925176283,0.282327390767123,-0.0654949594032331,1.10679966569488,0.661375258554028
"178",42,"Female","TEST",1,28,28,3,788,0.791666667,0.9375,0.270472565,0.888888889,0.333297531,0.923076923,"hard","switch","easy","repetition",37,1.102401618,"cue1.png","B",,"","","","","","","hard",,46.14,19.4443318428874,-1.84325955119554,-0.0767016614396781,-0.717740098618939,0.301169975492415,-0.470059864944309
"179",42,"Female","TEST",1,29,29,1,788,0.9375,0.791666667,0.435230665,1,0.270472565,0.888888889,"easy","switch","hard","switch",61,2.286690854,"cue2.png","B",,"","","","","","","easy",,46.14,19.4443318428874,1.13873287846917,1.09014276348322,-1.87739810455991,-0.0568876622701939,0.764232997053877
"180",42,"Female","TEST",1,30,30,1,788,0.9375,0.9375,0.406320098,1,0.435230665,1,"easy","repetition","easy","switch",61,1.969869212,"cue2.png","B",,"","","","","","","easy",,46.14,19.4443318428874,0.615474283405778,1.09014276348322,1.16379812479615,1.10679966569488,0.764232997053877
"181",42,"Female","TEST",1,31,31,3,788,0.673611111,0.9375,0.297224438,0.888888889,0.406320098,1,"hard","switch","easy","repetition",24,0.917777855,"cue1.png","B",,"","","","","","","hard",,46.14,19.4443318428874,-1.35907162498522,-0.0767016614396781,0.6301508725582,1.10679966569488,-1.13863516519333
"182",42,"Female","TEST",1,32,32,1,788,1,0.673611111,0.382759477,1,0.297224438,0.888888889,"easy","switch","hard","switch",57,1.467134364,"cue2.png","B",,"","","","","","","easy",,46.14,19.4443318428874,0.189045516260495,1.09014276348322,-1.38359722135106,-0.0568876622701939,0.558517520054179
"183",42,"Female","TEST",1,33,33,3,788,0.875,1,0.309071945,1,0.382759477,1,"hard","switch","easy","switch",22,1.083740442,"cue1.png","B",,"","","","","","","hard",,46.14,19.4443318428874,-1.14464103744871,1.09014276348322,0.195255885625921,1.10679966569488,-1.24149290369318
"184",42,"Female","TEST",1,34,34,3,788,0.194444444,0.875,0.283396871,0.777777778,0.309071945,1,"hard","repetition","hard","switch",24,1.832759716,"cue1.png","B",,"","","","","","","hard",,46.14,19.4443318428874,-1.6093397460347,-1.24354608636258,-1.16490937768407,1.10679966569488,-1.13863516519333
"185",42,"Female","TEST",1,35,35,3,788,0.875,0.194444444,0.240408699,1,0.283396871,0.777777778,"hard","repetition","hard","repetition",20,1.150475381,"cue1.png","B",,"","","","","","","hard",,46.14,19.4443318428874,-2.38739195390262,1.09014276348322,-1.63883410877309,-1.22057499023526,-1.34435064219302
"186",42,"Female","TEST",1,36,36,1,788,0.9375,0.875,0.304351287,1,0.240408699,1,"easy","switch","hard","repetition",62,0.933979225,"cue2.png","B",,"","","","","","","easy",,46.14,19.4443318428874,-1.23008124596675,1.09014276348322,-2.43233358827249,1.10679966569488,0.815661866303801
"187",42,"Female","TEST",1,37,37,3,788,0.194444444,0.9375,0.250681569,0.777777778,0.304351287,1,"hard","switch","easy","switch",16,0.385881469,"cue1.png","B",,"","","","","","","hard",,46.14,19.4443318428874,-2.20146106145527,-1.24354608636258,-1.25204589667573,1.10679966569488,-1.55006611919272
"188",42,"Female","TEST",1,38,38,1,788,1,0.194444444,0.332682078,1,0.250681569,0.777777778,"easy","switch","hard","switch",60,0.536348987,"cue2.png","B",,"","","","","","","easy",,46.14,19.4443318428874,-0.717316141923832,1.09014276348322,-2.24271126616107,-1.22057499023526,0.712804127803952
"189",42,"Female","TEST",1,39,39,1,788,0.972222222,1,0.344333219,0.888888889,0.332682078,1,"easy","repetition","easy","switch",74,0.920867179,"cue2.png","B",,"","","","","","","easy",,46.14,19.4443318428874,-0.506439625024473,-0.0767016614396781,-0.729100470843102,1.10679966569488,1.43280829730289
"190",42,"Female","TEST",1,40,40,3,788,0.9375,0.972222222,0.320346996,1,0.344333219,0.888888889,"hard","switch","easy","repetition",4,1.01844201,"cue1.png","B",,"","","","","","","hard",,46.14,19.4443318428874,-0.940571454671997,1.09014276348322,-0.514037259523623,-0.0568876622701939,-2.16721255019181
"191",42,"Female","TEST",1,41,41,3,788,0.534722222,0.9375,0.341262816,0.777777778,0.320346996,1,"hard","repetition","hard","switch",21,2.047680616,"cue1.png","B",,"","","","","","","hard",,46.14,19.4443318428874,-0.562011511942445,-1.24354608636258,-0.956788243809638,1.10679966569488,-1.2929217729431
"192",42,"Female","TEST",1,42,42,1,788,0.041666667,0.534722222,0.411628394,0.666666667,0.341262816,0.777777778,"easy","switch","hard","repetition",77,0.786248073,"cue2.png","B",,"","","","","","","easy",,46.14,19.4443318428874,0.711550278980014,-2.41039051128548,-0.57071245804924,-1.22057499023526,1.58709490505267
"193",42,"Female","TEST",1,43,43,3,788,0.534722222,0.041666667,0.364151121,0.777777778,0.411628394,0.666666667,"hard","switch","easy","switch",12,1.08454827,"cue1.png","B",,"","","","","","","hard",,46.14,19.4443318428874,-0.147751137260673,-1.24354608636258,0.728134339104038,-2.38426231820034,-1.75578159619242
"194",42,"Female","TEST",1,44,44,1,788,1,0.534722222,0.371195028,1,0.364151121,0.777777778,"easy","switch","hard","switch",70,0.383640604,"cue2.png","B",,"","","","","","","easy",,46.14,19.4443318428874,-0.0202619434106456,1.09014276348322,-0.14822745207775,-1.22057499023526,1.2270928203032
"195",42,"Female","TEST",1,45,45,3,788,0.791666667,1,0.263389833,0.888888889,0.371195028,1,"hard","switch","easy","switch",15,1.134037681,"cue1.png","B",,"","","","","","","hard",,46.14,19.4443318428874,-1.97145144710441,-0.0767016614396781,-0.018207116759883,1.10679966569488,-1.60149498844265
"196",42,"Female","TEST",1,46,46,3,788,0.166666667,0.791666667,0.366902995,0.666666667,0.263389833,0.888888889,"hard","repetition","hard","switch",11,2.037320045,"cue1.png","B",,"","","","","","","hard",,46.14,19.4443318428874,-0.0979443754966616,-2.41039051128548,-2.00813509322353,-0.0568876622701939,-1.80721046544234
"197",42,"Female","TEST",1,47,47,1,788,0.875,0.166666667,0.419408391,1,0.366902995,0.666666667,"easy","switch","hard","repetition",62,1.101448049,"cue2.png","B",,"","","","","","","easy",,46.14,19.4443318428874,0.852362124690872,1.09014276348322,-0.0974318381900992,-2.38426231820034,0.815661866303801
"198",42,"Female","TEST",1,48,48,1,788,0.9375,0.875,0.371556025,1,0.419408391,1,"easy","repetition","easy","switch",72,1.535337911,"cue2.png","B",,"","","","","","","easy",,46.14,19.4443318428874,-0.0137281807541707,1.09014276348322,0.871741831183647,1.10679966569488,1.32995055880305
"199",42,"Female","TEST",1,49,49,3,788,0.791666667,0.9375,0.456020398,0.888888889,0.371556025,1,"hard","switch","easy","repetition",11,1.217690576,"cue1.png","B",,"","","","","","","hard",,46.14,19.4443318428874,1.51501074535857,-0.0767016614396781,-0.0115436342651897,1.10679966569488,-1.80721046544234
"200",42,"Female","TEST",1,50,50,1,788,0.9375,0.791666667,0.491123917,1,0.456020398,0.888888889,"easy","switch","hard","switch",72,0.919124948,"cue2.png","B",,"","","","","","","easy",,46.14,19.4443318428874,2.15035691597229,1.09014276348322,1.54754652690154,-0.0568876622701939,1.32995055880305
"201",104,"Female","TEST",1,1,1,1,500,0.9375,,0.503392262812667,1,,,"easy",,,,53,0.951656300996547,"cue2.png","B","","","","","","","","easy",,49.8,15.4695223730075,0.0144615052373516,0.766806318292631,,,0.206858358185876
"202",104,"Female","TEST",1,2,2,3,500,0.527272727272727,0.9375,0.711589164333418,0.568181818181818,0.503392262812667,1,"hard","switch","easy",,46,1.15690057200118,"cue1.png","B","","","","","","","","hard",,49.8,15.4695223730075,2.22705934591853,-3.51733323679295,-0.0110844967295336,0.783930103848605,-0.245644300345727
"203",104,"Female","TEST",1,3,3,3,500,0.527272727272727,0.527272727272727,0.566562867309235,0.630681818181818,0.711589164333418,0.568181818181818,"hard","repetition","hard","switch",43,1.8303418430005,"cue1.png","B","","","","","","","","hard",,49.8,15.4695223730075,0.68580263511339,-2.89726040645162,2.19727255631191,-3.47643051399291,-0.439574011144985
"204",104,"Female","TEST",1,4,4,3,500,0.9,0.527272727272727,0.762296017714626,0.875,0.566562867309235,0.630681818181818,"hard","repetition","hard","repetition",70,1.11168715499662,"cue1.png","B","","","","","","","","hard",,49.8,15.4695223730075,2.76594284264442,-0.473339342390037,0.658969903532438,-2.8597993719369,1.30579338604834
"205",104,"Female","TEST",1,5,5,1,500,1,0.9,0.506285377562108,1,0.762296017714626,0.875,"easy","switch","hard","repetition",51,1.3615783139976,"cue2.png","B","","","","","","","","easy",,49.8,15.4695223730075,0.045207877544995,0.766806318292631,2.735123199064,-0.449332180263412,0.0775718843197035
"206",104,"Female","TEST",1,6,6,3,500,0.840909090909091,1,0.618233886933497,0.846590909090909,0.506285377562108,1,"hard","switch","easy","switch",41,1.16391213799943,"cue1.png","B","","","","","","","","hard",,49.8,15.4695223730075,1.23493274037119,-0.755190628908825,0.019602945377035,0.783930103848605,-0.568860485011157
"207",104,"Female","TEST",1,7,7,3,500,0.977272727272727,0.840909090909091,0.700699223374158,0.909090909090909,0.618233886933497,0.846590909090909,"hard","repetition","hard","switch",36,1.18502295399958,"cue1.png","B","","","","","","","","hard",,49.8,15.4695223730075,2.111327268853,-0.135117798567492,1.20704751559867,-0.729619063016144,-0.892076669676588
"208",104,"Female","TEST",1,8,8,1,500,1,0.977272727272727,0.499412515499898,1,0.700699223374158,0.909090909090909,"easy","switch","hard","repetition",52,1.78076771400083,"cue2.png","B","","","","","","","","easy",,49.8,15.4695223730075,-0.0278329777562493,0.766806318292631,2.08176229775896,-0.112987920960135,0.14221512125279
"209",104,"Female","TEST",1,9,9,1,500,1,1,0.43044601306201,1,0.499412515499898,1,"easy","repetition","easy","switch",57,0.987087811001402,"cue2.png","B","","","","","","","","easy",,49.8,15.4695223730075,-0.760769602935543,0.766806318292631,-0.0532979157731431,0.783930103848605,0.46543130591822
"210",104,"Female","TEST",1,10,10,3,500,0.604166666666667,1,0.671951111498596,0.708333333333333,0.43044601306201,1,"hard","switch","easy","repetition",52,1.24516680800298,"cue1.png","B","","","","","","","","hard",,49.8,15.4695223730075,1.80580874386578,-2.12686688996693,-0.784829753998558,0.783930103848605,0.14221512125279
"211",104,"Female","TEST",1,11,11,1,500,0.9,0.604166666666667,0.475746010562489,1,0.671951111498596,0.708333333333333,"easy","switch","hard","switch",55,1.4649240850049,"cue2.png","B","","","","","","","","easy",,49.8,15.4695223730075,-0.279347084539264,0.766806318292631,1.77682934650802,-2.09368189241277,0.336144832052048
"212",104,"Female","TEST",1,12,12,3,500,0.8125,0.9,0.635075259383974,0.729166666666667,0.475746010562489,1,"hard","switch","easy","switch",49,2.78957370800345,"cue1.png","B","","","","","","","","hard",,49.8,15.4695223730075,1.41391323453727,-1.92017594651982,-0.304329956680628,0.783930103848605,-0.0517145895464687
"213",104,"Female","TEST",1,13,13,1,500,1,0.8125,0.489497248062435,1,0.635075259383974,0.729166666666667,"easy","switch","hard","switch",62,0.844899748000898,"cue2.png","B","","","","","","","","easy",,49.8,15.4695223730075,-0.133206780928444,0.766806318292631,1.38568496583085,-1.8881381783941,0.78864749058365
"214",104,"Female","TEST",1,14,14,3,500,0.8125,1,0.645011162248314,0.666666666666667,0.489497248062435,1,"hard","switch","easy","switch",22,0.86689618100354,"cue1.png","B","","","","","","","","hard",,49.8,15.4695223730075,1.51950633924861,-2.54024877686115,-0.158469753674547,0.783930103848605,-1.79708198673979
"215",104,"Female","TEST",1,15,15,1,500,0.9375,0.8125,0.493972042562746,1,0.645011162248314,0.666666666666667,"easy","switch","hard","switch",62,0.76478931800375,"cue2.png","B","","","","","","","","easy",,49.8,15.4695223730075,-0.0856512189745443,0.766806318292631,1.49107568494592,-2.50476932045011,0.78864749058365
"216",104,"Female","TEST",1,16,16,1,500,1,0.9375,0.467288327875849,1,0.493972042562746,1,"easy","repetition","easy","switch",66,0.688057949002541,"cue2.png","B","","","","","","","","easy",,49.8,15.4695223730075,-0.369230508898297,0.766806318292631,-0.111005339346134,0.783930103848605,1.04722043831599
"217",104,"Female","TEST",1,17,17,3,500,0.895833333333333,1,0.639988347666319,0.854166666666667,0.467288327875849,1,"hard","switch","easy","repetition",39,0.730360993999057,"cue1.png","B","","","","","","","","hard",,49.8,15.4695223730075,1.46612673264982,-0.680030285837149,-0.394041105487353,0.783930103848605,-0.69814695887733
"218",104,"Female","TEST",1,18,18,3,500,0.895833333333333,0.895833333333333,0.657563074563313,0.916666666666667,0.639988347666319,0.854166666666667,"hard","repetition","hard","switch",34,0.85207232600078,"cue1.png","B","","","","","","","","hard",,49.8,15.4695223730075,1.65290089931039,-0.0599574554958148,1.43779838865934,-0.654875894282082,-1.02136314354276
"219",104,"Female","TEST",1,19,19,1,500,0.9375,0.895833333333333,0.458876367437824,1,0.657563074563313,0.916666666666667,"easy","switch","hard","repetition",63,0.903931638000358,"cue2.png","B","","","","","","","","easy",,49.8,15.4695223730075,-0.458628023295091,0.766806318292631,1.6242145736014,-0.0382447522260737,0.853290727516737
"220",104,"Female","TEST",1,20,20,1,500,1,0.9375,0.415559325877439,1,0.458876367437824,1,"easy","repetition","easy","switch",62,0.662350366997998,"cue2.png","B","","","","","","","","easy",,49.8,15.4695223730075,-0.918976817735017,0.766806318292631,-0.483267275653801,0.783930103848605,0.78864749058365
"221",104,"Female","TEST",1,21,21,1,500,0.9375,1,0.46874640060026,0.9375,0.415559325877439,1,"easy","repetition","easy","repetition",59,0.677966228002333,"cue2.png","B","","","","","","","","easy",,49.8,15.4695223730075,-0.35373494418036,0.146733487951297,-0.942733740082582,0.783930103848605,0.594717779784392
"222",104,"Female","TEST",1,22,22,3,500,0.979166666666667,0.9375,0.662317407932521,0.854166666666667,0.46874640060026,0.9375,"hard","switch","easy","repetition",43,0.9282730200066,"cue1.png","B","","","","","","","","hard",,49.8,15.4695223730075,1.70342724081571,-0.680030285837149,-0.378575240427491,0.167298961792596,-0.439574011144985
"223",104,"Female","TEST",1,23,23,1,500,1,0.979166666666667,0.447738992062114,1,0.662317407932521,0.854166666666667,"easy","switch","hard","switch",53,1.39838330399652,"cue2.png","B","","","","","","","","easy",,49.8,15.4695223730075,-0.57698969211511,0.766806318292631,1.6746440735205,-0.654875894282082,0.206858358185876
"224",104,"Female","TEST",1,24,24,3,500,0.9,1,0.599170750733659,0.9375,0.447738992062114,1,"hard","switch","easy","switch",48,0.981049594003707,"cue1.png","B","","","","","","","","hard",,49.8,15.4695223730075,1.03234060915174,0.146733487951297,-0.601402085939964,0.783930103848605,-0.116357826479555
"225",104,"Female","TEST",1,25,25,3,500,0.75,0.9,0.738665887642128,0.708333333333333,0.599170750733659,0.9375,"hard","repetition","hard","switch",49,2.16238882299513,"cue1.png","B","","","","","","","","hard",,49.8,15.4695223730075,2.51481530716468,-2.12686688996693,1.00484368368522,0.167298961792596,-0.0517145895464687
"226",104,"Female","TEST",1,26,26,1,500,1,0.75,0.417226394562022,1,0.738665887642128,0.708333333333333,"easy","switch","hard","repetition",56,0.660917866000091,"cue2.png","B","","","","","","","","easy",,49.8,15.4695223730075,-0.901260163237124,0.766806318292631,2.4844769885358,-2.09368189241277,0.400788068985134
"227",104,"Female","TEST",1,27,27,1,500,1,1,0.409322830622841,1,0.417226394562022,1,"easy","repetition","easy","switch",62,0.511528160001035,"cue2.png","B","","","","","","","","easy",,49.8,15.4695223730075,-0.985254729812234,0.766806318292631,-0.925051042306525,0.783930103848605,0.78864749058365
"228",104,"Female","TEST",1,28,28,3,500,0.8125,1,0.567558796641866,0.791666666666667,0.409322830622841,1,"hard","switch","easy","repetition",45,0.753998525004135,"cue1.png","B","","","","","","","","hard",,49.8,15.4695223730075,0.696386803632486,-1.30010311617848,-1.00888462024051,0.783930103848605,-0.310287537278813
"229",104,"Female","TEST",1,29,29,1,500,1,0.8125,0.427049947814339,1,0.567558796641866,0.791666666666667,"easy","switch","hard","switch",55,1.39400599700457,"cue2.png","B","","","","","","","","easy",,49.8,15.4695223730075,-0.796861046078657,0.766806318292631,0.669533785847595,-1.27150703633809,0.336144832052048
"230",104,"Female","TEST",1,30,30,1,500,1,1,0.427825729998403,1,0.427049947814339,1,"easy","repetition","easy","switch",63,0.678261066990672,"cue2.png","B","","","","","","","","easy",,49.8,15.4695223730075,-0.788616475805222,0.766806318292631,-0.82085202228162,0.783930103848605,0.853290727516737
"231",104,"Female","TEST",1,31,31,3,500,0.958333333333333,1,0.626873171143026,0.708333333333333,0.427825729998403,1,"hard","switch","easy","repetition",41,0.71204025100451,"cue1.png","B","","","","","","","","hard",,49.8,15.4695223730075,1.32674612206615,-2.12686688996693,-0.812623254008471,0.783930103848605,-0.568860485011157
"232",104,"Female","TEST",1,32,32,1,500,0.95,0.958333333333333,0.407783518312499,1,0.626873171143026,0.708333333333333,"easy","switch","hard","switch",63,1.01832829500199,"cue2.png","B","","","","","","","","easy",,49.8,15.4695223730075,-1.00161366248183,0.766806318292631,1.29868492267814,-2.09368189241277,0.853290727516737
"233",104,"Female","TEST",1,33,33,3,500,0.854166666666667,0.95,0.551372998934433,0.770833333333333,0.407783518312499,1,"hard","switch","easy","switch",34,1.59537555699353,"cue1.png","B","","","","","","","","hard",,49.8,15.4695223730075,0.52437338366524,-1.50679405962559,-1.02521219847317,0.783930103848605,-1.02136314354276
"234",104,"Female","TEST",1,34,34,3,500,0.909090909090909,0.854166666666667,0.618197222250274,0.909090909090909,0.551372998934433,0.770833333333333,"hard","repetition","hard","switch",32,0.999455028999364,"cue1.png","B","","","","","","","","hard",,49.8,15.4695223730075,1.2345430890443,-0.135117798567492,0.49785005633374,-1.47705075035676,-1.15064961740893
"235",104,"Female","TEST",1,35,35,3,500,0.854166666666667,0.909090909090909,0.606250558858197,0.708333333333333,0.618197222250274,0.909090909090909,"hard","repetition","hard","repetition",36,0.813963496999349,"cue1.png","B","","","","","","","","hard",,49.8,15.4695223730075,1.10758076908865,-2.12686688996693,1.20665861109912,-0.112987920960135,-0.892076669676588
"236",104,"Female","TEST",1,36,36,1,500,0.979166666666667,0.854166666666667,0.442806494872457,0.916666666666667,0.606250558858197,0.708333333333333,"easy","switch","hard","repetition",67,1.24523425099324,"cue2.png","B","","","","","","","","easy",,49.8,15.4695223730075,-0.629409457016908,-0.0599574554958148,1.07993963416192,-2.09368189241277,1.11186367524908
"237",104,"Female","TEST",1,37,37,3,500,0.85,0.979166666666667,0.535961511252632,0.75,0.442806494872457,0.916666666666667,"hard","switch","easy","switch",39,1.33907788898796,"cue1.png","B","","","","","","","","hard",,49.8,15.4695223730075,0.360588888711848,-1.7134850030727,-0.653721380215339,-0.0382447522260737,-0.69814695887733
"238",104,"Female","TEST",1,38,38,1,500,1,0.85,0.412181321999924,1,0.535961511252632,0.75,"easy","switch","hard","switch",72,0.679008127990528,"cue2.png","B","","","","","","","","easy",,49.8,15.4695223730075,-0.954876314944668,0.766806318292631,0.334379479820025,-1.68259446437543,1.43507985991451
"239",104,"Female","TEST",1,39,39,1,500,0.95,1,0.420230688333201,0.9375,0.412181321999924,1,"easy","repetition","easy","switch",70,1.08114540699171,"cue2.png","B","","","","","","","","easy",,49.8,15.4695223730075,-0.869332243742026,0.146733487951297,-0.978564430326393,0.783930103848605,1.30579338604834
"240",104,"Female","TEST",1,40,40,3,500,0.979166666666667,0.95,0.556536496002082,0.916666666666667,0.420230688333201,0.9375,"hard","switch","easy","repetition",40,1.06565140999737,"cue1.png","B","","","","","","","","hard",,49.8,15.4695223730075,0.57924808342682,-0.0599574554958148,-0.893184317631321,0.167298961792596,-0.633503721944244
"241",104,"Female","TEST",1,41,41,3,500,0.611363636363636,0.979166666666667,0.553992958266948,0.664772727272727,0.556536496002082,0.916666666666667,"hard","repetition","hard","switch",36,0.573098359003779,"cue1.png","B","","","","","","","","hard",,49.8,15.4695223730075,0.552216816105643,-2.55903886262907,0.552619580204698,-0.0382447522260737,-0.892076669676588
"242",104,"Female","TEST",1,42,42,1,500,0.895833333333333,0.611363636363636,0.451026776376239,0.916666666666667,0.553992958266948,0.664772727272727,"easy","switch","hard","repetition",64,0.683863245998509,"cue2.png","B","","","","","","","","easy",,49.8,15.4695223730075,-0.542048996932222,-0.0599574554958148,0.525640122508494,-2.52345511263362,0.917933964449823
"243",104,"Female","TEST",1,43,43,3,500,0.95,0.895833333333333,0.644913309532179,0.9375,0.451026776376239,0.916666666666667,"hard","switch","easy","switch",1,1.66461561800679,"cue1.png","B","","","","","","","","hard",,49.8,15.4695223730075,1.5184664164311,0.146733487951297,-0.566528360029814,-0.0382447522260737,-3.1545899623346
"244",104,"Female","TEST",1,44,44,1,500,1,0.95,0.42993055450097,1,0.644913309532179,0.9375,"easy","switch","hard","switch",71,0.898054984005284,"cue2.png","B","","","","","","","","easy",,49.8,15.4695223730075,-0.766247602323559,0.766806318292631,1.49003775530212,0.167298961792596,1.37043662298143
"245",104,"Female","TEST",1,45,45,3,500,0.895833333333333,1,0.56875343899992,0.916666666666667,0.42993055450097,1,"hard","switch","easy","switch",25,2.51392862999637,"cue1.png","B","","","","","","","","hard",,49.8,15.4695223730075,0.709082780770039,-0.0599574554958148,-0.790297253949366,0.783930103848605,-1.60315227594053
"246",104,"Female","TEST",1,46,46,3,500,0.909090909090909,0.895833333333333,0.686069238247001,0.909090909090909,0.56875343899992,0.916666666666667,"hard","repetition","hard","switch",28,0.704412013990805,"cue1.png","B","","","","","","","","hard",,49.8,15.4695223730075,1.95584813700665,-0.135117798567492,0.682205429171777,-0.0382447522260737,-1.40922256514128
"247",104,"Female","TEST",1,47,47,1,500,1,0.909090909090909,0.389641925249634,1,0.686069238247001,0.909090909090909,"easy","switch","hard","repetition",74,1.2664410169964,"cue2.png","B","","","","","","","","easy",,49.8,15.4695223730075,-1.19441215921359,0.766806318292631,1.92658116583308,-0.112987920960135,1.56436633378068
"248",104,"Female","TEST",1,48,48,1,500,1,1,0.40584355637202,1,0.389641925249634,1,"easy","repetition","easy","switch",64,0.76081876999524,"cue2.png","B","","","","","","","","easy",,49.8,15.4695223730075,-1.02223047074918,0.766806318292631,-1.21764116692154,0.783930103848605,0.917933964449823
"249",104,"Female","TEST",1,49,49,3,500,0.95,1,0.634556199498807,0.875,0.40584355637202,1,"hard","switch","easy","repetition",24,0.695266841998091,"cue1.png","B","","","","","","","","hard",,49.8,15.4695223730075,1.4083969623319,-0.473339342390037,-1.04578949142324,0.783930103848605,-1.66779551287362
"250",104,"Female","TEST",1,50,50,1,500,0.9375,0.95,0.429010015688618,1,0.634556199498807,0.875,"easy","switch","hard","switch",61,1.47847358400759,"cue2.png","B","","","","","","","","easy",,49.8,15.4695223730075,-0.776030563422382,0.766806318292631,1.38017926641849,-0.449332180263412,0.724004253650564
"251",59,"Female","TEST",1,1,1,1,159,0.958333333333333,,0.43123215463658,1,,,"easy",,,,25,0.98542781499782,"cue1.png","A","","","","","","","","easy",,20.1,6.31567534805588,-1.15022747677127,0.733121760817789,,,0.775847352810549
"252",59,"Female","TEST",1,2,2,3,159,0.6875,0.958333333333333,0.519420809363675,0.75,0.43123215463658,1,"hard","switch","easy",,25,0.846225953002431,"cue2.png","A","","","","","","","","hard",,20.1,6.31567534805588,0.142202839068046,-2.41421664822789,-1.1592988751736,0.732634528434145,0.775847352810549
"253",59,"Female","TEST",1,3,3,1,159,0.938095238095238,0.6875,0.457075057182175,0.933333333333333,0.519420809363675,0.75,"easy","switch","hard","switch",23,0.921512848002749,"cue1.png","A","","","","","","","","easy",,20.1,6.31567534805588,-0.77149224373515,-0.106168481594392,0.124853745641706,-2.3792775609451,0.459174963908284
"254",59,"Female","TEST",1,4,4,3,159,0.880208333333333,0.938095238095238,0.693876213849944,0.721590909090909,0.457075057182175,0.933333333333333,"hard","switch","easy","switch",23,0.553940458001307,"cue2.png","A","","","","","","","","hard",,20.1,6.31567534805588,2.69889739595634,-2.7718687401649,-0.782989347195229,-0.0972086954003193,0.459174963908284
"255",59,"Female","TEST",1,5,5,3,159,0.875,0.880208333333333,0.46211141278955,0.863636363636364,0.693876213849944,0.721590909090909,"hard","repetition","hard","switch",28,0.644324463002704,"cue2.png","A","","","","","","","","hard",,20.1,6.31567534805588,-0.697682991417361,-0.983608280479854,2.66517330919217,-2.73290393473819,1.25085593616395
"256",59,"Female","TEST",1,6,6,1,159,0.958333333333333,0.875,0.412666139091347,1,0.46211141278955,0.863636363636364,"easy","switch","hard","repetition",25,0.797507164999843,"cue1.png","A","","","","","","","","easy",,20.1,6.31567534805588,-1.4223178200162,0.733121760817789,-0.709652824798078,-0.964772065772714,0.775847352810549
"257",59,"Female","TEST",1,7,7,3,159,0.78125,0.958333333333333,0.59917263594731,0.738636363636364,0.412666139091347,1,"hard","switch","easy","switch",18,1.18688678600302,"cue2.png","A","","","","","","","","hard",,20.1,6.31567534805588,1.31098899120085,-2.55727748500269,-1.42964654738029,0.732634528434145,-0.332506008347378
"258",59,"Female","TEST",1,8,8,3,159,0.78125,0.78125,0.661651883000082,0.829545454545455,0.59917263594731,0.738636363636364,"hard","repetition","hard","switch",24,1.32202677900204,"cue2.png","A","","","","","","","","hard",,20.1,6.31567534805588,2.2266404800653,-1.41279079080426,1.28615411289537,-2.52072811046233,0.617511158359416
"259",59,"Female","TEST",1,9,9,1,159,0.964285714285714,0.78125,0.47519673077295,1,0.661651883000082,0.829545454545455,"easy","switch","hard","repetition",33,0.72805689300003,"cue1.png","A","","","","","","","","easy",,20.1,6.31567534805588,-0.505913860722735,0.733121760817789,2.19594108149888,-1.38912371432443,2.04253690841961
"260",59,"Female","TEST",1,10,10,1,159,0.875,0.964285714285714,0.436867929955042,1,0.47519673077295,1,"easy","repetition","easy","switch",33,0.918883378002647,"cue1.png","A","","","","","","","","easy",,20.1,6.31567534805588,-1.06763355471429,0.733121760817789,-0.519111927733888,0.732634528434145,2.04253690841961
"261",59,"Female","TEST",1,11,11,3,159,0.807291666666667,0.875,0.535436143428039,0.767045454545455,0.436867929955042,1,"hard","switch","easy","repetition",16,0.828714131999732,"cue2.png","A","","","","","","","","hard",,20.1,6.31567534805588,0.376912205336655,-2.19962539306569,-1.07723394666408,0.732634528434145,-0.649178397249643
"262",59,"Female","TEST",1,12,12,1,159,0.984375,0.807291666666667,0.478980336091064,0.9375,0.535436143428039,0.767045454545455,"easy","switch","hard","switch",27,0.878257136002503,"cue1.png","A","","","","","","","","easy",,20.1,6.31567534805588,-0.450464027278349,-0.053712841443631,0.358059856741011,-2.16710173666924,1.09251974171281
"263",59,"Female","TEST",1,13,13,1,159,0.984375,0.984375,0.44570029186368,0.9375,0.478980336091064,0.9375,"easy","repetition","easy","switch",23,1.1792420769998,"cue1.png","A","","","","","","","","easy",,20.1,6.31567534805588,-0.938192728946936,-0.053712841443631,-0.464017236694288,-0.0453434939106655,0.459174963908284
"264",59,"Female","TEST",1,14,14,1,159,1,0.984375,0.430381876590797,1,0.44570029186368,0.9375,"easy","repetition","easy","repetition",29,0.95493203800288,"cue1.png","A","","","","","","","","easy",,20.1,6.31567534805588,-1.16268854817171,0.733121760817789,-0.948622157221725,-0.0453434939106655,1.40919213061508
"265",59,"Female","TEST",1,15,15,3,159,0.938095238095238,1,0.494528395908922,0.933333333333333,0.430381876590797,1,"hard","switch","easy","repetition",24,1.23910685200099,"cue2.png","A","","","","","","","","hard",,20.1,6.31567534805588,-0.222602700634164,-0.106168481594392,-1.1716801365081,0.732634528434145,0.617511158359416
"266",59,"Female","TEST",1,16,16,1,159,0.984375,0.938095238095238,0.443218545636145,0.9375,0.494528395908922,0.933333333333333,"easy","switch","hard","switch",12,0.945503958002519,"cue1.png","A","","","","","","","","easy",,20.1,6.31567534805588,-0.974563439789634,-0.053712841443631,-0.237615305227244,-0.0972086954003193,-1.28252317505417
"267",59,"Female","TEST",1,17,17,1,159,0.84375,0.984375,0.373130250619094,0.829545454545455,0.443218545636145,0.9375,"easy","repetition","easy","switch",26,1.37917269000172,"cue1.png","A","","","","","","","","easy",,20.1,6.31567534805588,-2.00172773372115,-1.41279079080426,-0.984759922699034,-0.0453434939106655,0.934183547261681
"268",59,"Female","TEST",1,18,18,3,159,0.880208333333333,0.84375,0.621220700681905,0.9375,0.373130250619094,0.829545454545455,"hard","switch","easy","repetition",10,1.00219731899779,"cue2.png","A","","","","","","","","hard",,20.1,6.31567534805588,1.63410977535115,-0.053712841443631,-2.00534548456235,-1.38912371432443,-1.59919556395644
"269",59,"Female","TEST",1,19,19,3,159,0.916666666666667,0.880208333333333,0.676489506381109,0.954545454545455,0.621220700681905,0.9375,"hard","repetition","hard","switch",11,0.906487670999923,"cue2.png","A","","","","","","","","hard",,20.1,6.31567534805588,2.44409015465199,0.160878413718575,1.60720538871371,-0.0453434939106655,-1.44085936950531
"270",59,"Female","TEST",1,20,20,3,159,0.911904761904762,0.916666666666667,0.60307442285713,0.821212121212121,0.676489506381109,0.954545454545455,"hard","repetition","hard","repetition",22,1.46164748199953,"cue2.png","A","","","","","","","","hard",,20.1,6.31567534805588,1.36817081015252,-1.51770207110579,2.41199804495273,0.166832330365192,0.300838769457151
"271",59,"Female","TEST",1,21,21,1,159,0.847619047619048,0.911904761904762,0.44807505650004,0.933333333333333,0.60307442285713,0.821212121212121,"easy","switch","hard","repetition",24,0.89471434999723,"cue1.png","A","","","","","","","","easy",,20.1,6.31567534805588,-0.903389864354969,-0.106168481594392,1.34296969650545,-1.49285411730374,0.617511158359416
"272",59,"Female","TEST",1,22,22,3,159,0.928571428571429,0.847619047619048,0.652401127666558,0.818181818181818,0.44807505650004,0.933333333333333,"hard","switch","easy","switch",20,1.01424296000187,"cue2.png","A","","","","","","","","hard",,20.1,6.31567534805588,2.09106797729318,-1.55585162757907,-0.914042196329496,-0.0972086954003193,-0.0158336194451135
"273",59,"Female","TEST",1,23,23,3,159,0.857142857142857,0.928571428571429,0.648355902286442,0.821212121212121,0.652401127666558,0.818181818181818,"hard","repetition","hard","switch",14,1.41205547700156,"cue2.png","A","","","","","","","","hard",,20.1,6.31567534805588,2.03178402595222,-1.51770207110579,2.06123688691934,-1.53057426384167,-0.965850786151908
"274",59,"Female","TEST",1,24,24,3,159,0.90625,0.857142857142857,0.627058928727241,0.875,0.648355902286442,0.821212121212121,"hard","repetition","hard","repetition",21,1.52780483199967,"cue2.png","A","","","","","","","","hard",,20.1,6.31567534805588,1.71967070084576,-0.840547443705051,2.00233263455558,-1.49285411730374,0.142502575006019
"275",59,"Female","TEST",1,25,25,1,159,1,0.90625,0.465762696227433,1,0.627058928727241,0.875,"easy","switch","hard","repetition",17,0.82835869200062,"cue1.png","A","","","","","","","","easy",,20.1,6.31567534805588,-0.644172373510269,0.733121760817789,1.69221831774109,-0.823321516255476,-0.490842202798511
"276",59,"Female","TEST",1,26,26,1,159,1,1,0.436178107318318,1,0.465762696227433,1,"easy","repetition","easy","switch",12,1.3963111990015,"cue1.png","A","","","","","","","","easy",,20.1,6.31567534805588,-1.0777431055518,0.733121760817789,-0.65648492910212,0.732634528434145,-1.28252317505417
"277",59,"Female","TEST",1,27,27,3,159,0.90625,1,0.5206633760911,0.875,0.436178107318318,1,"hard","switch","easy","repetition",15,1.24649796399899,"cue2.png","A","","","","","","","","hard",,20.1,6.31567534805588,0.160413014888808,-0.840547443705051,-1.08727874834055,0.732634528434145,-0.807514591700776
"278",59,"Female","TEST",1,28,28,1,159,0.932291666666667,0.90625,0.41393197186401,0.9375,0.5206633760911,0.875,"easy","switch","hard","switch",9,0.872124276997056,"cue1.png","A","","","","","","","","easy",,20.1,6.31567534805588,-1.4037666735537,-0.053712841443631,0.142947289811282,-0.823321516255476,-1.75753175840757
"279",59,"Female","TEST",1,29,29,1,159,0.958333333333333,0.932291666666667,0.364327576317836,1,0.41393197186401,0.9375,"easy","repetition","easy","switch",15,0.881723450998834,"cue1.png","A","","","","","","","","easy",,20.1,6.31567534805588,-2.13073347899089,0.733121760817789,-1.4112142164012,-0.0453434939106655,-0.807514591700776
"280",59,"Female","TEST",1,30,30,3,159,0.770833333333333,0.958333333333333,0.606687067899657,0.846590909090909,0.364327576317836,1,"hard","switch","easy","repetition",16,0.819100307999179,"cue2.png","A","","","","","","","","hard",,20.1,6.31567534805588,1.42111517116786,-1.19819953564206,-2.13352498008957,0.732634528434145,-0.649178397249643
"281",59,"Female","TEST",1,31,31,3,159,0.892857142857143,0.770833333333333,0.548403722727512,0.933333333333333,0.606687067899657,0.846590909090909,"hard","repetition","hard","switch",18,1.23192851100248,"cue2.png","A","","","","","","","","hard",,20.1,6.31567534805588,0.566955841465975,-0.106168481594392,1.39557496204435,-1.17694789004857,-0.332506008347378
"282",59,"Female","TEST",1,32,32,1,159,0.958333333333333,0.892857142857143,0.425858347500087,1,0.548403722727512,0.933333333333333,"easy","switch","hard","repetition",10,0.797831632000452,"cue1.png","A","","","","","","","","easy",,20.1,6.31567534805588,-1.22898217913259,0.733121760817789,0.546886310603826,-0.0972086954003193,-1.59919556395644
"283",59,"Female","TEST",1,33,33,1,159,0.964285714285714,0.958333333333333,0.431235902857311,0.954545454545455,0.425858347500087,1,"easy","repetition","easy","switch",15,1.04812775399841,"cue1.png","A","","","","","","","","easy",,20.1,6.31567534805588,-1.15017254550921,0.160878413718575,-1.23754917323562,0.732634528434145,-0.807514591700776
"284",59,"Female","TEST",1,34,34,1,159,1,0.964285714285714,0.445853515136068,1,0.431235902857311,0.954545454545455,"easy","repetition","easy","repetition",18,1.01525453199793,"cue1.png","A","","","","","","","","easy",,20.1,6.31567534805588,-0.935947197444737,0.733121760817789,-1.15924429573263,0.166832330365192,-0.332506008347378
"285",59,"Female","TEST",1,35,35,3,159,0.821428571428571,1,0.52054038849983,0.709090909090909,0.445853515136068,1,"hard","switch","easy","repetition",26,1.1900635719976,"cue2.png","A","","","","","","","","hard",,20.1,6.31567534805588,0.158610596063842,-2.92923566061718,-0.946391007790818,0.732634528434145,0.934183547261681
"286",59,"Female","TEST",1,36,36,3,159,0.95,0.821428571428571,0.553769623749758,0.709090909090909,0.52054038849983,0.709090909090909,"hard","repetition","hard","switch",24,2.33779964299902,"cue2.png","A","","","","","","","","hard",,20.1,6.31567534805588,0.645594677429681,-2.92923566061718,0.141156415031018,-2.88849953920715,0.617511158359416
"287",59,"Female","TEST",1,37,37,1,159,1,0.95,0.40423292450032,1,0.553769623749758,0.709090909090909,"easy","switch","hard","repetition",16,1.03117365000071,"cue1.png","A","","","","","","","","easy",,20.1,6.31567534805588,-1.54590902606362,0.733121760817789,0.625021484363719,-2.88849953920715,-0.649178397249643
"288",59,"Female","TEST",1,38,38,3,159,0.84375,1,0.563242754166519,0.693181818181818,0.40423292450032,1,"hard","switch","easy","switch",9,1.16230088299926,"cue2.png","A","","","","","","","","hard",,20.1,6.31567534805588,0.784426151550797,-3.12952083210191,-1.55244618246347,0.732634528434145,-1.75753175840757
"289",59,"Female","TEST",1,39,39,3,159,0.880208333333333,0.84375,0.6253025604998,0.9375,0.563242754166519,0.693181818181818,"hard","repetition","hard","switch",16,1.16212173999884,"cue2.png","A","","","","","","","","hard",,20.1,6.31567534805588,1.69393061500427,-0.053712841443631,0.762963777390563,-3.08653030853129,-0.649178397249643
"290",59,"Female","TEST",1,40,40,3,159,0.964285714285714,0.880208333333333,0.592043280094783,0.954545454545455,0.6253025604998,0.9375,"hard","repetition","hard","repetition",17,1.28145355000015,"cue2.png","A","","","","","","","","hard",,20.1,6.31567534805588,1.20650621317542,0.160878413718575,1.6666430907534,-0.0453434939106655,-0.490842202798511
"291",59,"Female","TEST",1,41,41,1,159,0.928571428571429,0.964285714285714,0.442470874727653,1,0.592043280094783,0.954545454545455,"easy","switch","hard","repetition",25,2.0123051369992,"cue1.png","A","","","","","","","","easy",,20.1,6.31567534805588,-0.985520773829891,0.733121760817789,1.18234052110084,0.166832330365192,0.775847352810549
"292",59,"Female","TEST",1,42,42,3,159,0.90625,0.928571428571429,0.608425502409194,0.875,0.442470874727653,1,"hard","switch","easy","switch",24,0.797055005001312,"cue2.png","A","","","","","","","","hard",,20.1,6.31567534805588,1.44659243317146,-0.840547443705051,-0.995647077737492,0.732634528434145,0.617511158359416
"293",59,"Female","TEST",1,43,43,3,159,0.938095238095238,0.90625,0.577378428285426,0.887878787878788,0.608425502409194,0.875,"hard","repetition","hard","switch",22,1.32328340499953,"cue2.png","A","","","","","","","","hard",,20.1,6.31567534805588,0.991588556087257,-0.678411828693606,1.42088904851552,-0.823321516255476,0.300838769457151
"294",59,"Female","TEST",1,44,44,1,159,1,0.938095238095238,0.498876917863857,1,0.577378428285426,0.887878787878788,"easy","switch","hard","repetition",25,1.14532517000043,"cue1.png","A","","","","","","","","easy",,20.1,6.31567534805588,-0.158873850012238,0.733121760817789,0.96879935820262,-0.663010893469272,0.775847352810549
"295",59,"Female","TEST",1,45,45,1,159,0.984375,1,0.437186612363307,0.9375,0.498876917863857,1,"easy","repetition","easy","switch",20,0.901817125999514,"cue1.png","A","","","","","","","","easy",,20.1,6.31567534805588,-1.06296317158122,-0.053712841443631,-0.174294622057918,0.732634528434145,-0.0158336194451135
"296",59,"Female","TEST",1,46,46,1,159,0.958333333333333,0.984375,0.400180843809288,0.954545454545455,0.437186612363307,0.9375,"easy","repetition","easy","repetition",20,1.08376935399792,"cue1.png","A","","","","","","","","easy",,20.1,6.31567534805588,-1.60529344397455,0.160878413718575,-1.07259347617446,-0.0453434939106655,-0.0158336194451135
"297",59,"Female","TEST",1,47,47,3,159,0.880208333333333,0.958333333333333,0.513562217090194,0.9375,0.400180843809288,0.954545454545455,"hard","switch","easy","repetition",33,1.02821639100148,"cue2.png","A","","","","","","","","hard",,20.1,6.31567534805588,0.0563434699029298,-0.053712841443631,-1.61145025793379,0.166832330365192,2.04253690841961
"298",59,"Female","TEST",1,48,48,3,159,0.916666666666667,0.880208333333333,0.520778247227513,1,0.513562217090194,0.9375,"hard","repetition","hard","switch",20,1.18045224299931,"cue2.png","A","","","","","","","","hard",,20.1,6.31567534805588,0.16209648471352,0.733121760817789,0.0395442844013671,-0.0453434939106655,-0.0158336194451135
"299",59,"Female","TEST",1,49,49,1,159,0.928571428571429,0.916666666666667,0.450008106590593,1,0.520778247227513,1,"easy","switch","hard","repetition",14,1.11093414099741,"cue1.png","A","","","","","","","","easy",,20.1,6.31567534805588,-0.875060454559596,0.733121760817789,0.144619977430083,0.732634528434145,-0.965850786151908
"300",59,"Female","TEST",1,50,50,1,159,1,0.928571428571429,0.430038343681769,1,0.450008106590593,1,"easy","repetition","easy","switch",13,1.43898024499867,"cue1.png","A","","","","","","","","easy",,20.1,6.31567534805588,-1.16772312260184,0.733121760817789,-0.885894229364442,0.732634528434145,-1.12418698060304
"301",71,"Female","TEST",1,1,1,1,500,0.9375,,0.415463975374223,1,,,"easy",,,,71,1.00360890998854,"cue1.png","A","","","","","","","","easy",,23.62,22.3112399604197,0.0473482526783491,0.800933978818189,,,2.1235933136864
"302",71,"Female","TEST",1,2,2,3,500,0.781818181818182,0.9375,0.446545026999047,0.818181818181818,0.415463975374223,1,"hard","switch","easy",,58,1.31258014400373,"cue2.png","A","","","","","","","","hard",,23.62,22.3112399604197,0.511772154456445,-0.813778280884001,0.0326343173022184,0.819450881383536,1.54092735594213
"303",71,"Female","TEST",1,3,3,1,500,0.708333333333333,0.781818181818182,0.511782399999902,0.916666666666667,0.446545026999047,0.818181818181818,"easy","switch","hard","switch",69,1.0543512479926,"cue1.png","A","","","","","","","","easy",,23.62,22.3112399604197,1.48657171003557,0.0608575264546849,0.493018877960546,-0.78753641406734,2.03395239711036
"304",71,"Female","TEST",1,4,4,3,500,0.611363636363636,0.708333333333333,0.484718941250321,0.727272727272727,0.511782399999902,0.916666666666667,"hard","switch","easy","switch",70,0.929658485998516,"cue2.png","A","","","","","","","","hard",,23.62,22.3112399604197,1.0821800806979,-1.6211344107351,1.45934008452854,0.0829150376352178,2.07877285539838
"305",71,"Female","TEST",1,5,5,3,500,0.708333333333333,0.611363636363636,0.434967782798534,0.854166666666667,0.484718941250321,0.727272727272727,"hard","repetition","hard","switch",50,0.878677456988953,"cue2.png","A","","","","","","","","hard",,23.62,22.3112399604197,0.338780938189299,-0.494199812817943,1.05846566378117,-1.59103006179278,1.18236368963797
"306",71,"Female","TEST",1,6,6,1,500,0.95,0.708333333333333,0.425487157400736,0.9375,0.434967782798534,0.854166666666667,"easy","switch","hard","repetition",53,1.18234051500622,"cue1.png","A","","","","","","","","easy",,23.62,22.3112399604197,0.197118130518244,0.245876639545561,0.321532258098864,-0.469486845176021,1.31682506450203
