"subj_idx","ChoiceRT","ChoiceDemand","TaskDemand","trial","DemandAversive_on","DemandAvoidance_true","response","rt","split_by","feedback","q_init"
40,0.015543748,"hard","mid",4,"no_demand_aversive","demand_avoid",0,0.015543748,0,0.5,0.5
40,0.016075635,"hard","mid",5,"no_demand_aversive","demand_avoid",0,0.016075635,0,0.5,0.5
40,0.018364395,"easy","mid",6,"no_demand_aversive","demand_avoid",1,0.018364395,0,0.5,0.5
40,0.017815836,"easy","mid",7,"no_demand_aversive","demand_avoid",1,0.017815836,0,0.5,0.5
40,0.017367216,"easy","mid",17,"no_demand_aversive","demand_avoid",1,0.017367216,0,0.5,0.5
40,0.016134831,"easy","mid",14,"no_demand_aversive","demand_avoid",1,0.016134831,0,0.5,0.5
40,0.017496859,"hard","mid",15,"no_demand_aversive","demand_avoid",0,0.017496859,0,0.5,0.5
40,0.016020022,"hard","mid",16,"no_demand_aversive","demand_avoid",0,0.016020022,0,0.5,0.5
40,0.016934861,"hard","mid",25,"no_demand_aversive","demand_avoid",0,0.016934861,0,0.5,0.5
40,0.016629748,"hard","mid",26,"no_demand_aversive","demand_avoid",0,0.016629748,0,0.5,0.5
40,0.01561407,"hard","mid",27,"no_demand_aversive","demand_avoid",0,0.01561407,0,0.5,0.5
40,0.017904457,"easy","mid",28,"no_demand_aversive","demand_avoid",1,0.017904457,0,0.5,0.5
40,0.018214894,"hard","mid",29,"no_demand_aversive","demand_avoid",0,0.018214894,0,0.5,0.5
40,0.015048601,"hard","mid",30,"no_demand_aversive","demand_avoid",0,0.015048601,0,0.5,0.5
40,0.016445387,"easy","mid",18,"no_demand_aversive","demand_avoid",1,0.016445387,0,0.5,0.5
40,0.017799786,"hard","mid",19,"no_demand_aversive","demand_avoid",0,0.017799786,0,0.5,0.5
40,0.018038615,"hard","mid",20,"no_demand_aversive","demand_avoid",0,0.018038615,0,0.5,0.5
40,0.017763973,"hard","mid",21,"no_demand_aversive","demand_avoid",0,0.017763973,0,0.5,0.5
40,0.015944959,"hard","mid",22,"no_demand_aversive","demand_avoid",0,0.015944959,0,0.5,0.5
40,0.01680001,"hard","mid",23,"no_demand_aversive","demand_avoid",0,0.01680001,0,0.5,0.5
40,0.016062737,"easy","mid",24,"no_demand_aversive","demand_avoid",1,0.016062737,0,0.5,0.5
40,0.016549961,"easy","mid",1,"no_demand_aversive","demand_avoid",1,0.016549961,0,0.5,0.5
40,0.017135813,"hard","mid",2,"no_demand_aversive","demand_avoid",0,0.017135813,0,0.5,0.5
40,0.016105594,"easy","mid",3,"no_demand_aversive","demand_avoid",1,0.016105594,0,0.5,0.5
40,0.016333656,"hard","mid",42,"no_demand_aversive","demand_avoid",0,0.016333656,0,0.5,0.5
40,0.014697214,"hard","mid",43,"no_demand_aversive","demand_avoid",0,0.014697214,0,0.5,0.5
40,0.017595772,"hard","mid",44,"no_demand_aversive","demand_avoid",0,0.017595772,0,0.5,0.5
40,0.017274108,"easy","mid",45,"no_demand_aversive","demand_avoid",1,0.017274108,0,0.5,0.5
40,0.016702741,"hard","mid",46,"no_demand_aversive","demand_avoid",0,0.016702741,0,0.5,0.5
40,0.018097589,"hard","mid",47,"no_demand_aversive","demand_avoid",0,0.018097589,0,0.5,0.5
40,0.015917711,"hard","mid",48,"no_demand_aversive","demand_avoid",0,0.015917711,0,0.5,0.5
40,0.017360701,"hard","mid",49,"no_demand_aversive","demand_avoid",0,0.017360701,0,0.5,0.5
40,0.016699702,"hard","mid",50,"no_demand_aversive","demand_avoid",0,0.016699702,0,0.5,0.5
40,0.01562979,"easy","mid",10,"no_demand_aversive","demand_avoid",1,0.01562979,0,0.5,0.5
40,0.015457799,"hard","mid",11,"no_demand_aversive","demand_avoid",0,0.015457799,0,0.5,0.5
40,0.016870091,"easy","mid",12,"no_demand_aversive","demand_avoid",1,0.016870091,0,0.5,0.5
40,0.016957893,"hard","mid",13,"no_demand_aversive","demand_avoid",0,0.016957893,0,0.5,0.5
40,0.015894263,"hard","mid",40,"no_demand_aversive","demand_avoid",0,0.015894263,0,0.5,0.5
40,0.009694649,"hard","mid",41,"no_demand_aversive","demand_avoid",0,0.009694649,0,0.5,0.5
40,0.017037333,"hard","mid",33,"no_demand_aversive","demand_avoid",0,0.017037333,0,0.5,0.5
40,0.016433782,"hard","mid",34,"no_demand_aversive","demand_avoid",0,0.016433782,0,0.5,0.5
40,0.01620281,"hard","mid",31,"no_demand_aversive","demand_avoid",0,0.01620281,0,0.5,0.5
40,0.017996753,"hard","mid",32,"no_demand_aversive","demand_avoid",0,0.017996753,0,0.5,0.5
40,0.016688055,"hard","mid",37,"no_demand_aversive","demand_avoid",0,0.016688055,0,0.5,0.5
40,0.016720381,"hard","mid",38,"no_demand_aversive","demand_avoid",0,0.016720381,0,0.5,0.5
40,0.016109881,"hard","mid",35,"no_demand_aversive","demand_avoid",0,0.016109881,0,0.5,0.5
40,0.015907344,"hard","mid",36,"no_demand_aversive","demand_avoid",0,0.015907344,0,0.5,0.5
40,0.017883712,"hard","mid",9,"no_demand_aversive","demand_avoid",0,0.017883712,0,0.5,0.5
40,0.014658462,"hard","mid",39,"no_demand_aversive","demand_avoid",0,0.014658462,0,0.5,0.5
40,0.017348902,"hard","mid",8,"no_demand_aversive","demand_avoid",0,0.017348902,0,0.5,0.5
42,0.01667455,"easy","mid",1,"demand_aversive","demand_avoid",1,0.01667455,0,0.5,0.5
42,0.016830306,"hard","mid",2,"demand_aversive","demand_avoid",0,0.016830306,0,0.5,0.5
42,0.016808962,"hard","mid",15,"demand_aversive","demand_avoid",0,0.016808962,0,0.5,0.5
42,0.017327764,"easy","mid",3,"demand_aversive","demand_avoid",1,0.017327764,0,0.5,0.5
42,0.014801651,"hard","mid",4,"demand_aversive","demand_avoid",0,0.014801651,0,0.5,0.5
42,0.016735953,"easy","mid",14,"demand_aversive","demand_avoid",1,0.016735953,0,0.5,0.5
42,0.016944807,"hard","mid",26,"demand_aversive","demand_avoid",0,0.016944807,0,0.5,0.5
42,0.016585332,"hard","mid",27,"demand_aversive","demand_avoid",0,0.016585332,0,0.5,0.5
42,0.016939005,"easy","mid",28,"demand_aversive","demand_avoid",1,0.016939005,0,0.5,0.5
42,0.017173508,"hard","mid",29,"demand_aversive","demand_avoid",0,0.017173508,0,0.5,0.5
42,0.016941077,"easy","mid",5,"demand_aversive","demand_avoid",1,0.016941077,0,0.5,0.5
42,0.016657717,"hard","mid",6,"demand_aversive","demand_avoid",0,0.016657717,0,0.5,0.5
42,0.01699862,"easy","mid",7,"demand_aversive","demand_avoid",1,0.01699862,0,0.5,0.5
42,0.010064495,"hard","mid",8,"demand_aversive","demand_avoid",0,0.010064495,0,0.5,0.5
42,0.007385168,"hard","mid",9,"demand_aversive","demand_avoid",0,0.007385168,0,0.5,0.5
42,0.016765205,"hard","mid",10,"demand_aversive","demand_avoid",0,0.016765205,0,0.5,0.5
42,0.017630186,"hard","mid",11,"demand_aversive","demand_avoid",0,0.017630186,0,0.5,0.5
42,0.017021793,"easy","mid",12,"demand_aversive","demand_avoid",1,0.017021793,0,0.5,0.5
42,0.016852923,"easy","mid",13,"demand_aversive","demand_avoid",1,0.016852923,0,0.5,0.5
42,0.017379995,"easy","mid",37,"demand_aversive","demand_avoid",1,0.017379995,0,0.5,0.5
42,0.016998298,"hard","mid",38,"demand_aversive","demand_avoid",0,0.016998298,0,0.5,0.5
42,0.017059929,"easy","mid",39,"demand_aversive","demand_avoid",1,0.017059929,0,0.5,0.5
42,0.016714733,"hard","mid",40,"demand_aversive","demand_avoid",0,0.016714733,0,0.5,0.5
42,0.017071194,"hard","mid",41,"demand_aversive","demand_avoid",0,0.017071194,0,0.5,0.5
42,0.01660088,"hard","mid",42,"demand_aversive","demand_avoid",0,0.01660088,0,0.5,0.5
42,0.016683517,"hard","mid",43,"demand_aversive","demand_avoid",0,0.016683517,0,0.5,0.5
42,0.016577252,"hard","mid",44,"demand_aversive","demand_avoid",0,0.016577252,0,0.5,0.5
42,0.01684656,"hard","mid",45,"demand_aversive","demand_avoid",0,0.01684656,0,0.5,0.5
42,0.019148021,"easy","mid",46,"demand_aversive","demand_avoid",1,0.019148021,0,0.5,0.5
42,0.016670389,"easy","mid",47,"demand_aversive","demand_avoid",1,0.016670389,0,0.5,0.5
42,0.010131419,"hard","mid",48,"demand_aversive","demand_avoid",0,0.010131419,0,0.5,0.5
42,0.017064635,"hard","mid",49,"demand_aversive","demand_avoid",0,0.017064635,0,0.5,0.5
42,0.016907742,"easy","mid",50,"demand_aversive","demand_avoid",1,0.016907742,0,0.5,0.5
42,0.016874884,"easy","mid",17,"demand_aversive","demand_avoid",1,0.016874884,0,0.5,0.5
42,0.017085291,"easy","mid",18,"demand_aversive","demand_avoid",1,0.017085291,0,0.5,0.5
42,0.01728347,"hard","mid",19,"demand_aversive","demand_avoid",0,0.01728347,0,0.5,0.5
42,0.016876385,"hard","mid",16,"demand_aversive","demand_avoid",0,0.016876385,0,0.5,0.5
42,0.016787475,"hard","mid",21,"demand_aversive","demand_avoid",0,0.016787475,0,0.5,0.5
42,0.017106056,"easy","mid",22,"demand_aversive","demand_avoid",1,0.017106056,0,0.5,0.5
42,0.016769617,"hard","mid",23,"demand_aversive","demand_avoid",0,0.016769617,0,0.5,0.5
42,0.016374605,"easy","mid",20,"demand_aversive","demand_avoid",1,0.016374605,0,0.5,0.5
42,0.016779121,"easy","mid",25,"demand_aversive","demand_avoid",1,0.016779121,0,0.5,0.5
42,0.01719157,"hard","mid",32,"demand_aversive","demand_avoid",0,0.01719157,0,0.5,0.5
42,0.016802064,"hard","mid",33,"demand_aversive","demand_avoid",0,0.016802064,0,0.5,0.5
42,0.016691725,"hard","mid",24,"demand_aversive","demand_avoid",0,0.016691725,0,0.5,0.5
42,0.01698769,"easy","mid",31,"demand_aversive","demand_avoid",1,0.01698769,0,0.5,0.5
42,0.016907182,"hard","mid",36,"demand_aversive","demand_avoid",0,0.016907182,0,0.5,0.5
42,0.016859276,"hard","mid",30,"demand_aversive","demand_avoid",0,0.016859276,0,0.5,0.5
42,0.016773244,"hard","mid",35,"demand_aversive","demand_avoid",0,0.016773244,0,0.5,0.5
42,0.017174783,"easy","mid",34,"demand_aversive","demand_avoid",1,0.017174783,0,0.5,0.5
45,0.017411132,"hard","mid",1,"no_demand_aversive","demand_avoid",0,0.017411132,0,0.5,0.5
45,0.011078575,"easy","mid",11,"no_demand_aversive","demand_avoid",1,0.011078575,0,0.5,0.5
45,0.017513162,"hard","mid",12,"no_demand_aversive","demand_avoid",0,0.017513162,0,0.5,0.5
45,0.017142862,"hard","mid",13,"no_demand_aversive","demand_avoid",0,0.017142862,0,0.5,0.5
45,0.018100644,"easy","mid",14,"no_demand_aversive","demand_avoid",1,0.018100644,0,0.5,0.5
45,0.011065567,"hard","mid",15,"no_demand_aversive","demand_avoid",0,0.011065567,0,0.5,0.5
45,0.016273546,"hard","mid",16,"no_demand_aversive","demand_avoid",0,0.016273546,0,0.5,0.5
45,0.01615206,"hard","mid",17,"no_demand_aversive","demand_avoid",0,0.01615206,0,0.5,0.5
45,0.016801941,"easy","mid",18,"no_demand_aversive","demand_avoid",1,0.016801941,0,0.5,0.5
45,0.010848628,"easy","mid",19,"no_demand_aversive","demand_avoid",1,0.010848628,0,0.5,0.5
45,0.017264197,"hard","mid",20,"no_demand_aversive","demand_avoid",0,0.017264197,0,0.5,0.5
45,0.016072329,"hard","mid",21,"no_demand_aversive","demand_avoid",0,0.016072329,0,0.5,0.5
45,0.010646474,"easy","mid",22,"no_demand_aversive","demand_avoid",1,0.010646474,0,0.5,0.5
45,0.016587017,"easy","mid",23,"no_demand_aversive","demand_avoid",1,0.016587017,0,0.5,0.5
45,0.017078006,"easy","mid",24,"no_demand_aversive","demand_avoid",1,0.017078006,0,0.5,0.5
45,0.016274974,"easy","mid",25,"no_demand_aversive","demand_avoid",1,0.016274974,0,0.5,0.5
45,0.016849654,"hard","mid",26,"no_demand_aversive","demand_avoid",0,0.016849654,0,0.5,0.5
45,0.016667189,"easy","mid",27,"no_demand_aversive","demand_avoid",1,0.016667189,0,0.5,0.5
45,0.007396471,"easy","mid",28,"no_demand_aversive","demand_avoid",1,0.007396471,0,0.5,0.5
45,0.016199857,"hard","mid",29,"no_demand_aversive","demand_avoid",0,0.016199857,0,0.5,0.5
45,0.015961232,"easy","mid",30,"no_demand_aversive","demand_avoid",1,0.015961232,0,0.5,0.5
45,0.017128426,"hard","mid",31,"no_demand_aversive","demand_avoid",0,0.017128426,0,0.5,0.5
45,0.010102007,"easy","mid",32,"no_demand_aversive","demand_avoid",1,0.010102007,0,0.5,0.5
45,0.016778731,"easy","mid",33,"no_demand_aversive","demand_avoid",1,0.016778731,0,0.5,0.5
45,0.016647566,"easy","mid",34,"no_demand_aversive","demand_avoid",1,0.016647566,0,0.5,0.5
45,0.016135412,"easy","mid",35,"no_demand_aversive","demand_avoid",1,0.016135412,0,0.5,0.5
45,0.015293163,"hard","mid",36,"no_demand_aversive","demand_avoid",0,0.015293163,0,0.5,0.5
45,0.017499656,"easy","mid",37,"no_demand_aversive","demand_avoid",1,0.017499656,0,0.5,0.5
45,0.006651114,"easy","mid",38,"no_demand_aversive","demand_avoid",1,0.006651114,0,0.5,0.5
45,0.017134883,"hard","mid",39,"no_demand_aversive","demand_avoid",0,0.017134883,0,0.5,0.5
45,0.017520924,"easy","mid",40,"no_demand_aversive","demand_avoid",1,0.017520924,0,0.5,0.5
45,0.017429906,"easy","mid",41,"no_demand_aversive","demand_avoid",1,0.017429906,0,0.5,0.5
45,0.017211892,"hard","mid",2,"no_demand_aversive","demand_avoid",0,0.017211892,0,0.5,0.5
45,0.01707418,"easy","mid",3,"no_demand_aversive","demand_avoid",1,0.01707418,0,0.5,0.5
45,0.017431671,"hard","mid",4,"no_demand_aversive","demand_avoid",0,0.017431671,0,0.5,0.5
45,0.016982262,"hard","mid",5,"no_demand_aversive","demand_avoid",0,0.016982262,0,0.5,0.5
45,0.015827448,"easy","mid",6,"no_demand_aversive","demand_avoid",1,0.015827448,0,0.5,0.5
45,0.016117004,"easy","mid",7,"no_demand_aversive","demand_avoid",1,0.016117004,0,0.5,0.5
45,0.008917836,"hard","mid",8,"no_demand_aversive","demand_avoid",0,0.008917836,0,0.5,0.5
45,0.015827464,"easy","mid",9,"no_demand_aversive","demand_avoid",1,0.015827464,0,0.5,0.5
45,0.016974693,"easy","mid",10,"no_demand_aversive","demand_avoid",1,0.016974693,0,0.5,0.5
45,0.017400504,"easy","mid",50,"no_demand_aversive","demand_avoid",1,0.017400504,0,0.5,0.5
45,0.017678125,"easy","mid",42,"no_demand_aversive","demand_avoid",1,0.017678125,0,0.5,0.5
45,0.015771231,"hard","mid",43,"no_demand_aversive","demand_avoid",0,0.015771231,0,0.5,0.5
45,0.017371276,"hard","mid",44,"no_demand_aversive","demand_avoid",0,0.017371276,0,0.5,0.5
45,0.015341897,"hard","mid",45,"no_demand_aversive","demand_avoid",0,0.015341897,0,0.5,0.5
45,0.017649372,"easy","mid",46,"no_demand_aversive","demand_avoid",1,0.017649372,0,0.5,0.5
45,0.015614182,"easy","mid",47,"no_demand_aversive","demand_avoid",1,0.015614182,0,0.5,0.5
45,0.017054575,"hard","mid",48,"no_demand_aversive","demand_avoid",0,0.017054575,0,0.5,0.5
45,0.017523713,"easy","mid",49,"no_demand_aversive","demand_avoid",1,0.017523713,0,0.5,0.5
47,0.0170113320000382,"easy","mid",44,"demand_aversive","demand_avoid",1,0.0170113320000382,0,0.5,0.5
47,0.0165820359998179,"easy","mid",45,"demand_aversive","demand_avoid",1,0.0165820359998179,0,0.5,0.5
47,0.0173404540000774,"hard","mid",46,"demand_aversive","demand_avoid",0,0.0173404540000774,0,0.5,0.5
47,0.0162326560002839,"hard","mid",43,"demand_aversive","demand_avoid",0,0.0162326560002839,0,0.5,0.5
47,0.0166806580000411,"easy","mid",17,"demand_aversive","demand_avoid",1,0.0166806580000411,0,0.5,0.5
47,0.0169981670005654,"hard","mid",18,"demand_aversive","demand_avoid",0,0.0169981670005654,0,0.5,0.5
47,0.0172114300003159,"easy","mid",19,"demand_aversive","demand_avoid",1,0.0172114300003159,0,0.5,0.5
47,0.0171447250013443,"hard","mid",47,"demand_aversive","demand_avoid",0,0.0171447250013443,0,0.5,0.5
47,0.0174457699995401,"hard","mid",16,"demand_aversive","demand_avoid",0,0.0174457699995401,0,0.5,0.5
47,0.0157669029995304,"easy","mid",30,"demand_aversive","demand_avoid",1,0.0157669029995304,0,0.5,0.5
47,0.0163408090011217,"easy","mid",31,"demand_aversive","demand_avoid",1,0.0163408090011217,0,0.5,0.5
47,0.0167045180005516,"hard","mid",32,"demand_aversive","demand_avoid",0,0.0167045180005516,0,0.5,0.5
47,0.0170657580001716,"hard","mid",20,"demand_aversive","demand_avoid",0,0.0170657580001716,0,0.5,0.5
47,0.0166295800008811,"hard","mid",21,"demand_aversive","demand_avoid",0,0.0166295800008811,0,0.5,0.5
47,0.0165026100003161,"easy","mid",22,"demand_aversive","demand_avoid",1,0.0165026100003161,0,0.5,0.5
47,0.0167294959992432,"easy","mid",23,"demand_aversive","demand_avoid",1,0.0167294959992432,0,0.5,0.5
47,0.0164784879998479,"easy","mid",24,"demand_aversive","demand_avoid",1,0.0164784879998479,0,0.5,0.5
47,0.0167940350002027,"hard","mid",25,"demand_aversive","demand_avoid",0,0.0167940350002027,0,0.5,0.5
47,0.0163916460005566,"hard","mid",26,"demand_aversive","demand_avoid",0,0.0163916460005566,0,0.5,0.5
47,0.0175580869999976,"easy","mid",27,"demand_aversive","demand_avoid",1,0.0175580869999976,0,0.5,0.5
47,0.0168709119989217,"easy","mid",28,"demand_aversive","demand_avoid",1,0.0168709119989217,0,0.5,0.5
47,0.016503869999724,"easy","mid",29,"demand_aversive","demand_avoid",1,0.016503869999724,0,0.5,0.5
47,0.0164317819999269,"hard","mid",2,"demand_aversive","demand_avoid",0,0.0164317819999269,0,0.5,0.5
47,0.0177463189993432,"easy","mid",3,"demand_aversive","demand_avoid",1,0.0177463189993432,0,0.5,0.5
47,0.0173030449986982,"hard","mid",4,"demand_aversive","demand_avoid",0,0.0173030449986982,0,0.5,0.5
47,0.0162170980001974,"hard","mid",5,"demand_aversive","demand_avoid",0,0.0162170980001974,0,0.5,0.5
47,0.0159158630012826,"hard","mid",6,"demand_aversive","demand_avoid",0,0.0159158630012826,0,0.5,0.5
47,0.017369275999954,"easy","mid",48,"demand_aversive","demand_avoid",1,0.017369275999954,0,0.5,0.5
47,0.0171988279998914,"easy","mid",49,"demand_aversive","demand_avoid",1,0.0171988279998914,0,0.5,0.5
47,0.0168937050002569,"hard","mid",50,"demand_aversive","demand_avoid",0,0.0168937050002569,0,0.5,0.5
47,0.0167094409989659,"hard","mid",10,"demand_aversive","demand_avoid",0,0.0167094409989659,0,0.5,0.5
47,0.0172569000005751,"easy","mid",11,"demand_aversive","demand_avoid",1,0.0172569000005751,0,0.5,0.5
47,0.0165895610007283,"easy","mid",12,"demand_aversive","demand_avoid",1,0.0165895610007283,0,0.5,0.5
47,0.0171653120014525,"easy","mid",13,"demand_aversive","demand_avoid",1,0.0171653120014525,0,0.5,0.5
47,0.0168760330016084,"easy","mid",14,"demand_aversive","demand_avoid",1,0.0168760330016084,0,0.5,0.5
47,0.0163117529991723,"hard","mid",15,"demand_aversive","demand_avoid",0,0.0163117529991723,0,0.5,0.5
47,0.0158538659998158,"easy","mid",1,"demand_aversive","demand_avoid",1,0.0158538659998158,0,0.5,0.5
47,0.0163331799994921,"easy","mid",35,"demand_aversive","demand_avoid",1,0.0163331799994921,0,0.5,0.5
47,0.0164735979997204,"hard","mid",36,"demand_aversive","demand_avoid",0,0.0164735979997204,0,0.5,0.5
47,0.00572969899985765,"hard","mid",33,"demand_aversive","demand_avoid",0,0.00572969899985765,0,0.5,0.5
47,0.0162562149998848,"hard","mid",34,"demand_aversive","demand_avoid",0,0.0162562149998848,0,0.5,0.5
47,0.0176308099999005,"hard","mid",39,"demand_aversive","demand_avoid",0,0.0176308099999005,0,0.5,0.5
47,0.0157885200005694,"easy","mid",40,"demand_aversive","demand_avoid",1,0.0157885200005694,0,0.5,0.5
47,0.0165786239995214,"hard","mid",37,"demand_aversive","demand_avoid",0,0.0165786239995214,0,0.5,0.5
47,0.0168575409988989,"easy","mid",38,"demand_aversive","demand_avoid",1,0.0168575409988989,0,0.5,0.5
47,0.0171949030009273,"easy","mid",7,"demand_aversive","demand_avoid",1,0.0171949030009273,0,0.5,0.5
47,0.0162652079998225,"hard","mid",41,"demand_aversive","demand_avoid",0,0.0162652079998225,0,0.5,0.5
47,0.0179588500013779,"hard","mid",42,"demand_aversive","demand_avoid",0,0.0179588500013779,0,0.5,0.5
47,0.0169568060009624,"easy","mid",8,"demand_aversive","demand_avoid",1,0.0169568060009624,0,0.5,0.5
47,0.0173096429989528,"hard","mid",9,"demand_aversive","demand_avoid",0,0.0173096429989528,0,0.5,0.5
48,0.017511867000394,"hard","mid",1,"no_demand_aversive","no_demand_avoid",0,0.017511867000394,0,0.5,0.5
48,0.0162596609998218,"easy","mid",2,"no_demand_aversive","no_demand_avoid",1,0.0162596609998218,0,0.5,0.5
48,0.0167954769995049,"hard","mid",13,"no_demand_aversive","no_demand_avoid",0,0.0167954769995049,0,0.5,0.5
48,0.01650524499928,"hard","mid",14,"no_demand_aversive","no_demand_avoid",0,0.01650524499928,0,0.5,0.5
48,0.00746013800016954,"hard","mid",15,"no_demand_aversive","no_demand_avoid",0,0.00746013800016954,0,0.5,0.5
48,0.0175316800005021,"hard","mid",3,"no_demand_aversive","no_demand_avoid",0,0.0175316800005021,0,0.5,0.5
48,0.0164820229992984,"hard","mid",4,"no_demand_aversive","no_demand_avoid",0,0.0164820229992984,0,0.5,0.5
48,0.0176226419998784,"hard","mid",5,"no_demand_aversive","no_demand_avoid",0,0.0176226419998784,0,0.5,0.5
48,0.0164220609995027,"hard","mid",6,"no_demand_aversive","no_demand_avoid",0,0.0164220609995027,0,0.5,0.5
48,0.0171881180003766,"hard","mid",7,"no_demand_aversive","no_demand_avoid",0,0.0171881180003766,0,0.5,0.5
48,0.0168436690000817,"hard","mid",8,"no_demand_aversive","no_demand_avoid",0,0.0168436690000817,0,0.5,0.5
48,0.0170658420001928,"easy","mid",9,"no_demand_aversive","no_demand_avoid",1,0.0170658420001928,0,0.5,0.5
48,0.0166722010008016,"hard","mid",10,"no_demand_aversive","no_demand_avoid",0,0.0166722010008016,0,0.5,0.5
48,0.0162475170000107,"hard","mid",11,"no_demand_aversive","no_demand_avoid",0,0.0162475170000107,0,0.5,0.5
48,0.016264809999484,"hard","mid",12,"no_demand_aversive","no_demand_avoid",0,0.016264809999484,0,0.5,0.5
48,0.0162536760008152,"hard","mid",25,"no_demand_aversive","no_demand_avoid",0,0.0162536760008152,0,0.5,0.5
48,0.0101351799994518,"hard","mid",26,"no_demand_aversive","no_demand_avoid",0,0.0101351799994518,0,0.5,0.5
48,0.0165528790003009,"hard","mid",27,"no_demand_aversive","no_demand_avoid",0,0.0165528790003009,0,0.5,0.5
48,0.016934876999585,"hard","mid",28,"no_demand_aversive","no_demand_avoid",0,0.016934876999585,0,0.5,0.5
48,0.0167417339998792,"hard","mid",29,"no_demand_aversive","no_demand_avoid",0,0.0167417339998792,0,0.5,0.5
48,0.00883392000014283,"easy","mid",30,"no_demand_aversive","no_demand_avoid",1,0.00883392000014283,0,0.5,0.5
48,0.0165917919994172,"easy","mid",31,"no_demand_aversive","no_demand_avoid",1,0.0165917919994172,0,0.5,0.5
48,0.0172977539996282,"hard","mid",32,"no_demand_aversive","no_demand_avoid",0,0.0172977539996282,0,0.5,0.5
48,0.0167459160002181,"hard","mid",33,"no_demand_aversive","no_demand_avoid",0,0.0167459160002181,0,0.5,0.5
48,0.0164588209991052,"hard","mid",34,"no_demand_aversive","no_demand_avoid",0,0.0164588209991052,0,0.5,0.5
48,0.00985119999950257,"hard","mid",35,"no_demand_aversive","no_demand_avoid",0,0.00985119999950257,0,0.5,0.5
48,0.016967257000033,"hard","mid",36,"no_demand_aversive","no_demand_avoid",0,0.016967257000033,0,0.5,0.5
48,0.0173181679992922,"hard","mid",37,"no_demand_aversive","no_demand_avoid",0,0.0173181679992922,0,0.5,0.5
48,0.0169253310004933,"hard","mid",38,"no_demand_aversive","no_demand_avoid",0,0.0169253310004933,0,0.5,0.5
48,0.0168990900001518,"hard","mid",39,"no_demand_aversive","no_demand_avoid",0,0.0168990900001518,0,0.5,0.5
48,0.0167027820007206,"hard","mid",40,"no_demand_aversive","no_demand_avoid",0,0.0167027820007206,0,0.5,0.5
48,0.0168907730003411,"hard","mid",41,"no_demand_aversive","no_demand_avoid",0,0.0168907730003411,0,0.5,0.5
48,0.01699090800048,"hard","mid",42,"no_demand_aversive","no_demand_avoid",0,0.01699090800048,0,0.5,0.5
48,0.0166959799998949,"hard","mid",43,"no_demand_aversive","no_demand_avoid",0,0.0166959799998949,0,0.5,0.5
48,0.0170783919993482,"hard","mid",44,"no_demand_aversive","no_demand_avoid",0,0.0170783919993482,0,0.5,0.5
48,0.0168042330005846,"easy","mid",45,"no_demand_aversive","no_demand_avoid",1,0.0168042330005846,0,0.5,0.5
48,0.0170601179997902,"easy","mid",46,"no_demand_aversive","no_demand_avoid",1,0.0170601179997902,0,0.5,0.5
48,0.0163949319994572,"easy","mid",47,"no_demand_aversive","no_demand_avoid",1,0.0163949319994572,0,0.5,0.5
48,0.00719774400022288,"hard","mid",48,"no_demand_aversive","no_demand_avoid",0,0.00719774400022288,0,0.5,0.5
48,0.0171742389993597,"hard","mid",49,"no_demand_aversive","no_demand_avoid",0,0.0171742389993597,0,0.5,0.5
48,0.0167484220000915,"hard","mid",50,"no_demand_aversive","no_demand_avoid",0,0.0167484220000915,0,0.5,0.5
48,0.0169164669996462,"hard","mid",24,"no_demand_aversive","no_demand_avoid",0,0.0169164669996462,0,0.5,0.5
48,0.0160783600003924,"hard","mid",16,"no_demand_aversive","no_demand_avoid",0,0.0160783600003924,0,0.5,0.5
48,0.0168905299997277,"easy","mid",17,"no_demand_aversive","no_demand_avoid",1,0.0168905299997277,0,0.5,0.5
48,0.0171099069993943,"hard","mid",18,"no_demand_aversive","no_demand_avoid",0,0.0171099069993943,0,0.5,0.5
48,0.0164073410005585,"hard","mid",19,"no_demand_aversive","no_demand_avoid",0,0.0164073410005585,0,0.5,0.5
48,0.0169264959995417,"hard","mid",20,"no_demand_aversive","no_demand_avoid",0,0.0169264959995417,0,0.5,0.5
48,0.0172088290000829,"hard","mid",21,"no_demand_aversive","no_demand_avoid",0,0.0172088290000829,0,0.5,0.5
48,0.0169818329995906,"hard","mid",22,"no_demand_aversive","no_demand_avoid",0,0.0169818329995906,0,0.5,0.5
48,0.0159307679996346,"hard","mid",23,"no_demand_aversive","no_demand_avoid",0,0.0159307679996346,0,0.5,0.5
49,0.0171890290002921,"easy","mid",3,"demand_aversive","demand_avoid",1,0.0171890290002921,0,0.5,0.5
49,0.00793796700054372,"hard","mid",4,"demand_aversive","demand_avoid",0,0.00793796700054372,0,0.5,0.5
49,0.016602806001174,"easy","mid",5,"demand_aversive","demand_avoid",1,0.016602806001174,0,0.5,0.5
49,0.017347389999486,"easy","mid",1,"demand_aversive","demand_avoid",1,0.017347389999486,0,0.5,0.5
49,0.0162566580002022,"hard","mid",2,"demand_aversive","demand_avoid",0,0.0162566580002022,0,0.5,0.5
49,0.0164133399994171,"hard","mid",16,"demand_aversive","demand_avoid",0,0.0164133399994171,0,0.5,0.5
49,0.0173735980006313,"easy","mid",17,"demand_aversive","demand_avoid",1,0.0173735980006313,0,0.5,0.5
49,0.0168642320004437,"hard","mid",18,"demand_aversive","demand_avoid",0,0.0168642320004437,0,0.5,0.5
49,0.0157602409999527,"easy","mid",6,"demand_aversive","demand_avoid",1,0.0157602409999527,0,0.5,0.5
49,0.0158078619988373,"easy","mid",7,"demand_aversive","demand_avoid",1,0.0158078619988373,0,0.5,0.5
49,0.0169233759988856,"hard","mid",8,"demand_aversive","demand_avoid",0,0.0169233759988856,0,0.5,0.5
49,0.0169733399998222,"hard","mid",9,"demand_aversive","demand_avoid",0,0.0169733399998222,0,0.5,0.5
49,0.0174772390000726,"easy","mid",10,"demand_aversive","demand_avoid",1,0.0174772390000726,0,0.5,0.5
49,0.0158559519986738,"easy","mid",11,"demand_aversive","demand_avoid",1,0.0158559519986738,0,0.5,0.5
49,0.0173465230000147,"hard","mid",12,"demand_aversive","demand_avoid",0,0.0173465230000147,0,0.5,0.5
49,0.0173023619991,"hard","mid",13,"demand_aversive","demand_avoid",0,0.0173023619991,0,0.5,0.5
49,0.0174316140000883,"easy","mid",14,"demand_aversive","demand_avoid",1,0.0174316140000883,0,0.5,0.5
49,0.0170323880010983,"hard","mid",15,"demand_aversive","demand_avoid",0,0.0170323880010983,0,0.5,0.5
49,0.0168375960001867,"easy","mid",29,"demand_aversive","demand_avoid",1,0.0168375960001867,0,0.5,0.5
49,0.0077176850008982,"hard","mid",30,"demand_aversive","demand_avoid",0,0.0077176850008982,0,0.5,0.5
49,0.0170965680008521,"easy","mid",31,"demand_aversive","demand_avoid",1,0.0170965680008521,0,0.5,0.5
49,0.016911145999984,"hard","mid",32,"demand_aversive","demand_avoid",0,0.016911145999984,0,0.5,0.5
49,0.0165255050014821,"easy","mid",33,"demand_aversive","demand_avoid",1,0.0165255050014821,0,0.5,0.5
49,0.0165140260014596,"easy","mid",34,"demand_aversive","demand_avoid",1,0.0165140260014596,0,0.5,0.5
49,0.00721622699893487,"easy","mid",35,"demand_aversive","demand_avoid",1,0.00721622699893487,0,0.5,0.5
49,0.0169049899996025,"hard","mid",36,"demand_aversive","demand_avoid",0,0.0169049899996025,0,0.5,0.5
49,0.0171867949993612,"easy","mid",37,"demand_aversive","demand_avoid",1,0.0171867949993612,0,0.5,0.5
49,0.0167939130005834,"easy","mid",38,"demand_aversive","demand_avoid",1,0.0167939130005834,0,0.5,0.5
49,0.01709638399916,"hard","mid",39,"demand_aversive","demand_avoid",0,0.01709638399916,0,0.5,0.5
49,0.0169543439988047,"easy","mid",40,"demand_aversive","demand_avoid",1,0.0169543439988047,0,0.5,0.5
49,0.0171394959997997,"hard","mid",41,"demand_aversive","demand_avoid",0,0.0171394959997997,0,0.5,0.5
49,0.0170089799994457,"hard","mid",42,"demand_aversive","demand_avoid",0,0.0170089799994457,0,0.5,0.5
49,0.0164353910004138,"hard","mid",43,"demand_aversive","demand_avoid",0,0.0164353910004138,0,0.5,0.5
49,0.0170923799996672,"hard","mid",44,"demand_aversive","demand_avoid",0,0.0170923799996672,0,0.5,0.5
49,0.0167338459996245,"hard","mid",45,"demand_aversive","demand_avoid",0,0.0167338459996245,0,0.5,0.5
49,0.0164669949990639,"hard","mid",46,"demand_aversive","demand_avoid",0,0.0164669949990639,0,0.5,0.5
49,0.0165975489999255,"hard","mid",47,"demand_aversive","demand_avoid",0,0.0165975489999255,0,0.5,0.5
49,0.0164060280003469,"hard","mid",48,"demand_aversive","demand_avoid",0,0.0164060280003469,0,0.5,0.5
49,0.00626337399990007,"hard","mid",49,"demand_aversive","demand_avoid",0,0.00626337399990007,0,0.5,0.5
49,0.0171760049997829,"hard","mid",50,"demand_aversive","demand_avoid",0,0.0171760049997829,0,0.5,0.5
49,0.0171477669991873,"easy","mid",24,"demand_aversive","demand_avoid",1,0.0171477669991873,0,0.5,0.5
49,0.0174097409999376,"easy","mid",25,"demand_aversive","demand_avoid",1,0.0174097409999376,0,0.5,0.5
49,0.0171089799987385,"hard","mid",26,"demand_aversive","demand_avoid",0,0.0171089799987385,0,0.5,0.5
49,0.0170623850008269,"easy","mid",27,"demand_aversive","demand_avoid",1,0.0170623850008269,0,0.5,0.5
49,0.0101531529999193,"easy","mid",28,"demand_aversive","demand_avoid",1,0.0101531529999193,0,0.5,0.5
49,0.0162936010001431,"easy","mid",20,"demand_aversive","demand_avoid",1,0.0162936010001431,0,0.5,0.5
49,0.0164469480005209,"hard","mid",21,"demand_aversive","demand_avoid",0,0.0164469480005209,0,0.5,0.5
49,0.0175454079999326,"easy","mid",22,"demand_aversive","demand_avoid",1,0.0175454079999326,0,0.5,0.5
49,0.00695378500131483,"easy","mid",19,"demand_aversive","demand_avoid",1,0.00695378500131483,0,0.5,0.5
49,0.0176252469991596,"hard","mid",23,"demand_aversive","demand_avoid",0,0.0176252469991596,0,0.5,0.5
50,0.016893026,"easy","mid",9,"demand_aversive","demand_avoid",1,0.016893026,0,0.5,0.5
50,0.016641465,"hard","mid",12,"demand_aversive","demand_avoid",0,0.016641465,0,0.5,0.5
50,0.016629565,"hard","mid",13,"demand_aversive","demand_avoid",0,0.016629565,0,0.5,0.5
50,0.016788631,"easy","mid",10,"demand_aversive","demand_avoid",1,0.016788631,0,0.5,0.5
50,0.016996205,"hard","mid",11,"demand_aversive","demand_avoid",0,0.016996205,0,0.5,0.5
50,0.016422334,"hard","mid",16,"demand_aversive","demand_avoid",0,0.016422334,0,0.5,0.5
50,0.007017976,"easy","mid",17,"demand_aversive","demand_avoid",1,0.007017976,0,0.5,0.5
50,0.017217667,"easy","mid",18,"demand_aversive","demand_avoid",1,0.017217667,0,0.5,0.5
50,0.017154276,"hard","mid",19,"demand_aversive","demand_avoid",0,0.017154276,0,0.5,0.5
50,0.017050619,"hard","mid",20,"demand_aversive","demand_avoid",0,0.017050619,0,0.5,0.5
50,0.016899257,"easy","mid",21,"demand_aversive","demand_avoid",1,0.016899257,0,0.5,0.5
50,0.016819143,"hard","mid",22,"demand_aversive","demand_avoid",0,0.016819143,0,0.5,0.5
50,0.016494501,"hard","mid",23,"demand_aversive","demand_avoid",0,0.016494501,0,0.5,0.5
50,0.016425358,"hard","mid",24,"demand_aversive","demand_avoid",0,0.016425358,0,0.5,0.5
50,0.01668753,"hard","mid",25,"demand_aversive","demand_avoid",0,0.01668753,0,0.5,0.5
50,0.016309605,"easy","mid",26,"demand_aversive","demand_avoid",1,0.016309605,0,0.5,0.5
50,0.017234471,"hard","mid",14,"demand_aversive","demand_avoid",0,0.017234471,0,0.5,0.5
50,0.017021562,"hard","mid",15,"demand_aversive","demand_avoid",0,0.017021562,0,0.5,0.5
50,0.016146712,"hard","mid",29,"demand_aversive","demand_avoid",0,0.016146712,0,0.5,0.5
50,0.017112438,"easy","mid",30,"demand_aversive","demand_avoid",1,0.017112438,0,0.5,0.5
50,0.016559841,"hard","mid",31,"demand_aversive","demand_avoid",0,0.016559841,0,0.5,0.5
50,0.017313388,"hard","mid",32,"demand_aversive","demand_avoid",0,0.017313388,0,0.5,0.5
50,0.017144101,"easy","mid",33,"demand_aversive","demand_avoid",1,0.017144101,0,0.5,0.5
50,0.017209458,"easy","mid",34,"demand_aversive","demand_avoid",1,0.017209458,0,0.5,0.5
50,0.016930126,"easy","mid",35,"demand_aversive","demand_avoid",1,0.016930126,0,0.5,0.5
50,0.016419921,"easy","mid",36,"demand_aversive","demand_avoid",1,0.016419921,0,0.5,0.5
50,0.016742635,"easy","mid",37,"demand_aversive","demand_avoid",1,0.016742635,0,0.5,0.5
50,0.017368072,"hard","mid",38,"demand_aversive","demand_avoid",0,0.017368072,0,0.5,0.5
50,0.017230949,"hard","mid",39,"demand_aversive","demand_avoid",0,0.017230949,0,0.5,0.5
50,0.016130825,"easy","mid",27,"demand_aversive","demand_avoid",1,0.016130825,0,0.5,0.5
50,0.016291084,"hard","mid",28,"demand_aversive","demand_avoid",0,0.016291084,0,0.5,0.5
50,0.016829215,"easy","mid",42,"demand_aversive","demand_avoid",1,0.016829215,0,0.5,0.5
50,0.017455027,"easy","mid",43,"demand_aversive","demand_avoid",1,0.017455027,0,0.5,0.5
50,0.016087171,"easy","mid",44,"demand_aversive","demand_avoid",1,0.016087171,0,0.5,0.5
50,0.01643318,"hard","mid",45,"demand_aversive","demand_avoid",0,0.01643318,0,0.5,0.5
50,0.016552259,"easy","mid",46,"demand_aversive","demand_avoid",1,0.016552259,0,0.5,0.5
50,0.016927658,"easy","mid",47,"demand_aversive","demand_avoid",1,0.016927658,0,0.5,0.5
50,0.016547955,"hard","mid",48,"demand_aversive","demand_avoid",0,0.016547955,0,0.5,0.5
50,0.017007798,"easy","mid",49,"demand_aversive","demand_avoid",1,0.017007798,0,0.5,0.5
50,0.016014132,"easy","mid",50,"demand_aversive","demand_avoid",1,0.016014132,0,0.5,0.5
50,0.016625181,"easy","mid",41,"demand_aversive","demand_avoid",1,0.016625181,0,0.5,0.5
50,0.016412931,"easy","mid",1,"demand_aversive","demand_avoid",1,0.016412931,0,0.5,0.5
50,0.016693576,"hard","mid",2,"demand_aversive","demand_avoid",0,0.016693576,0,0.5,0.5
50,0.017171251,"hard","mid",40,"demand_aversive","demand_avoid",0,0.017171251,0,0.5,0.5
50,0.015288791,"hard","mid",4,"demand_aversive","demand_avoid",0,0.015288791,0,0.5,0.5
50,0.016857507,"easy","mid",5,"demand_aversive","demand_avoid",1,0.016857507,0,0.5,0.5
50,0.016476925,"easy","mid",6,"demand_aversive","demand_avoid",1,0.016476925,0,0.5,0.5
50,0.016031576,"easy","mid",3,"demand_aversive","demand_avoid",1,0.016031576,0,0.5,0.5
50,0.016783068,"hard","mid",8,"demand_aversive","demand_avoid",0,0.016783068,0,0.5,0.5
50,0.017283979,"hard","mid",7,"demand_aversive","demand_avoid",0,0.017283979,0,0.5,0.5
52,0.0163604919944191,"easy","mid",8,"no_demand_aversive","demand_avoid",1,0.0163604919944191,0,0.5,0.5
52,0.0171322459937073,"hard","mid",7,"no_demand_aversive","demand_avoid",0,0.0171322459937073,0,0.5,0.5
52,0.0169212309992872,"easy","mid",9,"no_demand_aversive","demand_avoid",1,0.0169212309992872,0,0.5,0.5
52,0.0159656980104046,"easy","mid",11,"no_demand_aversive","demand_avoid",1,0.0159656980104046,0,0.5,0.5
52,0.0163017119921278,"easy","mid",21,"no_demand_aversive","demand_avoid",1,0.0163017119921278,0,0.5,0.5
52,0.0167758370080264,"easy","mid",22,"no_demand_aversive","demand_avoid",1,0.0167758370080264,0,0.5,0.5
52,0.0170914620102849,"easy","mid",10,"no_demand_aversive","demand_avoid",1,0.0170914620102849,0,0.5,0.5
52,0.0160957199987024,"easy","mid",15,"no_demand_aversive","demand_avoid",1,0.0160957199987024,0,0.5,0.5
52,0.0164250509988051,"easy","mid",16,"no_demand_aversive","demand_avoid",1,0.0164250509988051,0,0.5,0.5
52,0.0119574559939792,"easy","mid",17,"no_demand_aversive","demand_avoid",1,0.0119574559939792,0,0.5,0.5
52,0.0149566199979745,"easy","mid",18,"no_demand_aversive","demand_avoid",1,0.0149566199979745,0,0.5,0.5
52,0.016669478995027,"easy","mid",19,"no_demand_aversive","demand_avoid",1,0.016669478995027,0,0.5,0.5
52,0.016869356011739,"easy","mid",20,"no_demand_aversive","demand_avoid",1,0.016869356011739,0,0.5,0.5
52,0.0169946009991691,"easy","mid",33,"no_demand_aversive","demand_avoid",1,0.0169946009991691,0,0.5,0.5
52,0.0174532379896846,"easy","mid",34,"no_demand_aversive","demand_avoid",1,0.0174532379896846,0,0.5,0.5
52,0.0160786720080068,"easy","mid",35,"no_demand_aversive","demand_avoid",1,0.0160786720080068,0,0.5,0.5
52,0.0169415300042601,"easy","mid",36,"no_demand_aversive","demand_avoid",1,0.0169415300042601,0,0.5,0.5
52,0.0171209419931984,"easy","mid",12,"no_demand_aversive","demand_avoid",1,0.0171209419931984,0,0.5,0.5
52,0.017307208996499,"hard","mid",13,"no_demand_aversive","demand_avoid",0,0.017307208996499,0,0.5,0.5
52,0.01802351900551,"easy","mid",14,"no_demand_aversive","demand_avoid",1,0.01802351900551,0,0.5,0.5
52,0.0169211070024176,"easy","mid",1,"no_demand_aversive","demand_avoid",1,0.0169211070024176,0,0.5,0.5
52,0.0169726140011335,"hard","mid",2,"no_demand_aversive","demand_avoid",0,0.0169726140011335,0,0.5,0.5
52,0.0163675299991155,"easy","mid",3,"no_demand_aversive","demand_avoid",1,0.0163675299991155,0,0.5,0.5
52,0.0173365469963755,"hard","mid",4,"no_demand_aversive","demand_avoid",0,0.0173365469963755,0,0.5,0.5
52,0.017098153999541,"easy","mid",5,"no_demand_aversive","demand_avoid",1,0.017098153999541,0,0.5,0.5
52,0.0165354000055231,"easy","mid",6,"no_demand_aversive","demand_avoid",1,0.0165354000055231,0,0.5,0.5
52,0.0157872849958949,"easy","mid",44,"no_demand_aversive","demand_avoid",1,0.0157872849958949,0,0.5,0.5
52,0.0175583289965289,"easy","mid",45,"no_demand_aversive","demand_avoid",1,0.0175583289965289,0,0.5,0.5
52,0.0160764070024015,"easy","mid",46,"no_demand_aversive","demand_avoid",1,0.0160764070024015,0,0.5,0.5
52,0.0169722810096573,"easy","mid",47,"no_demand_aversive","demand_avoid",1,0.0169722810096573,0,0.5,0.5
52,0.0166634159977548,"hard","mid",48,"no_demand_aversive","demand_avoid",0,0.0166634159977548,0,0.5,0.5
52,0.018289248997462,"easy","mid",49,"no_demand_aversive","demand_avoid",1,0.018289248997462,0,0.5,0.5
52,0.0176555090001784,"hard","mid",50,"no_demand_aversive","demand_avoid",0,0.0176555090001784,0,0.5,0.5
52,0.0112549330078764,"easy","mid",26,"no_demand_aversive","demand_avoid",1,0.0112549330078764,0,0.5,0.5
52,0.0168595279974397,"easy","mid",27,"no_demand_aversive","demand_avoid",1,0.0168595279974397,0,0.5,0.5
52,0.0170210849901196,"easy","mid",28,"no_demand_aversive","demand_avoid",1,0.0170210849901196,0,0.5,0.5
52,0.0155866920104017,"easy","mid",29,"no_demand_aversive","demand_avoid",1,0.0155866920104017,0,0.5,0.5
52,0.0171678990009241,"easy","mid",30,"no_demand_aversive","demand_avoid",1,0.0171678990009241,0,0.5,0.5
52,0.0172268149908632,"easy","mid",31,"no_demand_aversive","demand_avoid",1,0.0172268149908632,0,0.5,0.5
52,0.0167718050070107,"easy","mid",32,"no_demand_aversive","demand_avoid",1,0.0167718050070107,0,0.5,0.5
52,0.0164907130092615,"easy","mid",24,"no_demand_aversive","demand_avoid",1,0.0164907130092615,0,0.5,0.5
52,0.0174771510064602,"easy","mid",25,"no_demand_aversive","demand_avoid",1,0.0174771510064602,0,0.5,0.5
52,0.0168625520018395,"easy","mid",37,"no_demand_aversive","demand_avoid",1,0.0168625520018395,0,0.5,0.5
52,0.0169305450108368,"easy","mid",23,"no_demand_aversive","demand_avoid",1,0.0169305450108368,0,0.5,0.5
52,0.0171385630092118,"easy","mid",39,"no_demand_aversive","demand_avoid",1,0.0171385630092118,0,0.5,0.5
52,0.0172056169976713,"easy","mid",40,"no_demand_aversive","demand_avoid",1,0.0172056169976713,0,0.5,0.5
52,0.0175963169895113,"hard","mid",41,"no_demand_aversive","demand_avoid",0,0.0175963169895113,0,0.5,0.5
52,0.0174129590013763,"easy","mid",38,"no_demand_aversive","demand_avoid",1,0.0174129590013763,0,0.5,0.5
52,0.0168035499955295,"easy","mid",43,"no_demand_aversive","demand_avoid",1,0.0168035499955295,0,0.5,0.5
52,0.0163531920115929,"easy","mid",42,"no_demand_aversive","demand_avoid",1,0.0163531920115929,0,0.5,0.5
54,0.0153048240026692,"hard","mid",6,"no_demand_aversive","no_demand_avoid",0,0.0153048240026692,0,0.5,0.5
54,0.0167729829991003,"hard","mid",7,"no_demand_aversive","no_demand_avoid",0,0.0167729829991003,0,0.5,0.5
54,0.0170365599915385,"easy","mid",8,"no_demand_aversive","no_demand_avoid",1,0.0170365599915385,0,0.5,0.5
54,0.0178099920012755,"hard","mid",1,"no_demand_aversive","no_demand_avoid",0,0.0178099920012755,0,0.5,0.5
54,0.0166967019904405,"hard","mid",2,"no_demand_aversive","no_demand_avoid",0,0.0166967019904405,0,0.5,0.5
54,0.0172995070024626,"easy","mid",3,"no_demand_aversive","no_demand_avoid",1,0.0172995070024626,0,0.5,0.5
54,0.0169323880109005,"easy","mid",4,"no_demand_aversive","no_demand_avoid",1,0.0169323880109005,0,0.5,0.5
54,0.0170320449979044,"hard","mid",5,"no_demand_aversive","no_demand_avoid",0,0.0170320449979044,0,0.5,0.5
54,0.0164714209968224,"hard","mid",18,"no_demand_aversive","no_demand_avoid",0,0.0164714209968224,0,0.5,0.5
54,0.0161641760059865,"hard","mid",19,"no_demand_aversive","no_demand_avoid",0,0.0161641760059865,0,0.5,0.5
54,0.0171061729924986,"hard","mid",20,"no_demand_aversive","no_demand_avoid",0,0.0171061729924986,0,0.5,0.5
54,0.016283339005895,"hard","mid",21,"no_demand_aversive","no_demand_avoid",0,0.016283339005895,0,0.5,0.5
54,0.016808389002108,"hard","mid",22,"no_demand_aversive","no_demand_avoid",0,0.016808389002108,0,0.5,0.5
54,0.0164179329876788,"hard","mid",23,"no_demand_aversive","no_demand_avoid",0,0.0164179329876788,0,0.5,0.5
54,0.0168239109916613,"easy","mid",24,"no_demand_aversive","no_demand_avoid",1,0.0168239109916613,0,0.5,0.5
54,0.0153828189941123,"hard","mid",25,"no_demand_aversive","no_demand_avoid",0,0.0153828189941123,0,0.5,0.5
54,0.0160198670055252,"hard","mid",26,"no_demand_aversive","no_demand_avoid",0,0.0160198670055252,0,0.5,0.5
54,0.0163930970011279,"hard","mid",27,"no_demand_aversive","no_demand_avoid",0,0.0163930970011279,0,0.5,0.5
54,0.0166432180121774,"easy","mid",28,"no_demand_aversive","no_demand_avoid",1,0.0166432180121774,0,0.5,0.5
54,0.0177109670039499,"hard","mid",29,"no_demand_aversive","no_demand_avoid",0,0.0177109670039499,0,0.5,0.5
54,0.0151108690042747,"hard","mid",30,"no_demand_aversive","no_demand_avoid",0,0.0151108690042747,0,0.5,0.5
54,0.0157382040051743,"hard","mid",31,"no_demand_aversive","no_demand_avoid",0,0.0157382040051743,0,0.5,0.5
54,0.017105259001255,"hard","mid",32,"no_demand_aversive","no_demand_avoid",0,0.017105259001255,0,0.5,0.5
54,0.0172352929948829,"hard","mid",33,"no_demand_aversive","no_demand_avoid",0,0.0172352929948829,0,0.5,0.5
54,0.0167658669961384,"hard","mid",34,"no_demand_aversive","no_demand_avoid",0,0.0167658669961384,0,0.5,0.5
54,0.0160596560017439,"hard","mid",35,"no_demand_aversive","no_demand_avoid",0,0.0160596560017439,0,0.5,0.5
54,0.0167308990057791,"hard","mid",36,"no_demand_aversive","no_demand_avoid",0,0.0167308990057791,0,0.5,0.5
54,0.0165005970047787,"hard","mid",37,"no_demand_aversive","no_demand_avoid",0,0.0165005970047787,0,0.5,0.5
54,0.01756886599469,"hard","mid",38,"no_demand_aversive","no_demand_avoid",0,0.01756886599469,0,0.5,0.5
54,0.0165386139997281,"easy","mid",39,"no_demand_aversive","no_demand_avoid",1,0.0165386139997281,0,0.5,0.5
54,0.0168765199923655,"easy","mid",40,"no_demand_aversive","no_demand_avoid",1,0.0168765199923655,0,0.5,0.5
54,0.0174306279950542,"easy","mid",41,"no_demand_aversive","no_demand_avoid",1,0.0174306279950542,0,0.5,0.5
54,0.0165818090026733,"easy","mid",42,"no_demand_aversive","no_demand_avoid",1,0.0165818090026733,0,0.5,0.5
54,0.00722715200390667,"hard","mid",43,"no_demand_aversive","no_demand_avoid",0,0.00722715200390667,0,0.5,0.5
54,0.0163819009903818,"easy","mid",44,"no_demand_aversive","no_demand_avoid",1,0.0163819009903818,0,0.5,0.5
54,0.0165601460030302,"easy","mid",45,"no_demand_aversive","no_demand_avoid",1,0.0165601460030302,0,0.5,0.5
54,0.0172924939979566,"easy","mid",46,"no_demand_aversive","no_demand_avoid",1,0.0172924939979566,0,0.5,0.5
54,0.0171220649936004,"easy","mid",47,"no_demand_aversive","no_demand_avoid",1,0.0171220649936004,0,0.5,0.5
54,0.0173373259895016,"easy","mid",48,"no_demand_aversive","no_demand_avoid",1,0.0173373259895016,0,0.5,0.5
54,0.016900746995816,"hard","mid",9,"no_demand_aversive","no_demand_avoid",0,0.016900746995816,0,0.5,0.5
54,0.0172633440088248,"hard","mid",10,"no_demand_aversive","no_demand_avoid",0,0.0172633440088248,0,0.5,0.5
54,0.0172632309986511,"hard","mid",11,"no_demand_aversive","no_demand_avoid",0,0.0172632309986511,0,0.5,0.5
54,0.0162020029965788,"hard","mid",12,"no_demand_aversive","no_demand_avoid",0,0.0162020029965788,0,0.5,0.5
54,0.0164241930033313,"hard","mid",13,"no_demand_aversive","no_demand_avoid",0,0.0164241930033313,0,0.5,0.5
54,0.0168309080036124,"hard","mid",14,"no_demand_aversive","no_demand_avoid",0,0.0168309080036124,0,0.5,0.5
54,0.017164225995657,"easy","mid",15,"no_demand_aversive","no_demand_avoid",1,0.017164225995657,0,0.5,0.5
54,0.0161277229926782,"hard","mid",16,"no_demand_aversive","no_demand_avoid",0,0.0161277229926782,0,0.5,0.5
54,0.0158743159990991,"hard","mid",17,"no_demand_aversive","no_demand_avoid",0,0.0158743159990991,0,0.5,0.5
54,0.0165152720001061,"easy","mid",49,"no_demand_aversive","no_demand_avoid",1,0.0165152720001061,0,0.5,0.5
54,0.0158265849895542,"easy","mid",50,"no_demand_aversive","no_demand_avoid",1,0.0158265849895542,0,0.5,0.5
56,0.015738222,"easy","mid",47,"demand_aversive","demand_avoid",1,0.015738222,0,0.5,0.5
56,0.015820291,"easy","mid",46,"demand_aversive","demand_avoid",1,0.015820291,0,0.5,0.5
56,0.016527062,"hard","mid",16,"demand_aversive","demand_avoid",0,0.016527062,0,0.5,0.5
56,0.016291793,"easy","mid",48,"demand_aversive","demand_avoid",1,0.016291793,0,0.5,0.5
56,0.015933856,"hard","mid",45,"demand_aversive","demand_avoid",0,0.015933856,0,0.5,0.5
56,0.015597522,"hard","mid",15,"demand_aversive","demand_avoid",0,0.015597522,0,0.5,0.5
56,0.015984906,"easy","mid",50,"demand_aversive","demand_avoid",1,0.015984906,0,0.5,0.5
56,0.016232033,"easy","mid",17,"demand_aversive","demand_avoid",1,0.016232033,0,0.5,0.5
56,0.017243793,"easy","mid",18,"demand_aversive","demand_avoid",1,0.017243793,0,0.5,0.5
56,0.015776061,"hard","mid",49,"demand_aversive","demand_avoid",0,0.015776061,0,0.5,0.5
56,0.015663772,"easy","mid",30,"demand_aversive","demand_avoid",1,0.015663772,0,0.5,0.5
56,0.014881172,"easy","mid",31,"demand_aversive","demand_avoid",1,0.014881172,0,0.5,0.5
56,0.016912471,"easy","mid",32,"demand_aversive","demand_avoid",1,0.016912471,0,0.5,0.5
56,0.018055822,"easy","mid",33,"demand_aversive","demand_avoid",1,0.018055822,0,0.5,0.5
56,0.015788275,"easy","mid",34,"demand_aversive","demand_avoid",1,0.015788275,0,0.5,0.5
56,0.016089296,"easy","mid",35,"demand_aversive","demand_avoid",1,0.016089296,0,0.5,0.5
56,0.01543369,"easy","mid",8,"demand_aversive","demand_avoid",1,0.01543369,0,0.5,0.5
56,0.015348147,"easy","mid",9,"demand_aversive","demand_avoid",1,0.015348147,0,0.5,0.5
56,0.016996134,"easy","mid",10,"demand_aversive","demand_avoid",1,0.016996134,0,0.5,0.5
56,0.015986916,"hard","mid",11,"demand_aversive","demand_avoid",0,0.015986916,0,0.5,0.5
56,0.015986491,"easy","mid",12,"demand_aversive","demand_avoid",1,0.015986491,0,0.5,0.5
56,0.017257816,"hard","mid",13,"demand_aversive","demand_avoid",0,0.017257816,0,0.5,0.5
56,0.016669727,"easy","mid",14,"demand_aversive","demand_avoid",1,0.016669727,0,0.5,0.5
56,0.016369913,"hard","mid",43,"demand_aversive","demand_avoid",0,0.016369913,0,0.5,0.5
56,0.016584974,"easy","mid",44,"demand_aversive","demand_avoid",1,0.016584974,0,0.5,0.5
56,0.0170675,"easy","mid",3,"demand_aversive","demand_avoid",1,0.0170675,0,0.5,0.5
56,0.015925433,"easy","mid",4,"demand_aversive","demand_avoid",1,0.015925433,0,0.5,0.5
56,0.016059511,"hard","mid",5,"demand_aversive","demand_avoid",0,0.016059511,0,0.5,0.5
56,0.015305269,"easy","mid",6,"demand_aversive","demand_avoid",1,0.015305269,0,0.5,0.5
56,0.016475461,"easy","mid",7,"demand_aversive","demand_avoid",1,0.016475461,0,0.5,0.5
56,0.016292967,"easy","mid",21,"demand_aversive","demand_avoid",1,0.016292967,0,0.5,0.5
56,0.016514467,"easy","mid",22,"demand_aversive","demand_avoid",1,0.016514467,0,0.5,0.5
56,0.01572765,"easy","mid",23,"demand_aversive","demand_avoid",1,0.01572765,0,0.5,0.5
56,0.016707878,"easy","mid",24,"demand_aversive","demand_avoid",1,0.016707878,0,0.5,0.5
56,0.016578388,"easy","mid",25,"demand_aversive","demand_avoid",1,0.016578388,0,0.5,0.5
56,0.015818501,"hard","mid",26,"demand_aversive","demand_avoid",0,0.015818501,0,0.5,0.5
56,0.015823878,"easy","mid",27,"demand_aversive","demand_avoid",1,0.015823878,0,0.5,0.5
56,0.015720987,"easy","mid",28,"demand_aversive","demand_avoid",1,0.015720987,0,0.5,0.5
56,0.016243637,"easy","mid",29,"demand_aversive","demand_avoid",1,0.016243637,0,0.5,0.5
56,0.015831665,"easy","mid",36,"demand_aversive","demand_avoid",1,0.015831665,0,0.5,0.5
56,0.015707693,"hard","mid",37,"demand_aversive","demand_avoid",0,0.015707693,0,0.5,0.5
56,0.016966385,"easy","mid",19,"demand_aversive","demand_avoid",1,0.016966385,0,0.5,0.5
56,0.015330197,"easy","mid",20,"demand_aversive","demand_avoid",1,0.015330197,0,0.5,0.5
56,0.015757123,"hard","mid",40,"demand_aversive","demand_avoid",0,0.015757123,0,0.5,0.5
56,0.015371916,"hard","mid",41,"demand_aversive","demand_avoid",0,0.015371916,0,0.5,0.5
56,0.01584401,"easy","mid",38,"demand_aversive","demand_avoid",1,0.01584401,0,0.5,0.5
56,0.016107726,"easy","mid",39,"demand_aversive","demand_avoid",1,0.016107726,0,0.5,0.5
56,0.015663387,"hard","mid",2,"demand_aversive","demand_avoid",0,0.015663387,0,0.5,0.5
56,0.016790364,"easy","mid",42,"demand_aversive","demand_avoid",1,0.016790364,0,0.5,0.5
56,0.015193572,"easy","mid",1,"demand_aversive","demand_avoid",1,0.015193572,0,0.5,0.5
57,0.016507744,"easy","mid",10,"demand_aversive","demand_avoid",1,0.016507744,0,0.5,0.5
57,0.01625549,"easy","mid",11,"demand_aversive","demand_avoid",1,0.01625549,0,0.5,0.5
57,0.015893361,"easy","mid",12,"demand_aversive","demand_avoid",1,0.015893361,0,0.5,0.5
57,0.016412811,"easy","mid",1,"demand_aversive","demand_avoid",1,0.016412811,0,0.5,0.5
57,0.01567292,"easy","mid",2,"demand_aversive","demand_avoid",1,0.01567292,0,0.5,0.5
57,0.015907507,"hard","mid",3,"demand_aversive","demand_avoid",0,0.015907507,0,0.5,0.5
57,0.016026058,"easy","mid",4,"demand_aversive","demand_avoid",1,0.016026058,0,0.5,0.5
57,0.016427882,"hard","mid",5,"demand_aversive","demand_avoid",0,0.016427882,0,0.5,0.5
57,0.016060489,"easy","mid",6,"demand_aversive","demand_avoid",1,0.016060489,0,0.5,0.5
57,0.016610589,"easy","mid",7,"demand_aversive","demand_avoid",1,0.016610589,0,0.5,0.5
57,0.015380098,"easy","mid",8,"demand_aversive","demand_avoid",1,0.015380098,0,0.5,0.5
57,0.015732594,"easy","mid",9,"demand_aversive","demand_avoid",1,0.015732594,0,0.5,0.5
57,0.016813739,"easy","mid",23,"demand_aversive","demand_avoid",1,0.016813739,0,0.5,0.5
57,0.015864573,"hard","mid",24,"demand_aversive","demand_avoid",0,0.015864573,0,0.5,0.5
57,0.015729693,"hard","mid",25,"demand_aversive","demand_avoid",0,0.015729693,0,0.5,0.5
57,0.016404327,"easy","mid",13,"demand_aversive","demand_avoid",1,0.016404327,0,0.5,0.5
57,0.017015458,"easy","mid",14,"demand_aversive","demand_avoid",1,0.017015458,0,0.5,0.5
57,0.015894597,"easy","mid",15,"demand_aversive","demand_avoid",1,0.015894597,0,0.5,0.5
57,0.016406845,"easy","mid",16,"demand_aversive","demand_avoid",1,0.016406845,0,0.5,0.5
57,0.016000852,"easy","mid",17,"demand_aversive","demand_avoid",1,0.016000852,0,0.5,0.5
57,0.016349656,"easy","mid",18,"demand_aversive","demand_avoid",1,0.016349656,0,0.5,0.5
57,0.015462108,"easy","mid",19,"demand_aversive","demand_avoid",1,0.015462108,0,0.5,0.5
57,0.01540634,"easy","mid",20,"demand_aversive","demand_avoid",1,0.01540634,0,0.5,0.5
57,0.016802164,"easy","mid",21,"demand_aversive","demand_avoid",1,0.016802164,0,0.5,0.5
57,0.016480664,"hard","mid",22,"demand_aversive","demand_avoid",0,0.016480664,0,0.5,0.5
57,0.016078092,"hard","mid",36,"demand_aversive","demand_avoid",0,0.016078092,0,0.5,0.5
57,0.015509821,"hard","mid",37,"demand_aversive","demand_avoid",0,0.015509821,0,0.5,0.5
57,0.016392552,"easy","mid",38,"demand_aversive","demand_avoid",1,0.016392552,0,0.5,0.5
57,0.016560887,"hard","mid",39,"demand_aversive","demand_avoid",0,0.016560887,0,0.5,0.5
57,0.015138609,"hard","mid",40,"demand_aversive","demand_avoid",0,0.015138609,0,0.5,0.5
57,0.015660787,"easy","mid",41,"demand_aversive","demand_avoid",1,0.015660787,0,0.5,0.5
57,0.014833777,"easy","mid",42,"demand_aversive","demand_avoid",1,0.014833777,0,0.5,0.5
57,0.015609055,"hard","mid",43,"demand_aversive","demand_avoid",0,0.015609055,0,0.5,0.5
57,0.015554393,"hard","mid",44,"demand_aversive","demand_avoid",0,0.015554393,0,0.5,0.5
57,0.016029951,"hard","mid",45,"demand_aversive","demand_avoid",0,0.016029951,0,0.5,0.5
57,0.016835388,"hard","mid",46,"demand_aversive","demand_avoid",0,0.016835388,0,0.5,0.5
57,0.015381893,"easy","mid",47,"demand_aversive","demand_avoid",1,0.015381893,0,0.5,0.5
57,0.016092709,"hard","mid",48,"demand_aversive","demand_avoid",0,0.016092709,0,0.5,0.5
57,0.016911593,"easy","mid",49,"demand_aversive","demand_avoid",1,0.016911593,0,0.5,0.5
57,0.015917725,"hard","mid",50,"demand_aversive","demand_avoid",0,0.015917725,0,0.5,0.5
57,0.016378989,"hard","mid",28,"demand_aversive","demand_avoid",0,0.016378989,0,0.5,0.5
57,0.016324617,"easy","mid",29,"demand_aversive","demand_avoid",1,0.016324617,0,0.5,0.5
57,0.016181567,"hard","mid",26,"demand_aversive","demand_avoid",0,0.016181567,0,0.5,0.5
57,0.015593347,"hard","mid",27,"demand_aversive","demand_avoid",0,0.015593347,0,0.5,0.5
57,0.016551583,"hard","mid",32,"demand_aversive","demand_avoid",0,0.016551583,0,0.5,0.5
57,0.017008717,"easy","mid",33,"demand_aversive","demand_avoid",1,0.017008717,0,0.5,0.5
57,0.015952345,"easy","mid",30,"demand_aversive","demand_avoid",1,0.015952345,0,0.5,0.5
57,0.0159795,"easy","mid",31,"demand_aversive","demand_avoid",1,0.0159795,0,0.5,0.5
57,0.016327736,"hard","mid",34,"demand_aversive","demand_avoid",0,0.016327736,0,0.5,0.5
57,0.016088715,"easy","mid",35,"demand_aversive","demand_avoid",1,0.016088715,0,0.5,0.5
58,0.0056391510006506,"easy","mid",11,"demand_aversive","demand_avoid",1,0.0056391510006506,0,0.5,0.5
58,0.00998196100044879,"easy","mid",9,"demand_aversive","demand_avoid",1,0.00998196100044879,0,0.5,0.5
58,0.0105826470007742,"easy","mid",10,"demand_aversive","demand_avoid",1,0.0105826470007742,0,0.5,0.5
58,0.0104651370002102,"easy","mid",12,"demand_aversive","demand_avoid",1,0.0104651370002102,0,0.5,0.5
58,0.00685381599942048,"easy","mid",25,"demand_aversive","demand_avoid",1,0.00685381599942048,0,0.5,0.5
58,0.0102866059987718,"easy","mid",13,"demand_aversive","demand_avoid",1,0.0102866059987718,0,0.5,0.5
58,0.010457086000315,"easy","mid",14,"demand_aversive","demand_avoid",1,0.010457086000315,0,0.5,0.5
58,0.0102754210001876,"easy","mid",24,"demand_aversive","demand_avoid",1,0.0102754210001876,0,0.5,0.5
58,0.010186782999881,"easy","mid",16,"demand_aversive","demand_avoid",1,0.010186782999881,0,0.5,0.5
58,0.00684348399954615,"easy","mid",17,"demand_aversive","demand_avoid",1,0.00684348399954615,0,0.5,0.5
58,0.0101825769997959,"easy","mid",18,"demand_aversive","demand_avoid",1,0.0101825769997959,0,0.5,0.5
58,0.00963260500066099,"easy","mid",19,"demand_aversive","demand_avoid",1,0.00963260500066099,0,0.5,0.5
58,0.00541604700083553,"easy","mid",20,"demand_aversive","demand_avoid",1,0.00541604700083553,0,0.5,0.5
58,0.00574296100057836,"easy","mid",21,"demand_aversive","demand_avoid",1,0.00574296100057836,0,0.5,0.5
58,0.0105985780010087,"easy","mid",22,"demand_aversive","demand_avoid",1,0.0105985780010087,0,0.5,0.5
58,0.0101307750010164,"easy","mid",23,"demand_aversive","demand_avoid",1,0.0101307750010164,0,0.5,0.5
58,0.00700394500017865,"easy","mid",37,"demand_aversive","demand_avoid",1,0.00700394500017865,0,0.5,0.5
58,0.0065666959999362,"easy","mid",38,"demand_aversive","demand_avoid",1,0.0065666959999362,0,0.5,0.5
58,0.0105734209992079,"easy","mid",39,"demand_aversive","demand_avoid",1,0.0105734209992079,0,0.5,0.5
58,0.00603246199898422,"easy","mid",40,"demand_aversive","demand_avoid",1,0.00603246199898422,0,0.5,0.5
58,0.0100421890001599,"easy","mid",15,"demand_aversive","demand_avoid",1,0.0100421890001599,0,0.5,0.5
58,0.00668339199910406,"easy","mid",42,"demand_aversive","demand_avoid",1,0.00668339199910406,0,0.5,0.5
58,0.00693608199981099,"easy","mid",43,"demand_aversive","demand_avoid",1,0.00693608199981099,0,0.5,0.5
58,0.0103318599994964,"easy","mid",44,"demand_aversive","demand_avoid",1,0.0103318599994964,0,0.5,0.5
58,0.0103423560012743,"easy","mid",45,"demand_aversive","demand_avoid",1,0.0103423560012743,0,0.5,0.5
58,0.0103911740006879,"easy","mid",46,"demand_aversive","demand_avoid",1,0.0103911740006879,0,0.5,0.5
58,0.0067409579987725,"hard","mid",47,"demand_aversive","demand_avoid",0,0.0067409579987725,0,0.5,0.5
58,0.010135739999896,"easy","mid",48,"demand_aversive","demand_avoid",1,0.010135739999896,0,0.5,0.5
58,0.0101186520005285,"easy","mid",49,"demand_aversive","demand_avoid",1,0.0101186520005285,0,0.5,0.5
58,0.00675475599928177,"easy","mid",50,"demand_aversive","demand_avoid",1,0.00675475599928177,0,0.5,0.5
58,0.00674696999885782,"hard","mid",28,"demand_aversive","demand_avoid",0,0.00674696999885782,0,0.5,0.5
58,0.00673394300065411,"easy","mid",29,"demand_aversive","demand_avoid",1,0.00673394300065411,0,0.5,0.5
58,0.00694565899902955,"hard","mid",26,"demand_aversive","demand_avoid",0,0.00694565899902955,0,0.5,0.5
58,0.010192186000495,"easy","mid",27,"demand_aversive","demand_avoid",1,0.010192186000495,0,0.5,0.5
58,0.0105418059993099,"easy","mid",32,"demand_aversive","demand_avoid",1,0.0105418059993099,0,0.5,0.5
58,0.0109969679997448,"easy","mid",33,"demand_aversive","demand_avoid",1,0.0109969679997448,0,0.5,0.5
58,0.0101828540009592,"easy","mid",30,"demand_aversive","demand_avoid",1,0.0101828540009592,0,0.5,0.5
58,0.0102302830000554,"easy","mid",31,"demand_aversive","demand_avoid",1,0.0102302830000554,0,0.5,0.5
58,0.00650255300024583,"easy","mid",36,"demand_aversive","demand_avoid",1,0.00650255300024583,0,0.5,0.5
58,0.00611977400149044,"easy","mid",41,"demand_aversive","demand_avoid",1,0.00611977400149044,0,0.5,0.5
58,0.0104136870013463,"easy","mid",34,"demand_aversive","demand_avoid",1,0.0104136870013463,0,0.5,0.5
58,0.0107758959984494,"easy","mid",35,"demand_aversive","demand_avoid",1,0.0107758959984494,0,0.5,0.5
58,0.00556087599943567,"easy","mid",3,"demand_aversive","demand_avoid",1,0.00556087599943567,0,0.5,0.5
58,0.00683989800018026,"easy","mid",4,"demand_aversive","demand_avoid",1,0.00683989800018026,0,0.5,0.5
58,0.00890549500036286,"easy","mid",1,"demand_aversive","demand_avoid",1,0.00890549500036286,0,0.5,0.5
58,0.00678807300027984,"easy","mid",2,"demand_aversive","demand_avoid",1,0.00678807300027984,0,0.5,0.5
58,0.0106379839999136,"easy","mid",7,"demand_aversive","demand_avoid",1,0.0106379839999136,0,0.5,0.5
58,0.0101489130011032,"easy","mid",8,"demand_aversive","demand_avoid",1,0.0101489130011032,0,0.5,0.5
58,0.0102498569995078,"easy","mid",5,"demand_aversive","demand_avoid",1,0.0102498569995078,0,0.5,0.5
58,0.0103256550009974,"easy","mid",6,"demand_aversive","demand_avoid",1,0.0103256550009974,0,0.5,0.5
59,0.0105708820010477,"easy","mid",9,"demand_aversive","no_demand_avoid",1,0.0105708820010477,0,0.5,0.5
59,0.00998583899854566,"easy","mid",8,"demand_aversive","no_demand_avoid",1,0.00998583899854566,0,0.5,0.5
59,0.00961379900036263,"hard","mid",10,"demand_aversive","no_demand_avoid",0,0.00961379900036263,0,0.5,0.5
59,0.0100971870015201,"hard","mid",11,"demand_aversive","no_demand_avoid",0,0.0100971870015201,0,0.5,0.5
59,0.00518844999896828,"hard","mid",12,"demand_aversive","no_demand_avoid",0,0.00518844999896828,0,0.5,0.5
59,0.0103929600008996,"easy","mid",22,"demand_aversive","no_demand_avoid",1,0.0103929600008996,0,0.5,0.5
59,0.00560536999910255,"easy","mid",23,"demand_aversive","no_demand_avoid",1,0.00560536999910255,0,0.5,0.5
59,0.00687615800052299,"easy","mid",28,"demand_aversive","no_demand_avoid",1,0.00687615800052299,0,0.5,0.5
59,0.0105866369995056,"easy","mid",29,"demand_aversive","no_demand_avoid",1,0.0105866369995056,0,0.5,0.5
59,0.0059513619999052,"hard","mid",30,"demand_aversive","no_demand_avoid",0,0.0059513619999052,0,0.5,0.5
59,0.0105401990003884,"hard","mid",31,"demand_aversive","no_demand_avoid",0,0.0105401990003884,0,0.5,0.5
59,0.00665571499848738,"hard","mid",32,"demand_aversive","no_demand_avoid",0,0.00665571499848738,0,0.5,0.5
59,0.0107953609985998,"easy","mid",33,"demand_aversive","no_demand_avoid",1,0.0107953609985998,0,0.5,0.5
59,0.0107650719983212,"easy","mid",34,"demand_aversive","no_demand_avoid",1,0.0107650719983212,0,0.5,0.5
59,0.0103680510001141,"hard","mid",35,"demand_aversive","no_demand_avoid",0,0.0103680510001141,0,0.5,0.5
59,0.0104991309999605,"hard","mid",36,"demand_aversive","no_demand_avoid",0,0.0104991309999605,0,0.5,0.5
59,0.00647782699888921,"hard","mid",24,"demand_aversive","no_demand_avoid",0,0.00647782699888921,0,0.5,0.5
59,0.0106876709978678,"easy","mid",25,"demand_aversive","no_demand_avoid",1,0.0106876709978678,0,0.5,0.5
59,0.0101048530013941,"easy","mid",26,"demand_aversive","no_demand_avoid",1,0.0101048530013941,0,0.5,0.5
59,0.0103704590001144,"easy","mid",27,"demand_aversive","no_demand_avoid",1,0.0103704590001144,0,0.5,0.5
59,0.0104318459998467,"hard","mid",1,"demand_aversive","no_demand_avoid",0,0.0104318459998467,0,0.5,0.5
59,0.0109438330000557,"easy","mid",2,"demand_aversive","no_demand_avoid",1,0.0109438330000557,0,0.5,0.5
59,0.00681884599907789,"easy","mid",3,"demand_aversive","no_demand_avoid",1,0.00681884599907789,0,0.5,0.5
59,0.00622318999739946,"hard","mid",4,"demand_aversive","no_demand_avoid",0,0.00622318999739946,0,0.5,0.5
59,0.00643045700053335,"easy","mid",5,"demand_aversive","no_demand_avoid",1,0.00643045700053335,0,0.5,0.5
59,0.010102153999469,"hard","mid",6,"demand_aversive","no_demand_avoid",0,0.010102153999469,0,0.5,0.5
59,0.00668895699709537,"easy","mid",7,"demand_aversive","no_demand_avoid",1,0.00668895699709537,0,0.5,0.5
59,0.0104841510001279,"easy","mid",46,"demand_aversive","no_demand_avoid",1,0.0104841510001279,0,0.5,0.5
59,0.00924227500217967,"easy","mid",47,"demand_aversive","no_demand_avoid",1,0.00924227500217967,0,0.5,0.5
59,0.00652122999963467,"easy","mid",48,"demand_aversive","no_demand_avoid",1,0.00652122999963467,0,0.5,0.5
59,0.00547670499872766,"hard","mid",49,"demand_aversive","no_demand_avoid",0,0.00547670499872766,0,0.5,0.5
59,0.00913130399931106,"hard","mid",50,"demand_aversive","no_demand_avoid",0,0.00913130399931106,0,0.5,0.5
59,0.0064096520000021,"easy","mid",13,"demand_aversive","no_demand_avoid",1,0.0064096520000021,0,0.5,0.5
59,0.0113388110003143,"easy","mid",14,"demand_aversive","no_demand_avoid",1,0.0113388110003143,0,0.5,0.5
59,0.0110580799992022,"hard","mid",15,"demand_aversive","no_demand_avoid",0,0.0110580799992022,0,0.5,0.5
59,0.0101092439981585,"hard","mid",16,"demand_aversive","no_demand_avoid",0,0.0101092439981585,0,0.5,0.5
59,0.0107311280007707,"hard","mid",17,"demand_aversive","no_demand_avoid",0,0.0107311280007707,0,0.5,0.5
59,0.00658500699864817,"easy","mid",18,"demand_aversive","no_demand_avoid",1,0.00658500699864817,0,0.5,0.5
59,0.0108802639988426,"easy","mid",19,"demand_aversive","no_demand_avoid",1,0.0108802639988426,0,0.5,0.5
59,0.00684389199886937,"easy","mid",20,"demand_aversive","no_demand_avoid",1,0.00684389199886937,0,0.5,0.5
59,0.0105246920029458,"hard","mid",21,"demand_aversive","no_demand_avoid",0,0.0105246920029458,0,0.5,0.5
59,0.0100677129994438,"hard","mid",37,"demand_aversive","no_demand_avoid",0,0.0100677129994438,0,0.5,0.5
59,0.0106028109985346,"easy","mid",38,"demand_aversive","no_demand_avoid",1,0.0106028109985346,0,0.5,0.5
59,0.0109844769976917,"hard","mid",39,"demand_aversive","no_demand_avoid",0,0.0109844769976917,0,0.5,0.5
59,0.00893561400152976,"easy","mid",40,"demand_aversive","no_demand_avoid",1,0.00893561400152976,0,0.5,0.5
59,0.0104845109999587,"easy","mid",41,"demand_aversive","no_demand_avoid",1,0.0104845109999587,0,0.5,0.5
59,0.00639387099727173,"easy","mid",42,"demand_aversive","no_demand_avoid",1,0.00639387099727173,0,0.5,0.5
59,0.0101956399994378,"easy","mid",43,"demand_aversive","no_demand_avoid",1,0.0101956399994378,0,0.5,0.5
59,0.0103205699997488,"hard","mid",44,"demand_aversive","no_demand_avoid",0,0.0103205699997488,0,0.5,0.5
59,0.00650268699973822,"easy","mid",45,"demand_aversive","no_demand_avoid",1,0.00650268699973822,0,0.5,0.5
60,0.0100758669977949,"easy","mid",8,"demand_aversive","demand_avoid",1,0.0100758669977949,0,0.5,0.5
60,0.00585543899796903,"easy","mid",9,"demand_aversive","demand_avoid",1,0.00585543899796903,0,0.5,0.5
60,0.0103598730020167,"easy","mid",10,"demand_aversive","demand_avoid",1,0.0103598730020167,0,0.5,0.5
60,0.00555075399825,"easy","mid",11,"demand_aversive","demand_avoid",1,0.00555075399825,0,0.5,0.5
60,0.00544396600162145,"easy","mid",21,"demand_aversive","demand_avoid",1,0.00544396600162145,0,0.5,0.5
60,0.0103431950010417,"easy","mid",22,"demand_aversive","demand_avoid",1,0.0103431950010417,0,0.5,0.5
60,0.0107094080012757,"easy","mid",23,"demand_aversive","demand_avoid",1,0.0107094080012757,0,0.5,0.5
60,0.0106995879978058,"easy","mid",28,"demand_aversive","demand_avoid",1,0.0106995879978058,0,0.5,0.5
60,0.0105264220001118,"easy","mid",29,"demand_aversive","demand_avoid",1,0.0105264220001118,0,0.5,0.5
60,0.0103842279968376,"easy","mid",30,"demand_aversive","demand_avoid",1,0.0103842279968376,0,0.5,0.5
60,0.00698705099785002,"easy","mid",31,"demand_aversive","demand_avoid",1,0.00698705099785002,0,0.5,0.5
60,0.00995164599953569,"easy","mid",32,"demand_aversive","demand_avoid",1,0.00995164599953569,0,0.5,0.5
60,0.0101868969977659,"easy","mid",33,"demand_aversive","demand_avoid",1,0.0101868969977659,0,0.5,0.5
60,0.0103962379980658,"easy","mid",34,"demand_aversive","demand_avoid",1,0.0103962379980658,0,0.5,0.5
60,0.00683818099787459,"easy","mid",35,"demand_aversive","demand_avoid",1,0.00683818099787459,0,0.5,0.5
60,0.00590522399943438,"hard","mid",36,"demand_aversive","demand_avoid",0,0.00590522399943438,0,0.5,0.5
60,0.0104810880002333,"easy","mid",24,"demand_aversive","demand_avoid",1,0.0104810880002333,0,0.5,0.5
60,0.00576660700244247,"easy","mid",25,"demand_aversive","demand_avoid",1,0.00576660700244247,0,0.5,0.5
60,0.00674397300099372,"easy","mid",26,"demand_aversive","demand_avoid",1,0.00674397300099372,0,0.5,0.5
60,0.00677356600135681,"easy","mid",27,"demand_aversive","demand_avoid",1,0.00677356600135681,0,0.5,0.5
60,0.0066789640004572,"easy","mid",1,"demand_aversive","demand_avoid",1,0.0066789640004572,0,0.5,0.5
60,0.0104227740011993,"hard","mid",2,"demand_aversive","demand_avoid",0,0.0104227740011993,0,0.5,0.5
60,0.0107498050019785,"easy","mid",3,"demand_aversive","demand_avoid",1,0.0107498050019785,0,0.5,0.5
60,0.00978042199858464,"easy","mid",4,"demand_aversive","demand_avoid",1,0.00978042199858464,0,0.5,0.5
60,0.0100002910003241,"easy","mid",5,"demand_aversive","demand_avoid",1,0.0100002910003241,0,0.5,0.5
60,0.0104965290011023,"easy","mid",6,"demand_aversive","demand_avoid",1,0.0104965290011023,0,0.5,0.5
60,0.0102552619973721,"easy","mid",7,"demand_aversive","demand_avoid",1,0.0102552619973721,0,0.5,0.5
60,0.0105140809973818,"hard","mid",47,"demand_aversive","demand_avoid",0,0.0105140809973818,0,0.5,0.5
60,0.0070659289995092,"hard","mid",48,"demand_aversive","demand_avoid",0,0.0070659289995092,0,0.5,0.5
60,0.00648831899889046,"easy","mid",49,"demand_aversive","demand_avoid",1,0.00648831899889046,0,0.5,0.5
60,0.0103316090026055,"hard","mid",50,"demand_aversive","demand_avoid",0,0.0103316090026055,0,0.5,0.5
60,0.0102279370003089,"easy","mid",12,"demand_aversive","demand_avoid",1,0.0102279370003089,0,0.5,0.5
60,0.0069836699985899,"easy","mid",13,"demand_aversive","demand_avoid",1,0.0069836699985899,0,0.5,0.5
60,0.00685911699838471,"easy","mid",14,"demand_aversive","demand_avoid",1,0.00685911699838471,0,0.5,0.5
60,0.0069805279999855,"easy","mid",15,"demand_aversive","demand_avoid",1,0.0069805279999855,0,0.5,0.5
60,0.00682812200102489,"easy","mid",16,"demand_aversive","demand_avoid",1,0.00682812200102489,0,0.5,0.5
60,0.011117458998342,"easy","mid",17,"demand_aversive","demand_avoid",1,0.011117458998342,0,0.5,0.5
60,0.0105824300007953,"easy","mid",18,"demand_aversive","demand_avoid",1,0.0105824300007953,0,0.5,0.5
60,0.00688194599933922,"easy","mid",19,"demand_aversive","demand_avoid",1,0.00688194599933922,0,0.5,0.5
60,0.0098366989986971,"easy","mid",20,"demand_aversive","demand_avoid",1,0.0098366989986971,0,0.5,0.5
60,0.00980652100042789,"hard","mid",46,"demand_aversive","demand_avoid",0,0.00980652100042789,0,0.5,0.5
60,0.0105162850013585,"hard","mid",38,"demand_aversive","demand_avoid",0,0.0105162850013585,0,0.5,0.5
60,0.010351361001085,"hard","mid",39,"demand_aversive","demand_avoid",0,0.010351361001085,0,0.5,0.5
60,0.0106137960028718,"hard","mid",40,"demand_aversive","demand_avoid",0,0.0106137960028718,0,0.5,0.5
60,0.00913446100094006,"hard","mid",37,"demand_aversive","demand_avoid",0,0.00913446100094006,0,0.5,0.5
60,0.0107548480009427,"hard","mid",42,"demand_aversive","demand_avoid",0,0.0107548480009427,0,0.5,0.5
60,0.00694875400222372,"hard","mid",43,"demand_aversive","demand_avoid",0,0.00694875400222372,0,0.5,0.5
60,0.00701590700191446,"hard","mid",44,"demand_aversive","demand_avoid",0,0.00701590700191446,0,0.5,0.5
60,0.00966220400005113,"hard","mid",41,"demand_aversive","demand_avoid",0,0.00966220400005113,0,0.5,0.5
60,0.0110739960000501,"easy","mid",45,"demand_aversive","demand_avoid",1,0.0110739960000501,0,0.5,0.5
61,0.0110436700015271,"hard","mid",2,"demand_aversive","demand_avoid",0,0.0110436700015271,0,0.5,0.5
61,0.00505226099994616,"easy","mid",3,"demand_aversive","demand_avoid",1,0.00505226099994616,0,0.5,0.5
61,0.00632944600147312,"easy","mid",4,"demand_aversive","demand_avoid",1,0.00632944600147312,0,0.5,0.5
61,0.0108587730028376,"easy","mid",1,"demand_aversive","demand_avoid",1,0.0108587730028376,0,0.5,0.5
61,0.00653611499728868,"easy","mid",15,"demand_aversive","demand_avoid",1,0.00653611499728868,0,0.5,0.5
61,0.0060494609970192,"easy","mid",16,"demand_aversive","demand_avoid",1,0.0060494609970192,0,0.5,0.5
61,0.0103199060031329,"easy","mid",17,"demand_aversive","demand_avoid",1,0.0103199060031329,0,0.5,0.5
61,0.00613621799857356,"easy","mid",5,"demand_aversive","demand_avoid",1,0.00613621799857356,0,0.5,0.5
61,0.0067898659981438,"easy","mid",6,"demand_aversive","demand_avoid",1,0.0067898659981438,0,0.5,0.5
61,0.0108651609989465,"easy","mid",7,"demand_aversive","demand_avoid",1,0.0108651609989465,0,0.5,0.5
61,0.0104236520019185,"easy","mid",8,"demand_aversive","demand_avoid",1,0.0104236520019185,0,0.5,0.5
61,0.00638466600139509,"easy","mid",9,"demand_aversive","demand_avoid",1,0.00638466600139509,0,0.5,0.5
61,0.0113827739987755,"easy","mid",10,"demand_aversive","demand_avoid",1,0.0113827739987755,0,0.5,0.5
61,0.010377933998825,"easy","mid",11,"demand_aversive","demand_avoid",1,0.010377933998825,0,0.5,0.5
61,0.00622569299957831,"easy","mid",12,"demand_aversive","demand_avoid",1,0.00622569299957831,0,0.5,0.5
61,0.0114014499995392,"hard","mid",13,"demand_aversive","demand_avoid",0,0.0114014499995392,0,0.5,0.5
61,0.0063752599999134,"easy","mid",14,"demand_aversive","demand_avoid",1,0.0063752599999134,0,0.5,0.5
61,0.0109914829990885,"easy","mid",28,"demand_aversive","demand_avoid",1,0.0109914829990885,0,0.5,0.5
61,0.0104011469993566,"easy","mid",29,"demand_aversive","demand_avoid",1,0.0104011469993566,0,0.5,0.5
61,0.0108971300032863,"easy","mid",30,"demand_aversive","demand_avoid",1,0.0108971300032863,0,0.5,0.5
61,0.0064271640003426,"easy","mid",18,"demand_aversive","demand_avoid",1,0.0064271640003426,0,0.5,0.5
61,0.00917293499878724,"easy","mid",19,"demand_aversive","demand_avoid",1,0.00917293499878724,0,0.5,0.5
61,0.00636025899802917,"easy","mid",20,"demand_aversive","demand_avoid",1,0.00636025899802917,0,0.5,0.5
61,0.0105355129999225,"easy","mid",21,"demand_aversive","demand_avoid",1,0.0105355129999225,0,0.5,0.5
61,0.0110369500034722,"easy","mid",22,"demand_aversive","demand_avoid",1,0.0110369500034722,0,0.5,0.5
61,0.010434316998726,"easy","mid",23,"demand_aversive","demand_avoid",1,0.010434316998726,0,0.5,0.5
61,0.0105719819985097,"easy","mid",24,"demand_aversive","demand_avoid",1,0.0105719819985097,0,0.5,0.5
61,0.00631265599804465,"easy","mid",25,"demand_aversive","demand_avoid",1,0.00631265599804465,0,0.5,0.5
61,0.00623427699974854,"easy","mid",26,"demand_aversive","demand_avoid",1,0.00623427699974854,0,0.5,0.5
61,0.00983618600002956,"easy","mid",27,"demand_aversive","demand_avoid",1,0.00983618600002956,0,0.5,0.5
61,0.00632396899891319,"easy","mid",40,"demand_aversive","demand_avoid",1,0.00632396899891319,0,0.5,0.5
61,0.0109929429963813,"easy","mid",41,"demand_aversive","demand_avoid",1,0.0109929429963813,0,0.5,0.5
61,0.0103717889942345,"easy","mid",42,"demand_aversive","demand_avoid",1,0.0103717889942345,0,0.5,0.5
61,0.0109829119974165,"easy","mid",43,"demand_aversive","demand_avoid",1,0.0109829119974165,0,0.5,0.5
61,0.00528529699658975,"easy","mid",44,"demand_aversive","demand_avoid",1,0.00528529699658975,0,0.5,0.5
61,0.0112851180019788,"easy","mid",45,"demand_aversive","demand_avoid",1,0.0112851180019788,0,0.5,0.5
61,0.00632003999635344,"easy","mid",46,"demand_aversive","demand_avoid",1,0.00632003999635344,0,0.5,0.5
61,0.00954714700492332,"easy","mid",47,"demand_aversive","demand_avoid",1,0.00954714700492332,0,0.5,0.5
61,0.0108854990030522,"easy","mid",48,"demand_aversive","demand_avoid",1,0.0108854990030522,0,0.5,0.5
61,0.00634928699582815,"easy","mid",49,"demand_aversive","demand_avoid",1,0.00634928699582815,0,0.5,0.5
61,0.0102792969992151,"easy","mid",50,"demand_aversive","demand_avoid",1,0.0102792969992151,0,0.5,0.5
61,0.0101094869969529,"hard","mid",37,"demand_aversive","demand_avoid",0,0.0101094869969529,0,0.5,0.5
61,0.00991721099853748,"easy","mid",38,"demand_aversive","demand_avoid",1,0.00991721099853748,0,0.5,0.5
61,0.00540597700455692,"easy","mid",39,"demand_aversive","demand_avoid",1,0.00540597700455692,0,0.5,0.5
61,0.0103011969986255,"easy","mid",31,"demand_aversive","demand_avoid",1,0.0103011969986255,0,0.5,0.5
61,0.0112745269980223,"easy","mid",32,"demand_aversive","demand_avoid",1,0.0112745269980223,0,0.5,0.5
61,0.0111783529937384,"easy","mid",33,"demand_aversive","demand_avoid",1,0.0111783529937384,0,0.5,0.5
61,0.0105323090028833,"easy","mid",34,"demand_aversive","demand_avoid",1,0.0105323090028833,0,0.5,0.5
61,0.0064052539964905,"easy","mid",35,"demand_aversive","demand_avoid",1,0.0064052539964905,0,0.5,0.5
61,0.0063615649996791,"easy","mid",36,"demand_aversive","demand_avoid",1,0.0063615649996791,0,0.5,0.5
63,0.00657539399981033,"hard","mid",45,"no_demand_aversive","demand_avoid",0,0.00657539399981033,0,0.5,0.5
63,0.00679440599924419,"hard","mid",48,"no_demand_aversive","demand_avoid",0,0.00679440599924419,0,0.5,0.5
63,0.0101961489999667,"hard","mid",49,"no_demand_aversive","demand_avoid",0,0.0101961489999667,0,0.5,0.5
63,0.00904885701311287,"hard","mid",46,"no_demand_aversive","demand_avoid",0,0.00904885701311287,0,0.5,0.5
63,0.00997685499896761,"easy","mid",47,"no_demand_aversive","demand_avoid",1,0.00997685499896761,0,0.5,0.5
63,0.00665683999250177,"hard","mid",15,"no_demand_aversive","demand_avoid",0,0.00665683999250177,0,0.5,0.5
63,0.0103320340131177,"easy","mid",16,"no_demand_aversive","demand_avoid",1,0.0103320340131177,0,0.5,0.5
63,0.0104734330088831,"easy","mid",17,"no_demand_aversive","demand_avoid",1,0.0104734330088831,0,0.5,0.5
63,0.0105615079955896,"hard","mid",18,"no_demand_aversive","demand_avoid",0,0.0105615079955896,0,0.5,0.5
63,0.0103589599893894,"hard","mid",19,"no_demand_aversive","demand_avoid",0,0.0103589599893894,0,0.5,0.5
63,0.0104418039991288,"hard","mid",20,"no_demand_aversive","demand_avoid",0,0.0104418039991288,0,0.5,0.5
63,0.00602270600211341,"easy","mid",21,"no_demand_aversive","demand_avoid",1,0.00602270600211341,0,0.5,0.5
63,0.006969846013817,"hard","mid",50,"no_demand_aversive","demand_avoid",0,0.006969846013817,0,0.5,0.5
63,0.00979898500372656,"hard","mid",10,"no_demand_aversive","demand_avoid",0,0.00979898500372656,0,0.5,0.5
63,0.0104220380017068,"hard","mid",11,"no_demand_aversive","demand_avoid",0,0.0104220380017068,0,0.5,0.5
63,0.00520365699776448,"hard","mid",12,"no_demand_aversive","demand_avoid",0,0.00520365699776448,0,0.5,0.5
63,0.0106898380036,"hard","mid",13,"no_demand_aversive","demand_avoid",0,0.0106898380036,0,0.5,0.5
63,0.0103086979943328,"hard","mid",14,"no_demand_aversive","demand_avoid",0,0.0103086979943328,0,0.5,0.5
63,0.00653625800623558,"hard","mid",28,"no_demand_aversive","demand_avoid",0,0.00653625800623558,0,0.5,0.5
63,0.0105922799994005,"hard","mid",29,"no_demand_aversive","demand_avoid",0,0.0105922799994005,0,0.5,0.5
63,0.010314051003661,"hard","mid",30,"no_demand_aversive","demand_avoid",0,0.010314051003661,0,0.5,0.5
63,0.0104070829984266,"easy","mid",31,"no_demand_aversive","demand_avoid",1,0.0104070829984266,0,0.5,0.5
63,0.00997855499736033,"easy","mid",32,"no_demand_aversive","demand_avoid",1,0.00997855499736033,0,0.5,0.5
63,0.0103017910005292,"easy","mid",33,"no_demand_aversive","demand_avoid",1,0.0103017910005292,0,0.5,0.5
63,0.0103511350025656,"hard","mid",34,"no_demand_aversive","demand_avoid",0,0.0103511350025656,0,0.5,0.5
63,0.0105717010010267,"hard","mid",22,"no_demand_aversive","demand_avoid",0,0.0105717010010267,0,0.5,0.5
63,0.00602205500763375,"hard","mid",23,"no_demand_aversive","demand_avoid",0,0.00602205500763375,0,0.5,0.5
63,0.00591343599080574,"hard","mid",24,"no_demand_aversive","demand_avoid",0,0.00591343599080574,0,0.5,0.5
63,0.00696545699611306,"easy","mid",25,"no_demand_aversive","demand_avoid",1,0.00696545699611306,0,0.5,0.5
63,0.010411650990136,"hard","mid",26,"no_demand_aversive","demand_avoid",0,0.010411650990136,0,0.5,0.5
63,0.0106250910030212,"hard","mid",27,"no_demand_aversive","demand_avoid",0,0.0106250910030212,0,0.5,0.5
63,0.00683569800457917,"easy","mid",1,"no_demand_aversive","demand_avoid",1,0.00683569800457917,0,0.5,0.5
63,0.0105171509931097,"hard","mid",2,"no_demand_aversive","demand_avoid",0,0.0105171509931097,0,0.5,0.5
63,0.0125617540034,"easy","mid",3,"no_demand_aversive","demand_avoid",1,0.0125617540034,0,0.5,0.5
63,0.00938007900549565,"easy","mid",4,"no_demand_aversive","demand_avoid",1,0.00938007900549565,0,0.5,0.5
63,0.00690848100930452,"hard","mid",5,"no_demand_aversive","demand_avoid",0,0.00690848100930452,0,0.5,0.5
63,0.00996825500624254,"hard","mid",6,"no_demand_aversive","demand_avoid",0,0.00996825500624254,0,0.5,0.5
63,0.00585810100892559,"easy","mid",7,"no_demand_aversive","demand_avoid",1,0.00585810100892559,0,0.5,0.5
63,0.0103358680062229,"hard","mid",8,"no_demand_aversive","demand_avoid",0,0.0103358680062229,0,0.5,0.5
63,0.0103259249881376,"hard","mid",9,"no_demand_aversive","demand_avoid",0,0.0103259249881376,0,0.5,0.5
63,0.0101047660136828,"hard","mid",36,"no_demand_aversive","demand_avoid",0,0.0101047660136828,0,0.5,0.5
63,0.00589870799740311,"easy","mid",37,"no_demand_aversive","demand_avoid",1,0.00589870799740311,0,0.5,0.5
63,0.00675649999175221,"hard","mid",38,"no_demand_aversive","demand_avoid",0,0.00675649999175221,0,0.5,0.5
63,0.0054583800083492,"easy","mid",39,"no_demand_aversive","demand_avoid",1,0.0054583800083492,0,0.5,0.5
63,0.0066876220080303,"hard","mid",40,"no_demand_aversive","demand_avoid",0,0.0066876220080303,0,0.5,0.5
63,0.00667526001052465,"hard","mid",41,"no_demand_aversive","demand_avoid",0,0.00667526001052465,0,0.5,0.5
63,0.00682923100248445,"hard","mid",42,"no_demand_aversive","demand_avoid",0,0.00682923100248445,0,0.5,0.5
63,0.010189509994234,"hard","mid",43,"no_demand_aversive","demand_avoid",0,0.010189509994234,0,0.5,0.5
63,0.0100800689979224,"hard","mid",44,"no_demand_aversive","demand_avoid",0,0.0100800689979224,0,0.5,0.5
63,0.00996006200148258,"hard","mid",35,"no_demand_aversive","demand_avoid",0,0.00996006200148258,0,0.5,0.5
64,0.0113496289995965,"hard","mid",2,"demand_aversive","demand_avoid",0,0.0113496289995965,0,0.5,0.5
64,0.0105637429951457,"hard","mid",3,"demand_aversive","demand_avoid",0,0.0105637429951457,0,0.5,0.5
64,0.0105873940046877,"easy","mid",1,"demand_aversive","demand_avoid",1,0.0105873940046877,0,0.5,0.5
64,0.0059407449880382,"hard","mid",14,"demand_aversive","demand_avoid",0,0.0059407449880382,0,0.5,0.5
64,0.0108267719915602,"easy","mid",15,"demand_aversive","demand_avoid",1,0.0108267719915602,0,0.5,0.5
64,0.0107990849937778,"easy","mid",16,"demand_aversive","demand_avoid",1,0.0107990849937778,0,0.5,0.5
64,0.0112155709939543,"easy","mid",4,"demand_aversive","demand_avoid",1,0.0112155709939543,0,0.5,0.5
64,0.0109063659911044,"easy","mid",5,"demand_aversive","demand_avoid",1,0.0109063659911044,0,0.5,0.5
64,0.0112678320001578,"easy","mid",6,"demand_aversive","demand_avoid",1,0.0112678320001578,0,0.5,0.5
64,0.0110389450128423,"easy","mid",7,"demand_aversive","demand_avoid",1,0.0110389450128423,0,0.5,0.5
64,0.0106173439999111,"easy","mid",8,"demand_aversive","demand_avoid",1,0.0106173439999111,0,0.5,0.5
64,0.00614684299216606,"hard","mid",9,"demand_aversive","demand_avoid",0,0.00614684299216606,0,0.5,0.5
64,0.0108730099891545,"easy","mid",10,"demand_aversive","demand_avoid",1,0.0108730099891545,0,0.5,0.5
64,0.00602173400693573,"easy","mid",11,"demand_aversive","demand_avoid",1,0.00602173400693573,0,0.5,0.5
64,0.00628611499269027,"easy","mid",12,"demand_aversive","demand_avoid",1,0.00628611499269027,0,0.5,0.5
64,0.0100176099949749,"easy","mid",13,"demand_aversive","demand_avoid",1,0.0100176099949749,0,0.5,0.5
64,0.00610529400000814,"hard","mid",27,"demand_aversive","demand_avoid",0,0.00610529400000814,0,0.5,0.5
64,0.0112804989912547,"easy","mid",28,"demand_aversive","demand_avoid",1,0.0112804989912547,0,0.5,0.5
64,0.0107732260075863,"easy","mid",29,"demand_aversive","demand_avoid",1,0.0107732260075863,0,0.5,0.5
64,0.0109935389918974,"hard","mid",17,"demand_aversive","demand_avoid",0,0.0109935389918974,0,0.5,0.5
64,0.0114585289993556,"easy","mid",18,"demand_aversive","demand_avoid",1,0.0114585289993556,0,0.5,0.5
64,0.0103718479949748,"easy","mid",19,"demand_aversive","demand_avoid",1,0.0103718479949748,0,0.5,0.5
64,0.0111538780038245,"easy","mid",20,"demand_aversive","demand_avoid",1,0.0111538780038245,0,0.5,0.5
64,0.00604449599632062,"easy","mid",21,"demand_aversive","demand_avoid",1,0.00604449599632062,0,0.5,0.5
64,0.0113399740075693,"easy","mid",22,"demand_aversive","demand_avoid",1,0.0113399740075693,0,0.5,0.5
64,0.0110084500047378,"easy","mid",23,"demand_aversive","demand_avoid",1,0.0110084500047378,0,0.5,0.5
64,0.0110021550062811,"easy","mid",24,"demand_aversive","demand_avoid",1,0.0110021550062811,0,0.5,0.5
64,0.0102954100002535,"easy","mid",25,"demand_aversive","demand_avoid",1,0.0102954100002535,0,0.5,0.5
64,0.0062048599938862,"hard","mid",26,"demand_aversive","demand_avoid",0,0.0062048599938862,0,0.5,0.5
64,0.0112821799993981,"hard","mid",39,"demand_aversive","demand_avoid",0,0.0112821799993981,0,0.5,0.5
64,0.0107133559940848,"hard","mid",40,"demand_aversive","demand_avoid",0,0.0107133559940848,0,0.5,0.5
64,0.00630505599838216,"easy","mid",41,"demand_aversive","demand_avoid",1,0.00630505599838216,0,0.5,0.5
64,0.0113570970133878,"hard","mid",42,"demand_aversive","demand_avoid",0,0.0113570970133878,0,0.5,0.5
64,0.0110951169917826,"easy","mid",43,"demand_aversive","demand_avoid",1,0.0110951169917826,0,0.5,0.5
64,0.0113824069994735,"hard","mid",44,"demand_aversive","demand_avoid",0,0.0113824069994735,0,0.5,0.5
64,0.0107585799996741,"easy","mid",45,"demand_aversive","demand_avoid",1,0.0107585799996741,0,0.5,0.5
64,0.00625941299949773,"hard","mid",46,"demand_aversive","demand_avoid",0,0.00625941299949773,0,0.5,0.5
64,0.0111208859889302,"hard","mid",47,"demand_aversive","demand_avoid",0,0.0111208859889302,0,0.5,0.5
64,0.00625806499738246,"hard","mid",48,"demand_aversive","demand_avoid",0,0.00625806499738246,0,0.5,0.5
64,0.00592398100707214,"easy","mid",49,"demand_aversive","demand_avoid",1,0.00592398100707214,0,0.5,0.5
64,0.00635141400562134,"hard","mid",50,"demand_aversive","demand_avoid",0,0.00635141400562134,0,0.5,0.5
64,0.00622860100702383,"easy","mid",37,"demand_aversive","demand_avoid",1,0.00622860100702383,0,0.5,0.5
64,0.00576115900184959,"easy","mid",38,"demand_aversive","demand_avoid",1,0.00576115900184959,0,0.5,0.5
64,0.0111848640081007,"hard","mid",30,"demand_aversive","demand_avoid",0,0.0111848640081007,0,0.5,0.5
64,0.00549675000365824,"easy","mid",31,"demand_aversive","demand_avoid",1,0.00549675000365824,0,0.5,0.5
64,0.00611735199345276,"easy","mid",32,"demand_aversive","demand_avoid",1,0.00611735199345276,0,0.5,0.5
64,0.0105540319927968,"hard","mid",33,"demand_aversive","demand_avoid",0,0.0105540319927968,0,0.5,0.5
64,0.00562695899861865,"easy","mid",34,"demand_aversive","demand_avoid",1,0.00562695899861865,0,0.5,0.5
64,0.0109992499928921,"easy","mid",35,"demand_aversive","demand_avoid",1,0.0109992499928921,0,0.5,0.5
64,0.0112082609994104,"hard","mid",36,"demand_aversive","demand_avoid",0,0.0112082609994104,0,0.5,0.5
65,0.00688246902427636,"hard","mid",4,"demand_aversive","demand_avoid",0,0.00688246902427636,0,0.5,0.5
65,0.0102458790061064,"hard","mid",3,"demand_aversive","demand_avoid",0,0.0102458790061064,0,0.5,0.5
65,0.0102821209875401,"hard","mid",5,"demand_aversive","demand_avoid",0,0.0102821209875401,0,0.5,0.5
65,0.0101645470131189,"hard","mid",7,"demand_aversive","demand_avoid",0,0.0101645470131189,0,0.5,0.5
65,0.0068528350093402,"easy","mid",17,"demand_aversive","demand_avoid",1,0.0068528350093402,0,0.5,0.5
65,0.0106782839866355,"easy","mid",18,"demand_aversive","demand_avoid",1,0.0106782839866355,0,0.5,0.5
65,0.00668607599800453,"hard","mid",6,"demand_aversive","demand_avoid",0,0.00668607599800453,0,0.5,0.5
65,0.0100219709856901,"hard","mid",2,"demand_aversive","demand_avoid",0,0.0100219709856901,0,0.5,0.5
65,0.0102894489828032,"easy","mid",16,"demand_aversive","demand_avoid",1,0.0102894489828032,0,0.5,0.5
65,0.00676254197605886,"easy","mid",30,"demand_aversive","demand_avoid",1,0.00676254197605886,0,0.5,0.5
65,0.0103423710097559,"easy","mid",31,"demand_aversive","demand_avoid",1,0.0103423710097559,0,0.5,0.5
65,0.00698617400485091,"hard","mid",32,"demand_aversive","demand_avoid",0,0.00698617400485091,0,0.5,0.5
65,0.0102550349838566,"easy","mid",33,"demand_aversive","demand_avoid",1,0.0102550349838566,0,0.5,0.5
65,0.0103392349847127,"hard","mid",8,"demand_aversive","demand_avoid",0,0.0103392349847127,0,0.5,0.5
65,0.0103951809869613,"hard","mid",9,"demand_aversive","demand_avoid",0,0.0103951809869613,0,0.5,0.5
65,0.0104979519965127,"easy","mid",10,"demand_aversive","demand_avoid",1,0.0104979519965127,0,0.5,0.5
65,0.00716464300057851,"hard","mid",11,"demand_aversive","demand_avoid",0,0.00716464300057851,0,0.5,0.5
65,0.0102799989981577,"hard","mid",12,"demand_aversive","demand_avoid",0,0.0102799989981577,0,0.5,0.5
65,0.0108273639925756,"hard","mid",13,"demand_aversive","demand_avoid",0,0.0108273639925756,0,0.5,0.5
65,0.0102369309752248,"hard","mid",14,"demand_aversive","demand_avoid",0,0.0102369309752248,0,0.5,0.5
65,0.00688621998415329,"hard","mid",15,"demand_aversive","demand_avoid",0,0.00688621998415329,0,0.5,0.5
65,0.00680425399332307,"easy","mid",42,"demand_aversive","demand_avoid",1,0.00680425399332307,0,0.5,0.5
65,0.00688014400657266,"easy","mid",43,"demand_aversive","demand_avoid",1,0.00688014400657266,0,0.5,0.5
65,0.0101813219953328,"easy","mid",44,"demand_aversive","demand_avoid",1,0.0101813219953328,0,0.5,0.5
65,0.0069535440125037,"easy","mid",45,"demand_aversive","demand_avoid",1,0.0069535440125037,0,0.5,0.5
65,0.00691348299733363,"easy","mid",46,"demand_aversive","demand_avoid",1,0.00691348299733363,0,0.5,0.5
65,0.00704181200126186,"hard","mid",47,"demand_aversive","demand_avoid",0,0.00704181200126186,0,0.5,0.5
65,0.00688203697791323,"easy","mid",48,"demand_aversive","demand_avoid",1,0.00688203697791323,0,0.5,0.5
65,0.00688312598504126,"easy","mid",49,"demand_aversive","demand_avoid",1,0.00688312598504126,0,0.5,0.5
65,0.0098719330271706,"easy","mid",50,"demand_aversive","demand_avoid",1,0.0098719330271706,0,0.5,0.5
65,0.0102513789897785,"hard","mid",24,"demand_aversive","demand_avoid",0,0.0102513789897785,0,0.5,0.5
65,0.00673968199407682,"easy","mid",25,"demand_aversive","demand_avoid",1,0.00673968199407682,0,0.5,0.5
65,0.0101085659989621,"easy","mid",26,"demand_aversive","demand_avoid",1,0.0101085659989621,0,0.5,0.5
65,0.0100086599995848,"easy","mid",27,"demand_aversive","demand_avoid",1,0.0100086599995848,0,0.5,0.5
65,0.0103201020101551,"easy","mid",28,"demand_aversive","demand_avoid",1,0.0103201020101551,0,0.5,0.5
65,0.0106191269878764,"easy","mid",29,"demand_aversive","demand_avoid",1,0.0106191269878764,0,0.5,0.5
65,0.00602093699853867,"easy","mid",21,"demand_aversive","demand_avoid",1,0.00602093699853867,0,0.5,0.5
65,0.0103270719991997,"easy","mid",22,"demand_aversive","demand_avoid",1,0.0103270719991997,0,0.5,0.5
65,0.00980583499767818,"easy","mid",19,"demand_aversive","demand_avoid",1,0.00980583499767818,0,0.5,0.5
65,0.0103562870062888,"easy","mid",20,"demand_aversive","demand_avoid",1,0.0103562870062888,0,0.5,0.5
65,0.00996259102248587,"easy","mid",38,"demand_aversive","demand_avoid",1,0.00996259102248587,0,0.5,0.5
65,0.00933106400771067,"easy","mid",39,"demand_aversive","demand_avoid",1,0.00933106400771067,0,0.5,0.5
65,0.00682444899575785,"easy","mid",23,"demand_aversive","demand_avoid",1,0.00682444899575785,0,0.5,0.5
65,0.00704146298812702,"easy","mid",37,"demand_aversive","demand_avoid",1,0.00704146298812702,0,0.5,0.5
65,0.00976239799638279,"easy","mid",1,"demand_aversive","demand_avoid",1,0.00976239799638279,0,0.5,0.5
65,0.0102091559965629,"easy","mid",34,"demand_aversive","demand_avoid",1,0.0102091559965629,0,0.5,0.5
65,0.00986246601678431,"easy","mid",40,"demand_aversive","demand_avoid",1,0.00986246601678431,0,0.5,0.5
65,0.00686937497812323,"easy","mid",41,"demand_aversive","demand_avoid",1,0.00686937497812323,0,0.5,0.5
65,0.00662939200992696,"easy","mid",35,"demand_aversive","demand_avoid",1,0.00662939200992696,0,0.5,0.5
65,0.00647264299914241,"easy","mid",36,"demand_aversive","demand_avoid",1,0.00647264299914241,0,0.5,0.5
66,0.00735991599503905,"easy","mid",10,"no_demand_aversive","demand_avoid",1,0.00735991599503905,0,0.5,0.5
66,0.00687528800335713,"hard","mid",11,"no_demand_aversive","demand_avoid",0,0.00687528800335713,0,0.5,0.5
66,0.00726999898324721,"easy","mid",9,"no_demand_aversive","demand_avoid",1,0.00726999898324721,0,0.5,0.5
66,0.00986487098271027,"easy","mid",23,"no_demand_aversive","demand_avoid",1,0.00986487098271027,0,0.5,0.5
66,0.00678307597991079,"easy","mid",24,"no_demand_aversive","demand_avoid",1,0.00678307597991079,0,0.5,0.5
66,0.00994343298953027,"easy","mid",25,"no_demand_aversive","demand_avoid",1,0.00994343298953027,0,0.5,0.5
66,0.00693475699517876,"hard","mid",26,"no_demand_aversive","demand_avoid",0,0.00693475699517876,0,0.5,0.5
66,0.00950702800764702,"easy","mid",27,"no_demand_aversive","demand_avoid",1,0.00950702800764702,0,0.5,0.5
66,0.00709880201611668,"easy","mid",43,"no_demand_aversive","demand_avoid",1,0.00709880201611668,0,0.5,0.5
66,0.0103804169921204,"easy","mid",44,"no_demand_aversive","demand_avoid",1,0.0103804169921204,0,0.5,0.5
66,0.00726558602764271,"easy","mid",45,"no_demand_aversive","demand_avoid",1,0.00726558602764271,0,0.5,0.5
66,0.0100571890070569,"easy","mid",46,"no_demand_aversive","demand_avoid",1,0.0100571890070569,0,0.5,0.5
66,0.00614449201384559,"easy","mid",47,"no_demand_aversive","demand_avoid",1,0.00614449201384559,0,0.5,0.5
66,0.00998954498209059,"easy","mid",48,"no_demand_aversive","demand_avoid",1,0.00998954498209059,0,0.5,0.5
66,0.00692955200793222,"easy","mid",49,"no_demand_aversive","demand_avoid",1,0.00692955200793222,0,0.5,0.5
66,0.00964031100738794,"easy","mid",50,"no_demand_aversive","demand_avoid",1,0.00964031100738794,0,0.5,0.5
66,0.00731323900981806,"easy","mid",37,"no_demand_aversive","demand_avoid",1,0.00731323900981806,0,0.5,0.5
66,0.00713400699896738,"easy","mid",38,"no_demand_aversive","demand_avoid",1,0.00713400699896738,0,0.5,0.5
66,0.00709104799898341,"easy","mid",39,"no_demand_aversive","demand_avoid",1,0.00709104799898341,0,0.5,0.5
66,0.00735823600552976,"easy","mid",40,"no_demand_aversive","demand_avoid",1,0.00735823600552976,0,0.5,0.5
66,0.00940061101573519,"easy","mid",41,"no_demand_aversive","demand_avoid",1,0.00940061101573519,0,0.5,0.5
66,0.00602209099452011,"easy","mid",42,"no_demand_aversive","demand_avoid",1,0.00602209099452011,0,0.5,0.5
66,0.00717385500320233,"easy","mid",1,"no_demand_aversive","demand_avoid",1,0.00717385500320233,0,0.5,0.5
66,0.00700593800866045,"hard","mid",2,"no_demand_aversive","demand_avoid",0,0.00700593800866045,0,0.5,0.5
66,0.00730117000057362,"easy","mid",3,"no_demand_aversive","demand_avoid",1,0.00730117000057362,0,0.5,0.5
66,0.00707286299439147,"hard","mid",4,"no_demand_aversive","demand_avoid",0,0.00707286299439147,0,0.5,0.5
66,0.00669322701287456,"easy","mid",5,"no_demand_aversive","demand_avoid",1,0.00669322701287456,0,0.5,0.5
66,0.0074432679975871,"easy","mid",6,"no_demand_aversive","demand_avoid",1,0.0074432679975871,0,0.5,0.5
66,0.0059967230190523,"easy","mid",7,"no_demand_aversive","demand_avoid",1,0.0059967230190523,0,0.5,0.5
66,0.0100336540199351,"easy","mid",8,"no_demand_aversive","demand_avoid",1,0.0100336540199351,0,0.5,0.5
66,0.00715191499330103,"easy","mid",22,"no_demand_aversive","demand_avoid",1,0.00715191499330103,0,0.5,0.5
66,0.00733016798039898,"easy","mid",14,"no_demand_aversive","demand_avoid",1,0.00733016798039898,0,0.5,0.5
66,0.00982634699903429,"easy","mid",15,"no_demand_aversive","demand_avoid",1,0.00982634699903429,0,0.5,0.5
66,0.00994897799682803,"easy","mid",12,"no_demand_aversive","demand_avoid",1,0.00994897799682803,0,0.5,0.5
66,0.00703650098876096,"easy","mid",13,"no_demand_aversive","demand_avoid",1,0.00703650098876096,0,0.5,0.5
66,0.00869484199211001,"easy","mid",18,"no_demand_aversive","demand_avoid",1,0.00869484199211001,0,0.5,0.5
66,0.010039232991403,"easy","mid",19,"no_demand_aversive","demand_avoid",1,0.010039232991403,0,0.5,0.5
66,0.00975388998631388,"easy","mid",16,"no_demand_aversive","demand_avoid",1,0.00975388998631388,0,0.5,0.5
66,0.00991590699413791,"easy","mid",17,"no_demand_aversive","demand_avoid",1,0.00991590699413791,0,0.5,0.5
66,0.00699622099637054,"easy","mid",36,"no_demand_aversive","demand_avoid",1,0.00699622099637054,0,0.5,0.5
66,0.0106415819900576,"easy","mid",28,"no_demand_aversive","demand_avoid",1,0.0106415819900576,0,0.5,0.5
66,0.00712468201527372,"easy","mid",20,"no_demand_aversive","demand_avoid",1,0.00712468201527372,0,0.5,0.5
66,0.00980265499674715,"easy","mid",21,"no_demand_aversive","demand_avoid",1,0.00980265499674715,0,0.5,0.5
66,0.00746292897383682,"easy","mid",31,"no_demand_aversive","demand_avoid",1,0.00746292897383682,0,0.5,0.5
66,0.0100343769881874,"easy","mid",32,"no_demand_aversive","demand_avoid",1,0.0100343769881874,0,0.5,0.5
66,0.0101686989946757,"easy","mid",29,"no_demand_aversive","demand_avoid",1,0.0101686989946757,0,0.5,0.5
66,0.00720849298522808,"easy","mid",30,"no_demand_aversive","demand_avoid",1,0.00720849298522808,0,0.5,0.5
66,0.0102528860152233,"easy","mid",35,"no_demand_aversive","demand_avoid",1,0.0102528860152233,0,0.5,0.5
66,0.00980340299429372,"easy","mid",33,"no_demand_aversive","demand_avoid",1,0.00980340299429372,0,0.5,0.5
66,0.0122372180048842,"easy","mid",34,"no_demand_aversive","demand_avoid",1,0.0122372180048842,0,0.5,0.5
67,0.00662556200404651,"easy","mid",3,"demand_aversive","demand_avoid",1,0.00662556200404651,0,0.5,0.5
67,0.0104368219908793,"hard","mid",2,"demand_aversive","demand_avoid",0,0.0104368219908793,0,0.5,0.5
67,0.0102794450067449,"hard","mid",15,"demand_aversive","demand_avoid",0,0.0102794450067449,0,0.5,0.5
67,0.0065779639990069,"easy","mid",16,"demand_aversive","demand_avoid",1,0.0065779639990069,0,0.5,0.5
67,0.0093230860074982,"hard","mid",4,"demand_aversive","demand_avoid",0,0.0093230860074982,0,0.5,0.5
67,0.00642035700730048,"easy","mid",1,"demand_aversive","demand_avoid",1,0.00642035700730048,0,0.5,0.5
67,0.010502777993679,"hard","mid",14,"demand_aversive","demand_avoid",0,0.010502777993679,0,0.5,0.5
67,0.00967053201748058,"hard","mid",28,"demand_aversive","demand_avoid",0,0.00967053201748058,0,0.5,0.5
67,0.0111384619958699,"hard","mid",29,"demand_aversive","demand_avoid",0,0.0111384619958699,0,0.5,0.5
67,0.00657669999054633,"hard","mid",17,"demand_aversive","demand_avoid",0,0.00657669999054633,0,0.5,0.5
67,0.00651593500515446,"hard","mid",18,"demand_aversive","demand_avoid",0,0.00651593500515446,0,0.5,0.5
67,0.0107147030066699,"hard","mid",19,"demand_aversive","demand_avoid",0,0.0107147030066699,0,0.5,0.5
67,0.0107641649956349,"hard","mid",20,"demand_aversive","demand_avoid",0,0.0107641649956349,0,0.5,0.5
67,0.0104531329998281,"hard","mid",21,"demand_aversive","demand_avoid",0,0.0104531329998281,0,0.5,0.5
67,0.0109247530053835,"hard","mid",22,"demand_aversive","demand_avoid",0,0.0109247530053835,0,0.5,0.5
67,0.00652075000107288,"hard","mid",23,"demand_aversive","demand_avoid",0,0.00652075000107288,0,0.5,0.5
67,0.00656988497939892,"hard","mid",24,"demand_aversive","demand_avoid",0,0.00656988497939892,0,0.5,0.5
67,0.0106098809919786,"hard","mid",25,"demand_aversive","demand_avoid",0,0.0106098809919786,0,0.5,0.5
67,0.00581025201245211,"hard","mid",26,"demand_aversive","demand_avoid",0,0.00581025201245211,0,0.5,0.5
67,0.0109858649957459,"hard","mid",27,"demand_aversive","demand_avoid",0,0.0109858649957459,0,0.5,0.5
67,0.0111224729917012,"easy","mid",40,"demand_aversive","demand_avoid",1,0.0111224729917012,0,0.5,0.5
67,0.00670593799441122,"easy","mid",41,"demand_aversive","demand_avoid",1,0.00670593799441122,0,0.5,0.5
67,0.0106449990125839,"hard","mid",42,"demand_aversive","demand_avoid",0,0.0106449990125839,0,0.5,0.5
67,0.010296880005626,"easy","mid",43,"demand_aversive","demand_avoid",1,0.010296880005626,0,0.5,0.5
67,0.0104827029863372,"easy","mid",5,"demand_aversive","demand_avoid",1,0.0104827029863372,0,0.5,0.5
67,0.005669646023307,"easy","mid",6,"demand_aversive","demand_avoid",1,0.005669646023307,0,0.5,0.5
67,0.0105067210097332,"hard","mid",7,"demand_aversive","demand_avoid",0,0.0105067210097332,0,0.5,0.5
67,0.00645687698852271,"hard","mid",8,"demand_aversive","demand_avoid",0,0.00645687698852271,0,0.5,0.5
67,0.00674278300721198,"hard","mid",9,"demand_aversive","demand_avoid",0,0.00674278300721198,0,0.5,0.5
67,0.0104251680022571,"easy","mid",10,"demand_aversive","demand_avoid",1,0.0104251680022571,0,0.5,0.5
67,0.00680124497739598,"hard","mid",11,"demand_aversive","demand_avoid",0,0.00680124497739598,0,0.5,0.5
67,0.0103652149846312,"hard","mid",12,"demand_aversive","demand_avoid",0,0.0103652149846312,0,0.5,0.5
67,0.00553120599943213,"hard","mid",13,"demand_aversive","demand_avoid",0,0.00553120599943213,0,0.5,0.5
67,0.00640137397567742,"easy","mid",39,"demand_aversive","demand_avoid",1,0.00640137397567742,0,0.5,0.5
67,0.0104182529903483,"easy","mid",31,"demand_aversive","demand_avoid",1,0.0104182529903483,0,0.5,0.5
67,0.0102008679823484,"easy","mid",32,"demand_aversive","demand_avoid",1,0.0102008679823484,0,0.5,0.5
67,0.0103787950065453,"easy","mid",33,"demand_aversive","demand_avoid",1,0.0103787950065453,0,0.5,0.5
67,0.0101561319897883,"easy","mid",30,"demand_aversive","demand_avoid",1,0.0101561319897883,0,0.5,0.5
67,0.0106556910031941,"easy","mid",35,"demand_aversive","demand_avoid",1,0.0106556910031941,0,0.5,0.5
67,0.0106392609886825,"hard","mid",36,"demand_aversive","demand_avoid",0,0.0106392609886825,0,0.5,0.5
67,0.00982644100440666,"easy","mid",37,"demand_aversive","demand_avoid",1,0.00982644100440666,0,0.5,0.5
67,0.0105949190037791,"easy","mid",34,"demand_aversive","demand_avoid",1,0.0105949190037791,0,0.5,0.5
67,0.0102565479755867,"hard","mid",50,"demand_aversive","demand_avoid",0,0.0102565479755867,0,0.5,0.5
67,0.00668816801044159,"easy","mid",46,"demand_aversive","demand_avoid",1,0.00668816801044159,0,0.5,0.5
67,0.0104553909914102,"hard","mid",47,"demand_aversive","demand_avoid",0,0.0104553909914102,0,0.5,0.5
