Instruction,Stimulus,Key,RT,START,END,Phase,Block,TrialN,NbackLevel,ISI,LetterN,Letter,Letter_isSame,Letter_Resp,Letter_RT,Letter_Accuracy,Letter_Timeout,Trial_A_measure,Trial_HR,Trial_FAR,Trial_CDR,Trial_MSR,Trial_ACC,Trial_RT,Trial_HitsCount,Trial_FAsCount,Trial_SameNoRespCount,Trial_DiffNoRespCount,Trial_NoRespCount,Trial_CDsCount,Trial_CorrectRespCount,Trial_SameLetterCount,Trial_DiffLetterCount,Trial_InvalidLetterCount,TrialCountCali,CaliEnd_A_measure,ISI_calibrated,Run,TrialIndex,TrialNumber_total,TrialNumber_valid,CueLearning,TrialDemandLearning,CueMapping,OnlineRating,OnlineRatingRT,OnlineRatingTimeOut,CueSTART,RatingSTART,OfflineRatingTimePoint,OfflineRatingQuesIndex,CueFigure,TrialDemand,OfflineRating,OfflineRatingRT,CueStart,OfflineRatingStart,PhaseType,CueLeft,CueDemandLeft,CueRight,CueDemandRight,Choice,ChoiceDemand,TaskDemand,ChoiceRT,ChoiceTimeOut,ChoiceSTART,CueCheck,CueDemandCheck,CorrectAnswer,Answer,AnswerDemand,AnswerRT,AnswerACC,AnswerTimeOut,CheckSTART,DemandRatingQuesIndex,QuesTLX,DemandLevel,DemandRating,DemandRatingRT,QuesStart,PID,SONA,Age,Gender,Run,TIME,EXPERIMENTER,frameRate,
-1,./instructions/inst_begin/Slide2.png,left,26.380012221998186,0.13120918700587936,26.511221409004065,,,,,,,,,,,,,,,,,,,,,,,,,,,,,,,,,1,,,,,,,,,,,,,,,,,,,,,,,,,,,,,,,,,,,,,,,,,,,,,,130,152014,20,Female,1,2024/03/27_15:23:58,YZ,50.48082710144663,
0,./instructions/inst_begin/Slide4.png,right,12.847424973006127,26.583469728997443,39.43089470200357,,,,,,,,,,,,,,,,,,,,,,,,,,,,,,,,,1,,,,,,,,,,,,,,,,,,,,,,,,,,,,,,,,,,,,,,,,,,,,,,130,152014,20,Female,1,2024/03/27_15:23:58,YZ,50.48082710144663,
1,./instructions/inst_begin/Slide2.png,right,4.727358104995801,39.46350560900464,44.19086371400044,,,,,,,,,,,,,,,,,,,,,,,,,,,,,,,,,1,,,,,,,,,,,,,,,,,,,,,,,,,,,,,,,,,,,,,,,,,,,,,,130,152014,20,Female,1,2024/03/27_15:23:58,YZ,50.48082710144663,
2,./instructions/inst_begin/Slide3.png,right,12.779356140992604,44.227785633003805,57.00714177399641,,,,,,,,,,,,,,,,,,,,,,,,,,,,,,,,,1,,,,,,,,,,,,,,,,,,,,,,,,,,,,,,,,,,,,,,,,,,,,,,130,152014,20,Female,1,2024/03/27_15:23:58,YZ,50.48082710144663,
3,./instructions/inst_begin/Slide4.png,right,10.263527898001485,57.03956659800315,67.30309449600463,,,,,,,,,,,,,,,,,,,,,,,,,,,,,,,,,1,,,,,,,,,,,,,,,,,,,,,,,,,,,,,,,,,,,,,,,,,,,,,,130,152014,20,Female,1,2024/03/27_15:23:58,YZ,50.48082710144663,
1,./instructions/inst_prac_2/Slide6.png,right,20.752317535996553,67.36662724100461,88.11894477700116,,,,,,,,,,,,,,,,,,,,,,,,,,,,,,,,,1,,,,,,,,,,,,,,,,,,,,,,,,,,,,,,,,,,,,,,,,,,,,,,130,152014,20,Female,1,2024/03/27_15:23:58,YZ,50.48082710144663,
2,./instructions/inst_prac_2/Slide7.png,right,23.10984984699462,88.15311730500252,111.26296715199715,,,,,,,,,,,,,,,,,,,,,,,,,,,,,,,,,1,,,,,,,,,,,,,,,,,,,,,,,,,,,,,,,,,,,,,,,,,,,,,,130,152014,20,Female,1,2024/03/27_15:23:58,YZ,50.48082710144663,
3,./instructions/inst_prac_2/Slide8.png,right,14.630587708001258,111.29649153399805,125.92707924199931,,,,,,,,,,,,,,,,,,,,,,,,,,,,,,,,,1,,,,,,,,,,,,,,,,,,,,,,,,,,,,,,,,,,,,,,,,,,,,,,130,152014,20,Female,1,2024/03/27_15:23:58,YZ,50.48082710144663,
4,./instructions/inst_prac_2/Slide9.png,right,4.862403068997082,125.96040954500495,130.82281261400203,,,,,,,,,,,,,,,,,,,,,,,,,,,,,,,,,1,,,,,,,,,,,,,,,,,,,,,,,,,,,,,,,,,,,,,,,,,,,,,,130,152014,20,Female,1,2024/03/27_15:23:58,YZ,50.48082710144663,
5,./instructions/inst_prac_2/Slide10.png,right,2.7593242209986784,130.8636830690084,133.62300729000708,,,,,,,,,,,,,,,,,,,,,,,,,,,,,,,,,1,,,,,,,,,,,,,,,,,,,,,,,,,,,,,,,,,,,,,,,,,,,,,,130,152014,20,Female,1,2024/03/27_15:23:58,YZ,50.48082710144663,
6,./instructions/inst_prac_2/Slide11.png,right,2.3027832899970235,133.65612675600278,135.9589100459998,,,,,,,,,,,,,,,,,,,,,,,,,,,,,,,,,1,,,,,,,,,,,,,,,,,,,,,,,,,,,,,,,,,,,,,,,,,,,,,,130,152014,20,Female,1,2024/03/27_15:23:58,YZ,50.48082710144663,
7,./instructions/inst_prac_2/Slide12.png,right,1.4704766000068048,135.99261105099868,137.46308765100548,,,,,,,,,,,,,,,,,,,,,,,,,,,,,,,,,1,,,,,,,,,,,,,,,,,,,,,,,,,,,,,,,,,,,,,,,,,,,,,,130,152014,20,Female,1,2024/03/27_15:23:58,YZ,50.48082710144663,
8,./instructions/inst_prac_2/Slide13.png,right,1.9266078299988294,137.4964051220013,139.42301295200014,,,,,,,,,,,,,,,,,,,,,,,,,,,,,,,,,1,,,,,,,,,,,,,,,,,,,,,,,,,,,,,,,,,,,,,,,,,,,,,,130,152014,20,Female,1,2024/03/27_15:23:58,YZ,50.48082710144663,
9,./instructions/inst_prac_2/Slide14.png,right,15.518585154000903,139.4564398729999,154.9750250270008,,,,,,,,,,,,,,,,,,,,,,,,,,,,,,,,,1,,,,,,,,,,,,,,,,,,,,,,,,,,,,,,,,,,,,,,,,,,,,,,130,152014,20,Female,1,2024/03/27_15:23:58,YZ,50.48082710144663,
10,./instructions/inst_prac_2/Slide15.png,right,16.486214591990574,155.00866628500808,171.49488087699865,,,,,,,,,,,,,,,,,,,,,,,,,,,,,,,,,1,,,,,,,,,,,,,,,,,,,,,,,,,,,,,,,,,,,,,,,,,,,,,,130,152014,20,Female,1,2024/03/27_15:23:58,YZ,50.48082710144663,
,,,,,,practice,0,12,2,2583,1,C,0,right,4.92424638599914,1,0,,,,,,,,,,,,,,,,,,,,,1,,,,,,,,,,,,,,,,,,,,,,,,,,,,,,,,,,,,,,,,,,,,,,130,152014,20,Female,1,2024/03/27_15:23:58,YZ,50.48082710144663,
,,,,,,practice,0,12,2,2583,2,J,0,right,1.2824404669954674,1,0,,,,,,,,,,,,,,,,,,,,,1,,,,,,,,,,,,,,,,,,,,,,,,,,,,,,,,,,,,,,,,,,,,,,130,152014,20,Female,1,2024/03/27_15:23:58,YZ,50.48082710144663,
,,,,,,practice,0,12,2,2583,3,C,1,left,1.957030431003659,1,0,,,,,,,,,,,,,,,,,,,,,1,,,,,,,,,,,,,,,,,,,,,,,,,,,,,,,,,,,,,,,,,,,,,,130,152014,20,Female,1,2024/03/27_15:23:58,YZ,50.48082710144663,
,,,,,,practice,0,12,2,2583,4,N,0,right,1.227024836000055,1,0,,,,,,,,,,,,,,,,,,,,,1,,,,,,,,,,,,,,,,,,,,,,,,,,,,,,,,,,,,,,,,,,,,,,130,152014,20,Female,1,2024/03/27_15:23:58,YZ,50.48082710144663,
,,,,,,practice,0,12,2,2583,5,C,1,left,0.7481220839981688,1,0,,,,,,,,,,,,,,,,,,,,,1,,,,,,,,,,,,,,,,,,,,,,,,,,,,,,,,,,,,,,,,,,,,,,130,152014,20,Female,1,2024/03/27_15:23:58,YZ,50.48082710144663,
,,,,,,practice,0,12,2,2583,6,X,0,right,1.3465528269880451,1,0,,,,,,,,,,,,,,,,,,,,,1,,,,,,,,,,,,,,,,,,,,,,,,,,,,,,,,,,,,,,,,,,,,,,130,152014,20,Female,1,2024/03/27_15:23:58,YZ,50.48082710144663,
,,,,,,practice,0,12,2,2583,,,,,,,,1.0,1.0,0.0,1.0,0.0,1.0,1.914236171830756,2,0,0,0,0,4,6,2,4,0,,,,1,,,,,,,,,,,,,,,,,,,,,,,,,,,,,,,,,,,,,,,,,,,,,,130,152014,20,Female,1,2024/03/27_15:23:58,YZ,50.48082710144663,
1,./instructions/inst_to_cali/Slide20.png,right,14.10431678200257,189.4146210129984,203.51893779500097,,,,,,,,,,,,,,,,,,,,,,,,,,,,,,,,,1,,,,,,,,,,,,,,,,,,,,,,,,,,,,,,,,,,,,,,,,,,,,,,130,152014,20,Female,1,2024/03/27_15:23:58,YZ,50.48082710144663,
1,./instructions/inst_cali/Slide22.png,right,16.52453399100341,203.59437370499654,220.11890769599995,,,,,,,,,,,,,,,,,,,,,,,,,,,,,,,,,1,,,,,,,,,,,,,,,,,,,,,,,,,,,,,,,,,,,,,,,,,,,,,,130,152014,20,Female,1,2024/03/27_15:23:58,YZ,50.48082710144663,
,,,,,,calibration,0,14,2,583,1,X,0,right,1.76427761199011,1,0,,,,,,,,,,,,,,,,,,,,,1,,,,,,,,,,,,,,,,,,,,,,,,,,,,,,,,,,,,,,,,,,,,,,130,152014,20,Female,1,2024/03/27_15:23:58,YZ,50.48082710144663,
,,,,,,calibration,0,14,2,583,2,Q,0,right,nan,0,1,,,,,,,,,,,,,,,,,,,,,1,,,,,,,,,,,,,,,,,,,,,,,,,,,,,,,,,,,,,,,,,,,,,,130,152014,20,Female,1,2024/03/27_15:23:58,YZ,50.48082710144663,
,,,,,,calibration,0,14,2,583,3,S,0,right,nan,0,1,,,,,,,,,,,,,,,,,,,,,1,,,,,,,,,,,,,,,,,,,,,,,,,,,,,,,,,,,,,,,,,,,,,,130,152014,20,Female,1,2024/03/27_15:23:58,YZ,50.48082710144663,
,,,,,,calibration,0,14,2,583,4,Q,1,right,nan,0,1,,,,,,,,,,,,,,,,,,,,,1,,,,,,,,,,,,,,,,,,,,,,,,,,,,,,,,,,,,,,,,,,,,,,130,152014,20,Female,1,2024/03/27_15:23:58,YZ,50.48082710144663,
,,,,,,calibration,0,14,2,583,5,V,0,right,nan,0,1,,,,,,,,,,,,,,,,,,,,,1,,,,,,,,,,,,,,,,,,,,,,,,,,,,,,,,,,,,,,,,,,,,,,130,152014,20,Female,1,2024/03/27_15:23:58,YZ,50.48082710144663,
,,,,,,calibration,0,14,2,583,6,Q,1,right,nan,0,1,,,,,,,,,,,,,,,,,,,,,1,,,,,,,,,,,,,,,,,,,,,,,,,,,,,,,,,,,,,,,,,,,,,,130,152014,20,Female,1,2024/03/27_15:23:58,YZ,50.48082710144663,
,,,,,,calibration,0,14,2,583,7,C,0,right,nan,0,1,,,,,,,,,,,,,,,,,,,,,1,,,,,,,,,,,,,,,,,,,,,,,,,,,,,,,,,,,,,,,,,,,,,,130,152014,20,Female,1,2024/03/27_15:23:58,YZ,50.48082710144663,
,,,,,,calibration,0,14,2,583,8,Q,1,right,nan,0,1,,,,,,,,,,,,,,,,,,,,,1,,,,,,,,,,,,,,,,,,,,,,,,,,,,,,,,,,,,,,,,,,,,,,130,152014,20,Female,1,2024/03/27_15:23:58,YZ,50.48082710144663,
,,,,,,calibration,0,14,2,583,9,V,0,right,nan,0,1,,,,,,,,,,,,,,,,,,,,,1,,,,,,,,,,,,,,,,,,,,,,,,,,,,,,,,,,,,,,,,,,,,,,130,152014,20,Female,1,2024/03/27_15:23:58,YZ,50.48082710144663,
,,,,,,calibration,0,14,2,583,10,Q,1,right,nan,0,1,,,,,,,,,,,,,,,,,,,,,1,,,,,,,,,,,,,,,,,,,,,,,,,,,,,,,,,,,,,,,,,,,,,,130,152014,20,Female,1,2024/03/27_15:23:58,YZ,50.48082710144663,
,,,,,,calibration,0,14,2,583,11,V,1,right,nan,0,1,,,,,,,,,,,,,,,,,,,,,1,,,,,,,,,,,,,,,,,,,,,,,,,,,,,,,,,,,,,,,,,,,,,,130,152014,20,Female,1,2024/03/27_15:23:58,YZ,50.48082710144663,
,,,,,,calibration,0,14,2,583,12,S,0,right,nan,0,1,,,,,,,,,,,,,,,,,,,,,1,,,,,,,,,,,,,,,,,,,,,,,,,,,,,,,,,,,,,,,,,,,,,,130,152014,20,Female,1,2024/03/27_15:23:58,YZ,50.48082710144663,
,,,,,,calibration,0,14,2,583,13,Q,0,right,nan,0,1,,,,,,,,,,,,,,,,,,,,,1,,,,,,,,,,,,,,,,,,,,,,,,,,,,,,,,,,,,,,,,,,,,,,130,152014,20,Female,1,2024/03/27_15:23:58,YZ,50.48082710144663,
,,,,,,calibration,0,14,2,583,14,J,0,right,nan,0,1,,,,,,,,,,,,,,,,,,,,,1,,,,,,,,,,,,,,,,,,,,,,,,,,,,,,,,,,,,,,,,,,,,,,130,152014,20,Female,1,2024/03/27_15:23:58,YZ,50.48082710144663,
,,,,,,calibration,0,14,2,583,15,V,0,right,nan,0,1,,,,,,,,,,,,,,,,,,,,,1,,,,,,,,,,,,,,,,,,,,,,,,,,,,,,,,,,,,,,,,,,,,,,130,152014,20,Female,1,2024/03/27_15:23:58,YZ,50.48082710144663,
,,,,,,calibration,0,14,2,583,,,,,,,,0.5,0.0,0.0,1.0,0.9333333333333333,0.06666666666666665,1.76427761199011,0,0,5,9,14,1,1,5,10,0,,,,1,,,,,,,,,,,,,,,,,,,,,,,,,,,,,,,,,,,,,,,,,,,,,,130,152014,20,Female,1,2024/03/27_15:23:58,YZ,50.48082710144663,
,,,,,,Calibration,0,,2,583,,,,,,,,,,,,,,,,,,,,,,,,,1,,,1,,,,,,,,,,,,,,,,,,,,,,,,,,,,,,,,,,,,,,,,,,,,,,130,152014,20,Female,1,2024/03/27_15:23:58,YZ,50.48082710144663,
,,,,,,calibration,0,6,2,679,1,V,0,None,nan,0,1,,,,,,,,,,,,,,,,,,,,,1,,,,,,,,,,,,,,,,,,,,,,,,,,,,,,,,,,,,,,,,,,,,,,130,152014,20,Female,1,2024/03/27_15:23:58,YZ,50.48082710144663,
,,,,,,calibration,0,6,2,679,2,F,0,None,nan,0,1,,,,,,,,,,,,,,,,,,,,,1,,,,,,,,,,,,,,,,,,,,,,,,,,,,,,,,,,,,,,,,,,,,,,130,152014,20,Female,1,2024/03/27_15:23:58,YZ,50.48082710144663,
,,,,,,calibration,0,6,2,679,3,N,0,right,1.0316928399988683,1,0,,,,,,,,,,,,,,,,,,,,,1,,,,,,,,,,,,,,,,,,,,,,,,,,,,,,,,,,,,,,,,,,,,,,130,152014,20,Female,1,2024/03/27_15:23:58,YZ,50.48082710144663,
,,,,,,calibration,0,6,2,679,4,J,0,left,0.1535414590034634,0,0,,,,,,,,,,,,,,,,,,,,,1,,,,,,,,,,,,,,,,,,,,,,,,,,,,,,,,,,,,,,,,,,,,,,130,152014,20,Female,1,2024/03/27_15:23:58,YZ,50.48082710144663,
,,,,,,calibration,0,6,2,679,5,N,1,left,nan,0,1,,,,,,,,,,,,,,,,,,,,,1,,,,,,,,,,,,,,,,,,,,,,,,,,,,,,,,,,,,,,,,,,,,,,130,152014,20,Female,1,2024/03/27_15:23:58,YZ,50.48082710144663,
,,,,,,calibration,0,6,2,679,6,X,0,left,nan,0,1,,,,,,,,,,,,,,,,,,,,,1,,,,,,,,,,,,,,,,,,,,,,,,,,,,,,,,,,,,,,,,,,,,,,130,152014,20,Female,1,2024/03/27_15:23:58,YZ,50.48082710144663,
,,,,,,calibration,0,6,2,679,7,C,0,left,nan,0,1,,,,,,,,,,,,,,,,,,,,,1,,,,,,,,,,,,,,,,,,,,,,,,,,,,,,,,,,,,,,,,,,,,,,130,152014,20,Female,1,2024/03/27_15:23:58,YZ,50.48082710144663,
,,,,,,calibration,0,6,2,679,8,S,0,left,nan,0,1,,,,,,,,,,,,,,,,,,,,,1,,,,,,,,,,,,,,,,,,,,,,,,,,,,,,,,,,,,,,,,,,,,,,130,152014,20,Female,1,2024/03/27_15:23:58,YZ,50.48082710144663,
,,,,,,calibration,0,6,2,679,9,C,1,left,nan,0,1,,,,,,,,,,,,,,,,,,,,,1,,,,,,,,,,,,,,,,,,,,,,,,,,,,,,,,,,,,,,,,,,,,,,130,152014,20,Female,1,2024/03/27_15:23:58,YZ,50.48082710144663,
,,,,,,calibration,0,6,2,679,10,V,0,left,nan,0,1,,,,,,,,,,,,,,,,,,,,,1,,,,,,,,,,,,,,,,,,,,,,,,,,,,,,,,,,,,,,,,,,,,,,130,152014,20,Female,1,2024/03/27_15:23:58,YZ,50.48082710144663,
,,,,,,calibration,0,6,2,679,11,C,1,left,nan,0,1,,,,,,,,,,,,,,,,,,,,,1,,,,,,,,,,,,,,,,,,,,,,,,,,,,,,,,,,,,,,,,,,,,,,130,152014,20,Female,1,2024/03/27_15:23:58,YZ,50.48082710144663,
,,,,,,calibration,0,6,2,679,12,X,0,right,1.3092675829975633,1,0,,,,,,,,,,,,,,,,,,,,,1,,,,,,,,,,,,,,,,,,,,,,,,,,,,,,,,,,,,,,,,,,,,,,130,152014,20,Female,1,2024/03/27_15:23:58,YZ,50.48082710144663,
,,,,,,calibration,0,6,2,679,13,C,1,left,0.933890550993965,1,0,,,,,,,,,,,,,,,,,,,,,1,,,,,,,,,,,,,,,,,,,,,,,,,,,,,,,,,,,,,,,,,,,,,,130,152014,20,Female,1,2024/03/27_15:23:58,YZ,50.48082710144663,
,,,,,,calibration,0,6,2,679,14,Q,0,left,nan,0,1,,,,,,,,,,,,,,,,,,,,,1,,,,,,,,,,,,,,,,,,,,,,,,,,,,,,,,,,,,,,,,,,,,,,130,152014,20,Female,1,2024/03/27_15:23:58,YZ,50.48082710144663,
,,,,,,calibration,0,6,2,679,,,,,,,,0.6875,0.25,0.1,0.6666666666666666,0.7142857142857143,0.18571428571428572,0.857098108248465,1,1,3,7,10,2,3,4,10,0,,,,1,,,,,,,,,,,,,,,,,,,,,,,,,,,,,,,,,,,,,,,,,,,,,,130,152014,20,Female,1,2024/03/27_15:23:58,YZ,50.48082710144663,
,,,,,,Calibration,0,,2,679,,,,,,,,,,,,,,,,,,,,,,,,,2,,,1,,,,,,,,,,,,,,,,,,,,,,,,,,,,,,,,,,,,,,,,,,,,,,130,152014,20,Female,1,2024/03/27_15:23:58,YZ,50.48082710144663,
,,,,,,calibration,0,26,2,788,1,C,0,None,nan,0,1,,,,,,,,,,,,,,,,,,,,,1,,,,,,,,,,,,,,,,,,,,,,,,,,,,,,,,,,,,,,,,,,,,,,130,152014,20,Female,1,2024/03/27_15:23:58,YZ,50.48082710144663,
,,,,,,calibration,0,26,2,788,2,Q,0,right,0.0004314179968787357,1,0,,,,,,,,,,,,,,,,,,,,,1,,,,,,,,,,,,,,,,,,,,,,,,,,,,,,,,,,,,,,,,,,,,,,130,152014,20,Female,1,2024/03/27_15:23:58,YZ,50.48082710144663,
,,,,,,calibration,0,26,2,788,3,C,1,left,0.3372143800079357,1,0,,,,,,,,,,,,,,,,,,,,,1,,,,,,,,,,,,,,,,,,,,,,,,,,,,,,,,,,,,,,,,,,,,,,130,152014,20,Female,1,2024/03/27_15:23:58,YZ,50.48082710144663,
,,,,,,calibration,0,26,2,788,4,F,0,left,nan,0,1,,,,,,,,,,,,,,,,,,,,,1,,,,,,,,,,,,,,,,,,,,,,,,,,,,,,,,,,,,,,,,,,,,,,130,152014,20,Female,1,2024/03/27_15:23:58,YZ,50.48082710144663,
,,,,,,calibration,0,26,2,788,5,C,1,left,nan,0,1,,,,,,,,,,,,,,,,,,,,,1,,,,,,,,,,,,,,,,,,,,,,,,,,,,,,,,,,,,,,,,,,,,,,130,152014,20,Female,1,2024/03/27_15:23:58,YZ,50.48082710144663,
,,,,,,calibration,0,26,2,788,6,F,1,left,nan,0,1,,,,,,,,,,,,,,,,,,,,,1,,,,,,,,,,,,,,,,,,,,,,,,,,,,,,,,,,,,,,,,,,,,,,130,152014,20,Female,1,2024/03/27_15:23:58,YZ,50.48082710144663,
,,,,,,calibration,0,26,2,788,7,X,0,left,nan,0,1,,,,,,,,,,,,,,,,,,,,,1,,,,,,,,,,,,,,,,,,,,,,,,,,,,,,,,,,,,,,,,,,,,,,130,152014,20,Female,1,2024/03/27_15:23:58,YZ,50.48082710144663,
,,,,,,calibration,0,26,2,788,8,V,0,left,nan,0,1,,,,,,,,,,,,,,,,,,,,,1,,,,,,,,,,,,,,,,,,,,,,,,,,,,,,,,,,,,,,,,,,,,,,130,152014,20,Female,1,2024/03/27_15:23:58,YZ,50.48082710144663,
,,,,,,calibration,0,26,2,788,9,C,0,left,nan,0,1,,,,,,,,,,,,,,,,,,,,,1,,,,,,,,,,,,,,,,,,,,,,,,,,,,,,,,,,,,,,,,,,,,,,130,152014,20,Female,1,2024/03/27_15:23:58,YZ,50.48082710144663,
,,,,,,calibration,0,26,2,788,10,X,0,left,nan,0,1,,,,,,,,,,,,,,,,,,,,,1,,,,,,,,,,,,,,,,,,,,,,,,,,,,,,,,,,,,,,,,,,,,,,130,152014,20,Female,1,2024/03/27_15:23:58,YZ,50.48082710144663,
,,,,,,calibration,0,26,2,788,11,S,0,left,nan,0,1,,,,,,,,,,,,,,,,,,,,,1,,,,,,,,,,,,,,,,,,,,,,,,,,,,,,,,,,,,,,,,,,,,,,130,152014,20,Female,1,2024/03/27_15:23:58,YZ,50.48082710144663,
,,,,,,calibration,0,26,2,788,12,F,0,left,nan,0,1,,,,,,,,,,,,,,,,,,,,,1,,,,,,,,,,,,,,,,,,,,,,,,,,,,,,,,,,,,,,,,,,,,,,130,152014,20,Female,1,2024/03/27_15:23:58,YZ,50.48082710144663,
,,,,,,calibration,0,26,2,788,13,S,1,left,0.7941096800059313,1,0,,,,,,,,,,,,,,,,,,,,,1,,,,,,,,,,,,,,,,,,,,,,,,,,,,,,,,,,,,,,,,,,,,,,130,152014,20,Female,1,2024/03/27_15:23:58,YZ,50.48082710144663,
,,,,,,calibration,0,26,2,788,,,,,,,,0.875,0.5,0.0,1.0,0.7692307692307693,0.23076923076923073,0.3772518260035819,2,0,2,8,10,1,3,4,9,0,,,,1,,,,,,,,,,,,,,,,,,,,,,,,,,,,,,,,,,,,,,,,,,,,,,130,152014,20,Female,1,2024/03/27_15:23:58,YZ,50.48082710144663,
,,,,,,Calibration,0,,2,788,,,,,,,,,,,,,,,,,,,,,,,,,3,,,1,,,,,,,,,,,,,,,,,,,,,,,,,,,,,,,,,,,,,,,,,,,,,,130,152014,20,Female,1,2024/03/27_15:23:58,YZ,50.48082710144663,
,,,,,,calibration,0,16,2,679,1,X,0,None,nan,0,1,,,,,,,,,,,,,,,,,,,,,1,,,,,,,,,,,,,,,,,,,,,,,,,,,,,,,,,,,,,,,,,,,,,,130,152014,20,Female,1,2024/03/27_15:23:58,YZ,50.48082710144663,
,,,,,,calibration,0,16,2,679,2,N,0,right,1.1119003630010411,1,0,,,,,,,,,,,,,,,,,,,,,1,,,,,,,,,,,,,,,,,,,,,,,,,,,,,,,,,,,,,,,,,,,,,,130,152014,20,Female,1,2024/03/27_15:23:58,YZ,50.48082710144663,
,,,,,,calibration,0,16,2,679,3,X,1,left,1.4704877080075676,1,0,,,,,,,,,,,,,,,,,,,,,1,,,,,,,,,,,,,,,,,,,,,,,,,,,,,,,,,,,,,,,,,,,,,,130,152014,20,Female,1,2024/03/27_15:23:58,YZ,50.48082710144663,
,,,,,,calibration,0,16,2,679,4,F,0,right,1.0535999610001454,1,0,,,,,,,,,,,,,,,,,,,,,1,,,,,,,,,,,,,,,,,,,,,,,,,,,,,,,,,,,,,,,,,,,,,,130,152014,20,Female,1,2024/03/27_15:23:58,YZ,50.48082710144663,
,,,,,,calibration,0,16,2,679,5,Q,0,left,1.3709348359989235,0,0,,,,,,,,,,,,,,,,,,,,,1,,,,,,,,,,,,,,,,,,,,,,,,,,,,,,,,,,,,,,,,,,,,,,130,152014,20,Female,1,2024/03/27_15:23:58,YZ,50.48082710144663,
,,,,,,calibration,0,16,2,679,6,X,0,right,0.9712236240011407,1,0,,,,,,,,,,,,,,,,,,,,,1,,,,,,,,,,,,,,,,,,,,,,,,,,,,,,,,,,,,,,,,,,,,,,130,152014,20,Female,1,2024/03/27_15:23:58,YZ,50.48082710144663,
,,,,,,calibration,0,16,2,679,7,Q,1,right,nan,0,1,,,,,,,,,,,,,,,,,,,,,1,,,,,,,,,,,,,,,,,,,,,,,,,,,,,,,,,,,,,,,,,,,,,,130,152014,20,Female,1,2024/03/27_15:23:58,YZ,50.48082710144663,
,,,,,,calibration,0,16,2,679,8,J,0,right,nan,0,1,,,,,,,,,,,,,,,,,,,,,1,,,,,,,,,,,,,,,,,,,,,,,,,,,,,,,,,,,,,,,,,,,,,,130,152014,20,Female,1,2024/03/27_15:23:58,YZ,50.48082710144663,
,,,,,,calibration,0,16,2,679,9,V,0,right,nan,0,1,,,,,,,,,,,,,,,,,,,,,1,,,,,,,,,,,,,,,,,,,,,,,,,,,,,,,,,,,,,,,,,,,,,,130,152014,20,Female,1,2024/03/27_15:23:58,YZ,50.48082710144663,
,,,,,,calibration,0,16,2,679,10,N,0,right,0.38381133700022474,1,0,,,,,,,,,,,,,,,,,,,,,1,,,,,,,,,,,,,,,,,,,,,,,,,,,,,,,,,,,,,,,,,,,,,,130,152014,20,Female,1,2024/03/27_15:23:58,YZ,50.48082710144663,
,,,,,,calibration,0,16,2,679,11,X,0,right,0.6748783179937163,1,0,,,,,,,,,,,,,,,,,,,,,1,,,,,,,,,,,,,,,,,,,,,,,,,,,,,,,,,,,,,,,,,,,,,,130,152014,20,Female,1,2024/03/27_15:23:58,YZ,50.48082710144663,
,,,,,,calibration,0,16,2,679,12,N,1,left,0.6159407639934216,1,0,,,,,,,,,,,,,,,,,,,,,1,,,,,,,,,,,,,,,,,,,,,,,,,,,,,,,,,,,,,,,,,,,,,,130,152014,20,Female,1,2024/03/27_15:23:58,YZ,50.48082710144663,
,,,,,,calibration,0,16,2,679,13,X,1,right,0.8077025410020724,0,0,,,,,,,,,,,,,,,,,,,,,1,,,,,,,,,,,,,,,,,,,,,,,,,,,,,,,,,,,,,,,,,,,,,,130,152014,20,Female,1,2024/03/27_15:23:58,YZ,50.48082710144663,
,,,,,,calibration,0,16,2,679,14,J,0,left,1.2939246509922668,0,0,,,,,,,,,,,,,,,,,,,,,1,,,,,,,,,,,,,,,,,,,,,,,,,,,,,,,,,,,,,,,,,,,,,,130,152014,20,Female,1,2024/03/27_15:23:58,YZ,50.48082710144663,
,,,,,,calibration,0,16,2,679,,,,,,,,0.725,0.5,0.2,0.7142857142857143,0.2857142857142857,0.5142857142857143,0.975440410299052,2,2,1,3,4,5,7,4,10,0,,,,1,,,,,,,,,,,,,,,,,,,,,,,,,,,,,,,,,,,,,,,,,,,,,,130,152014,20,Female,1,2024/03/27_15:23:58,YZ,50.48082710144663,
,,,,,,Calibration,0,,2,679,,,,,,,,,,,,,,,,,,,,,,,,,4,,,1,,,,,,,,,,,,,,,,,,,,,,,,,,,,,,,,,,,,,,,,,,,,,,130,152014,20,Female,1,2024/03/27_15:23:58,YZ,50.48082710144663,
,,,,,,calibration,0,5,2,788,1,X,0,right,1.3516948939941358,1,0,,,,,,,,,,,,,,,,,,,,,1,,,,,,,,,,,,,,,,,,,,,,,,,,,,,,,,,,,,,,,,,,,,,,130,152014,20,Female,1,2024/03/27_15:23:58,YZ,50.48082710144663,
,,,,,,calibration,0,5,2,788,2,S,0,right,1.430877603997942,1,0,,,,,,,,,,,,,,,,,,,,,1,,,,,,,,,,,,,,,,,,,,,,,,,,,,,,,,,,,,,,,,,,,,,,130,152014,20,Female,1,2024/03/27_15:23:58,YZ,50.48082710144663,
,,,,,,calibration,0,5,2,788,3,F,0,right,0.8760693509975681,1,0,,,,,,,,,,,,,,,,,,,,,1,,,,,,,,,,,,,,,,,,,,,,,,,,,,,,,,,,,,,,,,,,,,,,130,152014,20,Female,1,2024/03/27_15:23:58,YZ,50.48082710144663,
,,,,,,calibration,0,5,2,788,4,N,0,right,0.8880102330003865,1,0,,,,,,,,,,,,,,,,,,,,,1,,,,,,,,,,,,,,,,,,,,,,,,,,,,,,,,,,,,,,,,,,,,,,130,152014,20,Female,1,2024/03/27_15:23:58,YZ,50.48082710144663,
,,,,,,calibration,0,5,2,788,5,X,0,right,1.1125469749968033,1,0,,,,,,,,,,,,,,,,,,,,,1,,,,,,,,,,,,,,,,,,,,,,,,,,,,,,,,,,,,,,,,,,,,,,130,152014,20,Female,1,2024/03/27_15:23:58,YZ,50.48082710144663,
,,,,,,calibration,0,5,2,788,6,N,1,left,1.0739609229931375,1,0,,,,,,,,,,,,,,,,,,,,,1,,,,,,,,,,,,,,,,,,,,,,,,,,,,,,,,,,,,,,,,,,,,,,130,152014,20,Female,1,2024/03/27_15:23:58,YZ,50.48082710144663,
,,,,,,calibration,0,5,2,788,7,X,1,right,1.3892175349901663,0,0,,,,,,,,,,,,,,,,,,,,,1,,,,,,,,,,,,,,,,,,,,,,,,,,,,,,,,,,,,,,,,,,,,,,130,152014,20,Female,1,2024/03/27_15:23:58,YZ,50.48082710144663,
,,,,,,calibration,0,5,2,788,8,Q,0,left,0.9322649240057217,0,0,,,,,,,,,,,,,,,,,,,,,1,,,,,,,,,,,,,,,,,,,,,,,,,,,,,,,,,,,,,,,,,,,,,,130,152014,20,Female,1,2024/03/27_15:23:58,YZ,50.48082710144663,
,,,,,,calibration,0,5,2,788,9,X,1,right,0.6144127180014038,0,0,,,,,,,,,,,,,,,,,,,,,1,,,,,,,,,,,,,,,,,,,,,,,,,,,,,,,,,,,,,,,,,,,,,,130,152014,20,Female,1,2024/03/27_15:23:58,YZ,50.48082710144663,
,,,,,,calibration,0,5,2,788,10,N,0,left,0.7543543400097406,0,0,,,,,,,,,,,,,,,,,,,,,1,,,,,,,,,,,,,,,,,,,,,,,,,,,,,,,,,,,,,,,,,,,,,,130,152014,20,Female,1,2024/03/27_15:23:58,YZ,50.48082710144663,
,,,,,,calibration,0,5,2,788,11,V,0,right,0.4744780780019937,1,0,,,,,,,,,,,,,,,,,,,,,1,,,,,,,,,,,,,,,,,,,,,,,,,,,,,,,,,,,,,,,,,,,,,,130,152014,20,Female,1,2024/03/27_15:23:58,YZ,50.48082710144663,
,,,,,,calibration,0,5,2,788,12,X,0,right,1.5882917900016764,1,0,,,,,,,,,,,,,,,,,,,,,1,,,,,,,,,,,,,,,,,,,,,,,,,,,,,,,,,,,,,,,,,,,,,,130,152014,20,Female,1,2024/03/27_15:23:58,YZ,50.48082710144663,
,,,,,,calibration,0,5,2,788,13,V,1,left,1.4709632279991638,1,0,,,,,,,,,,,,,,,,,,,,,1,,,,,,,,,,,,,,,,,,,,,,,,,,,,,,,,,,,,,,,,,,,,,,130,152014,20,Female,1,2024/03/27_15:23:58,YZ,50.48082710144663,
,,,,,,calibration,0,5,2,788,,,,,,,,0.7083333333333333,0.5,0.2222222222222222,0.7777777777777778,0.0,0.7777777777777778,1.0736263533069108,2,2,0,0,0,7,9,4,9,0,,,,1,,,,,,,,,,,,,,,,,,,,,,,,,,,,,,,,,,,,,,,,,,,,,,130,152014,20,Female,1,2024/03/27_15:23:58,YZ,50.48082710144663,
,,,,,,Calibration,0,,2,788,,,,,,,,,,,,,,,,,,,,,,,,,5,,,1,,,,,,,,,,,,,,,,,,,,,,,,,,,,,,,,,,,,,,,,,,,,,,130,152014,20,Female,1,2024/03/27_15:23:58,YZ,50.48082710144663,
,,,,,,calibration,0,21,2,917,1,J,0,right,0.9671640309970826,1,0,,,,,,,,,,,,,,,,,,,,,1,,,,,,,,,,,,,,,,,,,,,,,,,,,,,,,,,,,,,,,,,,,,,,130,152014,20,Female,1,2024/03/27_15:23:58,YZ,50.48082710144663,
,,,,,,calibration,0,21,2,917,2,V,0,right,1.985827758006053,1,0,,,,,,,,,,,,,,,,,,,,,1,,,,,,,,,,,,,,,,,,,,,,,,,,,,,,,,,,,,,,,,,,,,,,130,152014,20,Female,1,2024/03/27_15:23:58,YZ,50.48082710144663,
,,,,,,calibration,0,21,2,917,3,X,0,right,1.5901239100057865,1,0,,,,,,,,,,,,,,,,,,,,,1,,,,,,,,,,,,,,,,,,,,,,,,,,,,,,,,,,,,,,,,,,,,,,130,152014,20,Female,1,2024/03/27_15:23:58,YZ,50.48082710144663,
,,,,,,calibration,0,21,2,917,4,V,1,left,1.151730901998235,1,0,,,,,,,,,,,,,,,,,,,,,1,,,,,,,,,,,,,,,,,,,,,,,,,,,,,,,,,,,,,,,,,,,,,,130,152014,20,Female,1,2024/03/27_15:23:58,YZ,50.48082710144663,
,,,,,,calibration,0,21,2,917,5,Q,0,right,1.473743589987862,1,0,,,,,,,,,,,,,,,,,,,,,1,,,,,,,,,,,,,,,,,,,,,,,,,,,,,,,,,,,,,,,,,,,,,,130,152014,20,Female,1,2024/03/27_15:23:58,YZ,50.48082710144663,
,,,,,,calibration,0,21,2,917,6,V,1,left,1.7490974210086279,1,0,,,,,,,,,,,,,,,,,,,,,1,,,,,,,,,,,,,,,,,,,,,,,,,,,,,,,,,,,,,,,,,,,,,,130,152014,20,Female,1,2024/03/27_15:23:58,YZ,50.48082710144663,
,,,,,,calibration,0,21,2,917,7,C,0,right,0.9931919800001197,1,0,,,,,,,,,,,,,,,,,,,,,1,,,,,,,,,,,,,,,,,,,,,,,,,,,,,,,,,,,,,,,,,,,,,,130,152014,20,Female,1,2024/03/27_15:23:58,YZ,50.48082710144663,
,,,,,,calibration,0,21,2,917,8,S,0,right,0.6883755630115047,1,0,,,,,,,,,,,,,,,,,,,,,1,,,,,,,,,,,,,,,,,,,,,,,,,,,,,,,,,,,,,,,,,,,,,,130,152014,20,Female,1,2024/03/27_15:23:58,YZ,50.48082710144663,
,,,,,,calibration,0,21,2,917,9,V,0,left,0.7542001309921034,0,0,,,,,,,,,,,,,,,,,,,,,1,,,,,,,,,,,,,,,,,,,,,,,,,,,,,,,,,,,,,,,,,,,,,,130,152014,20,Female,1,2024/03/27_15:23:58,YZ,50.48082710144663,
,,,,,,calibration,0,21,2,917,10,X,0,right,0.7154629510041559,1,0,,,,,,,,,,,,,,,,,,,,,1,,,,,,,,,,,,,,,,,,,,,,,,,,,,,,,,,,,,,,,,,,,,,,130,152014,20,Female,1,2024/03/27_15:23:58,YZ,50.48082710144663,
,,,,,,calibration,0,21,2,917,11,V,1,left,0.4748366080020787,1,0,,,,,,,,,,,,,,,,,,,,,1,,,,,,,,,,,,,,,,,,,,,,,,,,,,,,,,,,,,,,,,,,,,,,130,152014,20,Female,1,2024/03/27_15:23:58,YZ,50.48082710144663,
,,,,,,calibration,0,21,2,917,12,Q,0,right,1.0900820050010225,1,0,,,,,,,,,,,,,,,,,,,,,1,,,,,,,,,,,,,,,,,,,,,,,,,,,,,,,,,,,,,,,,,,,,,,130,152014,20,Female,1,2024/03/27_15:23:58,YZ,50.48082710144663,
,,,,,,calibration,0,21,2,917,,,,,,,,0.9722222222222222,1.0,0.1111111111111111,0.8888888888888888,0.0,0.8888888888888888,1.1361530708345526,3,1,0,0,0,8,11,3,9,0,,,,1,,,,,,,,,,,,,,,,,,,,,,,,,,,,,,,,,,,,,,,,,,,,,,130,152014,20,Female,1,2024/03/27_15:23:58,YZ,50.48082710144663,
,,,,,,Calibration,0,,2,917,,,,,,,,,,,,,,,,,,,,,,,,,6,,,1,,,,,,,,,,,,,,,,,,,,,,,,,,,,,,,,,,,,,,,,,,,,,,130,152014,20,Female,1,2024/03/27_15:23:58,YZ,50.48082710144663,
,,,,,,calibration,0,25,2,788,1,X,0,None,nan,0,1,,,,,,,,,,,,,,,,,,,,,1,,,,,,,,,,,,,,,,,,,,,,,,,,,,,,,,,,,,,,,,,,,,,,130,152014,20,Female,1,2024/03/27_15:23:58,YZ,50.48082710144663,
,,,,,,calibration,0,25,2,788,2,F,0,right,0.2839899789978517,1,0,,,,,,,,,,,,,,,,,,,,,1,,,,,,,,,,,,,,,,,,,,,,,,,,,,,,,,,,,,,,,,,,,,,,130,152014,20,Female,1,2024/03/27_15:23:58,YZ,50.48082710144663,
,,,,,,calibration,0,25,2,788,3,X,1,right,1.38966030300071,0,0,,,,,,,,,,,,,,,,,,,,,1,,,,,,,,,,,,,,,,,,,,,,,,,,,,,,,,,,,,,,,,,,,,,,130,152014,20,Female,1,2024/03/27_15:23:58,YZ,50.48082710144663,
,,,,,,calibration,0,25,2,788,4,V,0,right,0.853399375002482,1,0,,,,,,,,,,,,,,,,,,,,,1,,,,,,,,,,,,,,,,,,,,,,,,,,,,,,,,,,,,,,,,,,,,,,130,152014,20,Female,1,2024/03/27_15:23:58,YZ,50.48082710144663,
,,,,,,calibration,0,25,2,788,5,J,0,left,0.8927730990108103,0,0,,,,,,,,,,,,,,,,,,,,,1,,,,,,,,,,,,,,,,,,,,,,,,,,,,,,,,,,,,,,,,,,,,,,130,152014,20,Female,1,2024/03/27_15:23:58,YZ,50.48082710144663,
,,,,,,calibration,0,25,2,788,6,V,1,right,0.5748503340000752,0,0,,,,,,,,,,,,,,,,,,,,,1,,,,,,,,,,,,,,,,,,,,,,,,,,,,,,,,,,,,,,,,,,,,,,130,152014,20,Female,1,2024/03/27_15:23:58,YZ,50.48082710144663,
,,,,,,calibration,0,25,2,788,7,X,0,left,0.6147129839955596,0,0,,,,,,,,,,,,,,,,,,,,,1,,,,,,,,,,,,,,,,,,,,,,,,,,,,,,,,,,,,,,,,,,,,,,130,152014,20,Female,1,2024/03/27_15:23:58,YZ,50.48082710144663,
,,,,,,calibration,0,25,2,788,8,N,0,right,0.6735597480001161,1,0,,,,,,,,,,,,,,,,,,,,,1,,,,,,,,,,,,,,,,,,,,,,,,,,,,,,,,,,,,,,,,,,,,,,130,152014,20,Female,1,2024/03/27_15:23:58,YZ,50.48082710144663,
,,,,,,calibration,0,25,2,788,9,C,0,right,nan,0,1,,,,,,,,,,,,,,,,,,,,,1,,,,,,,,,,,,,,,,,,,,,,,,,,,,,,,,,,,,,,,,,,,,,,130,152014,20,Female,1,2024/03/27_15:23:58,YZ,50.48082710144663,
,,,,,,calibration,0,25,2,788,10,N,1,right,nan,0,1,,,,,,,,,,,,,,,,,,,,,1,,,,,,,,,,,,,,,,,,,,,,,,,,,,,,,,,,,,,,,,,,,,,,130,152014,20,Female,1,2024/03/27_15:23:58,YZ,50.48082710144663,
,,,,,,calibration,0,25,2,788,11,S,0,right,nan,0,1,,,,,,,,,,,,,,,,,,,,,1,,,,,,,,,,,,,,,,,,,,,,,,,,,,,,,,,,,,,,,,,,,,,,130,152014,20,Female,1,2024/03/27_15:23:58,YZ,50.48082710144663,
,,,,,,calibration,0,25,2,788,12,C,0,left,0.5351928140007658,0,0,,,,,,,,,,,,,,,,,,,,,1,,,,,,,,,,,,,,,,,,,,,,,,,,,,,,,,,,,,,,,,,,,,,,130,152014,20,Female,1,2024/03/27_15:23:58,YZ,50.48082710144663,
,,,,,,calibration,0,25,2,788,13,S,1,left,0.7726364599948283,1,0,,,,,,,,,,,,,,,,,,,,,1,,,,,,,,,,,,,,,,,,,,,,,,,,,,,,,,,,,,,,,,,,,,,,130,152014,20,Female,1,2024/03/27_15:23:58,YZ,50.48082710144663,
,,,,,,calibration,0,25,2,788,,,,,,,,0.041666666666666685,0.25,0.3333333333333333,0.5,0.3076923076923077,0.35897435897435903,0.7323083440003555,1,3,1,3,4,3,4,4,9,0,,,,1,,,,,,,,,,,,,,,,,,,,,,,,,,,,,,,,,,,,,,,,,,,,,,130,152014,20,Female,1,2024/03/27_15:23:58,YZ,50.48082710144663,
,,,,,,Calibration,0,,2,788,,,,,,,,,,,,,,,,,,,,,,,,,7,,,1,,,,,,,,,,,,,,,,,,,,,,,,,,,,,,,,,,,,,,,,,,,,,,130,152014,20,Female,1,2024/03/27_15:23:58,YZ,50.48082710144663,
,,,,,,calibration,0,2,2,917,1,N,0,right,1.5918925470032264,1,0,,,,,,,,,,,,,,,,,,,,,1,,,,,,,,,,,,,,,,,,,,,,,,,,,,,,,,,,,,,,,,,,,,,,130,152014,20,Female,1,2024/03/27_15:23:58,YZ,50.48082710144663,
,,,,,,calibration,0,2,2,917,2,N,0,right,1.5654000679933233,1,0,,,,,,,,,,,,,,,,,,,,,1,,,,,,,,,,,,,,,,,,,,,,,,,,,,,,,,,,,,,,,,,,,,,,130,152014,20,Female,1,2024/03/27_15:23:58,YZ,50.48082710144663,
,,,,,,calibration,0,2,2,917,3,C,0,right,nan,0,1,,,,,,,,,,,,,,,,,,,,,1,,,,,,,,,,,,,,,,,,,,,,,,,,,,,,,,,,,,,,,,,,,,,,130,152014,20,Female,1,2024/03/27_15:23:58,YZ,50.48082710144663,
,,,,,,calibration,0,2,2,917,4,N,1,left,0.13065303400799166,1,0,,,,,,,,,,,,,,,,,,,,,1,,,,,,,,,,,,,,,,,,,,,,,,,,,,,,,,,,,,,,,,,,,,,,130,152014,20,Female,1,2024/03/27_15:23:58,YZ,50.48082710144663,
,,,,,,calibration,0,2,2,917,5,X,0,right,0.9929256420000456,1,0,,,,,,,,,,,,,,,,,,,,,1,,,,,,,,,,,,,,,,,,,,,,,,,,,,,,,,,,,,,,,,,,,,,,130,152014,20,Female,1,2024/03/27_15:23:58,YZ,50.48082710144663,
,,,,,,calibration,0,2,2,917,6,N,1,left,0.5946939379937248,1,0,,,,,,,,,,,,,,,,,,,,,1,,,,,,,,,,,,,,,,,,,,,,,,,,,,,,,,,,,,,,,,,,,,,,130,152014,20,Female,1,2024/03/27_15:23:58,YZ,50.48082710144663,
,,,,,,calibration,0,2,2,917,7,Q,1,right,0.5547494539932813,0,0,,,,,,,,,,,,,,,,,,,,,1,,,,,,,,,,,,,,,,,,,,,,,,,,,,,,,,,,,,,,,,,,,,,,130,152014,20,Female,1,2024/03/27_15:23:58,YZ,50.48082710144663,
,,,,,,calibration,0,2,2,917,8,X,0,left,0.5892333200026769,0,0,,,,,,,,,,,,,,,,,,,,,1,,,,,,,,,,,,,,,,,,,,,,,,,,,,,,,,,,,,,,,,,,,,,,130,152014,20,Female,1,2024/03/27_15:23:58,YZ,50.48082710144663,
,,,,,,calibration,0,2,2,917,9,Q,1,right,1.3704819470003713,0,0,,,,,,,,,,,,,,,,,,,,,1,,,,,,,,,,,,,,,,,,,,,,,,,,,,,,,,,,,,,,,,,,,,,,130,152014,20,Female,1,2024/03/27_15:23:58,YZ,50.48082710144663,
,,,,,,calibration,0,2,2,917,10,J,0,right,1.2312436569918646,1,0,,,,,,,,,,,,,,,,,,,,,1,,,,,,,,,,,,,,,,,,,,,,,,,,,,,,,,,,,,,,,,,,,,,,130,152014,20,Female,1,2024/03/27_15:23:58,YZ,50.48082710144663,
,,,,,,calibration,0,2,2,917,11,V,0,left,0.8950208419992123,0,0,,,,,,,,,,,,,,,,,,,,,1,,,,,,,,,,,,,,,,,,,,,,,,,,,,,,,,,,,,,,,,,,,,,,130,152014,20,Female,1,2024/03/27_15:23:58,YZ,50.48082710144663,
,,,,,,calibration,0,2,2,917,12,C,0,right,0.6163738989998819,1,0,,,,,,,,,,,,,,,,,,,,,1,,,,,,,,,,,,,,,,,,,,,,,,,,,,,,,,,,,,,,,,,,,,,,130,152014,20,Female,1,2024/03/27_15:23:58,YZ,50.48082710144663,
,,,,,,calibration,0,2,2,917,,,,,,,,0.6875,0.5,0.25,0.7142857142857143,0.08333333333333333,0.6666666666666666,0.921151667998691,2,2,0,1,1,5,7,4,8,0,,,,1,,,,,,,,,,,,,,,,,,,,,,,,,,,,,,,,,,,,,,,,,,,,,,130,152014,20,Female,1,2024/03/27_15:23:58,YZ,50.48082710144663,
,,,,,,Calibration,0,,2,917,,,,,,,,,,,,,,,,,,,,,,,,,8,,,1,,,,,,,,,,,,,,,,,,,,,,,,,,,,,,,,,,,,,,,,,,,,,,130,152014,20,Female,1,2024/03/27_15:23:58,YZ,50.48082710144663,
,,,,,,calibration,0,24,2,1068,1,V,0,right,0.9144501940027112,1,0,,,,,,,,,,,,,,,,,,,,,1,,,,,,,,,,,,,,,,,,,,,,,,,,,,,,,,,,,,,,,,,,,,,,130,152014,20,Female,1,2024/03/27_15:23:58,YZ,50.48082710144663,
,,,,,,calibration,0,24,2,1068,2,S,0,right,1.311066102993209,1,0,,,,,,,,,,,,,,,,,,,,,1,,,,,,,,,,,,,,,,,,,,,,,,,,,,,,,,,,,,,,,,,,,,,,130,152014,20,Female,1,2024/03/27_15:23:58,YZ,50.48082710144663,
,,,,,,calibration,0,24,2,1068,3,V,1,left,0.793880609999178,1,0,,,,,,,,,,,,,,,,,,,,,1,,,,,,,,,,,,,,,,,,,,,,,,,,,,,,,,,,,,,,,,,,,,,,130,152014,20,Female,1,2024/03/27_15:23:58,YZ,50.48082710144663,
,,,,,,calibration,0,24,2,1068,4,J,0,right,0.7736142129870132,1,0,,,,,,,,,,,,,,,,,,,,,1,,,,,,,,,,,,,,,,,,,,,,,,,,,,,,,,,,,,,,,,,,,,,,130,152014,20,Female,1,2024/03/27_15:23:58,YZ,50.48082710144663,
,,,,,,calibration,0,24,2,1068,5,N,0,right,0.8953504960081773,1,0,,,,,,,,,,,,,,,,,,,,,1,,,,,,,,,,,,,,,,,,,,,,,,,,,,,,,,,,,,,,,,,,,,,,130,152014,20,Female,1,2024/03/27_15:23:58,YZ,50.48082710144663,
,,,,,,calibration,0,24,2,1068,6,X,0,right,1.2528071720007574,1,0,,,,,,,,,,,,,,,,,,,,,1,,,,,,,,,,,,,,,,,,,,,,,,,,,,,,,,,,,,,,,,,,,,,,130,152014,20,Female,1,2024/03/27_15:23:58,YZ,50.48082710144663,
,,,,,,calibration,0,24,2,1068,7,J,0,left,1.0331228650029516,0,0,,,,,,,,,,,,,,,,,,,,,1,,,,,,,,,,,,,,,,,,,,,,,,,,,,,,,,,,,,,,,,,,,,,,130,152014,20,Female,1,2024/03/27_15:23:58,YZ,50.48082710144663,
,,,,,,calibration,0,24,2,1068,8,F,0,right,0.9920070719963405,1,0,,,,,,,,,,,,,,,,,,,,,1,,,,,,,,,,,,,,,,,,,,,,,,,,,,,,,,,,,,,,,,,,,,,,130,152014,20,Female,1,2024/03/27_15:23:58,YZ,50.48082710144663,
,,,,,,calibration,0,24,2,1068,9,Q,0,right,0.793555648997426,1,0,,,,,,,,,,,,,,,,,,,,,1,,,,,,,,,,,,,,,,,,,,,,,,,,,,,,,,,,,,,,,,,,,,,,130,152014,20,Female,1,2024/03/27_15:23:58,YZ,50.48082710144663,
,,,,,,calibration,0,24,2,1068,10,F,1,left,0.7344154960010201,1,0,,,,,,,,,,,,,,,,,,,,,1,,,,,,,,,,,,,,,,,,,,,,,,,,,,,,,,,,,,,,,,,,,,,,130,152014,20,Female,1,2024/03/27_15:23:58,YZ,50.48082710144663,
,,,,,,calibration,0,24,2,1068,11,Q,1,right,0.8928966420062352,0,0,,,,,,,,,,,,,,,,,,,,,1,,,,,,,,,,,,,,,,,,,,,,,,,,,,,,,,,,,,,,,,,,,,,,130,152014,20,Female,1,2024/03/27_15:23:58,YZ,50.48082710144663,
,,,,,,calibration,0,24,2,1068,,,,,,,,0.84375,0.6666666666666666,0.125,0.875,0.0,0.875,0.9442878647268199,2,1,0,0,0,7,9,3,8,0,,,,1,,,,,,,,,,,,,,,,,,,,,,,,,,,,,,,,,,,,,,,,,,,,,,130,152014,20,Female,1,2024/03/27_15:23:58,YZ,50.48082710144663,
,,,,,,Calibration,0,,2,1068,,,,,,,,,,,,,,,,,,,,,,,,,9,,,1,,,,,,,,,,,,,,,,,,,,,,,,,,,,,,,,,,,,,,,,,,,,,,130,152014,20,Female,1,2024/03/27_15:23:58,YZ,50.48082710144663,
,,,,,,calibration,0,20,2,1068,1,J,0,right,1.702983064998989,1,0,,,,,,,,,,,,,,,,,,,,,1,,,,,,,,,,,,,,,,,,,,,,,,,,,,,,,,,,,,,,,,,,,,,,130,152014,20,Female,1,2024/03/27_15:23:58,YZ,50.48082710144663,
,,,,,,calibration,0,20,2,1068,2,X,0,right,1.6291196520032827,1,0,,,,,,,,,,,,,,,,,,,,,1,,,,,,,,,,,,,,,,,,,,,,,,,,,,,,,,,,,,,,,,,,,,,,130,152014,20,Female,1,2024/03/27_15:23:58,YZ,50.48082710144663,
,,,,,,calibration,0,20,2,1068,3,V,0,right,0.7486183760047425,1,0,,,,,,,,,,,,,,,,,,,,,1,,,,,,,,,,,,,,,,,,,,,,,,,,,,,,,,,,,,,,,,,,,,,,130,152014,20,Female,1,2024/03/27_15:23:58,YZ,50.48082710144663,
,,,,,,calibration,0,20,2,1068,4,Q,0,right,0.8087401630036766,1,0,,,,,,,,,,,,,,,,,,,,,1,,,,,,,,,,,,,,,,,,,,,,,,,,,,,,,,,,,,,,,,,,,,,,130,152014,20,Female,1,2024/03/27_15:23:58,YZ,50.48082710144663,
,,,,,,calibration,0,20,2,1068,5,V,1,left,1.0509747460018843,1,0,,,,,,,,,,,,,,,,,,,,,1,,,,,,,,,,,,,,,,,,,,,,,,,,,,,,,,,,,,,,,,,,,,,,130,152014,20,Female,1,2024/03/27_15:23:58,YZ,50.48082710144663,
,,,,,,calibration,0,20,2,1068,6,Q,1,left,1.4731521520006936,1,0,,,,,,,,,,,,,,,,,,,,,1,,,,,,,,,,,,,,,,,,,,,,,,,,,,,,,,,,,,,,,,,,,,,,130,152014,20,Female,1,2024/03/27_15:23:58,YZ,50.48082710144663,
,,,,,,calibration,0,20,2,1068,7,X,0,right,0.9134092760068597,1,0,,,,,,,,,,,,,,,,,,,,,1,,,,,,,,,,,,,,,,,,,,,,,,,,,,,,,,,,,,,,,,,,,,,,130,152014,20,Female,1,2024/03/27_15:23:58,YZ,50.48082710144663,
,,,,,,calibration,0,20,2,1068,8,N,0,right,0.9536529899924062,1,0,,,,,,,,,,,,,,,,,,,,,1,,,,,,,,,,,,,,,,,,,,,,,,,,,,,,,,,,,,,,,,,,,,,,130,152014,20,Female,1,2024/03/27_15:23:58,YZ,50.48082710144663,
,,,,,,calibration,0,20,2,1068,9,J,0,right,0.9732329420075985,1,0,,,,,,,,,,,,,,,,,,,,,1,,,,,,,,,,,,,,,,,,,,,,,,,,,,,,,,,,,,,,,,,,,,,,130,152014,20,Female,1,2024/03/27_15:23:58,YZ,50.48082710144663,
,,,,,,calibration,0,20,2,1068,10,N,1,left,0.8330439099954674,1,0,,,,,,,,,,,,,,,,,,,,,1,,,,,,,,,,,,,,,,,,,,,,,,,,,,,,,,,,,,,,,,,,,,,,130,152014,20,Female,1,2024/03/27_15:23:58,YZ,50.48082710144663,
,,,,,,calibration,0,20,2,1068,11,S,0,right,0.6342348050093278,1,0,,,,,,,,,,,,,,,,,,,,,1,,,,,,,,,,,,,,,,,,,,,,,,,,,,,,,,,,,,,,,,,,,,,,130,152014,20,Female,1,2024/03/27_15:23:58,YZ,50.48082710144663,
,,,,,,calibration,0,20,2,1068,,,,,,,,1.0,1.0,0.0,1.0,0.0,1.0,1.065560188820448,3,0,0,0,0,8,11,3,8,0,,,,1,,,,,,,,,,,,,,,,,,,,,,,,,,,,,,,,,,,,,,,,,,,,,,130,152014,20,Female,1,2024/03/27_15:23:58,YZ,50.48082710144663,
,,,,,,Calibration,0,,2,1068,,,,,,,,,,,,,,,,,,,,,,,,,10,,,1,,,,,,,,,,,,,,,,,,,,,,,,,,,,,,,,,,,,,,,,,,,,,,130,152014,20,Female,1,2024/03/27_15:23:58,YZ,50.48082710144663,
,,,,,,calibration,0,2,2,917,1,N,0,right,1.2334550289961044,1,0,,,,,,,,,,,,,,,,,,,,,1,,,,,,,,,,,,,,,,,,,,,,,,,,,,,,,,,,,,,,,,,,,,,,130,152014,20,Female,1,2024/03/27_15:23:58,YZ,50.48082710144663,
,,,,,,calibration,0,2,2,917,2,N,0,right,0.8928455059940461,1,0,,,,,,,,,,,,,,,,,,,,,1,,,,,,,,,,,,,,,,,,,,,,,,,,,,,,,,,,,,,,,,,,,,,,130,152014,20,Female,1,2024/03/27_15:23:58,YZ,50.48082710144663,
,,,,,,calibration,0,2,2,917,3,C,0,right,1.368688167000073,1,0,,,,,,,,,,,,,,,,,,,,,1,,,,,,,,,,,,,,,,,,,,,,,,,,,,,,,,,,,,,,,,,,,,,,130,152014,20,Female,1,2024/03/27_15:23:58,YZ,50.48082710144663,
,,,,,,calibration,0,2,2,917,4,N,1,left,0.9327739239961375,1,0,,,,,,,,,,,,,,,,,,,,,1,,,,,,,,,,,,,,,,,,,,,,,,,,,,,,,,,,,,,,,,,,,,,,130,152014,20,Female,1,2024/03/27_15:23:58,YZ,50.48082710144663,
,,,,,,calibration,0,2,2,917,5,X,0,right,0.6549790489953011,1,0,,,,,,,,,,,,,,,,,,,,,1,,,,,,,,,,,,,,,,,,,,,,,,,,,,,,,,,,,,,,,,,,,,,,130,152014,20,Female,1,2024/03/27_15:23:58,YZ,50.48082710144663,
,,,,,,calibration,0,2,2,917,6,N,1,right,1.290981936006574,0,0,,,,,,,,,,,,,,,,,,,,,1,,,,,,,,,,,,,,,,,,,,,,,,,,,,,,,,,,,,,,,,,,,,,,130,152014,20,Female,1,2024/03/27_15:23:58,YZ,50.48082710144663,
,,,,,,calibration,0,2,2,917,7,Q,1,right,1.1926264979992993,0,0,,,,,,,,,,,,,,,,,,,,,1,,,,,,,,,,,,,,,,,,,,,,,,,,,,,,,,,,,,,,,,,,,,,,130,152014,20,Female,1,2024/03/27_15:23:58,YZ,50.48082710144663,
,,,,,,calibration,0,2,2,917,8,X,0,left,0.8544084309978643,0,0,,,,,,,,,,,,,,,,,,,,,1,,,,,,,,,,,,,,,,,,,,,,,,,,,,,,,,,,,,,,,,,,,,,,130,152014,20,Female,1,2024/03/27_15:23:58,YZ,50.48082710144663,
,,,,,,calibration,0,2,2,917,9,Q,1,right,0.8718480950046796,0,0,,,,,,,,,,,,,,,,,,,,,1,,,,,,,,,,,,,,,,,,,,,,,,,,,,,,,,,,,,,,,,,,,,,,130,152014,20,Female,1,2024/03/27_15:23:58,YZ,50.48082710144663,
,,,,,,calibration,0,2,2,917,10,J,0,right,1.0260858989931876,1,0,,,,,,,,,,,,,,,,,,,,,1,,,,,,,,,,,,,,,,,,,,,,,,,,,,,,,,,,,,,,,,,,,,,,130,152014,20,Female,1,2024/03/27_15:23:58,YZ,50.48082710144663,
,,,,,,calibration,0,2,2,917,11,V,0,right,1.172510718999547,1,0,,,,,,,,,,,,,,,,,,,,,1,,,,,,,,,,,,,,,,,,,,,,,,,,,,,,,,,,,,,,,,,,,,,,130,152014,20,Female,1,2024/03/27_15:23:58,YZ,50.48082710144663,
,,,,,,calibration,0,2,2,917,12,C,0,right,0.8326679019955918,1,0,,,,,,,,,,,,,,,,,,,,,1,,,,,,,,,,,,,,,,,,,,,,,,,,,,,,,,,,,,,,,,,,,,,,130,152014,20,Female,1,2024/03/27_15:23:58,YZ,50.48082710144663,
,,,,,,calibration,0,2,2,917,,,,,,,,0.65625,0.25,0.125,0.875,0.0,0.875,1.0269892629148671,1,1,0,0,0,7,8,4,8,0,,,,1,,,,,,,,,,,,,,,,,,,,,,,,,,,,,,,,,,,,,,,,,,,,,,130,152014,20,Female,1,2024/03/27_15:23:58,YZ,50.48082710144663,
,,,,,,Calibration,0,,2,917,,,,,,,,,,,,,,,,,,,,,,,,,11,,,1,,,,,,,,,,,,,,,,,,,,,,,,,,,,,,,,,,,,,,,,,,,,,,130,152014,20,Female,1,2024/03/27_15:23:58,YZ,50.48082710144663,
,,,,,,calibration,0,5,2,1068,1,F,0,right,0.6741703349980526,1,0,,,,,,,,,,,,,,,,,,,,,1,,,,,,,,,,,,,,,,,,,,,,,,,,,,,,,,,,,,,,,,,,,,,,130,152014,20,Female,1,2024/03/27_15:23:58,YZ,50.48082710144663,
,,,,,,calibration,0,5,2,1068,2,X,0,right,0.5154198109958088,1,0,,,,,,,,,,,,,,,,,,,,,1,,,,,,,,,,,,,,,,,,,,,,,,,,,,,,,,,,,,,,,,,,,,,,130,152014,20,Female,1,2024/03/27_15:23:58,YZ,50.48082710144663,
,,,,,,calibration,0,5,2,1068,3,Q,0,right,0.614320670007146,1,0,,,,,,,,,,,,,,,,,,,,,1,,,,,,,,,,,,,,,,,,,,,,,,,,,,,,,,,,,,,,,,,,,,,,130,152014,20,Female,1,2024/03/27_15:23:58,YZ,50.48082710144663,
,,,,,,calibration,0,5,2,1068,4,X,1,left,0.8936142699967604,1,0,,,,,,,,,,,,,,,,,,,,,1,,,,,,,,,,,,,,,,,,,,,,,,,,,,,,,,,,,,,,,,,,,,,,130,152014,20,Female,1,2024/03/27_15:23:58,YZ,50.48082710144663,
,,,,,,calibration,0,5,2,1068,5,Q,1,right,0.6151724210067187,0,0,,,,,,,,,,,,,,,,,,,,,1,,,,,,,,,,,,,,,,,,,,,,,,,,,,,,,,,,,,,,,,,,,,,,130,152014,20,Female,1,2024/03/27_15:23:58,YZ,50.48082710144663,
,,,,,,calibration,0,5,2,1068,6,J,0,right,0.7525075669982471,1,0,,,,,,,,,,,,,,,,,,,,,1,,,,,,,,,,,,,,,,,,,,,,,,,,,,,,,,,,,,,,,,,,,,,,130,152014,20,Female,1,2024/03/27_15:23:58,YZ,50.48082710144663,
,,,,,,calibration,0,5,2,1068,7,C,0,right,0.7335072540008696,1,0,,,,,,,,,,,,,,,,,,,,,1,,,,,,,,,,,,,,,,,,,,,,,,,,,,,,,,,,,,,,,,,,,,,,130,152014,20,Female,1,2024/03/27_15:23:58,YZ,50.48082710144663,
,,,,,,calibration,0,5,2,1068,8,N,0,right,0.7343581949971849,1,0,,,,,,,,,,,,,,,,,,,,,1,,,,,,,,,,,,,,,,,,,,,,,,,,,,,,,,,,,,,,,,,,,,,,130,152014,20,Female,1,2024/03/27_15:23:58,YZ,50.48082710144663,
,,,,,,calibration,0,5,2,1068,9,J,0,left,0.7543751080083894,0,0,,,,,,,,,,,,,,,,,,,,,1,,,,,,,,,,,,,,,,,,,,,,,,,,,,,,,,,,,,,,,,,,,,,,130,152014,20,Female,1,2024/03/27_15:23:58,YZ,50.48082710144663,
,,,,,,calibration,0,5,2,1068,10,C,0,right,0.49145544999919366,1,0,,,,,,,,,,,,,,,,,,,,,1,,,,,,,,,,,,,,,,,,,,,,,,,,,,,,,,,,,,,,,,,,,,,,130,152014,20,Female,1,2024/03/27_15:23:58,YZ,50.48082710144663,
,,,,,,calibration,0,5,2,1068,11,J,1,left,0.694217654003296,1,0,,,,,,,,,,,,,,,,,,,,,1,,,,,,,,,,,,,,,,,,,,,,,,,,,,,,,,,,,,,,,,,,,,,,130,152014,20,Female,1,2024/03/27_15:23:58,YZ,50.48082710144663,
,,,,,,calibration,0,5,2,1068,,,,,,,,0.84375,0.6666666666666666,0.125,0.875,0.0,0.875,0.6793744304556061,2,1,0,0,0,7,9,3,8,0,,,,1,,,,,,,,,,,,,,,,,,,,,,,,,,,,,,,,,,,,,,,,,,,,,,130,152014,20,Female,1,2024/03/27_15:23:58,YZ,50.48082710144663,
,,,,,,Calibration,0,,2,1068,,,,,,,,,,,,,,,,,,,,,,,,,12,,,1,,,,,,,,,,,,,,,,,,,,,,,,,,,,,,,,,,,,,,,,,,,,,,130,152014,20,Female,1,2024/03/27_15:23:58,YZ,50.48082710144663,
,,,,,,calibration,0,24,2,1068,1,V,0,right,0.3319426310044946,1,0,,,,,,,,,,,,,,,,,,,,,1,,,,,,,,,,,,,,,,,,,,,,,,,,,,,,,,,,,,,,,,,,,,,,130,152014,20,Female,1,2024/03/27_15:23:58,YZ,50.48082710144663,
,,,,,,calibration,0,24,2,1068,2,S,0,right,0.3381650919909589,1,0,,,,,,,,,,,,,,,,,,,,,1,,,,,,,,,,,,,,,,,,,,,,,,,,,,,,,,,,,,,,,,,,,,,,130,152014,20,Female,1,2024/03/27_15:23:58,YZ,50.48082710144663,
,,,,,,calibration,0,24,2,1068,3,V,1,left,0.45837512699654326,1,0,,,,,,,,,,,,,,,,,,,,,1,,,,,,,,,,,,,,,,,,,,,,,,,,,,,,,,,,,,,,,,,,,,,,130,152014,20,Female,1,2024/03/27_15:23:58,YZ,50.48082710144663,
,,,,,,calibration,0,24,2,1068,4,J,0,right,0.48238180100452155,1,0,,,,,,,,,,,,,,,,,,,,,1,,,,,,,,,,,,,,,,,,,,,,,,,,,,,,,,,,,,,,,,,,,,,,130,152014,20,Female,1,2024/03/27_15:23:58,YZ,50.48082710144663,
,,,,,,calibration,0,24,2,1068,5,N,0,right,0.9930481299961684,1,0,,,,,,,,,,,,,,,,,,,,,1,,,,,,,,,,,,,,,,,,,,,,,,,,,,,,,,,,,,,,,,,,,,,,130,152014,20,Female,1,2024/03/27_15:23:58,YZ,50.48082710144663,
,,,,,,calibration,0,24,2,1068,6,X,0,left,0.9272275999974227,0,0,,,,,,,,,,,,,,,,,,,,,1,,,,,,,,,,,,,,,,,,,,,,,,,,,,,,,,,,,,,,,,,,,,,,130,152014,20,Female,1,2024/03/27_15:23:58,YZ,50.48082710144663,
,,,,,,calibration,0,24,2,1068,7,J,0,right,0.47310458100400865,1,0,,,,,,,,,,,,,,,,,,,,,1,,,,,,,,,,,,,,,,,,,,,,,,,,,,,,,,,,,,,,,,,,,,,,130,152014,20,Female,1,2024/03/27_15:23:58,YZ,50.48082710144663,
,,,,,,calibration,0,24,2,1068,8,F,0,right,1.0882477510022,1,0,,,,,,,,,,,,,,,,,,,,,1,,,,,,,,,,,,,,,,,,,,,,,,,,,,,,,,,,,,,,,,,,,,,,130,152014,20,Female,1,2024/03/27_15:23:58,YZ,50.48082710144663,
,,,,,,calibration,0,24,2,1068,9,Q,0,right,0.6941627470077947,1,0,,,,,,,,,,,,,,,,,,,,,1,,,,,,,,,,,,,,,,,,,,,,,,,,,,,,,,,,,,,,,,,,,,,,130,152014,20,Female,1,2024/03/27_15:23:58,YZ,50.48082710144663,
,,,,,,calibration,0,24,2,1068,10,F,1,right,0.774360739000258,0,0,,,,,,,,,,,,,,,,,,,,,1,,,,,,,,,,,,,,,,,,,,,,,,,,,,,,,,,,,,,,,,,,,,,,130,152014,20,Female,1,2024/03/27_15:23:58,YZ,50.48082710144663,
,,,,,,calibration,0,24,2,1068,11,Q,1,left,0.8546844880038407,1,0,,,,,,,,,,,,,,,,,,,,,1,,,,,,,,,,,,,,,,,,,,,,,,,,,,,,,,,,,,,,,,,,,,,,130,152014,20,Female,1,2024/03/27_15:23:58,YZ,50.48082710144663,
,,,,,,calibration,0,24,2,1068,,,,,,,,0.84375,0.6666666666666666,0.125,0.875,0.0,0.875,0.6741546079098374,2,1,0,0,0,7,9,3,8,0,,,,1,,,,,,,,,,,,,,,,,,,,,,,,,,,,,,,,,,,,,,,,,,,,,,130,152014,20,Female,1,2024/03/27_15:23:58,YZ,50.48082710144663,
,,,,,,Calibration,0,,2,1068,,,,,,,,,,,,,,,,,,,,,,,,,13,,,1,,,,,,,,,,,,,,,,,,,,,,,,,,,,,,,,,,,,,,,,,,,,,,130,152014,20,Female,1,2024/03/27_15:23:58,YZ,50.48082710144663,
,,,,,,calibration,0,30,2,1068,1,J,0,right,0.46621447999496013,1,0,,,,,,,,,,,,,,,,,,,,,1,,,,,,,,,,,,,,,,,,,,,,,,,,,,,,,,,,,,,,,,,,,,,,130,152014,20,Female,1,2024/03/27_15:23:58,YZ,50.48082710144663,
,,,,,,calibration,0,30,2,1068,2,Q,0,right,1.0299034909985494,1,0,,,,,,,,,,,,,,,,,,,,,1,,,,,,,,,,,,,,,,,,,,,,,,,,,,,,,,,,,,,,,,,,,,,,130,152014,20,Female,1,2024/03/27_15:23:58,YZ,50.48082710144663,
,,,,,,calibration,0,30,2,1068,3,V,0,right,0.5149388300051214,1,0,,,,,,,,,,,,,,,,,,,,,1,,,,,,,,,,,,,,,,,,,,,,,,,,,,,,,,,,,,,,,,,,,,,,130,152014,20,Female,1,2024/03/27_15:23:58,YZ,50.48082710144663,
,,,,,,calibration,0,30,2,1068,4,X,0,right,0.6939904739992926,1,0,,,,,,,,,,,,,,,,,,,,,1,,,,,,,,,,,,,,,,,,,,,,,,,,,,,,,,,,,,,,,,,,,,,,130,152014,20,Female,1,2024/03/27_15:23:58,YZ,50.48082710144663,
,,,,,,calibration,0,30,2,1068,5,S,0,right,0.6735121229867218,1,0,,,,,,,,,,,,,,,,,,,,,1,,,,,,,,,,,,,,,,,,,,,,,,,,,,,,,,,,,,,,,,,,,,,,130,152014,20,Female,1,2024/03/27_15:23:58,YZ,50.48082710144663,
,,,,,,calibration,0,30,2,1068,6,X,1,left,0.7737015849997988,1,0,,,,,,,,,,,,,,,,,,,,,1,,,,,,,,,,,,,,,,,,,,,,,,,,,,,,,,,,,,,,,,,,,,,,130,152014,20,Female,1,2024/03/27_15:23:58,YZ,50.48082710144663,
,,,,,,calibration,0,30,2,1068,7,S,1,right,0.6343949489964871,0,0,,,,,,,,,,,,,,,,,,,,,1,,,,,,,,,,,,,,,,,,,,,,,,,,,,,,,,,,,,,,,,,,,,,,130,152014,20,Female,1,2024/03/27_15:23:58,YZ,50.48082710144663,
,,,,,,calibration,0,30,2,1068,8,N,0,right,0.7879453140049009,1,0,,,,,,,,,,,,,,,,,,,,,1,,,,,,,,,,,,,,,,,,,,,,,,,,,,,,,,,,,,,,,,,,,,,,130,152014,20,Female,1,2024/03/27_15:23:58,YZ,50.48082710144663,
,,,,,,calibration,0,30,2,1068,9,S,1,left,0.7143052860046737,1,0,,,,,,,,,,,,,,,,,,,,,1,,,,,,,,,,,,,,,,,,,,,,,,,,,,,,,,,,,,,,,,,,,,,,130,152014,20,Female,1,2024/03/27_15:23:58,YZ,50.48082710144663,
,,,,,,calibration,0,30,2,1068,10,F,0,right,0.5349512639950262,1,0,,,,,,,,,,,,,,,,,,,,,1,,,,,,,,,,,,,,,,,,,,,,,,,,,,,,,,,,,,,,,,,,,,,,130,152014,20,Female,1,2024/03/27_15:23:58,YZ,50.48082710144663,
,,,,,,calibration,0,30,2,1068,11,C,0,right,0.6335588239890058,1,0,,,,,,,,,,,,,,,,,,,,,1,,,,,,,,,,,,,,,,,,,,,,,,,,,,,,,,,,,,,,,,,,,,,,130,152014,20,Female,1,2024/03/27_15:23:58,YZ,50.48082710144663,
,,,,,,calibration,0,30,2,1068,,,,,,,,0.9166666666666666,0.6666666666666666,0.0,1.0,0.0,1.0,0.6779469654522307,2,0,0,0,0,8,10,3,8,0,,,,1,,,,,,,,,,,,,,,,,,,,,,,,,,,,,,,,,,,,,,,,,,,,,,130,152014,20,Female,1,2024/03/27_15:23:58,YZ,50.48082710144663,
,,,,,,Calibration,0,,2,1068,,,,,,,,,,,,,,,,,,,,,,,,,14,,,1,,,,,,,,,,,,,,,,,,,,,,,,,,,,,,,,,,,,,,,,,,,,,,130,152014,20,Female,1,2024/03/27_15:23:58,YZ,50.48082710144663,
,,,,,,calibration,0,9,2,917,1,J,0,right,0.44466424999700394,1,0,,,,,,,,,,,,,,,,,,,,,1,,,,,,,,,,,,,,,,,,,,,,,,,,,,,,,,,,,,,,,,,,,,,,130,152014,20,Female,1,2024/03/27_15:23:58,YZ,50.48082710144663,
,,,,,,calibration,0,9,2,917,2,S,0,right,0.3137476150004659,1,0,,,,,,,,,,,,,,,,,,,,,1,,,,,,,,,,,,,,,,,,,,,,,,,,,,,,,,,,,,,,,,,,,,,,130,152014,20,Female,1,2024/03/27_15:23:58,YZ,50.48082710144663,
,,,,,,calibration,0,9,2,917,3,J,1,left,0.5948710630036658,1,0,,,,,,,,,,,,,,,,,,,,,1,,,,,,,,,,,,,,,,,,,,,,,,,,,,,,,,,,,,,,,,,,,,,,130,152014,20,Female,1,2024/03/27_15:23:58,YZ,50.48082710144663,
,,,,,,calibration,0,9,2,917,4,X,0,right,0.2871928039967315,1,0,,,,,,,,,,,,,,,,,,,,,1,,,,,,,,,,,,,,,,,,,,,,,,,,,,,,,,,,,,,,,,,,,,,,130,152014,20,Female,1,2024/03/27_15:23:58,YZ,50.48082710144663,
,,,,,,calibration,0,9,2,917,5,V,0,right,0.4817942610097816,1,0,,,,,,,,,,,,,,,,,,,,,1,,,,,,,,,,,,,,,,,,,,,,,,,,,,,,,,,,,,,,,,,,,,,,130,152014,20,Female,1,2024/03/27_15:23:58,YZ,50.48082710144663,
,,,,,,calibration,0,9,2,917,6,S,0,right,0.5750601230101893,1,0,,,,,,,,,,,,,,,,,,,,,1,,,,,,,,,,,,,,,,,,,,,,,,,,,,,,,,,,,,,,,,,,,,,,130,152014,20,Female,1,2024/03/27_15:23:58,YZ,50.48082710144663,
,,,,,,calibration,0,9,2,917,7,X,0,left,0.2418633100023726,0,0,,,,,,,,,,,,,,,,,,,,,1,,,,,,,,,,,,,,,,,,,,,,,,,,,,,,,,,,,,,,,,,,,,,,130,152014,20,Female,1,2024/03/27_15:23:58,YZ,50.48082710144663,
,,,,,,calibration,0,9,2,917,8,S,1,right,0.3377855860017007,0,0,,,,,,,,,,,,,,,,,,,,,1,,,,,,,,,,,,,,,,,,,,,,,,,,,,,,,,,,,,,,,,,,,,,,130,152014,20,Female,1,2024/03/27_15:23:58,YZ,50.48082710144663,
,,,,,,calibration,0,9,2,917,9,Q,0,right,0.6139724629902048,1,0,,,,,,,,,,,,,,,,,,,,,1,,,,,,,,,,,,,,,,,,,,,,,,,,,,,,,,,,,,,,,,,,,,,,130,152014,20,Female,1,2024/03/27_15:23:58,YZ,50.48082710144663,
,,,,,,calibration,0,9,2,917,10,S,1,left,0.7964487840072252,1,0,,,,,,,,,,,,,,,,,,,,,1,,,,,,,,,,,,,,,,,,,,,,,,,,,,,,,,,,,,,,,,,,,,,,130,152014,20,Female,1,2024/03/27_15:23:58,YZ,50.48082710144663,
,,,,,,calibration,0,9,2,917,11,J,0,right,0.36493745900224894,1,0,,,,,,,,,,,,,,,,,,,,,1,,,,,,,,,,,,,,,,,,,,,,,,,,,,,,,,,,,,,,,,,,,,,,130,152014,20,Female,1,2024/03/27_15:23:58,YZ,50.48082710144663,
,,,,,,calibration,0,9,2,917,12,C,0,right,0.5943708020058693,1,0,,,,,,,,,,,,,,,,,,,,,1,,,,,,,,,,,,,,,,,,,,,,,,,,,,,,,,,,,,,,,,,,,,,,130,152014,20,Female,1,2024/03/27_15:23:58,YZ,50.48082710144663,
,,,,,,calibration,0,9,2,917,,,,,,,,0.8518518518518517,0.6666666666666666,0.1111111111111111,0.8888888888888888,0.0,0.8888888888888888,0.47055904333562165,2,1,0,0,0,8,10,3,9,0,,,,1,,,,,,,,,,,,,,,,,,,,,,,,,,,,,,,,,,,,,,,,,,,,,,130,152014,20,Female,1,2024/03/27_15:23:58,YZ,50.48082710144663,
,,,,,,Calibration,0,,2,917,,,,,,,,,,,,,,,,,,,,,,,,,15,,,1,,,,,,,,,,,,,,,,,,,,,,,,,,,,,,,,,,,,,,,,,,,,,,130,152014,20,Female,1,2024/03/27_15:23:58,YZ,50.48082710144663,
,,,,,,CALIBRATION,0,,,,,,,,,,,,,,,,,,,,,,,,,,,,15,0.8518518518518517,917,1,,,,,,,,,,,,,,,,,,,,,,,,,,,,,,,,,,,,,,,,,,,,,,130,152014,20,Female,1,2024/03/27_15:23:58,YZ,50.48082710144663,
1,./instructions/inst_prac_1/Slide24.png,right,15.046325040995725,570.4245966870076,585.4709217280033,,,,,,,,,,,,,,,,,,,,,,,,,,,,,,,,,1,,,,,,,,,,,,,,,,,,,,,,,,,,,,,,,,,,,,,,,,,,,,,,130,152014,20,Female,1,2024/03/27_15:23:58,YZ,50.48082710144663,
2,./instructions/inst_prac_1/Slide25.png,right,2.7503080229944317,585.5046557650057,588.2549637880002,,,,,,,,,,,,,,,,,,,,,,,,,,,,,,,,,1,,,,,,,,,,,,,,,,,,,,,,,,,,,,,,,,,,,,,,,,,,,,,,130,152014,20,Female,1,2024/03/27_15:23:58,YZ,50.48082710144663,
3,./instructions/inst_prac_1/Slide26.png,right,0.8784815269900719,588.2883612580044,589.1668427849945,,,,,,,,,,,,,,,,,,,,,,,,,,,,,,,,,1,,,,,,,,,,,,,,,,,,,,,,,,,,,,,,,,,,,,,,,,,,,,,,130,152014,20,Female,1,2024/03/27_15:23:58,YZ,50.48082710144663,
4,./instructions/inst_prac_1/Slide27.png,right,1.2228271979984129,589.2000569880038,590.4228841860022,,,,,,,,,,,,,,,,,,,,,,,,,,,,,,,,,1,,,,,,,,,,,,,,,,,,,,,,,,,,,,,,,,,,,,,,,,,,,,,,130,152014,20,Female,1,2024/03/27_15:23:58,YZ,50.48082710144663,
5,./instructions/inst_prac_1/Slide28.png,right,0.8952813159994548,590.4557580920082,591.3510394080076,,,,,,,,,,,,,,,,,,,,,,,,,,,,,,,,,1,,,,,,,,,,,,,,,,,,,,,,,,,,,,,,,,,,,,,,,,,,,,,,130,152014,20,Female,1,2024/03/27_15:23:58,YZ,50.48082710144663,
6,./instructions/inst_prac_1/Slide29.png,right,16.222521415009396,591.3845459559961,607.6070673710055,,,,,,,,,,,,,,,,,,,,,,,,,,,,,,,,,1,,,,,,,,,,,,,,,,,,,,,,,,,,,,,,,,,,,,,,,,,,,,,,130,152014,20,Female,1,2024/03/27_15:23:58,YZ,50.48082710144663,
7,./instructions/inst_prac_1/Slide30.png,right,4.85411849799857,607.6408275160065,612.4949460140051,,,,,,,,,,,,,,,,,,,,,,,,,,,,,,,,,1,,,,,,,,,,,,,,,,,,,,,,,,,,,,,,,,,,,,,,,,,,,,,,130,152014,20,Female,1,2024/03/27_15:23:58,YZ,50.48082710144663,
,,,,,,practice,0,35,1,1250,1,X,0,left,2.428159376999247,0,0,,,,,,,,,,,,,,,,,,,,,1,,,,,,,,,,,,,,,,,,,,,,,,,,,,,,,,,,,,,,,,,,,,,,130,152014,20,Female,1,2024/03/27_15:23:58,YZ,50.48082710144663,
,,,,,,practice,0,35,1,1250,2,C,0,right,1.8570893420110224,1,0,,,,,,,,,,,,,,,,,,,,,1,,,,,,,,,,,,,,,,,,,,,,,,,,,,,,,,,,,,,,,,,,,,,,130,152014,20,Female,1,2024/03/27_15:23:58,YZ,50.48082710144663,
,,,,,,practice,0,35,1,1250,3,C,1,left,0.8601123900007224,1,0,,,,,,,,,,,,,,,,,,,,,1,,,,,,,,,,,,,,,,,,,,,,,,,,,,,,,,,,,,,,,,,,,,,,130,152014,20,Female,1,2024/03/27_15:23:58,YZ,50.48082710144663,
,,,,,,practice,0,35,1,1250,4,S,0,right,0.8360914020013297,1,0,,,,,,,,,,,,,,,,,,,,,1,,,,,,,,,,,,,,,,,,,,,,,,,,,,,,,,,,,,,,,,,,,,,,130,152014,20,Female,1,2024/03/27_15:23:58,YZ,50.48082710144663,
,,,,,,practice,0,35,1,1250,5,J,0,right,1.6362448169966228,1,0,,,,,,,,,,,,,,,,,,,,,1,,,,,,,,,,,,,,,,,,,,,,,,,,,,,,,,,,,,,,,,,,,,,,130,152014,20,Female,1,2024/03/27_15:23:58,YZ,50.48082710144663,
,,,,,,practice,0,35,1,1250,6,F,0,right,1.5805233600112842,1,0,,,,,,,,,,,,,,,,,,,,,1,,,,,,,,,,,,,,,,,,,,,,,,,,,,,,,,,,,,,,,,,,,,,,130,152014,20,Female,1,2024/03/27_15:23:58,YZ,50.48082710144663,
,,,,,,practice,0,35,1,1250,7,N,0,right,0.924056305011618,1,0,,,,,,,,,,,,,,,,,,,,,1,,,,,,,,,,,,,,,,,,,,,,,,,,,,,,,,,,,,,,,,,,,,,,130,152014,20,Female,1,2024/03/27_15:23:58,YZ,50.48082710144663,
,,,,,,practice,0,35,1,1250,8,N,1,left,0.5885304989933502,1,0,,,,,,,,,,,,,,,,,,,,,1,,,,,,,,,,,,,,,,,,,,,,,,,,,,,,,,,,,,,,,,,,,,,,130,152014,20,Female,1,2024/03/27_15:23:58,YZ,50.48082710144663,
,,,,,,practice,0,35,1,1250,9,X,0,right,1.0122116470010951,1,0,,,,,,,,,,,,,,,,,,,,,1,,,,,,,,,,,,,,,,,,,,,,,,,,,,,,,,,,,,,,,,,,,,,,130,152014,20,Female,1,2024/03/27_15:23:58,YZ,50.48082710144663,
,,,,,,practice,0,35,1,1250,10,X,1,left,1.124476565993973,1,0,,,,,,,,,,,,,,,,,,,,,1,,,,,,,,,,,,,,,,,,,,,,,,,,,,,,,,,,,,,,,,,,,,,,130,152014,20,Female,1,2024/03/27_15:23:58,YZ,50.48082710144663,
,,,,,,practice,0,35,1,1250,,,,,,,,0.9642857142857143,1.0,0.14285714285714285,0.8571428571428571,0.0,0.8571428571428572,1.2847495705020264,3,1,0,0,0,6,9,3,7,0,,,,1,,,,,,,,,,,,,,,,,,,,,,,,,,,,,,,,,,,,,,,,,,,,,,130,152014,20,Female,1,2024/03/27_15:23:58,YZ,50.48082710144663,
1,./instructions/inst_prac_1_next/Slide35.png,right,7.947400963996188,636.5314572729985,644.4788582369947,,,,,,,,,,,,,,,,,,,,,,,,,,,,,,,,,1,,,,,,,,,,,,,,,,,,,,,,,,,,,,,,,,,,,,,,,,,,,,,,130,152014,20,Female,1,2024/03/27_15:23:58,YZ,50.48082710144663,
,,,,,,practice,0,17,1,917,1,V,0,left,0.8893631429964444,0,0,,,,,,,,,,,,,,,,,,,,,1,,,,,,,,,,,,,,,,,,,,,,,,,,,,,,,,,,,,,,,,,,,,,,130,152014,20,Female,1,2024/03/27_15:23:58,YZ,50.48082710144663,
,,,,,,practice,0,17,1,917,2,V,1,right,0.8110299979889533,0,0,,,,,,,,,,,,,,,,,,,,,1,,,,,,,,,,,,,,,,,,,,,,,,,,,,,,,,,,,,,,,,,,,,,,130,152014,20,Female,1,2024/03/27_15:23:58,YZ,50.48082710144663,
,,,,,,practice,0,17,1,917,3,N,0,right,0.9629846219904721,1,0,,,,,,,,,,,,,,,,,,,,,1,,,,,,,,,,,,,,,,,,,,,,,,,,,,,,,,,,,,,,,,,,,,,,130,152014,20,Female,1,2024/03/27_15:23:58,YZ,50.48082710144663,
,,,,,,practice,0,17,1,917,4,S,0,right,0.866858122011763,1,0,,,,,,,,,,,,,,,,,,,,,1,,,,,,,,,,,,,,,,,,,,,,,,,,,,,,,,,,,,,,,,,,,,,,130,152014,20,Female,1,2024/03/27_15:23:58,YZ,50.48082710144663,
,,,,,,practice,0,17,1,917,5,V,0,right,0.7801984830002766,1,0,,,,,,,,,,,,,,,,,,,,,1,,,,,,,,,,,,,,,,,,,,,,,,,,,,,,,,,,,,,,,,,,,,,,130,152014,20,Female,1,2024/03/27_15:23:58,YZ,50.48082710144663,
,,,,,,practice,0,17,1,917,6,C,0,right,0.6746933599933982,1,0,,,,,,,,,,,,,,,,,,,,,1,,,,,,,,,,,,,,,,,,,,,,,,,,,,,,,,,,,,,,,,,,,,,,130,152014,20,Female,1,2024/03/27_15:23:58,YZ,50.48082710144663,
,,,,,,practice,0,17,1,917,7,X,0,right,0.657991920990753,1,0,,,,,,,,,,,,,,,,,,,,,1,,,,,,,,,,,,,,,,,,,,,,,,,,,,,,,,,,,,,,,,,,,,,,130,152014,20,Female,1,2024/03/27_15:23:58,YZ,50.48082710144663,
,,,,,,practice,0,17,1,917,8,S,0,right,0.5850419250054983,1,0,,,,,,,,,,,,,,,,,,,,,1,,,,,,,,,,,,,,,,,,,,,,,,,,,,,,,,,,,,,,,,,,,,,,130,152014,20,Female,1,2024/03/27_15:23:58,YZ,50.48082710144663,
,,,,,,practice,0,17,1,917,9,V,0,right,0.7386620250035776,1,0,,,,,,,,,,,,,,,,,,,,,1,,,,,,,,,,,,,,,,,,,,,,,,,,,,,,,,,,,,,,,,,,,,,,130,152014,20,Female,1,2024/03/27_15:23:58,YZ,50.48082710144663,
,,,,,,practice,0,17,1,917,10,V,1,left,0.6915849289944163,1,0,,,,,,,,,,,,,,,,,,,,,1,,,,,,,,,,,,,,,,,,,,,,,,,,,,,,,,,,,,,,,,,,,,,,130,152014,20,Female,1,2024/03/27_15:23:58,YZ,50.48082710144663,
,,,,,,practice,0,17,1,917,11,Q,0,right,0.4819443339947611,1,0,,,,,,,,,,,,,,,,,,,,,1,,,,,,,,,,,,,,,,,,,,,,,,,,,,,,,,,,,,,,,,,,,,,,130,152014,20,Female,1,2024/03/27_15:23:58,YZ,50.48082710144663,
,,,,,,practice,0,17,1,917,12,Q,1,left,0.6031360769993626,1,0,,,,,,,,,,,,,,,,,,,,,1,,,,,,,,,,,,,,,,,,,,,,,,,,,,,,,,,,,,,,,,,,,,,,130,152014,20,Female,1,2024/03/27_15:23:58,YZ,50.48082710144663,
,,,,,,practice,0,17,1,917,,,,,,,,0.8518518518518517,0.6666666666666666,0.1111111111111111,0.8888888888888888,0.0,0.8888888888888888,0.728624078247473,2,1,0,0,0,8,10,3,9,0,,,,1,,,,,,,,,,,,,,,,,,,,,,,,,,,,,,,,,,,,,,,,,,,,,,130,152014,20,Female,1,2024/03/27_15:23:58,YZ,50.48082710144663,
,,,,,,practice,0,28,1,917,1,C,0,right,1.1630528230016353,1,0,,,,,,,,,,,,,,,,,,,,,1,,,,,,,,,,,,,,,,,,,,,,,,,,,,,,,,,,,,,,,,,,,,,,130,152014,20,Female,1,2024/03/27_15:23:58,YZ,50.48082710144663,
,,,,,,practice,0,28,1,917,2,C,1,left,0.7864182809862541,1,0,,,,,,,,,,,,,,,,,,,,,1,,,,,,,,,,,,,,,,,,,,,,,,,,,,,,,,,,,,,,,,,,,,,,130,152014,20,Female,1,2024/03/27_15:23:58,YZ,50.48082710144663,
,,,,,,practice,0,28,1,917,3,S,0,right,0.6018416709994199,1,0,,,,,,,,,,,,,,,,,,,,,1,,,,,,,,,,,,,,,,,,,,,,,,,,,,,,,,,,,,,,,,,,,,,,130,152014,20,Female,1,2024/03/27_15:23:58,YZ,50.48082710144663,
,,,,,,practice,0,28,1,917,4,S,1,left,1.1377297360013472,1,0,,,,,,,,,,,,,,,,,,,,,1,,,,,,,,,,,,,,,,,,,,,,,,,,,,,,,,,,,,,,,,,,,,,,130,152014,20,Female,1,2024/03/27_15:23:58,YZ,50.48082710144663,
,,,,,,practice,0,28,1,917,5,J,0,right,0.5775735609931871,1,0,,,,,,,,,,,,,,,,,,,,,1,,,,,,,,,,,,,,,,,,,,,,,,,,,,,,,,,,,,,,,,,,,,,,130,152014,20,Female,1,2024/03/27_15:23:58,YZ,50.48082710144663,
,,,,,,practice,0,28,1,917,6,S,0,left,0.5707355560007272,0,0,,,,,,,,,,,,,,,,,,,,,1,,,,,,,,,,,,,,,,,,,,,,,,,,,,,,,,,,,,,,,,,,,,,,130,152014,20,Female,1,2024/03/27_15:23:58,YZ,50.48082710144663,
,,,,,,practice,0,28,1,917,7,Q,0,right,0.5223347370047122,1,0,,,,,,,,,,,,,,,,,,,,,1,,,,,,,,,,,,,,,,,,,,,,,,,,,,,,,,,,,,,,,,,,,,,,130,152014,20,Female,1,2024/03/27_15:23:58,YZ,50.48082710144663,
,,,,,,practice,0,28,1,917,8,C,0,right,0.5943447919999016,1,0,,,,,,,,,,,,,,,,,,,,,1,,,,,,,,,,,,,,,,,,,,,,,,,,,,,,,,,,,,,,,,,,,,,,130,152014,20,Female,1,2024/03/27_15:23:58,YZ,50.48082710144663,
,,,,,,practice,0,28,1,917,9,C,1,left,0.713844304002123,1,0,,,,,,,,,,,,,,,,,,,,,1,,,,,,,,,,,,,,,,,,,,,,,,,,,,,,,,,,,,,,,,,,,,,,130,152014,20,Female,1,2024/03/27_15:23:58,YZ,50.48082710144663,
,,,,,,practice,0,28,1,917,10,V,0,right,0.5541628139908426,1,0,,,,,,,,,,,,,,,,,,,,,1,,,,,,,,,,,,,,,,,,,,,,,,,,,,,,,,,,,,,,,,,,,,,,130,152014,20,Female,1,2024/03/27_15:23:58,YZ,50.48082710144663,
,,,,,,practice,0,28,1,917,11,N,0,right,0.7148928699898534,1,0,,,,,,,,,,,,,,,,,,,,,1,,,,,,,,,,,,,,,,,,,,,,,,,,,,,,,,,,,,,,,,,,,,,,130,152014,20,Female,1,2024/03/27_15:23:58,YZ,50.48082710144663,
,,,,,,practice,0,28,1,917,12,F,0,right,0.6820403739984613,1,0,,,,,,,,,,,,,,,,,,,,,1,,,,,,,,,,,,,,,,,,,,,,,,,,,,,,,,,,,,,,,,,,,,,,130,152014,20,Female,1,2024/03/27_15:23:58,YZ,50.48082710144663,
,,,,,,practice,0,28,1,917,,,,,,,,0.9722222222222222,1.0,0.1111111111111111,0.8888888888888888,0.0,0.8888888888888888,0.7182476265807054,3,1,0,0,0,8,11,3,9,0,,,,1,,,,,,,,,,,,,,,,,,,,,,,,,,,,,,,,,,,,,,,,,,,,,,130,152014,20,Female,1,2024/03/27_15:23:58,YZ,50.48082710144663,
1,./instructions/inst_prac_3/Slide37.png,right,10.27294295601314,678.7821373439947,689.0550803000078,,,,,,,,,,,,,,,,,,,,,,,,,,,,,,,,,1,,,,,,,,,,,,,,,,,,,,,,,,,,,,,,,,,,,,,,,,,,,,,,130,152014,20,Female,1,2024/03/27_15:23:58,YZ,50.48082710144663,
2,./instructions/inst_prac_3/Slide38.png,right,6.854272253011004,689.0886078619951,695.9428801150061,,,,,,,,,,,,,,,,,,,,,,,,,,,,,,,,,1,,,,,,,,,,,,,,,,,,,,,,,,,,,,,,,,,,,,,,,,,,,,,,130,152014,20,Female,1,2024/03/27_15:23:58,YZ,50.48082710144663,
3,./instructions/inst_prac_3/Slide39.png,right,1.406873378000455,695.9760899130051,697.3829632910056,,,,,,,,,,,,,,,,,,,,,,,,,,,,,,,,,1,,,,,,,,,,,,,,,,,,,,,,,,,,,,,,,,,,,,,,,,,,,,,,130,152014,20,Female,1,2024/03/27_15:23:58,YZ,50.48082710144663,
4,./instructions/inst_prac_3/Slide40.png,right,2.526653537992388,697.416347906008,699.9430014440004,,,,,,,,,,,,,,,,,,,,,,,,,,,,,,,,,1,,,,,,,,,,,,,,,,,,,,,,,,,,,,,,,,,,,,,,,,,,,,,,130,152014,20,Female,1,2024/03/27_15:23:58,YZ,50.48082710144663,
5,./instructions/inst_prac_3/Slide41.png,right,4.901558057012153,699.9933561259968,704.894914183009,,,,,,,,,,,,,,,,,,,,,,,,,,,,,,,,,1,,,,,,,,,,,,,,,,,,,,,,,,,,,,,,,,,,,,,,,,,,,,,,130,152014,20,Female,1,2024/03/27_15:23:58,YZ,50.48082710144663,
6,./instructions/inst_prac_3/Slide42.png,right,1.518242656995426,704.9286334750068,706.4468761320022,,,,,,,,,,,,,,,,,,,,,,,,,,,,,,,,,1,,,,,,,,,,,,,,,,,,,,,,,,,,,,,,,,,,,,,,,,,,,,,,130,152014,20,Female,1,2024/03/27_15:23:58,YZ,50.48082710144663,
7,./instructions/inst_prac_3/Slide43.png,right,3.6385723059938755,706.4804048950027,710.1189772009966,,,,,,,,,,,,,,,,,,,,,,,,,,,,,,,,,1,,,,,,,,,,,,,,,,,,,,,,,,,,,,,,,,,,,,,,,,,,,,,,130,152014,20,Female,1,2024/03/27_15:23:58,YZ,50.48082710144663,
8,./instructions/inst_prac_3/Slide44.png,right,2.078569721998065,710.1524052500026,712.2309749720007,,,,,,,,,,,,,,,,,,,,,,,,,,,,,,,,,1,,,,,,,,,,,,,,,,,,,,,,,,,,,,,,,,,,,,,,,,,,,,,,130,152014,20,Female,1,2024/03/27_15:23:58,YZ,50.48082710144663,
,,,,,,practice,0,26,3,788,1,Q,0,right,1.7485000410088105,1,0,,,,,,,,,,,,,,,,,,,,,1,,,,,,,,,,,,,,,,,,,,,,,,,,,,,,,,,,,,,,,,,,,,,,130,152014,20,Female,1,2024/03/27_15:23:58,YZ,50.48082710144663,
,,,,,,practice,0,26,3,788,2,N,0,right,0.6854445300123189,1,0,,,,,,,,,,,,,,,,,,,,,1,,,,,,,,,,,,,,,,,,,,,,,,,,,,,,,,,,,,,,,,,,,,,,130,152014,20,Female,1,2024/03/27_15:23:58,YZ,50.48082710144663,
,,,,,,practice,0,26,3,788,3,Q,0,right,0.24487063000560738,1,0,,,,,,,,,,,,,,,,,,,,,1,,,,,,,,,,,,,,,,,,,,,,,,,,,,,,,,,,,,,,,,,,,,,,130,152014,20,Female,1,2024/03/27_15:23:58,YZ,50.48082710144663,
,,,,,,practice,0,26,3,788,4,Q,1,left,0.7804411929973867,1,0,,,,,,,,,,,,,,,,,,,,,1,,,,,,,,,,,,,,,,,,,,,,,,,,,,,,,,,,,,,,,,,,,,,,130,152014,20,Female,1,2024/03/27_15:23:58,YZ,50.48082710144663,
,,,,,,practice,0,26,3,788,5,V,0,right,2.2276428929908434,1,0,,,,,,,,,,,,,,,,,,,,,1,,,,,,,,,,,,,,,,,,,,,,,,,,,,,,,,,,,,,,,,,,,,,,130,152014,20,Female,1,2024/03/27_15:23:58,YZ,50.48082710144663,
,,,,,,practice,0,26,3,788,6,Q,1,left,1.5729733820044203,1,0,,,,,,,,,,,,,,,,,,,,,1,,,,,,,,,,,,,,,,,,,,,,,,,,,,,,,,,,,,,,,,,,,,,,130,152014,20,Female,1,2024/03/27_15:23:58,YZ,50.48082710144663,
,,,,,,practice,0,26,3,788,7,Q,1,left,1.8290538049914176,1,0,,,,,,,,,,,,,,,,,,,,,1,,,,,,,,,,,,,,,,,,,,,,,,,,,,,,,,,,,,,,,,,,,,,,130,152014,20,Female,1,2024/03/27_15:23:58,YZ,50.48082710144663,
,,,,,,practice,0,26,3,788,8,C,0,right,2.126365933989291,1,0,,,,,,,,,,,,,,,,,,,,,1,,,,,,,,,,,,,,,,,,,,,,,,,,,,,,,,,,,,,,,,,,,,,,130,152014,20,Female,1,2024/03/27_15:23:58,YZ,50.48082710144663,
,,,,,,practice,0,26,3,788,9,J,0,right,0.9094830230023945,1,0,,,,,,,,,,,,,,,,,,,,,1,,,,,,,,,,,,,,,,,,,,,,,,,,,,,,,,,,,,,,,,,,,,,,130,152014,20,Female,1,2024/03/27_15:23:58,YZ,50.48082710144663,
,,,,,,practice,0,26,3,788,10,J,0,left,0.8767463840049459,0,0,,,,,,,,,,,,,,,,,,,,,1,,,,,,,,,,,,,,,,,,,,,,,,,,,,,,,,,,,,,,,,,,,,,,130,152014,20,Female,1,2024/03/27_15:23:58,YZ,50.48082710144663,
,,,,,,practice,0,26,3,788,11,V,0,right,1.4420492869976442,1,0,,,,,,,,,,,,,,,,,,,,,1,,,,,,,,,,,,,,,,,,,,,,,,,,,,,,,,,,,,,,,,,,,,,,130,152014,20,Female,1,2024/03/27_15:23:58,YZ,50.48082710144663,
,,,,,,practice,0,26,3,788,12,J,1,left,0.7653911539964611,1,0,,,,,,,,,,,,,,,,,,,,,1,,,,,,,,,,,,,,,,,,,,,,,,,,,,,,,,,,,,,,,,,,,,,,130,152014,20,Female,1,2024/03/27_15:23:58,YZ,50.48082710144663,
,,,,,,practice,0,26,3,788,13,V,0,right,1.468359299004078,1,0,,,,,,,,,,,,,,,,,,,,,1,,,,,,,,,,,,,,,,,,,,,,,,,,,,,,,,,,,,,,,,,,,,,,130,152014,20,Female,1,2024/03/27_15:23:58,YZ,50.48082710144663,
,,,,,,practice,0,26,3,788,,,,,,,,0.9722222222222222,1.0,0.1111111111111111,0.8888888888888888,0.0,0.8888888888888888,1.282870888846586,4,1,0,0,0,8,12,4,9,0,,,,1,,,,,,,,,,,,,,,,,,,,,,,,,,,,,,,,,,,,,,,,,,,,,,130,152014,20,Female,1,2024/03/27_15:23:58,YZ,50.48082710144663,
1,./instructions/inst_prac_3_next/Slide49.png,right,1.8900614839949412,743.228964725,745.1190262089949,,,,,,,,,,,,,,,,,,,,,,,,,,,,,,,,,1,,,,,,,,,,,,,,,,,,,,,,,,,,,,,,,,,,,,,,,,,,,,,,130,152014,20,Female,1,2024/03/27_15:23:58,YZ,50.48082710144663,
,,,,,,practice,0,11,3,917,1,F,0,right,1.3453584549861262,1,0,,,,,,,,,,,,,,,,,,,,,1,,,,,,,,,,,,,,,,,,,,,,,,,,,,,,,,,,,,,,,,,,,,,,130,152014,20,Female,1,2024/03/27_15:23:58,YZ,50.48082710144663,
,,,,,,practice,0,11,3,917,2,C,0,right,0.6181264860060764,1,0,,,,,,,,,,,,,,,,,,,,,1,,,,,,,,,,,,,,,,,,,,,,,,,,,,,,,,,,,,,,,,,,,,,,130,152014,20,Female,1,2024/03/27_15:23:58,YZ,50.48082710144663,
,,,,,,practice,0,11,3,917,3,N,0,right,0.41789069899823517,1,0,,,,,,,,,,,,,,,,,,,,,1,,,,,,,,,,,,,,,,,,,,,,,,,,,,,,,,,,,,,,,,,,,,,,130,152014,20,Female,1,2024/03/27_15:23:58,YZ,50.48082710144663,
,,,,,,practice,0,11,3,917,4,Q,0,right,0.6825545050087385,1,0,,,,,,,,,,,,,,,,,,,,,1,,,,,,,,,,,,,,,,,,,,,,,,,,,,,,,,,,,,,,,,,,,,,,130,152014,20,Female,1,2024/03/27_15:23:58,YZ,50.48082710144663,
,,,,,,practice,0,11,3,917,5,V,0,right,0.5779995719931321,1,0,,,,,,,,,,,,,,,,,,,,,1,,,,,,,,,,,,,,,,,,,,,,,,,,,,,,,,,,,,,,,,,,,,,,130,152014,20,Female,1,2024/03/27_15:23:58,YZ,50.48082710144663,
,,,,,,practice,0,11,3,917,6,C,0,right,0.9612544749979861,1,0,,,,,,,,,,,,,,,,,,,,,1,,,,,,,,,,,,,,,,,,,,,,,,,,,,,,,,,,,,,,,,,,,,,,130,152014,20,Female,1,2024/03/27_15:23:58,YZ,50.48082710144663,
,,,,,,practice,0,11,3,917,7,Q,1,left,1.1619936200004304,1,0,,,,,,,,,,,,,,,,,,,,,1,,,,,,,,,,,,,,,,,,,,,,,,,,,,,,,,,,,,,,,,,,,,,,130,152014,20,Female,1,2024/03/27_15:23:58,YZ,50.48082710144663,
,,,,,,practice,0,11,3,917,8,Q,0,left,1.507152402002248,0,0,,,,,,,,,,,,,,,,,,,,,1,,,,,,,,,,,,,,,,,,,,,,,,,,,,,,,,,,,,,,,,,,,,,,130,152014,20,Female,1,2024/03/27_15:23:58,YZ,50.48082710144663,
,,,,,,practice,0,11,3,917,9,N,0,right,1.2263240219908766,1,0,,,,,,,,,,,,,,,,,,,,,1,,,,,,,,,,,,,,,,,,,,,,,,,,,,,,,,,,,,,,,,,,,,,,130,152014,20,Female,1,2024/03/27_15:23:58,YZ,50.48082710144663,
,,,,,,practice,0,11,3,917,10,J,0,right,1.362596378006856,1,0,,,,,,,,,,,,,,,,,,,,,1,,,,,,,,,,,,,,,,,,,,,,,,,,,,,,,,,,,,,,,,,,,,,,130,152014,20,Female,1,2024/03/27_15:23:58,YZ,50.48082710144663,
,,,,,,practice,0,11,3,917,11,Q,1,left,1.2503740539978025,1,0,,,,,,,,,,,,,,,,,,,,,1,,,,,,,,,,,,,,,,,,,,,,,,,,,,,,,,,,,,,,,,,,,,,,130,152014,20,Female,1,2024/03/27_15:23:58,YZ,50.48082710144663,
,,,,,,practice,0,11,3,917,12,N,1,right,0.714644699008204,0,0,,,,,,,,,,,,,,,,,,,,,1,,,,,,,,,,,,,,,,,,,,,,,,,,,,,,,,,,,,,,,,,,,,,,130,152014,20,Female,1,2024/03/27_15:23:58,YZ,50.48082710144663,
,,,,,,practice,0,11,3,917,,,,,,,,0.8518518518518517,0.6666666666666666,0.1111111111111111,0.8888888888888888,0.0,0.8888888888888888,0.985522447249726,2,1,0,0,0,8,10,3,9,0,,,,1,,,,,,,,,,,,,,,,,,,,,,,,,,,,,,,,,,,,,,,,,,,,,,130,152014,20,Female,1,2024/03/27_15:23:58,YZ,50.48082710144663,
,,,,,,practice,0,19,3,917,1,F,0,right,1.3228786999970907,1,0,,,,,,,,,,,,,,,,,,,,,1,,,,,,,,,,,,,,,,,,,,,,,,,,,,,,,,,,,,,,,,,,,,,,130,152014,20,Female,1,2024/03/27_15:23:58,YZ,50.48082710144663,
,,,,,,practice,0,19,3,917,2,S,0,right,0.4026834089891054,1,0,,,,,,,,,,,,,,,,,,,,,1,,,,,,,,,,,,,,,,,,,,,,,,,,,,,,,,,,,,,,,,,,,,,,130,152014,20,Female,1,2024/03/27_15:23:58,YZ,50.48082710144663,
,,,,,,practice,0,19,3,917,3,F,0,right,0.3864107029949082,1,0,,,,,,,,,,,,,,,,,,,,,1,,,,,,,,,,,,,,,,,,,,,,,,,,,,,,,,,,,,,,,,,,,,,,130,152014,20,Female,1,2024/03/27_15:23:58,YZ,50.48082710144663,
,,,,,,practice,0,19,3,917,4,S,0,right,1.9224888860044302,1,0,,,,,,,,,,,,,,,,,,,,,1,,,,,,,,,,,,,,,,,,,,,,,,,,,,,,,,,,,,,,,,,,,,,,130,152014,20,Female,1,2024/03/27_15:23:58,YZ,50.48082710144663,
,,,,,,practice,0,19,3,917,5,V,0,right,1.2896626760048093,1,0,,,,,,,,,,,,,,,,,,,,,1,,,,,,,,,,,,,,,,,,,,,,,,,,,,,,,,,,,,,,,,,,,,,,130,152014,20,Female,1,2024/03/27_15:23:58,YZ,50.48082710144663,
,,,,,,practice,0,19,3,917,6,J,0,right,1.5466572629957227,1,0,,,,,,,,,,,,,,,,,,,,,1,,,,,,,,,,,,,,,,,,,,,,,,,,,,,,,,,,,,,,,,,,,,,,130,152014,20,Female,1,2024/03/27_15:23:58,YZ,50.48082710144663,
,,,,,,practice,0,19,3,917,7,V,0,right,1.4744564470020123,1,0,,,,,,,,,,,,,,,,,,,,,1,,,,,,,,,,,,,,,,,,,,,,,,,,,,,,,,,,,,,,,,,,,,,,130,152014,20,Female,1,2024/03/27_15:23:58,YZ,50.48082710144663,
,,,,,,practice,0,19,3,917,8,V,1,right,0.6340123960108031,0,0,,,,,,,,,,,,,,,,,,,,,1,,,,,,,,,,,,,,,,,,,,,,,,,,,,,,,,,,,,,,,,,,,,,,130,152014,20,Female,1,2024/03/27_15:23:58,YZ,50.48082710144663,
,,,,,,practice,0,19,3,917,9,S,0,left,2.186354075995041,0,0,,,,,,,,,,,,,,,,,,,,,1,,,,,,,,,,,,,,,,,,,,,,,,,,,,,,,,,,,,,,,,,,,,,,130,152014,20,Female,1,2024/03/27_15:23:58,YZ,50.48082710144663,
,,,,,,practice,0,19,3,917,10,V,1,right,0.8499490300018806,0,0,,,,,,,,,,,,,,,,,,,,,1,,,,,,,,,,,,,,,,,,,,,,,,,,,,,,,,,,,,,,,,,,,,,,130,152014,20,Female,1,2024/03/27_15:23:58,YZ,50.48082710144663,
,,,,,,practice,0,19,3,917,11,X,0,right,0.5378925419936422,1,0,,,,,,,,,,,,,,,,,,,,,1,,,,,,,,,,,,,,,,,,,,,,,,,,,,,,,,,,,,,,,,,,,,,,130,152014,20,Female,1,2024/03/27_15:23:58,YZ,50.48082710144663,
,,,,,,practice,0,19,3,917,12,S,1,right,0.593941665996681,0,0,,,,,,,,,,,,,,,,,,,,,1,,,,,,,,,,,,,,,,,,,,,,,,,,,,,,,,,,,,,,,,,,,,,,130,152014,20,Female,1,2024/03/27_15:23:58,YZ,50.48082710144663,
,,,,,,practice,0,19,3,917,,,,,,,,0.2222222222222222,0.0,0.1111111111111111,0.8888888888888888,0.0,0.8888888888888888,1.0956156494988438,0,1,0,0,0,8,8,3,9,0,,,,1,,,,,,,,,,,,,,,,,,,,,,,,,,,,,,,,,,,,,,,,,,,,,,130,152014,20,Female,1,2024/03/27_15:23:58,YZ,50.48082710144663,
1,./instructions/inst_redo_3/Slide47.png,right,11.161783354007639,785.5172060100012,796.6789893640089,,,,,,,,,,,,,,,,,,,,,,,,,,,,,,,,,1,,,,,,,,,,,,,,,,,,,,,,,,,,,,,,,,,,,,,,,,,,,,,,130,152014,20,Female,1,2024/03/27_15:23:58,YZ,50.48082710144663,
,,,,,,practice,0,8,3,917,1,Q,0,right,1.359611831008806,1,0,,,,,,,,,,,,,,,,,,,,,1,,,,,,,,,,,,,,,,,,,,,,,,,,,,,,,,,,,,,,,,,,,,,,130,152014,20,Female,1,2024/03/27_15:23:58,YZ,50.48082710144663,
,,,,,,practice,0,8,3,917,2,Q,0,right,0.650447879001149,1,0,,,,,,,,,,,,,,,,,,,,,1,,,,,,,,,,,,,,,,,,,,,,,,,,,,,,,,,,,,,,,,,,,,,,130,152014,20,Female,1,2024/03/27_15:23:58,YZ,50.48082710144663,
,,,,,,practice,0,8,3,917,3,X,0,right,1.2255090230028145,1,0,,,,,,,,,,,,,,,,,,,,,1,,,,,,,,,,,,,,,,,,,,,,,,,,,,,,,,,,,,,,,,,,,,,,130,152014,20,Female,1,2024/03/27_15:23:58,YZ,50.48082710144663,
,,,,,,practice,0,8,3,917,4,N,0,right,1.1141701360029401,1,0,,,,,,,,,,,,,,,,,,,,,1,,,,,,,,,,,,,,,,,,,,,,,,,,,,,,,,,,,,,,,,,,,,,,130,152014,20,Female,1,2024/03/27_15:23:58,YZ,50.48082710144663,
,,,,,,practice,0,8,3,917,5,S,0,right,2.5464994439971633,1,0,,,,,,,,,,,,,,,,,,,,,1,,,,,,,,,,,,,,,,,,,,,,,,,,,,,,,,,,,,,,,,,,,,,,130,152014,20,Female,1,2024/03/27_15:23:58,YZ,50.48082710144663,
,,,,,,practice,0,8,3,917,6,S,0,right,1.3862679440062493,1,0,,,,,,,,,,,,,,,,,,,,,1,,,,,,,,,,,,,,,,,,,,,,,,,,,,,,,,,,,,,,,,,,,,,,130,152014,20,Female,1,2024/03/27_15:23:58,YZ,50.48082710144663,
,,,,,,practice,0,8,3,917,7,N,1,left,0.9060463070054539,1,0,,,,,,,,,,,,,,,,,,,,,1,,,,,,,,,,,,,,,,,,,,,,,,,,,,,,,,,,,,,,,,,,,,,,130,152014,20,Female,1,2024/03/27_15:23:58,YZ,50.48082710144663,
,,,,,,practice,0,8,3,917,8,C,0,right,0.47346773599565495,1,0,,,,,,,,,,,,,,,,,,,,,1,,,,,,,,,,,,,,,,,,,,,,,,,,,,,,,,,,,,,,,,,,,,,,130,152014,20,Female,1,2024/03/27_15:23:58,YZ,50.48082710144663,
,,,,,,practice,0,8,3,917,9,V,0,right,1.0263069509965135,1,0,,,,,,,,,,,,,,,,,,,,,1,,,,,,,,,,,,,,,,,,,,,,,,,,,,,,,,,,,,,,,,,,,,,,130,152014,20,Female,1,2024/03/27_15:23:58,YZ,50.48082710144663,
,,,,,,practice,0,8,3,917,10,N,1,right,0.5709425919922069,0,0,,,,,,,,,,,,,,,,,,,,,1,,,,,,,,,,,,,,,,,,,,,,,,,,,,,,,,,,,,,,,,,,,,,,130,152014,20,Female,1,2024/03/27_15:23:58,YZ,50.48082710144663,
,,,,,,practice,0,8,3,917,11,C,1,left,0.6118498590076342,1,0,,,,,,,,,,,,,,,,,,,,,1,,,,,,,,,,,,,,,,,,,,,,,,,,,,,,,,,,,,,,,,,,,,,,130,152014,20,Female,1,2024/03/27_15:23:58,YZ,50.48082710144663,
,,,,,,practice,0,8,3,917,12,F,0,right,0.5141243940015556,1,0,,,,,,,,,,,,,,,,,,,,,1,,,,,,,,,,,,,,,,,,,,,,,,,,,,,,,,,,,,,,,,,,,,,,130,152014,20,Female,1,2024/03/27_15:23:58,YZ,50.48082710144663,
,,,,,,practice,0,8,3,917,,,,,,,,0.9166666666666666,0.6666666666666666,0.0,1.0,0.0,1.0,1.0321036746681784,2,0,0,0,0,9,11,3,9,0,,,,1,,,,,,,,,,,,,,,,,,,,,,,,,,,,,,,,,,,,,,,,,,,,,,130,152014,20,Female,1,2024/03/27_15:23:58,YZ,50.48082710144663,
1,./instructions/inst_prac_main/Slide51.png,right,3.126209577996633,818.0407172870036,821.1669268650003,,,,,,,,,,,,,,,,,,,,,,,,,,,,,,,,,1,,,,,,,,,,,,,,,,,,,,,,,,,,,,,,,,,,,,,,,,,,,,,,130,152014,20,Female,1,2024/03/27_15:23:58,YZ,50.48082710144663,
2,./instructions/inst_prac_main/Slide52.png,right,14.655069172993535,821.1998071550042,835.8548763279978,,,,,,,,,,,,,,,,,,,,,,,,,,,,,,,,,1,,,,,,,,,,,,,,,,,,,,,,,,,,,,,,,,,,,,,,,,,,,,,,130,152014,20,Female,1,2024/03/27_15:23:58,YZ,50.48082710144663,
3,./instructions/inst_prac_main/Slide53.png,right,5.879306275994168,835.8877514710039,841.767057746998,,,,,,,,,,,,,,,,,,,,,,,,,,,,,,,,,1,,,,,,,,,,,,,,,,,,,,,,,,,,,,,,,,,,,,,,,,,,,,,,130,152014,20,Female,1,2024/03/27_15:23:58,YZ,50.48082710144663,
4,./instructions/inst_prac_main/Slide54.png,right,13.898860308996518,841.8360861469992,855.7349464559957,,,,,,,,,,,,,,,,,,,,,,,,,,,,,,,,,1,,,,,,,,,,,,,,,,,,,,,,,,,,,,,,,,,,,,,,,,,,,,,,130,152014,20,Female,1,2024/03/27_15:23:58,YZ,50.48082710144663,
,,,,,,practice_main,0,1,1,917,1,V,0,right,0.7144392050104216,1,0,,,,,,,,,,,,,,,,,,,,,1,,,,,,,,,,,,,,,,,,,,,,,,,,,,,,,,,,,,,,,,,,,,,,130,152014,20,Female,1,2024/03/27_15:23:58,YZ,50.48082710144663,
,,,,,,practice_main,0,1,1,917,2,V,1,left,0.5753378040099051,1,0,,,,,,,,,,,,,,,,,,,,,1,,,,,,,,,,,,,,,,,,,,,,,,,,,,,,,,,,,,,,,,,,,,,,130,152014,20,Female,1,2024/03/27_15:23:58,YZ,50.48082710144663,
,,,,,,practice_main,0,1,1,917,3,F,0,right,0.5348429680016125,1,0,,,,,,,,,,,,,,,,,,,,,1,,,,,,,,,,,,,,,,,,,,,,,,,,,,,,,,,,,,,,,,,,,,,,130,152014,20,Female,1,2024/03/27_15:23:58,YZ,50.48082710144663,
,,,,,,practice_main,0,1,1,917,4,V,0,right,0.8735061019979184,1,0,,,,,,,,,,,,,,,,,,,,,1,,,,,,,,,,,,,,,,,,,,,,,,,,,,,,,,,,,,,,,,,,,,,,130,152014,20,Female,1,2024/03/27_15:23:58,YZ,50.48082710144663,
,,,,,,practice_main,0,1,1,917,5,X,0,right,0.6939634109876351,1,0,,,,,,,,,,,,,,,,,,,,,1,,,,,,,,,,,,,,,,,,,,,,,,,,,,,,,,,,,,,,,,,,,,,,130,152014,20,Female,1,2024/03/27_15:23:58,YZ,50.48082710144663,
,,,,,,practice_main,0,1,1,917,6,X,1,left,0.6345194590103347,1,0,,,,,,,,,,,,,,,,,,,,,1,,,,,,,,,,,,,,,,,,,,,,,,,,,,,,,,,,,,,,,,,,,,,,130,152014,20,Female,1,2024/03/27_15:23:58,YZ,50.48082710144663,
,,,,,,practice_main,0,1,1,917,7,N,0,right,0.407282728003338,1,0,,,,,,,,,,,,,,,,,,,,,1,,,,,,,,,,,,,,,,,,,,,,,,,,,,,,,,,,,,,,,,,,,,,,130,152014,20,Female,1,2024/03/27_15:23:58,YZ,50.48082710144663,
,,,,,,practice_main,0,1,1,917,8,N,1,left,0.7142618619982386,1,0,,,,,,,,,,,,,,,,,,,,,1,,,,,,,,,,,,,,,,,,,,,,,,,,,,,,,,,,,,,,,,,,,,,,130,152014,20,Female,1,2024/03/27_15:23:58,YZ,50.48082710144663,
,,,,,,practice_main,0,1,1,917,9,V,0,right,0.47907108899380546,1,0,,,,,,,,,,,,,,,,,,,,,1,,,,,,,,,,,,,,,,,,,,,,,,,,,,,,,,,,,,,,,,,,,,,,130,152014,20,Female,1,2024/03/27_15:23:58,YZ,50.48082710144663,
,,,,,,practice_main,0,1,1,917,10,S,0,right,0.534753625994199,1,0,,,,,,,,,,,,,,,,,,,,,1,,,,,,,,,,,,,,,,,,,,,,,,,,,,,,,,,,,,,,,,,,,,,,130,152014,20,Female,1,2024/03/27_15:23:58,YZ,50.48082710144663,
,,,,,,practice_main,0,1,1,917,11,N,0,right,0.4892960610013688,1,0,,,,,,,,,,,,,,,,,,,,,1,,,,,,,,,,,,,,,,,,,,,,,,,,,,,,,,,,,,,,,,,,,,,,130,152014,20,Female,1,2024/03/27_15:23:58,YZ,50.48082710144663,
,,,,,,practice_main,0,1,1,917,12,X,0,right,0.47478156599390786,1,0,,,,,,,,,,,,,,,,,,,,,1,,,,,,,,,,,,,,,,,,,,,,,,,,,,,,,,,,,,,,,,,,,,,,130,152014,20,Female,1,2024/03/27_15:23:58,YZ,50.48082710144663,
,,,,,,practice_main,0,1,1,917,,,,,,,,1.0,1.0,0.0,1.0,0.0,1.0,0.5938379900835571,3,0,0,0,0,9,12,3,9,0,,,,1,,,,,,,,,,,,,,,,,,,,,,,,,,,,,,,,,,,,,,,,,,,,,,130,152014,20,Female,1,2024/03/27_15:23:58,YZ,50.48082710144663,
,,,,,240327_161441,PRACTICE,0,1,1,917,,,,,,,,,,,,,,,,,,,,,,,,,,,,1,44,1,1,cue2.png,easy,B,9,1.535801669000648,0,858.8499218729994,860.4235139619996,,,,,,,,,,,,,,,,,,,,,,,,,,,,,,,,,,,130,152014,20,Female,1,2024/03/27_15:23:58,YZ,50.48082710144663,
,,,,,,practice_main,0,2,3,917,1,X,0,right,0.3112273299921071,1,0,,,,,,,,,,,,,,,,,,,,,1,,,,,,,,,,,,,,,,,,,,,,,,,,,,,,,,,,,,,,,,,,,,,,130,152014,20,Female,1,2024/03/27_15:23:58,YZ,50.48082710144663,
,,,,,,practice_main,0,2,3,917,2,X,0,right,0.47420489400974475,1,0,,,,,,,,,,,,,,,,,,,,,1,,,,,,,,,,,,,,,,,,,,,,,,,,,,,,,,,,,,,,,,,,,,,,130,152014,20,Female,1,2024/03/27_15:23:58,YZ,50.48082710144663,
,,,,,,practice_main,0,2,3,917,3,F,0,right,0.33810891999746673,1,0,,,,,,,,,,,,,,,,,,,,,1,,,,,,,,,,,,,,,,,,,,,,,,,,,,,,,,,,,,,,,,,,,,,,130,152014,20,Female,1,2024/03/27_15:23:58,YZ,50.48082710144663,
,,,,,,practice_main,0,2,3,917,4,J,0,right,0.5351120669947704,1,0,,,,,,,,,,,,,,,,,,,,,1,,,,,,,,,,,,,,,,,,,,,,,,,,,,,,,,,,,,,,,,,,,,,,130,152014,20,Female,1,2024/03/27_15:23:58,YZ,50.48082710144663,
,,,,,,practice_main,0,2,3,917,5,F,0,right,0.7551747519901255,1,0,,,,,,,,,,,,,,,,,,,,,1,,,,,,,,,,,,,,,,,,,,,,,,,,,,,,,,,,,,,,,,,,,,,,130,152014,20,Female,1,2024/03/27_15:23:58,YZ,50.48082710144663,
,,,,,,practice_main,0,2,3,917,6,J,0,right,1.2313756270013982,1,0,,,,,,,,,,,,,,,,,,,,,1,,,,,,,,,,,,,,,,,,,,,,,,,,,,,,,,,,,,,,,,,,,,,,130,152014,20,Female,1,2024/03/27_15:23:58,YZ,50.48082710144663,
,,,,,,practice_main,0,2,3,917,7,C,0,right,0.5745180359954247,1,0,,,,,,,,,,,,,,,,,,,,,1,,,,,,,,,,,,,,,,,,,,,,,,,,,,,,,,,,,,,,,,,,,,,,130,152014,20,Female,1,2024/03/27_15:23:58,YZ,50.48082710144663,
,,,,,,practice_main,0,2,3,917,8,F,1,right,0.460400320996996,0,0,,,,,,,,,,,,,,,,,,,,,1,,,,,,,,,,,,,,,,,,,,,,,,,,,,,,,,,,,,,,,,,,,,,,130,152014,20,Female,1,2024/03/27_15:23:58,YZ,50.48082710144663,
,,,,,,practice_main,0,2,3,917,9,X,0,right,0.9933621199888876,1,0,,,,,,,,,,,,,,,,,,,,,1,,,,,,,,,,,,,,,,,,,,,,,,,,,,,,,,,,,,,,,,,,,,,,130,152014,20,Female,1,2024/03/27_15:23:58,YZ,50.48082710144663,
,,,,,,practice_main,0,2,3,917,10,X,0,left,0.7542295099992771,0,0,,,,,,,,,,,,,,,,,,,,,1,,,,,,,,,,,,,,,,,,,,,,,,,,,,,,,,,,,,,,,,,,,,,,130,152014,20,Female,1,2024/03/27_15:23:58,YZ,50.48082710144663,
,,,,,,practice_main,0,2,3,917,11,F,1,right,0.4605524499929743,0,0,,,,,,,,,,,,,,,,,,,,,1,,,,,,,,,,,,,,,,,,,,,,,,,,,,,,,,,,,,,,,,,,,,,,130,152014,20,Female,1,2024/03/27_15:23:58,YZ,50.48082710144663,
,,,,,,practice_main,0,2,3,917,12,X,1,right,0.555223297997145,0,0,,,,,,,,,,,,,,,,,,,,,1,,,,,,,,,,,,,,,,,,,,,,,,,,,,,,,,,,,,,,,,,,,,,,130,152014,20,Female,1,2024/03/27_15:23:58,YZ,50.48082710144663,
,,,,,,practice_main,0,2,3,917,,,,,,,,0.2222222222222222,0.0,0.1111111111111111,0.8888888888888888,0.0,0.8888888888888888,0.6202907770796932,0,1,0,0,0,8,8,3,9,0,,,,1,,,,,,,,,,,,,,,,,,,,,,,,,,,,,,,,,,,,,,,,,,,,,,130,152014,20,Female,1,2024/03/27_15:23:58,YZ,50.48082710144663,
,,,,,240327_161505,PRACTICE,0,2,3,917,,,,,,,,,,,,,,,,,,,,,,,,,,,,1,38,2,2,cue1.png,hard,B,35,1.0247859329974744,0,883.2343760530057,884.2871487109951,,,,,,,,,,,,,,,,,,,,,,,,,,,,,,,,,,,130,152014,20,Female,1,2024/03/27_15:23:58,YZ,50.48082710144663,
,,,,,,practice_main,0,3,3,917,1,Q,0,right,0.9938095550023718,1,0,,,,,,,,,,,,,,,,,,,,,1,,,,,,,,,,,,,,,,,,,,,,,,,,,,,,,,,,,,,,,,,,,,,,130,152014,20,Female,1,2024/03/27_15:23:58,YZ,50.48082710144663,
,,,,,,practice_main,0,3,3,917,2,V,0,right,0.5896188579936279,1,0,,,,,,,,,,,,,,,,,,,,,1,,,,,,,,,,,,,,,,,,,,,,,,,,,,,,,,,,,,,,,,,,,,,,130,152014,20,Female,1,2024/03/27_15:23:58,YZ,50.48082710144663,
,,,,,,practice_main,0,3,3,917,3,F,0,right,0.5565623110014712,1,0,,,,,,,,,,,,,,,,,,,,,1,,,,,,,,,,,,,,,,,,,,,,,,,,,,,,,,,,,,,,,,,,,,,,130,152014,20,Female,1,2024/03/27_15:23:58,YZ,50.48082710144663,
,,,,,,practice_main,0,3,3,917,4,F,0,right,0.8485477030044422,1,0,,,,,,,,,,,,,,,,,,,,,1,,,,,,,,,,,,,,,,,,,,,,,,,,,,,,,,,,,,,,,,,,,,,,130,152014,20,Female,1,2024/03/27_15:23:58,YZ,50.48082710144663,
,,,,,,practice_main,0,3,3,917,5,V,1,left,1.2140685499907704,1,0,,,,,,,,,,,,,,,,,,,,,1,,,,,,,,,,,,,,,,,,,,,,,,,,,,,,,,,,,,,,,,,,,,,,130,152014,20,Female,1,2024/03/27_15:23:58,YZ,50.48082710144663,
,,,,,,practice_main,0,3,3,917,6,F,1,right,0.5497061519999988,0,0,,,,,,,,,,,,,,,,,,,,,1,,,,,,,,,,,,,,,,,,,,,,,,,,,,,,,,,,,,,,,,,,,,,,130,152014,20,Female,1,2024/03/27_15:23:58,YZ,50.48082710144663,
,,,,,,practice_main,0,3,3,917,7,Q,0,left,0.5347686690074624,0,0,,,,,,,,,,,,,,,,,,,,,1,,,,,,,,,,,,,,,,,,,,,,,,,,,,,,,,,,,,,,,,,,,,,,130,152014,20,Female,1,2024/03/27_15:23:58,YZ,50.48082710144663,
,,,,,,practice_main,0,3,3,917,8,F,0,right,0.31046453000453766,1,0,,,,,,,,,,,,,,,,,,,,,1,,,,,,,,,,,,,,,,,,,,,,,,,,,,,,,,,,,,,,,,,,,,,,130,152014,20,Female,1,2024/03/27_15:23:58,YZ,50.48082710144663,
,,,,,,practice_main,0,3,3,917,9,V,0,right,0.6142509610072011,1,0,,,,,,,,,,,,,,,,,,,,,1,,,,,,,,,,,,,,,,,,,,,,,,,,,,,,,,,,,,,,,,,,,,,,130,152014,20,Female,1,2024/03/27_15:23:58,YZ,50.48082710144663,
,,,,,,practice_main,0,3,3,917,10,C,0,right,0.7538186250021681,1,0,,,,,,,,,,,,,,,,,,,,,1,,,,,,,,,,,,,,,,,,,,,,,,,,,,,,,,,,,,,,,,,,,,,,130,152014,20,Female,1,2024/03/27_15:23:58,YZ,50.48082710144663,
,,,,,,practice_main,0,3,3,917,11,C,0,right,0.7738279110053554,1,0,,,,,,,,,,,,,,,,,,,,,1,,,,,,,,,,,,,,,,,,,,,,,,,,,,,,,,,,,,,,,,,,,,,,130,152014,20,Female,1,2024/03/27_15:23:58,YZ,50.48082710144663,
,,,,,,practice_main,0,3,3,917,12,V,1,left,0.6141396869934397,1,0,,,,,,,,,,,,,,,,,,,,,1,,,,,,,,,,,,,,,,,,,,,,,,,,,,,,,,,,,,,,,,,,,,,,130,152014,20,Female,1,2024/03/27_15:23:58,YZ,50.48082710144663,
,,,,,,practice_main,0,3,3,917,,,,,,,,0.8518518518518517,0.6666666666666666,0.1111111111111111,0.8888888888888888,0.0,0.8888888888888888,0.6961319593344039,2,1,0,0,0,8,10,3,9,0,,,,1,,,,,,,,,,,,,,,,,,,,,,,,,,,,,,,,,,,,,,,,,,,,,,130,152014,20,Female,1,2024/03/27_15:23:58,YZ,50.48082710144663,
,,,,,240327_161531,PRACTICE,0,3,3,917,,,,,,,,,,,,,,,,,,,,,,,,,,,,1,22,3,3,cue1.png,hard,B,42,1.7867674969893415,0,907.3726013910054,909.1862651870033,,,,,,,,,,,,,,,,,,,,,,,,,,,,,,,,,,,130,152014,20,Female,1,2024/03/27_15:23:58,YZ,50.48082710144663,
1,./instructions/inst_prac_end/Slide56.png,right,19.246593939999002,931.8322935479955,951.0788874879945,,,,,,,,,,,,,,,,,,,,,,,,,,,,,,,,,1,,,,,,,,,,,,,,,,,,,,,,,,,,,,,,,,,,,,,,,,,,,,,,130,152014,20,Female,1,2024/03/27_15:23:58,YZ,50.48082710144663,
1,./instructions/inst_test/Slide57.png,right,31.107012781998492,951.1478416360042,982.2548544180027,,,,,,,,,,,,,,,,,,,,,,,,,,,,,,,,,1,,,,,,,,,,,,,,,,,,,,,,,,,,,,,,,,,,,,,,,,,,,,,,130,152014,20,Female,1,2024/03/27_15:23:58,YZ,50.48082710144663,
,,,,,,test,1,1,1,917,1,N,0,right,0.47849577899614815,1,0,,,,,,,,,,,,,,,,,,,,,1,,,,,,,,,,,,,,,,,,,,,,,,,,,,,,,,,,,,,,,,,,,,,,130,152014,20,Female,1,2024/03/27_15:23:58,YZ,50.48082710144663,
,,,,,,test,1,1,1,917,2,V,0,right,0.4270786080014659,1,0,,,,,,,,,,,,,,,,,,,,,1,,,,,,,,,,,,,,,,,,,,,,,,,,,,,,,,,,,,,,,,,,,,,,130,152014,20,Female,1,2024/03/27_15:23:58,YZ,50.48082710144663,
,,,,,,test,1,1,1,917,3,V,1,left,0.674624267994659,1,0,,,,,,,,,,,,,,,,,,,,,1,,,,,,,,,,,,,,,,,,,,,,,,,,,,,,,,,,,,,,,,,,,,,,130,152014,20,Female,1,2024/03/27_15:23:58,YZ,50.48082710144663,
,,,,,,test,1,1,1,917,4,F,0,right,0.4865484280016972,1,0,,,,,,,,,,,,,,,,,,,,,1,,,,,,,,,,,,,,,,,,,,,,,,,,,,,,,,,,,,,,,,,,,,,,130,152014,20,Female,1,2024/03/27_15:23:58,YZ,50.48082710144663,
,,,,,,test,1,1,1,917,5,Q,0,right,0.7140941139950883,1,0,,,,,,,,,,,,,,,,,,,,,1,,,,,,,,,,,,,,,,,,,,,,,,,,,,,,,,,,,,,,,,,,,,,,130,152014,20,Female,1,2024/03/27_15:23:58,YZ,50.48082710144663,
,,,,,,test,1,1,1,917,6,N,0,right,0.6142715669993777,1,0,,,,,,,,,,,,,,,,,,,,,1,,,,,,,,,,,,,,,,,,,,,,,,,,,,,,,,,,,,,,,,,,,,,,130,152014,20,Female,1,2024/03/27_15:23:58,YZ,50.48082710144663,
,,,,,,test,1,1,1,917,7,C,0,right,0.5151537759957137,1,0,,,,,,,,,,,,,,,,,,,,,1,,,,,,,,,,,,,,,,,,,,,,,,,,,,,,,,,,,,,,,,,,,,,,130,152014,20,Female,1,2024/03/27_15:23:58,YZ,50.48082710144663,
,,,,,,test,1,1,1,917,8,C,1,left,0.44337380900105927,1,0,,,,,,,,,,,,,,,,,,,,,1,,,,,,,,,,,,,,,,,,,,,,,,,,,,,,,,,,,,,,,,,,,,,,130,152014,20,Female,1,2024/03/27_15:23:58,YZ,50.48082710144663,
,,,,,,test,1,1,1,917,9,F,0,right,0.37865191700984724,1,0,,,,,,,,,,,,,,,,,,,,,1,,,,,,,,,,,,,,,,,,,,,,,,,,,,,,,,,,,,,,,,,,,,,,130,152014,20,Female,1,2024/03/27_15:23:58,YZ,50.48082710144663,
,,,,,,test,1,1,1,917,10,N,0,right,0.4500367720029317,1,0,,,,,,,,,,,,,,,,,,,,,1,,,,,,,,,,,,,,,,,,,,,,,,,,,,,,,,,,,,,,,,,,,,,,130,152014,20,Female,1,2024/03/27_15:23:58,YZ,50.48082710144663,
,,,,,,test,1,1,1,917,11,Q,0,right,0.4424492810067022,1,0,,,,,,,,,,,,,,,,,,,,,1,,,,,,,,,,,,,,,,,,,,,,,,,,,,,,,,,,,,,,,,,,,,,,130,152014,20,Female,1,2024/03/27_15:23:58,YZ,50.48082710144663,
,,,,,,test,1,1,1,917,12,Q,1,left,0.3621250440046424,1,0,,,,,,,,,,,,,,,,,,,,,1,,,,,,,,,,,,,,,,,,,,,,,,,,,,,,,,,,,,,,,,,,,,,,130,152014,20,Female,1,2024/03/27_15:23:58,YZ,50.48082710144663,
,,,,,,Test,1,1,1,917,,,,,,,,1.0,1.0,0.0,1.0,0.0,1.0,0.49890861358411104,3,0,0,0,0,9,12,3,9,0,,,,1,,,,,,,,,,,,,,,,,,,,,,,,,,,,,,,,,,,,,,,,,,,,,,130,152014,20,Female,1,2024/03/27_15:23:58,YZ,50.48082710144663,
,,,,,240327_161647,TEST,1,1,1,917,,,,,,,,,,,,,,,,,,,,,,,,,,,,1,1,1,1,cue2.png,easy,B,48,0.6147627040045336,0,987.313136968005,987.9572118649958,,,,,,,,,,,,,,,,,,,,,,,,,,,,,,,,,,,130,152014,20,Female,1,2024/03/27_15:23:58,YZ,50.48082710144663,
,,,,,,test,1,2,3,917,1,X,0,right,1.1063740570098162,1,0,,,,,,,,,,,,,,,,,,,,,1,,,,,,,,,,,,,,,,,,,,,,,,,,,,,,,,,,,,,,,,,,,,,,130,152014,20,Female,1,2024/03/27_15:23:58,YZ,50.48082710144663,
,,,,,,test,1,2,3,917,2,X,0,right,0.4230924590083305,1,0,,,,,,,,,,,,,,,,,,,,,1,,,,,,,,,,,,,,,,,,,,,,,,,,,,,,,,,,,,,,,,,,,,,,130,152014,20,Female,1,2024/03/27_15:23:58,YZ,50.48082710144663,
,,,,,,test,1,2,3,917,3,F,0,right,0.6338969049975276,1,0,,,,,,,,,,,,,,,,,,,,,1,,,,,,,,,,,,,,,,,,,,,,,,,,,,,,,,,,,,,,,,,,,,,,130,152014,20,Female,1,2024/03/27_15:23:58,YZ,50.48082710144663,
,,,,,,test,1,2,3,917,4,J,0,right,0.8312426750053419,1,0,,,,,,,,,,,,,,,,,,,,,1,,,,,,,,,,,,,,,,,,,,,,,,,,,,,,,,,,,,,,,,,,,,,,130,152014,20,Female,1,2024/03/27_15:23:58,YZ,50.48082710144663,
,,,,,,test,1,2,3,917,5,F,0,right,0.808109156001592,1,0,,,,,,,,,,,,,,,,,,,,,1,,,,,,,,,,,,,,,,,,,,,,,,,,,,,,,,,,,,,,,,,,,,,,130,152014,20,Female,1,2024/03/27_15:23:58,YZ,50.48082710144663,
,,,,,,test,1,2,3,917,6,J,0,right,0.8329591450019507,1,0,,,,,,,,,,,,,,,,,,,,,1,,,,,,,,,,,,,,,,,,,,,,,,,,,,,,,,,,,,,,,,,,,,,,130,152014,20,Female,1,2024/03/27_15:23:58,YZ,50.48082710144663,
,,,,,,test,1,2,3,917,7,C,0,right,0.4355450889997883,1,0,,,,,,,,,,,,,,,,,,,,,1,,,,,,,,,,,,,,,,,,,,,,,,,,,,,,,,,,,,,,,,,,,,,,130,152014,20,Female,1,2024/03/27_15:23:58,YZ,50.48082710144663,
,,,,,,test,1,2,3,917,8,F,1,left,0.4268688669981202,1,0,,,,,,,,,,,,,,,,,,,,,1,,,,,,,,,,,,,,,,,,,,,,,,,,,,,,,,,,,,,,,,,,,,,,130,152014,20,Female,1,2024/03/27_15:23:58,YZ,50.48082710144663,
,,,,,,test,1,2,3,917,9,X,0,right,0.25735950900707394,1,0,,,,,,,,,,,,,,,,,,,,,1,,,,,,,,,,,,,,,,,,,,,,,,,,,,,,,,,,,,,,,,,,,,,,130,152014,20,Female,1,2024/03/27_15:23:58,YZ,50.48082710144663,
,,,,,,test,1,2,3,917,10,X,0,right,0.7484327959973598,1,0,,,,,,,,,,,,,,,,,,,,,1,,,,,,,,,,,,,,,,,,,,,,,,,,,,,,,,,,,,,,,,,,,,,,130,152014,20,Female,1,2024/03/27_15:23:58,YZ,50.48082710144663,
,,,,,,test,1,2,3,917,11,F,1,left,0.5297796200029552,1,0,,,,,,,,,,,,,,,,,,,,,1,,,,,,,,,,,,,,,,,,,,,,,,,,,,,,,,,,,,,,,,,,,,,,130,152014,20,Female,1,2024/03/27_15:23:58,YZ,50.48082710144663,
,,,,,,test,1,2,3,917,12,X,1,right,0.37081480500637554,0,0,,,,,,,,,,,,,,,,,,,,,1,,,,,,,,,,,,,,,,,,,,,,,,,,,,,,,,,,,,,,,,,,,,,,130,152014,20,Female,1,2024/03/27_15:23:58,YZ,50.48082710144663,
,,,,,,Test,1,2,3,917,,,,,,,,0.9166666666666666,0.6666666666666666,0.0,1.0,0.0,1.0,0.6170395902530194,2,0,0,0,0,9,11,3,9,0,,,,1,,,,,,,,,,,,,,,,,,,,,,,,,,,,,,,,,,,,,,,,,,,,,,130,152014,20,Female,1,2024/03/27_15:23:58,YZ,50.48082710144663,
,,,,,240327_161711,TEST,1,2,3,917,,,,,,,,,,,,,,,,,,,,,,,,,,,,1,2,2,2,cue1.png,hard,B,44,0.7992143779993057,0,1009.5272191630065,1010.3549919640063,,,,,,,,,,,,,,,,,,,,,,,,,,,,,,,,,,,130,152014,20,Female,1,2024/03/27_15:23:58,YZ,50.48082710144663,
,,,,,,test,1,3,3,917,1,C,0,right,0.43569138999737334,1,0,,,,,,,,,,,,,,,,,,,,,1,,,,,,,,,,,,,,,,,,,,,,,,,,,,,,,,,,,,,,,,,,,,,,130,152014,20,Female,1,2024/03/27_15:23:58,YZ,50.48082710144663,
,,,,,,test,1,3,3,917,2,C,0,right,0.3305321689986158,1,0,,,,,,,,,,,,,,,,,,,,,1,,,,,,,,,,,,,,,,,,,,,,,,,,,,,,,,,,,,,,,,,,,,,,130,152014,20,Female,1,2024/03/27_15:23:58,YZ,50.48082710144663,
,,,,,,test,1,3,3,917,3,S,0,right,0.45074638999358285,1,0,,,,,,,,,,,,,,,,,,,,,1,,,,,,,,,,,,,,,,,,,,,,,,,,,,,,,,,,,,,,,,,,,,,,130,152014,20,Female,1,2024/03/27_15:23:58,YZ,50.48082710144663,
,,,,,,test,1,3,3,917,4,C,1,left,0.5952328550047241,1,0,,,,,,,,,,,,,,,,,,,,,1,,,,,,,,,,,,,,,,,,,,,,,,,,,,,,,,,,,,,,,,,,,,,,130,152014,20,Female,1,2024/03/27_15:23:58,YZ,50.48082710144663,
,,,,,,test,1,3,3,917,5,Q,0,right,0.7498390179971466,1,0,,,,,,,,,,,,,,,,,,,,,1,,,,,,,,,,,,,,,,,,,,,,,,,,,,,,,,,,,,,,,,,,,,,,130,152014,20,Female,1,2024/03/27_15:23:58,YZ,50.48082710144663,
,,,,,,test,1,3,3,917,6,X,0,right,0.7151169580029091,1,0,,,,,,,,,,,,,,,,,,,,,1,,,,,,,,,,,,,,,,,,,,,,,,,,,,,,,,,,,,,,,,,,,,,,130,152014,20,Female,1,2024/03/27_15:23:58,YZ,50.48082710144663,
,,,,,,test,1,3,3,917,7,C,1,left,0.7739755090005929,1,0,,,,,,,,,,,,,,,,,,,,,1,,,,,,,,,,,,,,,,,,,,,,,,,,,,,,,,,,,,,,,,,,,,,,130,152014,20,Female,1,2024/03/27_15:23:58,YZ,50.48082710144663,
,,,,,,test,1,3,3,917,8,Q,1,right,0.594134754006518,0,0,,,,,,,,,,,,,,,,,,,,,1,,,,,,,,,,,,,,,,,,,,,,,,,,,,,,,,,,,,,,,,,,,,,,130,152014,20,Female,1,2024/03/27_15:23:58,YZ,50.48082710144663,
,,,,,,test,1,3,3,917,9,Q,0,right,0.5151546670094831,1,0,,,,,,,,,,,,,,,,,,,,,1,,,,,,,,,,,,,,,,,,,,,,,,,,,,,,,,,,,,,,,,,,,,,,130,152014,20,Female,1,2024/03/27_15:23:58,YZ,50.48082710144663,
,,,,,,test,1,3,3,917,10,V,0,right,0.8140358589880634,1,0,,,,,,,,,,,,,,,,,,,,,1,,,,,,,,,,,,,,,,,,,,,,,,,,,,,,,,,,,,,,,,,,,,,,130,152014,20,Female,1,2024/03/27_15:23:58,YZ,50.48082710144663,
,,,,,,test,1,3,3,917,11,S,0,left,0.5749121169938007,0,0,,,,,,,,,,,,,,,,,,,,,1,,,,,,,,,,,,,,,,,,,,,,,,,,,,,,,,,,,,,,,,,,,,,,130,152014,20,Female,1,2024/03/27_15:23:58,YZ,50.48082710144663,
,,,,,,test,1,3,3,917,12,S,0,right,0.1835829210031079,1,0,,,,,,,,,,,,,,,,,,,,,1,,,,,,,,,,,,,,,,,,,,,,,,,,,,,,,,,,,,,,,,,,,,,,130,152014,20,Female,1,2024/03/27_15:23:58,YZ,50.48082710144663,
,,,,,,Test,1,3,3,917,,,,,,,,0.8518518518518517,0.6666666666666666,0.1111111111111111,0.8888888888888888,0.0,0.8888888888888888,0.5610795505829932,2,1,0,0,0,8,10,3,9,0,,,,1,,,,,,,,,,,,,,,,,,,,,,,,,,,,,,,,,,,,,,,,,,,,,,130,152014,20,Female,1,2024/03/27_15:23:58,YZ,50.48082710144663,
,,,,,240327_161734,TEST,1,3,3,917,,,,,,,,,,,,,,,,,,,,,,,,,,,,1,3,3,3,cue1.png,hard,B,41,1.1473763020039769,0,1033.4194616210007,1034.5941760679998,,,,,,,,,,,,,,,,,,,,,,,,,,,,,,,,,,,130,152014,20,Female,1,2024/03/27_15:23:58,YZ,50.48082710144663,
,,,,,,test,1,4,3,917,1,N,0,right,0.3609662649978418,1,0,,,,,,,,,,,,,,,,,,,,,1,,,,,,,,,,,,,,,,,,,,,,,,,,,,,,,,,,,,,,,,,,,,,,130,152014,20,Female,1,2024/03/27_15:23:58,YZ,50.48082710144663,
,,,,,,test,1,4,3,917,2,F,0,right,0.5737698820012156,1,0,,,,,,,,,,,,,,,,,,,,,1,,,,,,,,,,,,,,,,,,,,,,,,,,,,,,,,,,,,,,,,,,,,,,130,152014,20,Female,1,2024/03/27_15:23:58,YZ,50.48082710144663,
,,,,,,test,1,4,3,917,3,C,0,right,0.5354487059958046,1,0,,,,,,,,,,,,,,,,,,,,,1,,,,,,,,,,,,,,,,,,,,,,,,,,,,,,,,,,,,,,,,,,,,,,130,152014,20,Female,1,2024/03/27_15:23:58,YZ,50.48082710144663,
,,,,,,test,1,4,3,917,4,X,0,right,0.5352073109970661,1,0,,,,,,,,,,,,,,,,,,,,,1,,,,,,,,,,,,,,,,,,,,,,,,,,,,,,,,,,,,,,,,,,,,,,130,152014,20,Female,1,2024/03/27_15:23:58,YZ,50.48082710144663,
,,,,,,test,1,4,3,917,5,F,1,left,0.7749430569965625,1,0,,,,,,,,,,,,,,,,,,,,,1,,,,,,,,,,,,,,,,,,,,,,,,,,,,,,,,,,,,,,,,,,,,,,130,152014,20,Female,1,2024/03/27_15:23:58,YZ,50.48082710144663,
,,,,,,test,1,4,3,917,6,Q,0,right,0.6139265609963331,1,0,,,,,,,,,,,,,,,,,,,,,1,,,,,,,,,,,,,,,,,,,,,,,,,,,,,,,,,,,,,,,,,,,,,,130,152014,20,Female,1,2024/03/27_15:23:58,YZ,50.48082710144663,
,,,,,,test,1,4,3,917,7,X,1,right,0.8729259620013181,0,0,,,,,,,,,,,,,,,,,,,,,1,,,,,,,,,,,,,,,,,,,,,,,,,,,,,,,,,,,,,,,,,,,,,,130,152014,20,Female,1,2024/03/27_15:23:58,YZ,50.48082710144663,
,,,,,,test,1,4,3,917,8,F,1,right,0.7739013179962058,0,0,,,,,,,,,,,,,,,,,,,,,1,,,,,,,,,,,,,,,,,,,,,,,,,,,,,,,,,,,,,,,,,,,,,,130,152014,20,Female,1,2024/03/27_15:23:58,YZ,50.48082710144663,
,,,,,,test,1,4,3,917,9,C,0,left,0.48752007698931266,0,0,,,,,,,,,,,,,,,,,,,,,1,,,,,,,,,,,,,,,,,,,,,,,,,,,,,,,,,,,,,,,,,,,,,,130,152014,20,Female,1,2024/03/27_15:23:58,YZ,50.48082710144663,
,,,,,,test,1,4,3,917,10,N,0,right,0.9539424240065273,1,0,,,,,,,,,,,,,,,,,,,,,1,,,,,,,,,,,,,,,,,,,,,,,,,,,,,,,,,,,,,,,,,,,,,,130,152014,20,Female,1,2024/03/27_15:23:58,YZ,50.48082710144663,
,,,,,,test,1,4,3,917,11,Q,0,right,0.5151892010035226,1,0,,,,,,,,,,,,,,,,,,,,,1,,,,,,,,,,,,,,,,,,,,,,,,,,,,,,,,,,,,,,,,,,,,,,130,152014,20,Female,1,2024/03/27_15:23:58,YZ,50.48082710144663,
,,,,,,test,1,4,3,917,12,N,0,right,0.5748373810056364,1,0,,,,,,,,,,,,,,,,,,,,,1,,,,,,,,,,,,,,,,,,,,,,,,,,,,,,,,,,,,,,,,,,,,,,130,152014,20,Female,1,2024/03/27_15:23:58,YZ,50.48082710144663,
,,,,,,Test,1,4,3,917,,,,,,,,0.7222222222222222,0.3333333333333333,0.1111111111111111,0.8888888888888888,0.0,0.8888888888888888,0.6310481787489456,1,1,0,0,0,8,9,3,9,0,,,,1,,,,,,,,,,,,,,,,,,,,,,,,,,,,,,,,,,,,,,,,,,,,,,130,152014,20,Female,1,2024/03/27_15:23:58,YZ,50.48082710144663,
,,,,,240327_161758,TEST,1,4,3,917,,,,,,,,,,,,,,,,,,,,,,,,,,,,1,4,4,4,cue1.png,hard,B,35,0.618224359001033,0,1056.9841621910018,1057.6288997100055,,,,,,,,,,,,,,,,,,,,,,,,,,,,,,,,,,,130,152014,20,Female,1,2024/03/27_15:23:58,YZ,50.48082710144663,
,,,,,,test,1,5,1,917,1,F,0,right,0.8939863120031077,1,0,,,,,,,,,,,,,,,,,,,,,1,,,,,,,,,,,,,,,,,,,,,,,,,,,,,,,,,,,,,,,,,,,,,,130,152014,20,Female,1,2024/03/27_15:23:58,YZ,50.48082710144663,
,,,,,,test,1,5,1,917,2,J,0,right,1.0136686740006553,1,0,,,,,,,,,,,,,,,,,,,,,1,,,,,,,,,,,,,,,,,,,,,,,,,,,,,,,,,,,,,,,,,,,,,,130,152014,20,Female,1,2024/03/27_15:23:58,YZ,50.48082710144663,
,,,,,,test,1,5,1,917,3,N,0,right,0.594690483994782,1,0,,,,,,,,,,,,,,,,,,,,,1,,,,,,,,,,,,,,,,,,,,,,,,,,,,,,,,,,,,,,,,,,,,,,130,152014,20,Female,1,2024/03/27_15:23:58,YZ,50.48082710144663,
,,,,,,test,1,5,1,917,4,X,0,right,0.5352934999973513,1,0,,,,,,,,,,,,,,,,,,,,,1,,,,,,,,,,,,,,,,,,,,,,,,,,,,,,,,,,,,,,,,,,,,,,130,152014,20,Female,1,2024/03/27_15:23:58,YZ,50.48082710144663,
,,,,,,test,1,5,1,917,5,X,1,left,0.39878755499375984,1,0,,,,,,,,,,,,,,,,,,,,,1,,,,,,,,,,,,,,,,,,,,,,,,,,,,,,,,,,,,,,,,,,,,,,130,152014,20,Female,1,2024/03/27_15:23:58,YZ,50.48082710144663,
,,,,,,test,1,5,1,917,6,F,0,right,0.4902314060018398,1,0,,,,,,,,,,,,,,,,,,,,,1,,,,,,,,,,,,,,,,,,,,,,,,,,,,,,,,,,,,,,,,,,,,,,130,152014,20,Female,1,2024/03/27_15:23:58,YZ,50.48082710144663,
,,,,,,test,1,5,1,917,7,C,0,right,0.5151652089989511,1,0,,,,,,,,,,,,,,,,,,,,,1,,,,,,,,,,,,,,,,,,,,,,,,,,,,,,,,,,,,,,,,,,,,,,130,152014,20,Female,1,2024/03/27_15:23:58,YZ,50.48082710144663,
,,,,,,test,1,5,1,917,8,S,0,right,0.6339866430062102,1,0,,,,,,,,,,,,,,,,,,,,,1,,,,,,,,,,,,,,,,,,,,,,,,,,,,,,,,,,,,,,,,,,,,,,130,152014,20,Female,1,2024/03/27_15:23:58,YZ,50.48082710144663,
,,,,,,test,1,5,1,917,9,S,1,left,0.6292307380062994,1,0,,,,,,,,,,,,,,,,,,,,,1,,,,,,,,,,,,,,,,,,,,,,,,,,,,,,,,,,,,,,,,,,,,,,130,152014,20,Female,1,2024/03/27_15:23:58,YZ,50.48082710144663,
,,,,,,test,1,5,1,917,10,X,0,right,0.36728083399066236,1,0,,,,,,,,,,,,,,,,,,,,,1,,,,,,,,,,,,,,,,,,,,,,,,,,,,,,,,,,,,,,,,,,,,,,130,152014,20,Female,1,2024/03/27_15:23:58,YZ,50.48082710144663,
,,,,,,test,1,5,1,917,11,X,1,left,0.5549868449888891,1,0,,,,,,,,,,,,,,,,,,,,,1,,,,,,,,,,,,,,,,,,,,,,,,,,,,,,,,,,,,,,,,,,,,,,130,152014,20,Female,1,2024/03/27_15:23:58,YZ,50.48082710144663,
,,,,,,test,1,5,1,917,12,S,0,right,0.674769233999541,1,0,,,,,,,,,,,,,,,,,,,,,1,,,,,,,,,,,,,,,,,,,,,,,,,,,,,,,,,,,,,,,,,,,,,,130,152014,20,Female,1,2024/03/27_15:23:58,YZ,50.48082710144663,
,,,,,,Test,1,5,1,917,,,,,,,,1.0,1.0,0.0,1.0,0.0,1.0,0.6085064528318375,3,0,0,0,0,9,12,3,9,0,,,,1,,,,,,,,,,,,,,,,,,,,,,,,,,,,,,,,,,,,,,,,,,,,,,130,152014,20,Female,1,2024/03/27_15:23:58,YZ,50.48082710144663,
,,,,,240327_161822,TEST,1,5,1,917,,,,,,,,,,,,,,,,,,,,,,,,,,,,1,5,5,5,cue2.png,easy,B,39,1.0863559029967291,0,1080.8913330670039,1082.005793977005,,,,,,,,,,,,,,,,,,,,,,,,,,,,,,,,,,,130,152014,20,Female,1,2024/03/27_15:23:58,YZ,50.48082710144663,
,,,,,,test,1,6,3,917,1,Q,0,right,0.3051575720019173,1,0,,,,,,,,,,,,,,,,,,,,,1,,,,,,,,,,,,,,,,,,,,,,,,,,,,,,,,,,,,,,,,,,,,,,130,152014,20,Female,1,2024/03/27_15:23:58,YZ,50.48082710144663,
,,,,,,test,1,6,3,917,2,N,0,right,0.5353118540078867,1,0,,,,,,,,,,,,,,,,,,,,,1,,,,,,,,,,,,,,,,,,,,,,,,,,,,,,,,,,,,,,,,,,,,,,130,152014,20,Female,1,2024/03/27_15:23:58,YZ,50.48082710144663,
,,,,,,test,1,6,3,917,3,S,0,right,0.5350426959921606,1,0,,,,,,,,,,,,,,,,,,,,,1,,,,,,,,,,,,,,,,,,,,,,,,,,,,,,,,,,,,,,,,,,,,,,130,152014,20,Female,1,2024/03/27_15:23:58,YZ,50.48082710144663,
,,,,,,test,1,6,3,917,4,Q,1,left,0.5934770550084068,1,0,,,,,,,,,,,,,,,,,,,,,1,,,,,,,,,,,,,,,,,,,,,,,,,,,,,,,,,,,,,,,,,,,,,,130,152014,20,Female,1,2024/03/27_15:23:58,YZ,50.48082710144663,
,,,,,,test,1,6,3,917,5,S,0,right,0.515200387002551,1,0,,,,,,,,,,,,,,,,,,,,,1,,,,,,,,,,,,,,,,,,,,,,,,,,,,,,,,,,,,,,,,,,,,,,130,152014,20,Female,1,2024/03/27_15:23:58,YZ,50.48082710144663,
,,,,,,test,1,6,3,917,6,S,1,left,0.8527797889983049,1,0,,,,,,,,,,,,,,,,,,,,,1,,,,,,,,,,,,,,,,,,,,,,,,,,,,,,,,,,,,,,,,,,,,,,130,152014,20,Female,1,2024/03/27_15:23:58,YZ,50.48082710144663,
,,,,,,test,1,6,3,917,7,Q,1,right,0.6888048079999862,0,0,,,,,,,,,,,,,,,,,,,,,1,,,,,,,,,,,,,,,,,,,,,,,,,,,,,,,,,,,,,,,,,,,,,,130,152014,20,Female,1,2024/03/27_15:23:58,YZ,50.48082710144663,
,,,,,,test,1,6,3,917,8,Q,0,left,0.8333100099989679,0,0,,,,,,,,,,,,,,,,,,,,,1,,,,,,,,,,,,,,,,,,,,,,,,,,,,,,,,,,,,,,,,,,,,,,130,152014,20,Female,1,2024/03/27_15:23:58,YZ,50.48082710144663,
,,,,,,test,1,6,3,917,9,V,0,right,0.7724898199958261,1,0,,,,,,,,,,,,,,,,,,,,,1,,,,,,,,,,,,,,,,,,,,,,,,,,,,,,,,,,,,,,,,,,,,,,130,152014,20,Female,1,2024/03/27_15:23:58,YZ,50.48082710144663,
,,,,,,test,1,6,3,917,10,Q,1,left,0.8288933459989494,1,0,,,,,,,,,,,,,,,,,,,,,1,,,,,,,,,,,,,,,,,,,,,,,,,,,,,,,,,,,,,,,,,,,,,,130,152014,20,Female,1,2024/03/27_15:23:58,YZ,50.48082710144663,
,,,,,,test,1,6,3,917,11,F,0,right,0.5742344719910761,1,0,,,,,,,,,,,,,,,,,,,,,1,,,,,,,,,,,,,,,,,,,,,,,,,,,,,,,,,,,,,,,,,,,,,,130,152014,20,Female,1,2024/03/27_15:23:58,YZ,50.48082710144663,
,,,,,,test,1,6,3,917,12,J,0,left,0.5750432259956142,0,0,,,,,,,,,,,,,,,,,,,,,1,,,,,,,,,,,,,,,,,,,,,,,,,,,,,,,,,,,,,,,,,,,,,,130,152014,20,Female,1,2024/03/27_15:23:58,YZ,50.48082710144663,
,,,,,,Test,1,6,3,917,,,,,,,,0.8125,0.75,0.25,0.75,0.0,0.75,0.6341454195826373,3,2,0,0,0,6,9,4,8,0,,,,1,,,,,,,,,,,,,,,,,,,,,,,,,,,,,,,,,,,,,,,,,,,,,,130,152014,20,Female,1,2024/03/27_15:23:58,YZ,50.48082710144663,
,,,,,240327_161847,TEST,1,6,3,917,,,,,,,,,,,,,,,,,,,,,,,,,,,,1,6,6,6,cue1.png,hard,B,39,1.2270985420036595,0,1104.9882843509986,1106.244229611999,,,,,,,,,,,,,,,,,,,,,,,,,,,,,,,,,,,130,152014,20,Female,1,2024/03/27_15:23:58,YZ,50.48082710144663,
,,,,,,test,1,7,3,917,1,S,0,right,0.29515869499300607,1,0,,,,,,,,,,,,,,,,,,,,,1,,,,,,,,,,,,,,,,,,,,,,,,,,,,,,,,,,,,,,,,,,,,,,130,152014,20,Female,1,2024/03/27_15:23:58,YZ,50.48082710144663,
,,,,,,test,1,7,3,917,2,V,0,right,0.4741198789997725,1,0,,,,,,,,,,,,,,,,,,,,,1,,,,,,,,,,,,,,,,,,,,,,,,,,,,,,,,,,,,,,,,,,,,,,130,152014,20,Female,1,2024/03/27_15:23:58,YZ,50.48082710144663,
,,,,,,test,1,7,3,917,3,S,0,right,0.6342962680064375,1,0,,,,,,,,,,,,,,,,,,,,,1,,,,,,,,,,,,,,,,,,,,,,,,,,,,,,,,,,,,,,,,,,,,,,130,152014,20,Female,1,2024/03/27_15:23:58,YZ,50.48082710144663,
,,,,,,test,1,7,3,917,4,N,0,left,0.5912344340031268,0,0,,,,,,,,,,,,,,,,,,,,,1,,,,,,,,,,,,,,,,,,,,,,,,,,,,,,,,,,,,,,,,,,,,,,130,152014,20,Female,1,2024/03/27_15:23:58,YZ,50.48082710144663,
,,,,,,test,1,7,3,917,5,C,0,right,0.28089967400592286,1,0,,,,,,,,,,,,,,,,,,,,,1,,,,,,,,,,,,,,,,,,,,,,,,,,,,,,,,,,,,,,,,,,,,,,130,152014,20,Female,1,2024/03/27_15:23:58,YZ,50.48082710144663,
,,,,,,test,1,7,3,917,6,J,0,right,0.40194435899320524,1,0,,,,,,,,,,,,,,,,,,,,,1,,,,,,,,,,,,,,,,,,,,,,,,,,,,,,,,,,,,,,,,,,,,,,130,152014,20,Female,1,2024/03/27_15:23:58,YZ,50.48082710144663,
,,,,,,test,1,7,3,917,7,N,1,right,0.5745934500009753,0,0,,,,,,,,,,,,,,,,,,,,,1,,,,,,,,,,,,,,,,,,,,,,,,,,,,,,,,,,,,,,,,,,,,,,130,152014,20,Female,1,2024/03/27_15:23:58,YZ,50.48082710144663,
,,,,,,test,1,7,3,917,8,C,1,left,0.8346410509984707,1,0,,,,,,,,,,,,,,,,,,,,,1,,,,,,,,,,,,,,,,,,,,,,,,,,,,,,,,,,,,,,,,,,,,,,130,152014,20,Female,1,2024/03/27_15:23:58,YZ,50.48082710144663,
,,,,,,test,1,7,3,917,9,Q,0,right,0.45444272000167985,1,0,,,,,,,,,,,,,,,,,,,,,1,,,,,,,,,,,,,,,,,,,,,,,,,,,,,,,,,,,,,,,,,,,,,,130,152014,20,Female,1,2024/03/27_15:23:58,YZ,50.48082710144663,
,,,,,,test,1,7,3,917,10,N,1,right,0.6734552120033186,0,0,,,,,,,,,,,,,,,,,,,,,1,,,,,,,,,,,,,,,,,,,,,,,,,,,,,,,,,,,,,,,,,,,,,,130,152014,20,Female,1,2024/03/27_15:23:58,YZ,50.48082710144663,
,,,,,,test,1,7,3,917,11,V,0,right,0.34357954798906576,1,0,,,,,,,,,,,,,,,,,,,,,1,,,,,,,,,,,,,,,,,,,,,,,,,,,,,,,,,,,,,,,,,,,,,,130,152014,20,Female,1,2024/03/27_15:23:58,YZ,50.48082710144663,
,,,,,,test,1,7,3,917,12,S,0,left,0.2425051030004397,0,0,,,,,,,,,,,,,,,,,,,,,1,,,,,,,,,,,,,,,,,,,,,,,,,,,,,,,,,,,,,,,,,,,,,,130,152014,20,Female,1,2024/03/27_15:23:58,YZ,50.48082710144663,
