Instruction,Stimulus,Key,RT,START,END,Phase,Block,TrialN,NbackLevel,ISI,LetterN,Letter,Letter_isSame,Letter_Resp,Letter_RT,Letter_Accuracy,Letter_Timeout,Trial_A_measure,Trial_HR,Trial_FAR,Trial_CDR,Trial_MSR,Trial_ACC,Trial_RT,Trial_HitsCount,Trial_FAsCount,Trial_SameNoRespCount,Trial_DiffNoRespCount,Trial_NoRespCount,Trial_CDsCount,Trial_CorrectRespCount,Trial_SameLetterCount,Trial_DiffLetterCount,Trial_InvalidLetterCount,TrialCountCali,CaliEnd_A_measure,ISI_calibrated,Run,TrialIndex,TrialNumber_total,TrialNumber_valid,CueLearning,TrialDemandLearning,CueMapping,OnlineRating,OnlineRatingRT,OnlineRatingTimeOut,CueSTART,RatingSTART,OfflineRatingTimePoint,OfflineRatingQuesIndex,CueFigure,TrialDemand,OfflineRating,OfflineRatingRT,CueStart,OfflineRatingStart,PhaseType,CueLeft,CueDemandLeft,CueRight,CueDemandRight,Choice,ChoiceDemand,TaskDemand,ChoiceRT,ChoiceTimeOut,ChoiceSTART,CueCheck,CueDemandCheck,CorrectAnswer,Answer,AnswerDemand,AnswerRT,AnswerACC,AnswerTimeOut,CheckSTART,DemandRatingQuesIndex,QuesTLX,DemandLevel,DemandRating,DemandRatingRT,QuesStart,PID,SONA,Age,Gender,Run,TIME,EXPERIMENTER,frameRate,
-1,./instructions/inst_begin/Slide2.png,left,22.533191295020515,0.12454395098029636,22.65773524600081,,,,,,,,,,,,,,,,,,,,,,,,,,,,,,,,,1,,,,,,,,,,,,,,,,,,,,,,,,,,,,,,,,,,,,,,,,,,,,,,79,156697,21,Female,1,2024/02/27_08:49:34,YZ,None,
-2,./instructions/inst_begin/Slide4.png,left,14.348786315997131,22.685012950998498,37.03379926699563,,,,,,,,,,,,,,,,,,,,,,,,,,,,,,,,,1,,,,,,,,,,,,,,,,,,,,,,,,,,,,,,,,,,,,,,,,,,,,,,79,156697,21,Female,1,2024/02/27_08:49:34,YZ,None,
-3,./instructions/inst_begin/Slide3.png,left,12.646386285981862,37.06726002000505,49.71364630598691,,,,,,,,,,,,,,,,,,,,,,,,,,,,,,,,,1,,,,,,,,,,,,,,,,,,,,,,,,,,,,,,,,,,,,,,,,,,,,,,79,156697,21,Female,1,2024/02/27_08:49:34,YZ,None,
1,./instructions/inst_prac_2/Slide6.png,right,12.875581984990276,49.75777242699405,62.63335441198433,,,,,,,,,,,,,,,,,,,,,,,,,,,,,,,,,1,,,,,,,,,,,,,,,,,,,,,,,,,,,,,,,,,,,,,,,,,,,,,,79,156697,21,Female,1,2024/02/27_08:49:34,YZ,None,
0,./instructions/inst_prac_2/Slide7.png,left,14.533692961005727,62.667976530996384,77.20166949200211,,,,,,,,,,,,,,,,,,,,,,,,,,,,,,,,,1,,,,,,,,,,,,,,,,,,,,,,,,,,,,,,,,,,,,,,,,,,,,,,79,156697,21,Female,1,2024/02/27_08:49:34,YZ,None,
-1,./instructions/inst_prac_2/Slide6.png,left,14.997815383016132,77.2359341319825,92.23374951499864,,,,,,,,,,,,,,,,,,,,,,,,,,,,,,,,,1,,,,,,,,,,,,,,,,,,,,,,,,,,,,,,,,,,,,,,,,,,,,,,79,156697,21,Female,1,2024/02/27_08:49:34,YZ,None,
-2,./instructions/inst_prac_2/Slide15.png,left,15.117423415009398,92.2681423619797,107.3855657769891,,,,,,,,,,,,,,,,,,,,,,,,,,,,,,,,,1,,,,,,,,,,,,,,,,,,,,,,,,,,,,,,,,,,,,,,,,,,,,,,79,156697,21,Female,1,2024/02/27_08:49:34,YZ,None,
-3,./instructions/inst_prac_2/Slide14.png,left,11.756969074020162,107.41255164798349,119.16952072200365,,,,,,,,,,,,,,,,,,,,,,,,,,,,,,,,,1,,,,,,,,,,,,,,,,,,,,,,,,,,,,,,,,,,,,,,,,,,,,,,79,156697,21,Female,1,2024/02/27_08:49:34,YZ,None,
-4,./instructions/inst_prac_2/Slide13.png,left,12.18116657200153,119.19651964498917,131.3776862169907,,,,,,,,,,,,,,,,,,,,,,,,,,,,,,,,,1,,,,,,,,,,,,,,,,,,,,,,,,,,,,,,,,,,,,,,,,,,,,,,79,156697,21,Female,1,2024/02/27_08:49:34,YZ,None,
-5,./instructions/inst_prac_2/Slide12.png,left,3.1173809680039994,131.40440232498804,134.52178329299204,,,,,,,,,,,,,,,,,,,,,,,,,,,,,,,,,1,,,,,,,,,,,,,,,,,,,,,,,,,,,,,,,,,,,,,,,,,,,,,,79,156697,21,Female,1,2024/02/27_08:49:34,YZ,None,
-6,./instructions/inst_prac_2/Slide11.png,left,1.8613164279959165,134.54830416399636,136.40962059199228,,,,,,,,,,,,,,,,,,,,,,,,,,,,,,,,,1,,,,,,,,,,,,,,,,,,,,,,,,,,,,,,,,,,,,,,,,,,,,,,79,156697,21,Female,1,2024/02/27_08:49:34,YZ,None,
-7,./instructions/inst_prac_2/Slide10.png,left,3.70934849101468,136.43641872899025,140.14576722000493,,,,,,,,,,,,,,,,,,,,,,,,,,,,,,,,,1,,,,,,,,,,,,,,,,,,,,,,,,,,,,,,,,,,,,,,,,,,,,,,79,156697,21,Female,1,2024/02/27_08:49:34,YZ,None,
-8,./instructions/inst_prac_2/Slide9.png,left,4.012970634008525,140.1726601239934,144.18563075800193,,,,,,,,,,,,,,,,,,,,,,,,,,,,,,,,,1,,,,,,,,,,,,,,,,,,,,,,,,,,,,,,,,,,,,,,,,,,,,,,79,156697,21,Female,1,2024/02/27_08:49:34,YZ,None,
-9,./instructions/inst_prac_2/Slide8.png,left,13.100815705984132,144.2128453750047,157.31366108098882,,,,,,,,,,,,,,,,,,,,,,,,,,,,,,,,,1,,,,,,,,,,,,,,,,,,,,,,,,,,,,,,,,,,,,,,,,,,,,,,79,156697,21,Female,1,2024/02/27_08:49:34,YZ,None,
-10,./instructions/inst_prac_2/Slide7.png,left,10.901636182010407,157.34806165698683,168.24969783899724,,,,,,,,,,,,,,,,,,,,,,,,,,,,,,,,,1,,,,,,,,,,,,,,,,,,,,,,,,,,,,,,,,,,,,,,,,,,,,,,79,156697,21,Female,1,2024/02/27_08:49:34,YZ,None,
,,,,,,practice,0,4,2,2583,1,J,0,left,6.993868138000835,0,0,,,,,,,,,,,,,,,,,,,,,1,,,,,,,,,,,,,,,,,,,,,,,,,,,,,,,,,,,,,,,,,,,,,,79,156697,21,Female,1,2024/02/27_08:49:34,YZ,None,
,,,,,,practice,0,4,2,2583,2,C,0,right,3.4339773429965135,1,0,,,,,,,,,,,,,,,,,,,,,1,,,,,,,,,,,,,,,,,,,,,,,,,,,,,,,,,,,,,,,,,,,,,,79,156697,21,Female,1,2024/02/27_08:49:34,YZ,None,
,,,,,,practice,0,4,2,2583,3,J,1,left,2.1162383329938166,1,0,,,,,,,,,,,,,,,,,,,,,1,,,,,,,,,,,,,,,,,,,,,,,,,,,,,,,,,,,,,,,,,,,,,,79,156697,21,Female,1,2024/02/27_08:49:34,YZ,None,
,,,,,,practice,0,4,2,2583,4,C,1,left,1.7938271470193285,1,0,,,,,,,,,,,,,,,,,,,,,1,,,,,,,,,,,,,,,,,,,,,,,,,,,,,,,,,,,,,,,,,,,,,,79,156697,21,Female,1,2024/02/27_08:49:34,YZ,None,
,,,,,,practice,0,4,2,2583,5,X,0,right,2.1517396430135705,1,0,,,,,,,,,,,,,,,,,,,,,1,,,,,,,,,,,,,,,,,,,,,,,,,,,,,,,,,,,,,,,,,,,,,,79,156697,21,Female,1,2024/02/27_08:49:34,YZ,None,
,,,,,,practice,0,4,2,2583,6,S,0,right,1.9810537350131199,1,0,,,,,,,,,,,,,,,,,,,,,1,,,,,,,,,,,,,,,,,,,,,,,,,,,,,,,,,,,,,,,,,,,,,,79,156697,21,Female,1,2024/02/27_08:49:34,YZ,None,
,,,,,,practice,0,4,2,2583,,,,,,,,0.9375,1.0,0.25,0.75,0.0,0.75,3.078450723172864,2,1,0,0,0,3,5,2,4,0,,,,1,,,,,,,,,,,,,,,,,,,,,,,,,,,,,,,,,,,,,,,,,,,,,,79,156697,21,Female,1,2024/02/27_08:49:34,YZ,None,
-1,./instructions/inst_to_cali/Slide20.png,left,5.388396154012298,193.58131260998198,198.96970876399428,,,,,,,,,,,,,,,,,,,,,,,,,,,,,,,,,1,,,,,,,,,,,,,,,,,,,,,,,,,,,,,,,,,,,,,,,,,,,,,,79,156697,21,Female,1,2024/02/27_08:49:34,YZ,None,
,,,,,,practice,0,36,2,2583,1,X,0,right,3.0471397119981702,1,0,,,,,,,,,,,,,,,,,,,,,1,,,,,,,,,,,,,,,,,,,,,,,,,,,,,,,,,,,,,,,,,,,,,,79,156697,21,Female,1,2024/02/27_08:49:34,YZ,None,
,,,,,,practice,0,36,2,2583,2,V,0,right,1.8687824239896145,1,0,,,,,,,,,,,,,,,,,,,,,1,,,,,,,,,,,,,,,,,,,,,,,,,,,,,,,,,,,,,,,,,,,,,,79,156697,21,Female,1,2024/02/27_08:49:34,YZ,None,
,,,,,,practice,0,36,2,2583,3,X,1,left,1.0574854669976048,1,0,,,,,,,,,,,,,,,,,,,,,1,,,,,,,,,,,,,,,,,,,,,,,,,,,,,,,,,,,,,,,,,,,,,,79,156697,21,Female,1,2024/02/27_08:49:34,YZ,None,
,,,,,,practice,0,36,2,2583,4,V,1,left,0.8573900680057704,1,0,,,,,,,,,,,,,,,,,,,,,1,,,,,,,,,,,,,,,,,,,,,,,,,,,,,,,,,,,,,,,,,,,,,,79,156697,21,Female,1,2024/02/27_08:49:34,YZ,None,
,,,,,,practice,0,36,2,2583,5,N,0,right,0.7419734399882145,1,0,,,,,,,,,,,,,,,,,,,,,1,,,,,,,,,,,,,,,,,,,,,,,,,,,,,,,,,,,,,,,,,,,,,,79,156697,21,Female,1,2024/02/27_08:49:34,YZ,None,
,,,,,,practice,0,36,2,2583,6,F,0,right,1.6192524440120906,1,0,,,,,,,,,,,,,,,,,,,,,1,,,,,,,,,,,,,,,,,,,,,,,,,,,,,,,,,,,,,,,,,,,,,,79,156697,21,Female,1,2024/02/27_08:49:34,YZ,None,
,,,,,,practice,0,36,2,2583,,,,,,,,1.0,1.0,0.0,1.0,0.0,1.0,1.532003925831911,2,0,0,0,0,4,6,2,4,0,,,,1,,,,,,,,,,,,,,,,,,,,,,,,,,,,,,,,,,,,,,,,,,,,,,79,156697,21,Female,1,2024/02/27_08:49:34,YZ,None,
-1,./instructions/inst_to_cali/Slide20.png,left,1.3342204840155318,215.51535498298472,216.84957546700025,,,,,,,,,,,,,,,,,,,,,,,,,,,,,,,,,1,,,,,,,,,,,,,,,,,,,,,,,,,,,,,,,,,,,,,,,,,,,,,,79,156697,21,Female,1,2024/02/27_08:49:34,YZ,None,
,,,,,,practice,0,10,2,2583,1,Q,0,right,3.02754420999554,1,0,,,,,,,,,,,,,,,,,,,,,1,,,,,,,,,,,,,,,,,,,,,,,,,,,,,,,,,,,,,,,,,,,,,,79,156697,21,Female,1,2024/02/27_08:49:34,YZ,None,
,,,,,,practice,0,10,2,2583,2,C,0,right,1.076334305020282,1,0,,,,,,,,,,,,,,,,,,,,,1,,,,,,,,,,,,,,,,,,,,,,,,,,,,,,,,,,,,,,,,,,,,,,79,156697,21,Female,1,2024/02/27_08:49:34,YZ,None,
,,,,,,practice,0,10,2,2583,3,J,0,right,0.87096961599309,1,0,,,,,,,,,,,,,,,,,,,,,1,,,,,,,,,,,,,,,,,,,,,,,,,,,,,,,,,,,,,,,,,,,,,,79,156697,21,Female,1,2024/02/27_08:49:34,YZ,None,
,,,,,,practice,0,10,2,2583,4,C,1,left,0.8089484619849827,1,0,,,,,,,,,,,,,,,,,,,,,1,,,,,,,,,,,,,,,,,,,,,,,,,,,,,,,,,,,,,,,,,,,,,,79,156697,21,Female,1,2024/02/27_08:49:34,YZ,None,
,,,,,,practice,0,10,2,2583,5,S,0,right,0.8199494880100247,1,0,,,,,,,,,,,,,,,,,,,,,1,,,,,,,,,,,,,,,,,,,,,,,,,,,,,,,,,,,,,,,,,,,,,,79,156697,21,Female,1,2024/02/27_08:49:34,YZ,None,
,,,,,,practice,0,10,2,2583,6,C,1,left,1.8840467810223345,1,0,,,,,,,,,,,,,,,,,,,,,1,,,,,,,,,,,,,,,,,,,,,,,,,,,,,,,,,,,,,,,,,,,,,,79,156697,21,Female,1,2024/02/27_08:49:34,YZ,None,
,,,,,,practice,0,10,2,2583,,,,,,,,1.0,1.0,0.0,1.0,0.0,1.0,1.4146321436710423,2,0,0,0,0,4,6,2,4,0,,,,1,,,,,,,,,,,,,,,,,,,,,,,,,,,,,,,,,,,,,,,,,,,,,,79,156697,21,Female,1,2024/02/27_08:49:34,YZ,None,
-1,./instructions/inst_to_cali/Slide20.png,left,3.3601253330125473,232.68943809898337,236.04956343199592,,,,,,,,,,,,,,,,,,,,,,,,,,,,,,,,,1,,,,,,,,,,,,,,,,,,,,,,,,,,,,,,,,,,,,,,,,,,,,,,79,156697,21,Female,1,2024/02/27_08:49:34,YZ,None,
,,,,,,practice,0,21,2,2583,1,S,0,right,3.8299057359981816,1,0,,,,,,,,,,,,,,,,,,,,,1,,,,,,,,,,,,,,,,,,,,,,,,,,,,,,,,,,,,,,,,,,,,,,79,156697,21,Female,1,2024/02/27_08:49:34,YZ,None,
,,,,,,practice,0,21,2,2583,2,V,0,right,1.0610079810139723,1,0,,,,,,,,,,,,,,,,,,,,,1,,,,,,,,,,,,,,,,,,,,,,,,,,,,,,,,,,,,,,,,,,,,,,79,156697,21,Female,1,2024/02/27_08:49:34,YZ,None,
,,,,,,practice,0,21,2,2583,3,N,0,right,1.7190904890012462,1,0,,,,,,,,,,,,,,,,,,,,,1,,,,,,,,,,,,,,,,,,,,,,,,,,,,,,,,,,,,,,,,,,,,,,79,156697,21,Female,1,2024/02/27_08:49:34,YZ,None,
,,,,,,practice,0,21,2,2583,4,V,1,left,0.9210050040273927,1,0,,,,,,,,,,,,,,,,,,,,,1,,,,,,,,,,,,,,,,,,,,,,,,,,,,,,,,,,,,,,,,,,,,,,79,156697,21,Female,1,2024/02/27_08:49:34,YZ,None,
,,,,,,practice,0,21,2,2583,5,N,1,left,2.129145753016928,1,0,,,,,,,,,,,,,,,,,,,,,1,,,,,,,,,,,,,,,,,,,,,,,,,,,,,,,,,,,,,,,,,,,,,,79,156697,21,Female,1,2024/02/27_08:49:34,YZ,None,
,,,,,,practice,0,21,2,2583,6,S,0,right,0.9227991349762306,1,0,,,,,,,,,,,,,,,,,,,,,1,,,,,,,,,,,,,,,,,,,,,,,,,,,,,,,,,,,,,,,,,,,,,,79,156697,21,Female,1,2024/02/27_08:49:34,YZ,None,
,,,,,,practice,0,21,2,2583,,,,,,,,1.0,1.0,0.0,1.0,0.0,1.0,1.7638256830056587,2,0,0,0,0,4,6,2,4,0,,,,1,,,,,,,,,,,,,,,,,,,,,,,,,,,,,,,,,,,,,,,,,,,,,,79,156697,21,Female,1,2024/02/27_08:49:34,YZ,None,
1,./instructions/inst_to_cali/Slide20.png,right,6.003424245980568,253.97408225000254,259.9775064959831,,,,,,,,,,,,,,,,,,,,,,,,,,,,,,,,,1,,,,,,,,,,,,,,,,,,,,,,,,,,,,,,,,,,,,,,,,,,,,,,79,156697,21,Female,1,2024/02/27_08:49:34,YZ,None,
1,./instructions/inst_cali/Slide22.png,right,15.842748014983954,260.01489348200266,275.8576414969866,,,,,,,,,,,,,,,,,,,,,,,,,,,,,,,,,1,,,,,,,,,,,,,,,,,,,,,,,,,,,,,,,,,,,,,,,,,,,,,,79,156697,21,Female,1,2024/02/27_08:49:34,YZ,None,
,,,,,,calibration,0,23,2,583,1,X,0,right,0.9178924529987853,1,0,,,,,,,,,,,,,,,,,,,,,1,,,,,,,,,,,,,,,,,,,,,,,,,,,,,,,,,,,,,,,,,,,,,,79,156697,21,Female,1,2024/02/27_08:49:34,YZ,None,
,,,,,,calibration,0,23,2,583,2,Q,0,right,0.8184215579822194,1,0,,,,,,,,,,,,,,,,,,,,,1,,,,,,,,,,,,,,,,,,,,,,,,,,,,,,,,,,,,,,,,,,,,,,79,156697,21,Female,1,2024/02/27_08:49:34,YZ,None,
,,,,,,calibration,0,23,2,583,3,S,0,right,0.6699138630065136,1,0,,,,,,,,,,,,,,,,,,,,,1,,,,,,,,,,,,,,,,,,,,,,,,,,,,,,,,,,,,,,,,,,,,,,79,156697,21,Female,1,2024/02/27_08:49:34,YZ,None,
,,,,,,calibration,0,23,2,583,4,F,0,right,1.7369998230133206,1,0,,,,,,,,,,,,,,,,,,,,,1,,,,,,,,,,,,,,,,,,,,,,,,,,,,,,,,,,,,,,,,,,,,,,79,156697,21,Female,1,2024/02/27_08:49:34,YZ,None,
,,,,,,calibration,0,23,2,583,5,Q,0,left,0.8702877340256236,0,0,,,,,,,,,,,,,,,,,,,,,1,,,,,,,,,,,,,,,,,,,,,,,,,,,,,,,,,,,,,,,,,,,,,,79,156697,21,Female,1,2024/02/27_08:49:34,YZ,None,
,,,,,,calibration,0,23,2,583,6,S,0,left,nan,0,1,,,,,,,,,,,,,,,,,,,,,1,,,,,,,,,,,,,,,,,,,,,,,,,,,,,,,,,,,,,,,,,,,,,,79,156697,21,Female,1,2024/02/27_08:49:34,YZ,None,
,,,,,,calibration,0,23,2,583,7,Q,1,right,0.004771206004079431,0,0,,,,,,,,,,,,,,,,,,,,,1,,,,,,,,,,,,,,,,,,,,,,,,,,,,,,,,,,,,,,,,,,,,,,79,156697,21,Female,1,2024/02/27_08:49:34,YZ,None,
,,,,,,calibration,0,23,2,583,8,S,1,right,0.6930536059953738,0,0,,,,,,,,,,,,,,,,,,,,,1,,,,,,,,,,,,,,,,,,,,,,,,,,,,,,,,,,,,,,,,,,,,,,79,156697,21,Female,1,2024/02/27_08:49:34,YZ,None,
,,,,,,calibration,0,23,2,583,9,C,0,left,0.0,0,0,,,,,,,,,,,,,,,,,,,,,1,,,,,,,,,,,,,,,,,,,,,,,,,,,,,,,,,,,,,,,,,,,,,,79,156697,21,Female,1,2024/02/27_08:49:34,YZ,None,
,,,,,,calibration,0,23,2,583,10,N,0,left,nan,0,1,,,,,,,,,,,,,,,,,,,,,1,,,,,,,,,,,,,,,,,,,,,,,,,,,,,,,,,,,,,,,,,,,,,,79,156697,21,Female,1,2024/02/27_08:49:34,YZ,None,
,,,,,,calibration,0,23,2,583,11,J,0,right,1.4420600210141856,1,0,,,,,,,,,,,,,,,,,,,,,1,,,,,,,,,,,,,,,,,,,,,,,,,,,,,,,,,,,,,,,,,,,,,,79,156697,21,Female,1,2024/02/27_08:49:34,YZ,None,
,,,,,,calibration,0,23,2,583,12,C,0,right,1.0355684410023969,1,0,,,,,,,,,,,,,,,,,,,,,1,,,,,,,,,,,,,,,,,,,,,,,,,,,,,,,,,,,,,,,,,,,,,,79,156697,21,Female,1,2024/02/27_08:49:34,YZ,None,
,,,,,,calibration,0,23,2,583,13,J,1,left,0.686420421989169,1,0,,,,,,,,,,,,,,,,,,,,,1,,,,,,,,,,,,,,,,,,,,,,,,,,,,,,,,,,,,,,,,,,,,,,79,156697,21,Female,1,2024/02/27_08:49:34,YZ,None,
,,,,,,calibration,0,23,2,583,14,C,1,right,1.256254142994294,0,0,,,,,,,,,,,,,,,,,,,,,1,,,,,,,,,,,,,,,,,,,,,,,,,,,,,,,,,,,,,,,,,,,,,,79,156697,21,Female,1,2024/02/27_08:49:34,YZ,None,
,,,,,,calibration,0,23,2,583,15,X,0,right,1.468625300010899,1,0,,,,,,,,,,,,,,,,,,,,,1,,,,,,,,,,,,,,,,,,,,,,,,,,,,,,,,,,,,,,,,,,,,,,79,156697,21,Female,1,2024/02/27_08:49:34,YZ,None,
,,,,,,calibration,0,23,2,583,,,,,,,,0.5852272727272727,0.25,0.18181818181818182,0.7777777777777778,0.13333333333333333,0.6848484848484848,0.892328351541297,1,2,0,2,2,7,8,4,11,0,,,,1,,,,,,,,,,,,,,,,,,,,,,,,,,,,,,,,,,,,,,,,,,,,,,79,156697,21,Female,1,2024/02/27_08:49:34,YZ,None,
,,,,,,Calibration,0,,2,583,,,,,,,,,,,,,,,,,,,,,,,,,1,,,1,,,,,,,,,,,,,,,,,,,,,,,,,,,,,,,,,,,,,,,,,,,,,,79,156697,21,Female,1,2024/02/27_08:49:34,YZ,None,
,,,,,,calibration,0,18,2,679,1,C,0,right,1.432127425010549,1,0,,,,,,,,,,,,,,,,,,,,,1,,,,,,,,,,,,,,,,,,,,,,,,,,,,,,,,,,,,,,,,,,,,,,79,156697,21,Female,1,2024/02/27_08:49:34,YZ,None,
,,,,,,calibration,0,18,2,679,2,S,0,right,1.0815504799829796,1,0,,,,,,,,,,,,,,,,,,,,,1,,,,,,,,,,,,,,,,,,,,,,,,,,,,,,,,,,,,,,,,,,,,,,79,156697,21,Female,1,2024/02/27_08:49:34,YZ,None,
,,,,,,calibration,0,18,2,679,3,C,1,left,0.6254593119956553,1,0,,,,,,,,,,,,,,,,,,,,,1,,,,,,,,,,,,,,,,,,,,,,,,,,,,,,,,,,,,,,,,,,,,,,79,156697,21,Female,1,2024/02/27_08:49:34,YZ,None,
,,,,,,calibration,0,18,2,679,4,J,0,right,0.9419547769939527,1,0,,,,,,,,,,,,,,,,,,,,,1,,,,,,,,,,,,,,,,,,,,,,,,,,,,,,,,,,,,,,,,,,,,,,79,156697,21,Female,1,2024/02/27_08:49:34,YZ,None,
,,,,,,calibration,0,18,2,679,5,N,0,right,0.9246463580057025,1,0,,,,,,,,,,,,,,,,,,,,,1,,,,,,,,,,,,,,,,,,,,,,,,,,,,,,,,,,,,,,,,,,,,,,79,156697,21,Female,1,2024/02/27_08:49:34,YZ,None,
,,,,,,calibration,0,18,2,679,6,J,1,left,0.7564475449908059,1,0,,,,,,,,,,,,,,,,,,,,,1,,,,,,,,,,,,,,,,,,,,,,,,,,,,,,,,,,,,,,,,,,,,,,79,156697,21,Female,1,2024/02/27_08:49:34,YZ,None,
,,,,,,calibration,0,18,2,679,7,X,0,right,0.9197515629930422,1,0,,,,,,,,,,,,,,,,,,,,,1,,,,,,,,,,,,,,,,,,,,,,,,,,,,,,,,,,,,,,,,,,,,,,79,156697,21,Female,1,2024/02/27_08:49:34,YZ,None,
,,,,,,calibration,0,18,2,679,8,F,0,right,0.8434681780054234,1,0,,,,,,,,,,,,,,,,,,,,,1,,,,,,,,,,,,,,,,,,,,,,,,,,,,,,,,,,,,,,,,,,,,,,79,156697,21,Female,1,2024/02/27_08:49:34,YZ,None,
,,,,,,calibration,0,18,2,679,9,V,0,right,0.7308524789987132,1,0,,,,,,,,,,,,,,,,,,,,,1,,,,,,,,,,,,,,,,,,,,,,,,,,,,,,,,,,,,,,,,,,,,,,79,156697,21,Female,1,2024/02/27_08:49:34,YZ,None,
,,,,,,calibration,0,18,2,679,10,Q,0,right,0.693624468985945,1,0,,,,,,,,,,,,,,,,,,,,,1,,,,,,,,,,,,,,,,,,,,,,,,,,,,,,,,,,,,,,,,,,,,,,79,156697,21,Female,1,2024/02/27_08:49:34,YZ,None,
,,,,,,calibration,0,18,2,679,11,V,1,right,0.7756187450140715,0,0,,,,,,,,,,,,,,,,,,,,,1,,,,,,,,,,,,,,,,,,,,,,,,,,,,,,,,,,,,,,,,,,,,,,79,156697,21,Female,1,2024/02/27_08:49:34,YZ,None,
,,,,,,calibration,0,18,2,679,12,F,0,right,1.9653490259952378,1,0,,,,,,,,,,,,,,,,,,,,,1,,,,,,,,,,,,,,,,,,,,,,,,,,,,,,,,,,,,,,,,,,,,,,79,156697,21,Female,1,2024/02/27_08:49:34,YZ,None,
,,,,,,calibration,0,18,2,679,13,J,0,right,0.8327081539900973,1,0,,,,,,,,,,,,,,,,,,,,,1,,,,,,,,,,,,,,,,,,,,,,,,,,,,,,,,,,,,,,,,,,,,,,79,156697,21,Female,1,2024/02/27_08:49:34,YZ,None,
,,,,,,calibration,0,18,2,679,14,F,1,left,0.5914454140001908,1,0,,,,,,,,,,,,,,,,,,,,,1,,,,,,,,,,,,,,,,,,,,,,,,,,,,,,,,,,,,,,,,,,,,,,79,156697,21,Female,1,2024/02/27_08:49:34,YZ,None,
,,,,,,calibration,0,18,2,679,,,,,,,,0.9375,0.75,0.0,1.0,0.0,1.0,0.936785994640169,3,0,0,0,0,10,13,4,10,0,,,,1,,,,,,,,,,,,,,,,,,,,,,,,,,,,,,,,,,,,,,,,,,,,,,79,156697,21,Female,1,2024/02/27_08:49:34,YZ,None,
,,,,,,Calibration,0,,2,679,,,,,,,,,,,,,,,,,,,,,,,,,2,,,1,,,,,,,,,,,,,,,,,,,,,,,,,,,,,,,,,,,,,,,,,,,,,,79,156697,21,Female,1,2024/02/27_08:49:34,YZ,None,
,,,,,,calibration,0,8,2,583,1,J,0,right,1.1047925039893016,1,0,,,,,,,,,,,,,,,,,,,,,1,,,,,,,,,,,,,,,,,,,,,,,,,,,,,,,,,,,,,,,,,,,,,,79,156697,21,Female,1,2024/02/27_08:49:34,YZ,None,
,,,,,,calibration,0,8,2,583,2,Q,0,right,0.47159484899020754,1,0,,,,,,,,,,,,,,,,,,,,,1,,,,,,,,,,,,,,,,,,,,,,,,,,,,,,,,,,,,,,,,,,,,,,79,156697,21,Female,1,2024/02/27_08:49:34,YZ,None,
,,,,,,calibration,0,8,2,583,3,J,1,left,0.5927897529909387,1,0,,,,,,,,,,,,,,,,,,,,,1,,,,,,,,,,,,,,,,,,,,,,,,,,,,,,,,,,,,,,,,,,,,,,79,156697,21,Female,1,2024/02/27_08:49:34,YZ,None,
,,,,,,calibration,0,8,2,583,4,N,0,right,0.5461620890127961,1,0,,,,,,,,,,,,,,,,,,,,,1,,,,,,,,,,,,,,,,,,,,,,,,,,,,,,,,,,,,,,,,,,,,,,79,156697,21,Female,1,2024/02/27_08:49:34,YZ,None,
,,,,,,calibration,0,8,2,583,5,J,1,left,0.9256188299914356,1,0,,,,,,,,,,,,,,,,,,,,,1,,,,,,,,,,,,,,,,,,,,,,,,,,,,,,,,,,,,,,,,,,,,,,79,156697,21,Female,1,2024/02/27_08:49:34,YZ,None,
,,,,,,calibration,0,8,2,583,6,C,0,right,0.8354127659986261,1,0,,,,,,,,,,,,,,,,,,,,,1,,,,,,,,,,,,,,,,,,,,,,,,,,,,,,,,,,,,,,,,,,,,,,79,156697,21,Female,1,2024/02/27_08:49:34,YZ,None,
,,,,,,calibration,0,8,2,583,7,X,0,right,0.7767247929878067,1,0,,,,,,,,,,,,,,,,,,,,,1,,,,,,,,,,,,,,,,,,,,,,,,,,,,,,,,,,,,,,,,,,,,,,79,156697,21,Female,1,2024/02/27_08:49:34,YZ,None,
,,,,,,calibration,0,8,2,583,8,V,0,right,1.0914119920053054,1,0,,,,,,,,,,,,,,,,,,,,,1,,,,,,,,,,,,,,,,,,,,,,,,,,,,,,,,,,,,,,,,,,,,,,79,156697,21,Female,1,2024/02/27_08:49:34,YZ,None,
,,,,,,calibration,0,8,2,583,9,N,0,right,1.0469075290020555,1,0,,,,,,,,,,,,,,,,,,,,,1,,,,,,,,,,,,,,,,,,,,,,,,,,,,,,,,,,,,,,,,,,,,,,79,156697,21,Female,1,2024/02/27_08:49:34,YZ,None,
,,,,,,calibration,0,8,2,583,10,J,0,left,0.49075924800126813,0,0,,,,,,,,,,,,,,,,,,,,,1,,,,,,,,,,,,,,,,,,,,,,,,,,,,,,,,,,,,,,,,,,,,,,79,156697,21,Female,1,2024/02/27_08:49:34,YZ,None,
,,,,,,calibration,0,8,2,583,11,N,1,right,1.0576948510133661,0,0,,,,,,,,,,,,,,,,,,,,,1,,,,,,,,,,,,,,,,,,,,,,,,,,,,,,,,,,,,,,,,,,,,,,79,156697,21,Female,1,2024/02/27_08:49:34,YZ,None,
,,,,,,calibration,0,8,2,583,12,J,1,left,0.7802586689940654,1,0,,,,,,,,,,,,,,,,,,,,,1,,,,,,,,,,,,,,,,,,,,,,,,,,,,,,,,,,,,,,,,,,,,,,79,156697,21,Female,1,2024/02/27_08:49:34,YZ,None,
,,,,,,calibration,0,8,2,583,13,C,0,right,0.5648268449876923,1,0,,,,,,,,,,,,,,,,,,,,,1,,,,,,,,,,,,,,,,,,,,,,,,,,,,,,,,,,,,,,,,,,,,,,79,156697,21,Female,1,2024/02/27_08:49:34,YZ,None,
,,,,,,calibration,0,8,2,583,14,F,0,right,1.1988364509888925,1,0,,,,,,,,,,,,,,,,,,,,,1,,,,,,,,,,,,,,,,,,,,,,,,,,,,,,,,,,,,,,,,,,,,,,79,156697,21,Female,1,2024/02/27_08:49:34,YZ,None,
,,,,,,calibration,0,8,2,583,15,Q,0,right,1.5262362399953417,1,0,,,,,,,,,,,,,,,,,,,,,1,,,,,,,,,,,,,,,,,,,,,,,,,,,,,,,,,,,,,,,,,,,,,,79,156697,21,Female,1,2024/02/27_08:49:34,YZ,None,
,,,,,,calibration,0,8,2,583,,,,,,,,0.8920454545454546,0.75,0.09090909090909091,0.9090909090909091,0.0,0.9090909090909091,0.8673351605966066,3,1,0,0,0,10,13,4,11,0,,,,1,,,,,,,,,,,,,,,,,,,,,,,,,,,,,,,,,,,,,,,,,,,,,,79,156697,21,Female,1,2024/02/27_08:49:34,YZ,None,
,,,,,,Calibration,0,,2,583,,,,,,,,,,,,,,,,,,,,,,,,,3,,,1,,,,,,,,,,,,,,,,,,,,,,,,,,,,,,,,,,,,,,,,,,,,,,79,156697,21,Female,1,2024/02/27_08:49:34,YZ,None,
,,,,,,calibration,0,13,2,500,1,F,0,None,nan,0,1,,,,,,,,,,,,,,,,,,,,,1,,,,,,,,,,,,,,,,,,,,,,,,,,,,,,,,,,,,,,,,,,,,,,79,156697,21,Female,1,2024/02/27_08:49:34,YZ,None,
,,,,,,calibration,0,13,2,500,2,F,0,left,0.9139034470135812,0,0,,,,,,,,,,,,,,,,,,,,,1,,,,,,,,,,,,,,,,,,,,,,,,,,,,,,,,,,,,,,,,,,,,,,79,156697,21,Female,1,2024/02/27_08:49:34,YZ,None,
,,,,,,calibration,0,13,2,500,3,F,1,left,0.47656596498563886,1,0,,,,,,,,,,,,,,,,,,,,,1,,,,,,,,,,,,,,,,,,,,,,,,,,,,,,,,,,,,,,,,,,,,,,79,156697,21,Female,1,2024/02/27_08:49:34,YZ,None,
,,,,,,calibration,0,13,2,500,4,F,1,left,0.3252840669883881,1,0,,,,,,,,,,,,,,,,,,,,,1,,,,,,,,,,,,,,,,,,,,,,,,,,,,,,,,,,,,,,,,,,,,,,79,156697,21,Female,1,2024/02/27_08:49:34,YZ,None,
,,,,,,calibration,0,13,2,500,5,Q,0,left,0.16086010201252066,0,0,,,,,,,,,,,,,,,,,,,,,1,,,,,,,,,,,,,,,,,,,,,,,,,,,,,,,,,,,,,,,,,,,,,,79,156697,21,Female,1,2024/02/27_08:49:34,YZ,None,
,,,,,,calibration,0,13,2,500,6,F,1,left,nan,0,1,,,,,,,,,,,,,,,,,,,,,1,,,,,,,,,,,,,,,,,,,,,,,,,,,,,,,,,,,,,,,,,,,,,,79,156697,21,Female,1,2024/02/27_08:49:34,YZ,None,
,,,,,,calibration,0,13,2,500,7,Q,1,left,nan,0,1,,,,,,,,,,,,,,,,,,,,,1,,,,,,,,,,,,,,,,,,,,,,,,,,,,,,,,,,,,,,,,,,,,,,79,156697,21,Female,1,2024/02/27_08:49:34,YZ,None,
,,,,,,calibration,0,13,2,500,8,V,0,left,nan,0,1,,,,,,,,,,,,,,,,,,,,,1,,,,,,,,,,,,,,,,,,,,,,,,,,,,,,,,,,,,,,,,,,,,,,79,156697,21,Female,1,2024/02/27_08:49:34,YZ,None,
,,,,,,calibration,0,13,2,500,9,C,0,right,0.8576788479986135,1,0,,,,,,,,,,,,,,,,,,,,,1,,,,,,,,,,,,,,,,,,,,,,,,,,,,,,,,,,,,,,,,,,,,,,79,156697,21,Female,1,2024/02/27_08:49:34,YZ,None,
,,,,,,calibration,0,13,2,500,10,F,0,left,0.6099949380150065,0,0,,,,,,,,,,,,,,,,,,,,,1,,,,,,,,,,,,,,,,,,,,,,,,,,,,,,,,,,,,,,,,,,,,,,79,156697,21,Female,1,2024/02/27_08:49:34,YZ,None,
,,,,,,calibration,0,13,2,500,11,X,0,right,0.9417403020197526,1,0,,,,,,,,,,,,,,,,,,,,,1,,,,,,,,,,,,,,,,,,,,,,,,,,,,,,,,,,,,,,,,,,,,,,79,156697,21,Female,1,2024/02/27_08:49:34,YZ,None,
,,,,,,calibration,0,13,2,500,12,S,0,right,0.7982894090237096,1,0,,,,,,,,,,,,,,,,,,,,,1,,,,,,,,,,,,,,,,,,,,,,,,,,,,,,,,,,,,,,,,,,,,,,79,156697,21,Female,1,2024/02/27_08:49:34,YZ,None,
,,,,,,calibration,0,13,2,500,13,F,0,right,0.9142816759995185,1,0,,,,,,,,,,,,,,,,,,,,,1,,,,,,,,,,,,,,,,,,,,,,,,,,,,,,,,,,,,,,,,,,,,,,79,156697,21,Female,1,2024/02/27_08:49:34,YZ,None,
,,,,,,calibration,0,13,2,500,14,V,0,right,nan,0,1,,,,,,,,,,,,,,,,,,,,,1,,,,,,,,,,,,,,,,,,,,,,,,,,,,,,,,,,,,,,,,,,,,,,79,156697,21,Female,1,2024/02/27_08:49:34,YZ,None,
,,,,,,calibration,0,13,2,500,15,F,1,left,0.6148370900191367,1,0,,,,,,,,,,,,,,,,,,,,,1,,,,,,,,,,,,,,,,,,,,,,,,,,,,,,,,,,,,,,,,,,,,,,79,156697,21,Female,1,2024/02/27_08:49:34,YZ,None,
,,,,,,calibration,0,13,2,500,16,S,0,left,nan,0,1,,,,,,,,,,,,,,,,,,,,,1,,,,,,,,,,,,,,,,,,,,,,,,,,,,,,,,,,,,,,,,,,,,,,79,156697,21,Female,1,2024/02/27_08:49:34,YZ,None,
,,,,,,calibration,0,13,2,500,,,,,,,,0.7227272727272727,0.6,0.2727272727272727,0.5714285714285714,0.375,0.3522727272727273,0.6613435844075866,3,3,2,4,6,4,7,5,11,0,,,,1,,,,,,,,,,,,,,,,,,,,,,,,,,,,,,,,,,,,,,,,,,,,,,79,156697,21,Female,1,2024/02/27_08:49:34,YZ,None,
,,,,,,Calibration,0,,2,500,,,,,,,,,,,,,,,,,,,,,,,,,4,,,1,,,,,,,,,,,,,,,,,,,,,,,,,,,,,,,,,,,,,,,,,,,,,,79,156697,21,Female,1,2024/02/27_08:49:34,YZ,None,
,,,,,,calibration,0,26,2,583,1,C,0,right,1.1533442750223912,1,0,,,,,,,,,,,,,,,,,,,,,1,,,,,,,,,,,,,,,,,,,,,,,,,,,,,,,,,,,,,,,,,,,,,,79,156697,21,Female,1,2024/02/27_08:49:34,YZ,None,
,,,,,,calibration,0,26,2,583,2,J,0,right,0.512822619988583,1,0,,,,,,,,,,,,,,,,,,,,,1,,,,,,,,,,,,,,,,,,,,,,,,,,,,,,,,,,,,,,,,,,,,,,79,156697,21,Female,1,2024/02/27_08:49:34,YZ,None,
,,,,,,calibration,0,26,2,583,3,Q,0,right,0.7322715040063486,1,0,,,,,,,,,,,,,,,,,,,,,1,,,,,,,,,,,,,,,,,,,,,,,,,,,,,,,,,,,,,,,,,,,,,,79,156697,21,Female,1,2024/02/27_08:49:34,YZ,None,
,,,,,,calibration,0,26,2,583,4,V,0,right,0.7752158220100682,1,0,,,,,,,,,,,,,,,,,,,,,1,,,,,,,,,,,,,,,,,,,,,,,,,,,,,,,,,,,,,,,,,,,,,,79,156697,21,Female,1,2024/02/27_08:49:34,YZ,None,
,,,,,,calibration,0,26,2,583,5,N,0,right,0.5123894010030199,1,0,,,,,,,,,,,,,,,,,,,,,1,,,,,,,,,,,,,,,,,,,,,,,,,,,,,,,,,,,,,,,,,,,,,,79,156697,21,Female,1,2024/02/27_08:49:34,YZ,None,
,,,,,,calibration,0,26,2,583,6,V,1,right,0.4552033730142284,0,0,,,,,,,,,,,,,,,,,,,,,1,,,,,,,,,,,,,,,,,,,,,,,,,,,,,,,,,,,,,,,,,,,,,,79,156697,21,Female,1,2024/02/27_08:49:34,YZ,None,
,,,,,,calibration,0,26,2,583,7,N,1,right,0.7607757890073117,0,0,,,,,,,,,,,,,,,,,,,,,1,,,,,,,,,,,,,,,,,,,,,,,,,,,,,,,,,,,,,,,,,,,,,,79,156697,21,Female,1,2024/02/27_08:49:34,YZ,None,
,,,,,,calibration,0,26,2,583,8,J,0,right,0.590590189996874,1,0,,,,,,,,,,,,,,,,,,,,,1,,,,,,,,,,,,,,,,,,,,,,,,,,,,,,,,,,,,,,,,,,,,,,79,156697,21,Female,1,2024/02/27_08:49:34,YZ,None,
,,,,,,calibration,0,26,2,583,9,N,1,right,0.5418864859966561,0,0,,,,,,,,,,,,,,,,,,,,,1,,,,,,,,,,,,,,,,,,,,,,,,,,,,,,,,,,,,,,,,,,,,,,79,156697,21,Female,1,2024/02/27_08:49:34,YZ,None,
,,,,,,calibration,0,26,2,583,10,C,0,right,0.7512404479784891,1,0,,,,,,,,,,,,,,,,,,,,,1,,,,,,,,,,,,,,,,,,,,,,,,,,,,,,,,,,,,,,,,,,,,,,79,156697,21,Female,1,2024/02/27_08:49:34,YZ,None,
,,,,,,calibration,0,26,2,583,11,J,0,right,0.9614430229994468,1,0,,,,,,,,,,,,,,,,,,,,,1,,,,,,,,,,,,,,,,,,,,,,,,,,,,,,,,,,,,,,,,,,,,,,79,156697,21,Female,1,2024/02/27_08:49:34,YZ,None,
,,,,,,calibration,0,26,2,583,12,X,0,right,0.4796548579761293,1,0,,,,,,,,,,,,,,,,,,,,,1,,,,,,,,,,,,,,,,,,,,,,,,,,,,,,,,,,,,,,,,,,,,,,79,156697,21,Female,1,2024/02/27_08:49:34,YZ,None,
,,,,,,calibration,0,26,2,583,13,Q,0,left,1.0961981040018145,0,0,,,,,,,,,,,,,,,,,,,,,1,,,,,,,,,,,,,,,,,,,,,,,,,,,,,,,,,,,,,,,,,,,,,,79,156697,21,Female,1,2024/02/27_08:49:34,YZ,None,
,,,,,,calibration,0,26,2,583,14,X,1,right,0.6246175169944763,0,0,,,,,,,,,,,,,,,,,,,,,1,,,,,,,,,,,,,,,,,,,,,,,,,,,,,,,,,,,,,,,,,,,,,,79,156697,21,Female,1,2024/02/27_08:49:34,YZ,None,
,,,,,,calibration,0,26,2,583,15,J,0,right,0.6737731480097864,1,0,,,,,,,,,,,,,,,,,,,,,1,,,,,,,,,,,,,,,,,,,,,,,,,,,,,,,,,,,,,,,,,,,,,,79,156697,21,Female,1,2024/02/27_08:49:34,YZ,None,
,,,,,,calibration,0,26,2,583,,,,,,,,0.22727272727272727,0.0,0.09090909090909091,0.9090909090909091,0.0,0.9090909090909091,0.7080951038670416,0,1,0,0,0,10,10,4,11,0,,,,1,,,,,,,,,,,,,,,,,,,,,,,,,,,,,,,,,,,,,,,,,,,,,,79,156697,21,Female,1,2024/02/27_08:49:34,YZ,None,
,,,,,,Calibration,0,,2,583,,,,,,,,,,,,,,,,,,,,,,,,,5,,,1,,,,,,,,,,,,,,,,,,,,,,,,,,,,,,,,,,,,,,,,,,,,,,79,156697,21,Female,1,2024/02/27_08:49:34,YZ,None,
,,,,,,calibration,0,9,2,679,1,X,0,right,1.31663233198924,1,0,,,,,,,,,,,,,,,,,,,,,1,,,,,,,,,,,,,,,,,,,,,,,,,,,,,,,,,,,,,,,,,,,,,,79,156697,21,Female,1,2024/02/27_08:49:34,YZ,None,
,,,,,,calibration,0,9,2,679,2,J,0,right,0.592257462994894,1,0,,,,,,,,,,,,,,,,,,,,,1,,,,,,,,,,,,,,,,,,,,,,,,,,,,,,,,,,,,,,,,,,,,,,79,156697,21,Female,1,2024/02/27_08:49:34,YZ,None,
,,,,,,calibration,0,9,2,679,3,X,1,left,0.4938319239881821,1,0,,,,,,,,,,,,,,,,,,,,,1,,,,,,,,,,,,,,,,,,,,,,,,,,,,,,,,,,,,,,,,,,,,,,79,156697,21,Female,1,2024/02/27_08:49:34,YZ,None,
,,,,,,calibration,0,9,2,679,4,F,0,right,0.6293630869768094,1,0,,,,,,,,,,,,,,,,,,,,,1,,,,,,,,,,,,,,,,,,,,,,,,,,,,,,,,,,,,,,,,,,,,,,79,156697,21,Female,1,2024/02/27_08:49:34,YZ,None,
,,,,,,calibration,0,9,2,679,5,X,1,right,0.6185351140156854,0,0,,,,,,,,,,,,,,,,,,,,,1,,,,,,,,,,,,,,,,,,,,,,,,,,,,,,,,,,,,,,,,,,,,,,79,156697,21,Female,1,2024/02/27_08:49:34,YZ,None,
,,,,,,calibration,0,9,2,679,6,F,1,right,nan,0,1,,,,,,,,,,,,,,,,,,,,,1,,,,,,,,,,,,,,,,,,,,,,,,,,,,,,,,,,,,,,,,,,,,,,79,156697,21,Female,1,2024/02/27_08:49:34,YZ,None,
,,,,,,calibration,0,9,2,679,7,Q,0,right,1.432047276000958,1,0,,,,,,,,,,,,,,,,,,,,,1,,,,,,,,,,,,,,,,,,,,,,,,,,,,,,,,,,,,,,,,,,,,,,79,156697,21,Female,1,2024/02/27_08:49:34,YZ,None,
,,,,,,calibration,0,9,2,679,8,S,0,right,0.9640072729962412,1,0,,,,,,,,,,,,,,,,,,,,,1,,,,,,,,,,,,,,,,,,,,,,,,,,,,,,,,,,,,,,,,,,,,,,79,156697,21,Female,1,2024/02/27_08:49:34,YZ,None,
,,,,,,calibration,0,9,2,679,9,F,0,right,1.8494539319945034,1,0,,,,,,,,,,,,,,,,,,,,,1,,,,,,,,,,,,,,,,,,,,,,,,,,,,,,,,,,,,,,,,,,,,,,79,156697,21,Female,1,2024/02/27_08:49:34,YZ,None,
,,,,,,calibration,0,9,2,679,10,S,1,left,1.0078183519945014,1,0,,,,,,,,,,,,,,,,,,,,,1,,,,,,,,,,,,,,,,,,,,,,,,,,,,,,,,,,,,,,,,,,,,,,79,156697,21,Female,1,2024/02/27_08:49:34,YZ,None,
,,,,,,calibration,0,9,2,679,11,N,0,right,1.6069626820099074,1,0,,,,,,,,,,,,,,,,,,,,,1,,,,,,,,,,,,,,,,,,,,,,,,,,,,,,,,,,,,,,,,,,,,,,79,156697,21,Female,1,2024/02/27_08:49:34,YZ,None,
,,,,,,calibration,0,9,2,679,12,C,0,right,1.402563554001972,1,0,,,,,,,,,,,,,,,,,,,,,1,,,,,,,,,,,,,,,,,,,,,,,,,,,,,,,,,,,,,,,,,,,,,,79,156697,21,Female,1,2024/02/27_08:49:34,YZ,None,
,,,,,,calibration,0,9,2,679,13,S,0,right,0.8218426889798138,1,0,,,,,,,,,,,,,,,,,,,,,1,,,,,,,,,,,,,,,,,,,,,,,,,,,,,,,,,,,,,,,,,,,,,,79,156697,21,Female,1,2024/02/27_08:49:34,YZ,None,
,,,,,,calibration,0,9,2,679,14,X,0,right,0.5732541409961414,1,0,,,,,,,,,,,,,,,,,,,,,1,,,,,,,,,,,,,,,,,,,,,,,,,,,,,,,,,,,,,,,,,,,,,,79,156697,21,Female,1,2024/02/27_08:49:34,YZ,None,
,,,,,,calibration,0,9,2,679,,,,,,,,0.875,0.5,0.0,1.0,0.07142857142857142,0.9285714285714286,1.023736139918373,2,0,1,0,1,10,12,4,10,0,,,,1,,,,,,,,,,,,,,,,,,,,,,,,,,,,,,,,,,,,,,,,,,,,,,79,156697,21,Female,1,2024/02/27_08:49:34,YZ,None,
,,,,,,Calibration,0,,2,679,,,,,,,,,,,,,,,,,,,,,,,,,6,,,1,,,,,,,,,,,,,,,,,,,,,,,,,,,,,,,,,,,,,,,,,,,,,,79,156697,21,Female,1,2024/02/27_08:49:34,YZ,None,
,,,,,,calibration,0,14,2,583,1,X,0,right,1.207627538999077,1,0,,,,,,,,,,,,,,,,,,,,,1,,,,,,,,,,,,,,,,,,,,,,,,,,,,,,,,,,,,,,,,,,,,,,79,156697,21,Female,1,2024/02/27_08:49:34,YZ,None,
,,,,,,calibration,0,14,2,583,2,Q,0,right,0.7733508780074771,1,0,,,,,,,,,,,,,,,,,,,,,1,,,,,,,,,,,,,,,,,,,,,,,,,,,,,,,,,,,,,,,,,,,,,,79,156697,21,Female,1,2024/02/27_08:49:34,YZ,None,
,,,,,,calibration,0,14,2,583,3,S,0,right,0.6856717919872608,1,0,,,,,,,,,,,,,,,,,,,,,1,,,,,,,,,,,,,,,,,,,,,,,,,,,,,,,,,,,,,,,,,,,,,,79,156697,21,Female,1,2024/02/27_08:49:34,YZ,None,
,,,,,,calibration,0,14,2,583,4,Q,1,right,0.7923377149854787,0,0,,,,,,,,,,,,,,,,,,,,,1,,,,,,,,,,,,,,,,,,,,,,,,,,,,,,,,,,,,,,,,,,,,,,79,156697,21,Female,1,2024/02/27_08:49:34,YZ,None,
,,,,,,calibration,0,14,2,583,5,V,0,right,0.906857919995673,1,0,,,,,,,,,,,,,,,,,,,,,1,,,,,,,,,,,,,,,,,,,,,,,,,,,,,,,,,,,,,,,,,,,,,,79,156697,21,Female,1,2024/02/27_08:49:34,YZ,None,
,,,,,,calibration,0,14,2,583,6,Q,1,left,1.0901293409988284,1,0,,,,,,,,,,,,,,,,,,,,,1,,,,,,,,,,,,,,,,,,,,,,,,,,,,,,,,,,,,,,,,,,,,,,79,156697,21,Female,1,2024/02/27_08:49:34,YZ,None,
,,,,,,calibration,0,14,2,583,7,C,0,right,1.1086833800072782,1,0,,,,,,,,,,,,,,,,,,,,,1,,,,,,,,,,,,,,,,,,,,,,,,,,,,,,,,,,,,,,,,,,,,,,79,156697,21,Female,1,2024/02/27_08:49:34,YZ,None,
,,,,,,calibration,0,14,2,583,8,Q,1,right,1.9930056110024452,0,0,,,,,,,,,,,,,,,,,,,,,1,,,,,,,,,,,,,,,,,,,,,,,,,,,,,,,,,,,,,,,,,,,,,,79,156697,21,Female,1,2024/02/27_08:49:34,YZ,None,
,,,,,,calibration,0,14,2,583,9,V,0,left,1.451532377017429,0,0,,,,,,,,,,,,,,,,,,,,,1,,,,,,,,,,,,,,,,,,,,,,,,,,,,,,,,,,,,,,,,,,,,,,79,156697,21,Female,1,2024/02/27_08:49:34,YZ,None,
,,,,,,calibration,0,14,2,583,10,Q,1,right,0.6051789930206724,0,0,,,,,,,,,,,,,,,,,,,,,1,,,,,,,,,,,,,,,,,,,,,,,,,,,,,,,,,,,,,,,,,,,,,,79,156697,21,Female,1,2024/02/27_08:49:34,YZ,None,
,,,,,,calibration,0,14,2,583,11,V,1,left,0.8368435000011232,1,0,,,,,,,,,,,,,,,,,,,,,1,,,,,,,,,,,,,,,,,,,,,,,,,,,,,,,,,,,,,,,,,,,,,,79,156697,21,Female,1,2024/02/27_08:49:34,YZ,None,
,,,,,,calibration,0,14,2,583,12,S,0,right,0.46904620801797137,1,0,,,,,,,,,,,,,,,,,,,,,1,,,,,,,,,,,,,,,,,,,,,,,,,,,,,,,,,,,,,,,,,,,,,,79,156697,21,Female,1,2024/02/27_08:49:34,YZ,None,
,,,,,,calibration,0,14,2,583,13,Q,0,right,1.0587144019955304,1,0,,,,,,,,,,,,,,,,,,,,,1,,,,,,,,,,,,,,,,,,,,,,,,,,,,,,,,,,,,,,,,,,,,,,79,156697,21,Female,1,2024/02/27_08:49:34,YZ,None,
,,,,,,calibration,0,14,2,583,14,J,0,right,1.2017452389991377,1,0,,,,,,,,,,,,,,,,,,,,,1,,,,,,,,,,,,,,,,,,,,,,,,,,,,,,,,,,,,,,,,,,,,,,79,156697,21,Female,1,2024/02/27_08:49:34,YZ,None,
,,,,,,calibration,0,14,2,583,15,V,0,right,1.5969826180080418,1,0,,,,,,,,,,,,,,,,,,,,,1,,,,,,,,,,,,,,,,,,,,,,,,,,,,,,,,,,,,,,,,,,,,,,79,156697,21,Female,1,2024/02/27_08:49:34,YZ,None,
,,,,,,calibration,0,14,2,583,,,,,,,,0.7625,0.4,0.1,0.9,0.0,0.9,1.0518471675362282,2,1,0,0,0,9,11,5,10,0,,,,1,,,,,,,,,,,,,,,,,,,,,,,,,,,,,,,,,,,,,,,,,,,,,,79,156697,21,Female,1,2024/02/27_08:49:34,YZ,None,
,,,,,,Calibration,0,,2,583,,,,,,,,,,,,,,,,,,,,,,,,,7,,,1,,,,,,,,,,,,,,,,,,,,,,,,,,,,,,,,,,,,,,,,,,,,,,79,156697,21,Female,1,2024/02/27_08:49:34,YZ,None,
,,,,,,calibration,0,9,2,583,1,S,0,right,1.8145374669984449,1,0,,,,,,,,,,,,,,,,,,,,,1,,,,,,,,,,,,,,,,,,,,,,,,,,,,,,,,,,,,,,,,,,,,,,79,156697,21,Female,1,2024/02/27_08:49:34,YZ,None,
,,,,,,calibration,0,9,2,583,2,F,0,right,1.0917377860168926,1,0,,,,,,,,,,,,,,,,,,,,,1,,,,,,,,,,,,,,,,,,,,,,,,,,,,,,,,,,,,,,,,,,,,,,79,156697,21,Female,1,2024/02/27_08:49:34,YZ,None,
,,,,,,calibration,0,9,2,583,3,V,0,right,0.6883312680001836,1,0,,,,,,,,,,,,,,,,,,,,,1,,,,,,,,,,,,,,,,,,,,,,,,,,,,,,,,,,,,,,,,,,,,,,79,156697,21,Female,1,2024/02/27_08:49:34,YZ,None,
,,,,,,calibration,0,9,2,583,4,X,0,right,0.8045461360015906,1,0,,,,,,,,,,,,,,,,,,,,,1,,,,,,,,,,,,,,,,,,,,,,,,,,,,,,,,,,,,,,,,,,,,,,79,156697,21,Female,1,2024/02/27_08:49:34,YZ,None,
,,,,,,calibration,0,9,2,583,5,N,0,right,1.192380668973783,1,0,,,,,,,,,,,,,,,,,,,,,1,,,,,,,,,,,,,,,,,,,,,,,,,,,,,,,,,,,,,,,,,,,,,,79,156697,21,Female,1,2024/02/27_08:49:34,YZ,None,
,,,,,,calibration,0,9,2,583,6,J,0,right,1.6654651160060894,1,0,,,,,,,,,,,,,,,,,,,,,1,,,,,,,,,,,,,,,,,,,,,,,,,,,,,,,,,,,,,,,,,,,,,,79,156697,21,Female,1,2024/02/27_08:49:34,YZ,None,
,,,,,,calibration,0,9,2,583,7,F,0,left,1.5337151989806443,0,0,,,,,,,,,,,,,,,,,,,,,1,,,,,,,,,,,,,,,,,,,,,,,,,,,,,,,,,,,,,,,,,,,,,,79,156697,21,Female,1,2024/02/27_08:49:34,YZ,None,
,,,,,,calibration,0,9,2,583,8,N,0,right,0.5575976409891155,1,0,,,,,,,,,,,,,,,,,,,,,1,,,,,,,,,,,,,,,,,,,,,,,,,,,,,,,,,,,,,,,,,,,,,,79,156697,21,Female,1,2024/02/27_08:49:34,YZ,None,
,,,,,,calibration,0,9,2,583,9,S,0,right,0.5122220499906689,1,0,,,,,,,,,,,,,,,,,,,,,1,,,,,,,,,,,,,,,,,,,,,,,,,,,,,,,,,,,,,,,,,,,,,,79,156697,21,Female,1,2024/02/27_08:49:34,YZ,None,
,,,,,,calibration,0,9,2,583,10,J,0,left,0.45520938499248587,0,0,,,,,,,,,,,,,,,,,,,,,1,,,,,,,,,,,,,,,,,,,,,,,,,,,,,,,,,,,,,,,,,,,,,,79,156697,21,Female,1,2024/02/27_08:49:34,YZ,None,
,,,,,,calibration,0,9,2,583,11,S,1,left,0.3683688640012406,1,0,,,,,,,,,,,,,,,,,,,,,1,,,,,,,,,,,,,,,,,,,,,,,,,,,,,,,,,,,,,,,,,,,,,,79,156697,21,Female,1,2024/02/27_08:49:34,YZ,None,
,,,,,,calibration,0,9,2,583,12,J,1,right,0.1926139559946023,0,0,,,,,,,,,,,,,,,,,,,,,1,,,,,,,,,,,,,,,,,,,,,,,,,,,,,,,,,,,,,,,,,,,,,,79,156697,21,Female,1,2024/02/27_08:49:34,YZ,None,
,,,,,,calibration,0,9,2,583,13,V,0,left,0.2567111719981767,0,0,,,,,,,,,,,,,,,,,,,,,1,,,,,,,,,,,,,,,,,,,,,,,,,,,,,,,,,,,,,,,,,,,,,,79,156697,21,Female,1,2024/02/27_08:49:34,YZ,None,
,,,,,,calibration,0,9,2,583,14,J,1,right,0.1683029860141687,0,0,,,,,,,,,,,,,,,,,,,,,1,,,,,,,,,,,,,,,,,,,,,,,,,,,,,,,,,,,,,,,,,,,,,,79,156697,21,Female,1,2024/02/27_08:49:34,YZ,None,
,,,,,,calibration,0,9,2,583,15,V,1,right,0.9232686659961473,0,0,,,,,,,,,,,,,,,,,,,,,1,,,,,,,,,,,,,,,,,,,,,,,,,,,,,,,,,,,,,,,,,,,,,,79,156697,21,Female,1,2024/02/27_08:49:34,YZ,None,
,,,,,,calibration,0,9,2,583,,,,,,,,0.015151515151515138,0.25,0.2727272727272727,0.7272727272727273,0.0,0.7272727272727273,0.815000557396949,1,3,0,0,0,8,9,4,11,0,,,,1,,,,,,,,,,,,,,,,,,,,,,,,,,,,,,,,,,,,,,,,,,,,,,79,156697,21,Female,1,2024/02/27_08:49:34,YZ,None,
,,,,,,Calibration,0,,2,583,,,,,,,,,,,,,,,,,,,,,,,,,8,,,1,,,,,,,,,,,,,,,,,,,,,,,,,,,,,,,,,,,,,,,,,,,,,,79,156697,21,Female,1,2024/02/27_08:49:34,YZ,None,
,,,,,,calibration,0,12,2,679,1,V,0,right,1.0426250509917736,1,0,,,,,,,,,,,,,,,,,,,,,1,,,,,,,,,,,,,,,,,,,,,,,,,,,,,,,,,,,,,,,,,,,,,,79,156697,21,Female,1,2024/02/27_08:49:34,YZ,None,
,,,,,,calibration,0,12,2,679,2,N,0,right,nan,0,1,,,,,,,,,,,,,,,,,,,,,1,,,,,,,,,,,,,,,,,,,,,,,,,,,,,,,,,,,,,,,,,,,,,,79,156697,21,Female,1,2024/02/27_08:49:34,YZ,None,
,,,,,,calibration,0,12,2,679,3,V,1,right,0.15097444099956192,0,0,,,,,,,,,,,,,,,,,,,,,1,,,,,,,,,,,,,,,,,,,,,,,,,,,,,,,,,,,,,,,,,,,,,,79,156697,21,Female,1,2024/02/27_08:49:34,YZ,None,
,,,,,,calibration,0,12,2,679,4,Q,0,right,1.4631684730120469,1,0,,,,,,,,,,,,,,,,,,,,,1,,,,,,,,,,,,,,,,,,,,,,,,,,,,,,,,,,,,,,,,,,,,,,79,156697,21,Female,1,2024/02/27_08:49:34,YZ,None,
,,,,,,calibration,0,12,2,679,5,F,0,left,0.7041271149937529,0,0,,,,,,,,,,,,,,,,,,,,,1,,,,,,,,,,,,,,,,,,,,,,,,,,,,,,,,,,,,,,,,,,,,,,79,156697,21,Female,1,2024/02/27_08:49:34,YZ,None,
,,,,,,calibration,0,12,2,679,6,Q,1,right,0.680323573993519,0,0,,,,,,,,,,,,,,,,,,,,,1,,,,,,,,,,,,,,,,,,,,,,,,,,,,,,,,,,,,,,,,,,,,,,79,156697,21,Female,1,2024/02/27_08:49:34,YZ,None,
,,,,,,calibration,0,12,2,679,7,N,0,left,0.9752619809878524,0,0,,,,,,,,,,,,,,,,,,,,,1,,,,,,,,,,,,,,,,,,,,,,,,,,,,,,,,,,,,,,,,,,,,,,79,156697,21,Female,1,2024/02/27_08:49:34,YZ,None,
,,,,,,calibration,0,12,2,679,8,S,0,right,0.6014023019815795,1,0,,,,,,,,,,,,,,,,,,,,,1,,,,,,,,,,,,,,,,,,,,,,,,,,,,,,,,,,,,,,,,,,,,,,79,156697,21,Female,1,2024/02/27_08:49:34,YZ,None,
,,,,,,calibration,0,12,2,679,9,Q,0,left,0.4566212439967785,0,0,,,,,,,,,,,,,,,,,,,,,1,,,,,,,,,,,,,,,,,,,,,,,,,,,,,,,,,,,,,,,,,,,,,,79,156697,21,Female,1,2024/02/27_08:49:34,YZ,None,
,,,,,,calibration,0,12,2,679,10,X,0,right,0.5594459990097675,1,0,,,,,,,,,,,,,,,,,,,,,1,,,,,,,,,,,,,,,,,,,,,,,,,,,,,,,,,,,,,,,,,,,,,,79,156697,21,Female,1,2024/02/27_08:49:34,YZ,None,
,,,,,,calibration,0,12,2,679,11,J,0,right,0.35325109798577614,1,0,,,,,,,,,,,,,,,,,,,,,1,,,,,,,,,,,,,,,,,,,,,,,,,,,,,,,,,,,,,,,,,,,,,,79,156697,21,Female,1,2024/02/27_08:49:34,YZ,None,
,,,,,,calibration,0,12,2,679,12,X,1,right,0.4051286159956362,0,0,,,,,,,,,,,,,,,,,,,,,1,,,,,,,,,,,,,,,,,,,,,,,,,,,,,,,,,,,,,,,,,,,,,,79,156697,21,Female,1,2024/02/27_08:49:34,YZ,None,
,,,,,,calibration,0,12,2,679,13,C,0,right,0.16770736500620842,1,0,,,,,,,,,,,,,,,,,,,,,1,,,,,,,,,,,,,,,,,,,,,,,,,,,,,,,,,,,,,,,,,,,,,,79,156697,21,Female,1,2024/02/27_08:49:34,YZ,None,
,,,,,,calibration,0,12,2,679,14,X,1,right,0.2810909610125236,0,0,,,,,,,,,,,,,,,,,,,,,1,,,,,,,,,,,,,,,,,,,,,,,,,,,,,,,,,,,,,,,,,,,,,,79,156697,21,Female,1,2024/02/27_08:49:34,YZ,None,
,,,,,,calibration,0,12,2,679,,,,,,,,0.175,0.0,0.3,0.6666666666666666,0.07142857142857142,0.6285714285714286,0.6031637092282136,0,3,0,1,1,6,6,4,10,0,,,,1,,,,,,,,,,,,,,,,,,,,,,,,,,,,,,,,,,,,,,,,,,,,,,79,156697,21,Female,1,2024/02/27_08:49:34,YZ,None,
,,,,,,Calibration,0,,2,679,,,,,,,,,,,,,,,,,,,,,,,,,9,,,1,,,,,,,,,,,,,,,,,,,,,,,,,,,,,,,,,,,,,,,,,,,,,,79,156697,21,Female,1,2024/02/27_08:49:34,YZ,None,
,,,,,,calibration,0,5,2,788,1,X,0,right,1.647407511016354,1,0,,,,,,,,,,,,,,,,,,,,,1,,,,,,,,,,,,,,,,,,,,,,,,,,,,,,,,,,,,,,,,,,,,,,79,156697,21,Female,1,2024/02/27_08:49:34,YZ,None,
,,,,,,calibration,0,5,2,788,2,S,0,right,0.4513572040013969,1,0,,,,,,,,,,,,,,,,,,,,,1,,,,,,,,,,,,,,,,,,,,,,,,,,,,,,,,,,,,,,,,,,,,,,79,156697,21,Female,1,2024/02/27_08:49:34,YZ,None,
,,,,,,calibration,0,5,2,788,3,F,0,right,0.8158295470057055,1,0,,,,,,,,,,,,,,,,,,,,,1,,,,,,,,,,,,,,,,,,,,,,,,,,,,,,,,,,,,,,,,,,,,,,79,156697,21,Female,1,2024/02/27_08:49:34,YZ,None,
,,,,,,calibration,0,5,2,788,4,N,0,right,0.48940901999594644,1,0,,,,,,,,,,,,,,,,,,,,,1,,,,,,,,,,,,,,,,,,,,,,,,,,,,,,,,,,,,,,,,,,,,,,79,156697,21,Female,1,2024/02/27_08:49:34,YZ,None,
,,,,,,calibration,0,5,2,788,5,X,0,right,0.6083517289953306,1,0,,,,,,,,,,,,,,,,,,,,,1,,,,,,,,,,,,,,,,,,,,,,,,,,,,,,,,,,,,,,,,,,,,,,79,156697,21,Female,1,2024/02/27_08:49:34,YZ,None,
,,,,,,calibration,0,5,2,788,6,N,1,right,0.3974004040064756,0,0,,,,,,,,,,,,,,,,,,,,,1,,,,,,,,,,,,,,,,,,,,,,,,,,,,,,,,,,,,,,,,,,,,,,79,156697,21,Female,1,2024/02/27_08:49:34,YZ,None,
,,,,,,calibration,0,5,2,788,7,X,1,right,0.44797464698785916,0,0,,,,,,,,,,,,,,,,,,,,,1,,,,,,,,,,,,,,,,,,,,,,,,,,,,,,,,,,,,,,,,,,,,,,79,156697,21,Female,1,2024/02/27_08:49:34,YZ,None,
,,,,,,calibration,0,5,2,788,8,Q,0,right,0.3887280579947401,1,0,,,,,,,,,,,,,,,,,,,,,1,,,,,,,,,,,,,,,,,,,,,,,,,,,,,,,,,,,,,,,,,,,,,,79,156697,21,Female,1,2024/02/27_08:49:34,YZ,None,
,,,,,,calibration,0,5,2,788,9,X,1,right,0.36914047398022376,0,0,,,,,,,,,,,,,,,,,,,,,1,,,,,,,,,,,,,,,,,,,,,,,,,,,,,,,,,,,,,,,,,,,,,,79,156697,21,Female,1,2024/02/27_08:49:34,YZ,None,
,,,,,,calibration,0,5,2,788,10,N,0,left,0.0004986480053048581,0,0,,,,,,,,,,,,,,,,,,,,,1,,,,,,,,,,,,,,,,,,,,,,,,,,,,,,,,,,,,,,,,,,,,,,79,156697,21,Female,1,2024/02/27_08:49:34,YZ,None,
,,,,,,calibration,0,5,2,788,11,V,0,right,1.5472021010064054,1,0,,,,,,,,,,,,,,,,,,,,,1,,,,,,,,,,,,,,,,,,,,,,,,,,,,,,,,,,,,,,,,,,,,,,79,156697,21,Female,1,2024/02/27_08:49:34,YZ,None,
,,,,,,calibration,0,5,2,788,12,X,0,left,0.8598295479896478,0,0,,,,,,,,,,,,,,,,,,,,,1,,,,,,,,,,,,,,,,,,,,,,,,,,,,,,,,,,,,,,,,,,,,,,79,156697,21,Female,1,2024/02/27_08:49:34,YZ,None,
,,,,,,calibration,0,5,2,788,13,V,1,left,0.6583595669944771,1,0,,,,,,,,,,,,,,,,,,,,,1,,,,,,,,,,,,,,,,,,,,,,,,,,,,,,,,,,,,,,,,,,,,,,79,156697,21,Female,1,2024/02/27_08:49:34,YZ,None,
,,,,,,calibration,0,5,2,788,,,,,,,,0.5347222222222222,0.25,0.2222222222222222,0.7777777777777778,0.0,0.7777777777777778,0.6678068044599897,1,2,0,0,0,7,8,4,9,0,,,,1,,,,,,,,,,,,,,,,,,,,,,,,,,,,,,,,,,,,,,,,,,,,,,79,156697,21,Female,1,2024/02/27_08:49:34,YZ,None,
,,,,,,Calibration,0,,2,788,,,,,,,,,,,,,,,,,,,,,,,,,10,,,1,,,,,,,,,,,,,,,,,,,,,,,,,,,,,,,,,,,,,,,,,,,,,,79,156697,21,Female,1,2024/02/27_08:49:34,YZ,None,
,,,,,,calibration,0,20,2,917,1,V,0,right,1.8395690500037745,1,0,,,,,,,,,,,,,,,,,,,,,1,,,,,,,,,,,,,,,,,,,,,,,,,,,,,,,,,,,,,,,,,,,,,,79,156697,21,Female,1,2024/02/27_08:49:34,YZ,None,
,,,,,,calibration,0,20,2,917,2,S,0,right,0.6484031789877918,1,0,,,,,,,,,,,,,,,,,,,,,1,,,,,,,,,,,,,,,,,,,,,,,,,,,,,,,,,,,,,,,,,,,,,,79,156697,21,Female,1,2024/02/27_08:49:34,YZ,None,
,,,,,,calibration,0,20,2,917,3,V,1,left,0.35758754701237194,1,0,,,,,,,,,,,,,,,,,,,,,1,,,,,,,,,,,,,,,,,,,,,,,,,,,,,,,,,,,,,,,,,,,,,,79,156697,21,Female,1,2024/02/27_08:49:34,YZ,None,
,,,,,,calibration,0,20,2,917,4,X,0,left,0.7600562349834945,0,0,,,,,,,,,,,,,,,,,,,,,1,,,,,,,,,,,,,,,,,,,,,,,,,,,,,,,,,,,,,,,,,,,,,,79,156697,21,Female,1,2024/02/27_08:49:34,YZ,None,
,,,,,,calibration,0,20,2,917,5,F,0,right,0.5575219330203254,1,0,,,,,,,,,,,,,,,,,,,,,1,,,,,,,,,,,,,,,,,,,,,,,,,,,,,,,,,,,,,,,,,,,,,,79,156697,21,Female,1,2024/02/27_08:49:34,YZ,None,
,,,,,,calibration,0,20,2,917,6,J,0,right,0.45898756600217894,1,0,,,,,,,,,,,,,,,,,,,,,1,,,,,,,,,,,,,,,,,,,,,,,,,,,,,,,,,,,,,,,,,,,,,,79,156697,21,Female,1,2024/02/27_08:49:34,YZ,None,
,,,,,,calibration,0,20,2,917,7,V,0,left,0.614543090981897,0,0,,,,,,,,,,,,,,,,,,,,,1,,,,,,,,,,,,,,,,,,,,,,,,,,,,,,,,,,,,,,,,,,,,,,79,156697,21,Female,1,2024/02/27_08:49:34,YZ,None,
,,,,,,calibration,0,20,2,917,8,N,0,right,1.2930619780090638,1,0,,,,,,,,,,,,,,,,,,,,,1,,,,,,,,,,,,,,,,,,,,,,,,,,,,,,,,,,,,,,,,,,,,,,79,156697,21,Female,1,2024/02/27_08:49:34,YZ,None,
,,,,,,calibration,0,20,2,917,9,F,0,right,1.0736456119921058,1,0,,,,,,,,,,,,,,,,,,,,,1,,,,,,,,,,,,,,,,,,,,,,,,,,,,,,,,,,,,,,,,,,,,,,79,156697,21,Female,1,2024/02/27_08:49:34,YZ,None,
,,,,,,calibration,0,20,2,917,10,N,1,left,0.7245598139998037,1,0,,,,,,,,,,,,,,,,,,,,,1,,,,,,,,,,,,,,,,,,,,,,,,,,,,,,,,,,,,,,,,,,,,,,79,156697,21,Female,1,2024/02/27_08:49:34,YZ,None,
,,,,,,calibration,0,20,2,917,11,F,1,left,0.6356442089891061,1,0,,,,,,,,,,,,,,,,,,,,,1,,,,,,,,,,,,,,,,,,,,,,,,,,,,,,,,,,,,,,,,,,,,,,79,156697,21,Female,1,2024/02/27_08:49:34,YZ,None,
,,,,,,calibration,0,20,2,917,12,V,0,right,0.6802545450045727,1,0,,,,,,,,,,,,,,,,,,,,,1,,,,,,,,,,,,,,,,,,,,,,,,,,,,,,,,,,,,,,,,,,,,,,79,156697,21,Female,1,2024/02/27_08:49:34,YZ,None,
,,,,,,calibration,0,20,2,917,,,,,,,,0.9444444444444444,1.0,0.2222222222222222,0.7777777777777778,0.0,0.7777777777777778,0.8036528965822072,3,2,0,0,0,7,10,3,9,0,,,,1,,,,,,,,,,,,,,,,,,,,,,,,,,,,,,,,,,,,,,,,,,,,,,79,156697,21,Female,1,2024/02/27_08:49:34,YZ,None,
,,,,,,Calibration,0,,2,917,,,,,,,,,,,,,,,,,,,,,,,,,11,,,1,,,,,,,,,,,,,,,,,,,,,,,,,,,,,,,,,,,,,,,,,,,,,,79,156697,21,Female,1,2024/02/27_08:49:34,YZ,None,
,,,,,,calibration,0,14,2,788,1,V,0,right,0.9961558149952907,1,0,,,,,,,,,,,,,,,,,,,,,1,,,,,,,,,,,,,,,,,,,,,,,,,,,,,,,,,,,,,,,,,,,,,,79,156697,21,Female,1,2024/02/27_08:49:34,YZ,None,
,,,,,,calibration,0,14,2,788,2,V,0,left,0.7473621510143857,0,0,,,,,,,,,,,,,,,,,,,,,1,,,,,,,,,,,,,,,,,,,,,,,,,,,,,,,,,,,,,,,,,,,,,,79,156697,21,Female,1,2024/02/27_08:49:34,YZ,None,
,,,,,,calibration,0,14,2,788,3,J,0,right,0.8483060239814222,1,0,,,,,,,,,,,,,,,,,,,,,1,,,,,,,,,,,,,,,,,,,,,,,,,,,,,,,,,,,,,,,,,,,,,,79,156697,21,Female,1,2024/02/27_08:49:34,YZ,None,
,,,,,,calibration,0,14,2,788,4,V,1,left,0.7921603040012997,1,0,,,,,,,,,,,,,,,,,,,,,1,,,,,,,,,,,,,,,,,,,,,,,,,,,,,,,,,,,,,,,,,,,,,,79,156697,21,Female,1,2024/02/27_08:49:34,YZ,None,
,,,,,,calibration,0,14,2,788,5,N,0,right,0.8068718390131835,1,0,,,,,,,,,,,,,,,,,,,,,1,,,,,,,,,,,,,,,,,,,,,,,,,,,,,,,,,,,,,,,,,,,,,,79,156697,21,Female,1,2024/02/27_08:49:34,YZ,None,
,,,,,,calibration,0,14,2,788,6,F,0,right,1.2183061279938556,1,0,,,,,,,,,,,,,,,,,,,,,1,,,,,,,,,,,,,,,,,,,,,,,,,,,,,,,,,,,,,,,,,,,,,,79,156697,21,Female,1,2024/02/27_08:49:34,YZ,None,
,,,,,,calibration,0,14,2,788,7,C,0,right,nan,0,1,,,,,,,,,,,,,,,,,,,,,1,,,,,,,,,,,,,,,,,,,,,,,,,,,,,,,,,,,,,,,,,,,,,,79,156697,21,Female,1,2024/02/27_08:49:34,YZ,None,
,,,,,,calibration,0,14,2,788,8,S,0,right,nan,0,1,,,,,,,,,,,,,,,,,,,,,1,,,,,,,,,,,,,,,,,,,,,,,,,,,,,,,,,,,,,,,,,,,,,,79,156697,21,Female,1,2024/02/27_08:49:34,YZ,None,
,,,,,,calibration,0,14,2,788,9,C,1,right,0.0,0,0,,,,,,,,,,,,,,,,,,,,,1,,,,,,,,,,,,,,,,,,,,,,,,,,,,,,,,,,,,,,,,,,,,,,79,156697,21,Female,1,2024/02/27_08:49:34,YZ,None,
,,,,,,calibration,0,14,2,788,10,V,0,left,0.16967500900500454,0,0,,,,,,,,,,,,,,,,,,,,,1,,,,,,,,,,,,,,,,,,,,,,,,,,,,,,,,,,,,,,,,,,,,,,79,156697,21,Female,1,2024/02/27_08:49:34,YZ,None,
,,,,,,calibration,0,14,2,788,11,X,0,left,nan,0,1,,,,,,,,,,,,,,,,,,,,,1,,,,,,,,,,,,,,,,,,,,,,,,,,,,,,,,,,,,,,,,,,,,,,79,156697,21,Female,1,2024/02/27_08:49:34,YZ,None,
,,,,,,calibration,0,14,2,788,12,V,1,right,1.8084776450123172,0,0,,,,,,,,,,,,,,,,,,,,,1,,,,,,,,,,,,,,,,,,,,,,,,,,,,,,,,,,,,,,,,,,,,,,79,156697,21,Female,1,2024/02/27_08:49:34,YZ,None,
,,,,,,calibration,0,14,2,788,13,X,1,left,0.8189800379914232,1,0,,,,,,,,,,,,,,,,,,,,,1,,,,,,,,,,,,,,,,,,,,,,,,,,,,,,,,,,,,,,,,,,,,,,79,156697,21,Female,1,2024/02/27_08:49:34,YZ,None,
,,,,,,calibration,0,14,2,788,,,,,,,,0.7083333333333333,0.5,0.2222222222222222,0.6666666666666666,0.23076923076923078,0.5470085470085471,0.8206294953008182,2,2,0,3,3,4,6,4,9,0,,,,1,,,,,,,,,,,,,,,,,,,,,,,,,,,,,,,,,,,,,,,,,,,,,,79,156697,21,Female,1,2024/02/27_08:49:34,YZ,None,
,,,,,,Calibration,0,,2,788,,,,,,,,,,,,,,,,,,,,,,,,,12,,,1,,,,,,,,,,,,,,,,,,,,,,,,,,,,,,,,,,,,,,,,,,,,,,79,156697,21,Female,1,2024/02/27_08:49:34,YZ,None,
,,,,,,calibration,0,8,2,917,1,Q,0,right,1.2098240409977734,1,0,,,,,,,,,,,,,,,,,,,,,1,,,,,,,,,,,,,,,,,,,,,,,,,,,,,,,,,,,,,,,,,,,,,,79,156697,21,Female,1,2024/02/27_08:49:34,YZ,None,
,,,,,,calibration,0,8,2,917,2,V,0,right,0.9560800319886766,1,0,,,,,,,,,,,,,,,,,,,,,1,,,,,,,,,,,,,,,,,,,,,,,,,,,,,,,,,,,,,,,,,,,,,,79,156697,21,Female,1,2024/02/27_08:49:34,YZ,None,
,,,,,,calibration,0,8,2,917,3,Q,1,left,0.817657258012332,1,0,,,,,,,,,,,,,,,,,,,,,1,,,,,,,,,,,,,,,,,,,,,,,,,,,,,,,,,,,,,,,,,,,,,,79,156697,21,Female,1,2024/02/27_08:49:34,YZ,None,
,,,,,,calibration,0,8,2,917,4,X,0,right,0.7097077229991555,1,0,,,,,,,,,,,,,,,,,,,,,1,,,,,,,,,,,,,,,,,,,,,,,,,,,,,,,,,,,,,,,,,,,,,,79,156697,21,Female,1,2024/02/27_08:49:34,YZ,None,
,,,,,,calibration,0,8,2,917,5,F,0,right,1.3316138639929704,1,0,,,,,,,,,,,,,,,,,,,,,1,,,,,,,,,,,,,,,,,,,,,,,,,,,,,,,,,,,,,,,,,,,,,,79,156697,21,Female,1,2024/02/27_08:49:34,YZ,None,
,,,,,,calibration,0,8,2,917,6,N,0,right,1.5159160589973908,1,0,,,,,,,,,,,,,,,,,,,,,1,,,,,,,,,,,,,,,,,,,,,,,,,,,,,,,,,,,,,,,,,,,,,,79,156697,21,Female,1,2024/02/27_08:49:34,YZ,None,
,,,,,,calibration,0,8,2,917,7,F,1,left,1.4319283750082832,1,0,,,,,,,,,,,,,,,,,,,,,1,,,,,,,,,,,,,,,,,,,,,,,,,,,,,,,,,,,,,,,,,,,,,,79,156697,21,Female,1,2024/02/27_08:49:34,YZ,None,
,,,,,,calibration,0,8,2,917,8,S,0,right,1.7998873809992801,1,0,,,,,,,,,,,,,,,,,,,,,1,,,,,,,,,,,,,,,,,,,,,,,,,,,,,,,,,,,,,,,,,,,,,,79,156697,21,Female,1,2024/02/27_08:49:34,YZ,None,
,,,,,,calibration,0,8,2,917,9,F,1,left,1.7318842379900161,1,0,,,,,,,,,,,,,,,,,,,,,1,,,,,,,,,,,,,,,,,,,,,,,,,,,,,,,,,,,,,,,,,,,,,,79,156697,21,Female,1,2024/02/27_08:49:34,YZ,None,
,,,,,,calibration,0,8,2,917,10,S,1,right,1.1238658410147764,0,0,,,,,,,,,,,,,,,,,,,,,1,,,,,,,,,,,,,,,,,,,,,,,,,,,,,,,,,,,,,,,,,,,,,,79,156697,21,Female,1,2024/02/27_08:49:34,YZ,None,
,,,,,,calibration,0,8,2,917,11,Q,0,right,1.7470077229954768,1,0,,,,,,,,,,,,,,,,,,,,,1,,,,,,,,,,,,,,,,,,,,,,,,,,,,,,,,,,,,,,,,,,,,,,79,156697,21,Female,1,2024/02/27_08:49:34,YZ,None,
,,,,,,calibration,0,8,2,917,12,N,0,right,1.748268614988774,1,0,,,,,,,,,,,,,,,,,,,,,1,,,,,,,,,,,,,,,,,,,,,,,,,,,,,,,,,,,,,,,,,,,,,,79,156697,21,Female,1,2024/02/27_08:49:34,YZ,None,
,,,,,,calibration,0,8,2,917,,,,,,,,0.9375,0.75,0.0,1.0,0.0,1.0,1.3436367624987422,3,0,0,0,0,8,11,4,8,0,,,,1,,,,,,,,,,,,,,,,,,,,,,,,,,,,,,,,,,,,,,,,,,,,,,79,156697,21,Female,1,2024/02/27_08:49:34,YZ,None,
,,,,,,Calibration,0,,2,917,,,,,,,,,,,,,,,,,,,,,,,,,13,,,1,,,,,,,,,,,,,,,,,,,,,,,,,,,,,,,,,,,,,,,,,,,,,,79,156697,21,Female,1,2024/02/27_08:49:34,YZ,None,
,,,,,,calibration,0,10,2,788,1,N,0,right,0.9969312500033993,1,0,,,,,,,,,,,,,,,,,,,,,1,,,,,,,,,,,,,,,,,,,,,,,,,,,,,,,,,,,,,,,,,,,,,,79,156697,21,Female,1,2024/02/27_08:49:34,YZ,None,
,,,,,,calibration,0,10,2,788,2,S,0,right,0.5588424390007276,1,0,,,,,,,,,,,,,,,,,,,,,1,,,,,,,,,,,,,,,,,,,,,,,,,,,,,,,,,,,,,,,,,,,,,,79,156697,21,Female,1,2024/02/27_08:49:34,YZ,None,
,,,,,,calibration,0,10,2,788,3,N,1,left,0.6588518130010925,1,0,,,,,,,,,,,,,,,,,,,,,1,,,,,,,,,,,,,,,,,,,,,,,,,,,,,,,,,,,,,,,,,,,,,,79,156697,21,Female,1,2024/02/27_08:49:34,YZ,None,
,,,,,,calibration,0,10,2,788,4,J,0,right,0.7424565200053621,1,0,,,,,,,,,,,,,,,,,,,,,1,,,,,,,,,,,,,,,,,,,,,,,,,,,,,,,,,,,,,,,,,,,,,,79,156697,21,Female,1,2024/02/27_08:49:34,YZ,None,
,,,,,,calibration,0,10,2,788,5,N,1,left,0.7913815990032163,1,0,,,,,,,,,,,,,,,,,,,,,1,,,,,,,,,,,,,,,,,,,,,,,,,,,,,,,,,,,,,,,,,,,,,,79,156697,21,Female,1,2024/02/27_08:49:34,YZ,None,
,,,,,,calibration,0,10,2,788,6,S,0,right,1.339525991003029,1,0,,,,,,,,,,,,,,,,,,,,,1,,,,,,,,,,,,,,,,,,,,,,,,,,,,,,,,,,,,,,,,,,,,,,79,156697,21,Female,1,2024/02/27_08:49:34,YZ,None,
,,,,,,calibration,0,10,2,788,7,V,0,right,1.3854872769734357,1,0,,,,,,,,,,,,,,,,,,,,,1,,,,,,,,,,,,,,,,,,,,,,,,,,,,,,,,,,,,,,,,,,,,,,79,156697,21,Female,1,2024/02/27_08:49:34,YZ,None,
,,,,,,calibration,0,10,2,788,8,S,1,left,0.6684793639869895,1,0,,,,,,,,,,,,,,,,,,,,,1,,,,,,,,,,,,,,,,,,,,,,,,,,,,,,,,,,,,,,,,,,,,,,79,156697,21,Female,1,2024/02/27_08:49:34,YZ,None,
,,,,,,calibration,0,10,2,788,9,N,0,right,1.5717981219931971,1,0,,,,,,,,,,,,,,,,,,,,,1,,,,,,,,,,,,,,,,,,,,,,,,,,,,,,,,,,,,,,,,,,,,,,79,156697,21,Female,1,2024/02/27_08:49:34,YZ,None,
,,,,,,calibration,0,10,2,788,10,C,0,right,1.559765411016997,1,0,,,,,,,,,,,,,,,,,,,,,1,,,,,,,,,,,,,,,,,,,,,,,,,,,,,,,,,,,,,,,,,,,,,,79,156697,21,Female,1,2024/02/27_08:49:34,YZ,None,
,,,,,,calibration,0,10,2,788,11,F,0,right,1.1076972279988695,1,0,,,,,,,,,,,,,,,,,,,,,1,,,,,,,,,,,,,,,,,,,,,,,,,,,,,,,,,,,,,,,,,,,,,,79,156697,21,Female,1,2024/02/27_08:49:34,YZ,None,
,,,,,,calibration,0,10,2,788,12,C,1,left,0.75615243500215,1,0,,,,,,,,,,,,,,,,,,,,,1,,,,,,,,,,,,,,,,,,,,,,,,,,,,,,,,,,,,,,,,,,,,,,79,156697,21,Female,1,2024/02/27_08:49:34,YZ,None,
,,,,,,calibration,0,10,2,788,13,J,0,right,0.8748123109980952,1,0,,,,,,,,,,,,,,,,,,,,,1,,,,,,,,,,,,,,,,,,,,,,,,,,,,,,,,,,,,,,,,,,,,,,79,156697,21,Female,1,2024/02/27_08:49:34,YZ,None,
,,,,,,calibration,0,10,2,788,,,,,,,,1.0,1.0,0.0,1.0,0.0,1.0,1.0009370584605046,4,0,0,0,0,9,13,4,9,0,,,,1,,,,,,,,,,,,,,,,,,,,,,,,,,,,,,,,,,,,,,,,,,,,,,79,156697,21,Female,1,2024/02/27_08:49:34,YZ,None,
,,,,,,Calibration,0,,2,788,,,,,,,,,,,,,,,,,,,,,,,,,14,,,1,,,,,,,,,,,,,,,,,,,,,,,,,,,,,,,,,,,,,,,,,,,,,,79,156697,21,Female,1,2024/02/27_08:49:34,YZ,None,
,,,,,,calibration,0,1,2,679,1,C,0,right,0.7142224120034371,1,0,,,,,,,,,,,,,,,,,,,,,1,,,,,,,,,,,,,,,,,,,,,,,,,,,,,,,,,,,,,,,,,,,,,,79,156697,21,Female,1,2024/02/27_08:49:34,YZ,None,
,,,,,,calibration,0,1,2,679,2,F,0,right,0.7090497119934298,1,0,,,,,,,,,,,,,,,,,,,,,1,,,,,,,,,,,,,,,,,,,,,,,,,,,,,,,,,,,,,,,,,,,,,,79,156697,21,Female,1,2024/02/27_08:49:34,YZ,None,
,,,,,,calibration,0,1,2,679,3,C,1,left,0.7914136729959864,1,0,,,,,,,,,,,,,,,,,,,,,1,,,,,,,,,,,,,,,,,,,,,,,,,,,,,,,,,,,,,,,,,,,,,,79,156697,21,Female,1,2024/02/27_08:49:34,YZ,None,
,,,,,,calibration,0,1,2,679,4,J,0,right,0.5363072309992276,1,0,,,,,,,,,,,,,,,,,,,,,1,,,,,,,,,,,,,,,,,,,,,,,,,,,,,,,,,,,,,,,,,,,,,,79,156697,21,Female,1,2024/02/27_08:49:34,YZ,None,
,,,,,,calibration,0,1,2,679,5,N,0,right,0.5561773969966453,1,0,,,,,,,,,,,,,,,,,,,,,1,,,,,,,,,,,,,,,,,,,,,,,,,,,,,,,,,,,,,,,,,,,,,,79,156697,21,Female,1,2024/02/27_08:49:34,YZ,None,
,,,,,,calibration,0,1,2,679,6,S,0,right,1.7427360930014402,1,0,,,,,,,,,,,,,,,,,,,,,1,,,,,,,,,,,,,,,,,,,,,,,,,,,,,,,,,,,,,,,,,,,,,,79,156697,21,Female,1,2024/02/27_08:49:34,YZ,None,
,,,,,,calibration,0,1,2,679,7,N,1,left,0.7980551809887402,1,0,,,,,,,,,,,,,,,,,,,,,1,,,,,,,,,,,,,,,,,,,,,,,,,,,,,,,,,,,,,,,,,,,,,,79,156697,21,Female,1,2024/02/27_08:49:34,YZ,None,
,,,,,,calibration,0,1,2,679,8,V,0,right,0.5808669819962233,1,0,,,,,,,,,,,,,,,,,,,,,1,,,,,,,,,,,,,,,,,,,,,,,,,,,,,,,,,,,,,,,,,,,,,,79,156697,21,Female,1,2024/02/27_08:49:34,YZ,None,
,,,,,,calibration,0,1,2,679,9,C,0,right,1.3591139130003285,1,0,,,,,,,,,,,,,,,,,,,,,1,,,,,,,,,,,,,,,,,,,,,,,,,,,,,,,,,,,,,,,,,,,,,,79,156697,21,Female,1,2024/02/27_08:49:34,YZ,None,
,,,,,,calibration,0,1,2,679,10,V,1,right,0.642495024978416,0,0,,,,,,,,,,,,,,,,,,,,,1,,,,,,,,,,,,,,,,,,,,,,,,,,,,,,,,,,,,,,,,,,,,,,79,156697,21,Female,1,2024/02/27_08:49:34,YZ,None,
,,,,,,calibration,0,1,2,679,11,X,0,right,1.2079310519911814,1,0,,,,,,,,,,,,,,,,,,,,,1,,,,,,,,,,,,,,,,,,,,,,,,,,,,,,,,,,,,,,,,,,,,,,79,156697,21,Female,1,2024/02/27_08:49:34,YZ,None,
,,,,,,calibration,0,1,2,679,12,J,0,right,0.9389294740103651,1,0,,,,,,,,,,,,,,,,,,,,,1,,,,,,,,,,,,,,,,,,,,,,,,,,,,,,,,,,,,,,,,,,,,,,79,156697,21,Female,1,2024/02/27_08:49:34,YZ,None,
,,,,,,calibration,0,1,2,679,13,X,1,right,nan,0,1,,,,,,,,,,,,,,,,,,,,,1,,,,,,,,,,,,,,,,,,,,,,,,,,,,,,,,,,,,,,,,,,,,,,79,156697,21,Female,1,2024/02/27_08:49:34,YZ,None,
,,,,,,calibration,0,1,2,679,14,C,0,right,0.6469788890099153,1,0,,,,,,,,,,,,,,,,,,,,,1,,,,,,,,,,,,,,,,,,,,,,,,,,,,,,,,,,,,,,,,,,,,,,79,156697,21,Female,1,2024/02/27_08:49:34,YZ,None,
,,,,,,calibration,0,1,2,679,,,,,,,,0.875,0.5,0.0,1.0,0.07142857142857142,0.9285714285714286,0.8634059256896413,2,0,1,0,1,10,12,4,10,0,,,,1,,,,,,,,,,,,,,,,,,,,,,,,,,,,,,,,,,,,,,,,,,,,,,79,156697,21,Female,1,2024/02/27_08:49:34,YZ,None,
,,,,,,Calibration,0,,2,679,,,,,,,,,,,,,,,,,,,,,,,,,15,,,1,,,,,,,,,,,,,,,,,,,,,,,,,,,,,,,,,,,,,,,,,,,,,,79,156697,21,Female,1,2024/02/27_08:49:34,YZ,None,
,,,,,,CALIBRATION,0,,,,,,,,,,,,,,,,,,,,,,,,,,,,15,0.875,679,1,,,,,,,,,,,,,,,,,,,,,,,,,,,,,,,,,,,,,,,,,,,,,,79,156697,21,Female,1,2024/02/27_08:49:34,YZ,None,
-1,./instructions/inst_prac_1/Slide24.png,left,11.52169512299588,620.5438802189892,632.0655753419851,,,,,,,,,,,,,,,,,,,,,,,,,,,,,,,,,1,,,,,,,,,,,,,,,,,,,,,,,,,,,,,,,,,,,,,,,,,,,,,,79,156697,21,Female,1,2024/02/27_08:49:34,YZ,None,
0,./instructions/inst_prac_1/Slide30.png,right,6.301102128985804,632.1003441670036,638.4014462959894,,,,,,,,,,,,,,,,,,,,,,,,,,,,,,,,,1,,,,,,,,,,,,,,,,,,,,,,,,,,,,,,,,,,,,,,,,,,,,,,79,156697,21,Female,1,2024/02/27_08:49:34,YZ,None,
1,./instructions/inst_prac_1/Slide24.png,right,4.005706227006158,638.4357280209952,642.4414342480013,,,,,,,,,,,,,,,,,,,,,,,,,,,,,,,,,1,,,,,,,,,,,,,,,,,,,,,,,,,,,,,,,,,,,,,,,,,,,,,,79,156697,21,Female,1,2024/02/27_08:49:34,YZ,None,
0,./instructions/inst_prac_1/Slide25.png,left,5.317806207021931,642.4757526909816,647.7935588980035,,,,,,,,,,,,,,,,,,,,,,,,,,,,,,,,,1,,,,,,,,,,,,,,,,,,,,,,,,,,,,,,,,,,,,,,,,,,,,,,79,156697,21,Female,1,2024/02/27_08:49:34,YZ,None,
-1,./instructions/inst_prac_1/Slide24.png,left,1.293165279988898,647.8284512849932,649.1216165649821,,,,,,,,,,,,,,,,,,,,,,,,,,,,,,,,,1,,,,,,,,,,,,,,,,,,,,,,,,,,,,,,,,,,,,,,,,,,,,,,79,156697,21,Female,1,2024/02/27_08:49:34,YZ,None,
0,./instructions/inst_prac_1/Slide30.png,right,1.4530558649857994,649.1483607080008,650.6014165729866,,,,,,,,,,,,,,,,,,,,,,,,,,,,,,,,,1,,,,,,,,,,,,,,,,,,,,,,,,,,,,,,,,,,,,,,,,,,,,,,79,156697,21,Female,1,2024/02/27_08:49:34,YZ,None,
1,./instructions/inst_prac_1/Slide24.png,right,1.096666550001828,650.6327648089791,651.729431358981,,,,,,,,,,,,,,,,,,,,,,,,,,,,,,,,,1,,,,,,,,,,,,,,,,,,,,,,,,,,,,,,,,,,,,,,,,,,,,,,79,156697,21,Female,1,2024/02/27_08:49:34,YZ,None,
2,./instructions/inst_prac_1/Slide25.png,right,1.701538871973753,651.7639378120075,653.4654766839813,,,,,,,,,,,,,,,,,,,,,,,,,,,,,,,,,1,,,,,,,,,,,,,,,,,,,,,,,,,,,,,,,,,,,,,,,,,,,,,,79,156697,21,Female,1,2024/02/27_08:49:34,YZ,None,
3,./instructions/inst_prac_1/Slide26.png,right,2.2695293050201144,653.5000441919838,655.7695734970039,,,,,,,,,,,,,,,,,,,,,,,,,,,,,,,,,1,,,,,,,,,,,,,,,,,,,,,,,,,,,,,,,,,,,,,,,,,,,,,,79,156697,21,Female,1,2024/02/27_08:49:34,YZ,None,
4,./instructions/inst_prac_1/Slide27.png,right,1.8636673010187224,655.8019481909869,657.6656154920056,,,,,,,,,,,,,,,,,,,,,,,,,,,,,,,,,1,,,,,,,,,,,,,,,,,,,,,,,,,,,,,,,,,,,,,,,,,,,,,,79,156697,21,Female,1,2024/02/27_08:49:34,YZ,None,
5,./instructions/inst_prac_1/Slide28.png,right,2.4771691690257285,657.7003716759791,660.1775408450048,,,,,,,,,,,,,,,,,,,,,,,,,,,,,,,,,1,,,,,,,,,,,,,,,,,,,,,,,,,,,,,,,,,,,,,,,,,,,,,,79,156697,21,Female,1,2024/02/27_08:49:34,YZ,None,
6,./instructions/inst_prac_1/Slide29.png,right,0.20039949801866896,660.2116335879837,660.4120330860023,,,,,,,,,,,,,,,,,,,,,,,,,,,,,,,,,1,,,,,,,,,,,,,,,,,,,,,,,,,,,,,,,,,,,,,,,,,,,,,,79,156697,21,Female,1,2024/02/27_08:49:34,YZ,None,
7,./instructions/inst_prac_1/Slide30.png,right,1.8348761909874156,660.4387148020032,662.2735909929906,,,,,,,,,,,,,,,,,,,,,,,,,,,,,,,,,1,,,,,,,,,,,,,,,,,,,,,,,,,,,,,,,,,,,,,,,,,,,,,,79,156697,21,Female,1,2024/02/27_08:49:34,YZ,None,
,,,,,,practice,0,18,1,1250,1,X,0,right,2.9639818180003203,1,0,,,,,,,,,,,,,,,,,,,,,1,,,,,,,,,,,,,,,,,,,,,,,,,,,,,,,,,,,,,,,,,,,,,,79,156697,21,Female,1,2024/02/27_08:49:34,YZ,None,
,,,,,,practice,0,18,1,1250,2,X,1,left,1.0441300150123425,1,0,,,,,,,,,,,,,,,,,,,,,1,,,,,,,,,,,,,,,,,,,,,,,,,,,,,,,,,,,,,,,,,,,,,,79,156697,21,Female,1,2024/02/27_08:49:34,YZ,None,
,,,,,,practice,0,18,1,1250,3,F,0,right,0.651691553008277,1,0,,,,,,,,,,,,,,,,,,,,,1,,,,,,,,,,,,,,,,,,,,,,,,,,,,,,,,,,,,,,,,,,,,,,79,156697,21,Female,1,2024/02/27_08:49:34,YZ,None,
,,,,,,practice,0,18,1,1250,4,N,0,right,0.6789757189981174,1,0,,,,,,,,,,,,,,,,,,,,,1,,,,,,,,,,,,,,,,,,,,,,,,,,,,,,,,,,,,,,,,,,,,,,79,156697,21,Female,1,2024/02/27_08:49:34,YZ,None,
,,,,,,practice,0,18,1,1250,5,F,0,right,0.8923918759974185,1,0,,,,,,,,,,,,,,,,,,,,,1,,,,,,,,,,,,,,,,,,,,,,,,,,,,,,,,,,,,,,,,,,,,,,79,156697,21,Female,1,2024/02/27_08:49:34,YZ,None,
,,,,,,practice,0,18,1,1250,6,Q,0,right,0.6253443360037636,1,0,,,,,,,,,,,,,,,,,,,,,1,,,,,,,,,,,,,,,,,,,,,,,,,,,,,,,,,,,,,,,,,,,,,,79,156697,21,Female,1,2024/02/27_08:49:34,YZ,None,
,,,,,,practice,0,18,1,1250,7,Q,1,left,0.9562854590185452,1,0,,,,,,,,,,,,,,,,,,,,,1,,,,,,,,,,,,,,,,,,,,,,,,,,,,,,,,,,,,,,,,,,,,,,79,156697,21,Female,1,2024/02/27_08:49:34,YZ,None,
,,,,,,practice,0,18,1,1250,8,V,0,right,0.7236032049986534,1,0,,,,,,,,,,,,,,,,,,,,,1,,,,,,,,,,,,,,,,,,,,,,,,,,,,,,,,,,,,,,,,,,,,,,79,156697,21,Female,1,2024/02/27_08:49:34,YZ,None,
,,,,,,practice,0,18,1,1250,9,F,0,right,0.5590308009996079,1,0,,,,,,,,,,,,,,,,,,,,,1,,,,,,,,,,,,,,,,,,,,,,,,,,,,,,,,,,,,,,,,,,,,,,79,156697,21,Female,1,2024/02/27_08:49:34,YZ,None,
,,,,,,practice,0,18,1,1250,10,F,1,left,0.7409768909856211,1,0,,,,,,,,,,,,,,,,,,,,,1,,,,,,,,,,,,,,,,,,,,,,,,,,,,,,,,,,,,,,,,,,,,,,79,156697,21,Female,1,2024/02/27_08:49:34,YZ,None,
,,,,,,practice,0,18,1,1250,,,,,,,,1.0,1.0,0.0,1.0,0.0,1.0,0.9836411673022667,3,0,0,0,0,7,10,3,7,0,,,,1,,,,,,,,,,,,,,,,,,,,,,,,,,,,,,,,,,,,,,,,,,,,,,79,156697,21,Female,1,2024/02/27_08:49:34,YZ,None,
1,./instructions/inst_prac_1_next/Slide35.png,right,1.6853056690015364,682.6441735019907,684.3294791709923,,,,,,,,,,,,,,,,,,,,,,,,,,,,,,,,,1,,,,,,,,,,,,,,,,,,,,,,,,,,,,,,,,,,,,,,,,,,,,,,79,156697,21,Female,1,2024/02/27_08:49:34,YZ,None,
,,,,,,practice,0,28,1,679,1,X,0,right,1.23601006201352,1,0,,,,,,,,,,,,,,,,,,,,,1,,,,,,,,,,,,,,,,,,,,,,,,,,,,,,,,,,,,,,,,,,,,,,79,156697,21,Female,1,2024/02/27_08:49:34,YZ,None,
,,,,,,practice,0,28,1,679,2,S,0,right,0.751929272984853,1,0,,,,,,,,,,,,,,,,,,,,,1,,,,,,,,,,,,,,,,,,,,,,,,,,,,,,,,,,,,,,,,,,,,,,79,156697,21,Female,1,2024/02/27_08:49:34,YZ,None,
,,,,,,practice,0,28,1,679,3,Q,0,right,0.8251724639849272,1,0,,,,,,,,,,,,,,,,,,,,,1,,,,,,,,,,,,,,,,,,,,,,,,,,,,,,,,,,,,,,,,,,,,,,79,156697,21,Female,1,2024/02/27_08:49:34,YZ,None,
,,,,,,practice,0,28,1,679,4,Q,1,left,0.6728389220079407,1,0,,,,,,,,,,,,,,,,,,,,,1,,,,,,,,,,,,,,,,,,,,,,,,,,,,,,,,,,,,,,,,,,,,,,79,156697,21,Female,1,2024/02/27_08:49:34,YZ,None,
,,,,,,practice,0,28,1,679,5,J,0,right,0.8892169049941003,1,0,,,,,,,,,,,,,,,,,,,,,1,,,,,,,,,,,,,,,,,,,,,,,,,,,,,,,,,,,,,,,,,,,,,,79,156697,21,Female,1,2024/02/27_08:49:34,YZ,None,
,,,,,,practice,0,28,1,679,6,J,1,left,0.6004483900032938,1,0,,,,,,,,,,,,,,,,,,,,,1,,,,,,,,,,,,,,,,,,,,,,,,,,,,,,,,,,,,,,,,,,,,,,79,156697,21,Female,1,2024/02/27_08:49:34,YZ,None,
,,,,,,practice,0,28,1,679,7,Q,0,right,0.8331976479967125,1,0,,,,,,,,,,,,,,,,,,,,,1,,,,,,,,,,,,,,,,,,,,,,,,,,,,,,,,,,,,,,,,,,,,,,79,156697,21,Female,1,2024/02/27_08:49:34,YZ,None,
,,,,,,practice,0,28,1,679,8,S,0,right,0.776043923018733,1,0,,,,,,,,,,,,,,,,,,,,,1,,,,,,,,,,,,,,,,,,,,,,,,,,,,,,,,,,,,,,,,,,,,,,79,156697,21,Female,1,2024/02/27_08:49:34,YZ,None,
,,,,,,practice,0,28,1,679,9,C,0,right,0.8396240099973511,1,0,,,,,,,,,,,,,,,,,,,,,1,,,,,,,,,,,,,,,,,,,,,,,,,,,,,,,,,,,,,,,,,,,,,,79,156697,21,Female,1,2024/02/27_08:49:34,YZ,None,
,,,,,,practice,0,28,1,679,10,C,1,left,0.5680348369933199,1,0,,,,,,,,,,,,,,,,,,,,,1,,,,,,,,,,,,,,,,,,,,,,,,,,,,,,,,,,,,,,,,,,,,,,79,156697,21,Female,1,2024/02/27_08:49:34,YZ,None,
,,,,,,practice,0,28,1,679,11,F,0,right,0.9052614269894548,1,0,,,,,,,,,,,,,,,,,,,,,1,,,,,,,,,,,,,,,,,,,,,,,,,,,,,,,,,,,,,,,,,,,,,,79,156697,21,Female,1,2024/02/27_08:49:34,YZ,None,
,,,,,,practice,0,28,1,679,12,S,0,right,0.6251077049819287,1,0,,,,,,,,,,,,,,,,,,,,,1,,,,,,,,,,,,,,,,,,,,,,,,,,,,,,,,,,,,,,,,,,,,,,79,156697,21,Female,1,2024/02/27_08:49:34,YZ,None,
,,,,,,practice,0,28,1,679,13,F,0,right,0.776912543020444,1,0,,,,,,,,,,,,,,,,,,,,,1,,,,,,,,,,,,,,,,,,,,,,,,,,,,,,,,,,,,,,,,,,,,,,79,156697,21,Female,1,2024/02/27_08:49:34,YZ,None,
,,,,,,practice,0,28,1,679,14,F,1,left,0.6769157839880791,1,0,,,,,,,,,,,,,,,,,,,,,1,,,,,,,,,,,,,,,,,,,,,,,,,,,,,,,,,,,,,,,,,,,,,,79,156697,21,Female,1,2024/02/27_08:49:34,YZ,None,
,,,,,,practice,0,28,1,679,,,,,,,,1.0,1.0,0.0,1.0,0.0,1.0,0.7840509923553327,4,0,0,0,0,10,14,4,10,0,,,,1,,,,,,,,,,,,,,,,,,,,,,,,,,,,,,,,,,,,,,,,,,,,,,79,156697,21,Female,1,2024/02/27_08:49:34,YZ,None,
,,,,,,practice,0,32,1,679,1,N,0,right,1.5893340340116993,1,0,,,,,,,,,,,,,,,,,,,,,1,,,,,,,,,,,,,,,,,,,,,,,,,,,,,,,,,,,,,,,,,,,,,,79,156697,21,Female,1,2024/02/27_08:49:34,YZ,None,
,,,,,,practice,0,32,1,679,2,N,1,right,0.4079446370014921,0,0,,,,,,,,,,,,,,,,,,,,,1,,,,,,,,,,,,,,,,,,,,,,,,,,,,,,,,,,,,,,,,,,,,,,79,156697,21,Female,1,2024/02/27_08:49:34,YZ,None,
,,,,,,practice,0,32,1,679,3,X,0,right,0.7928481700073462,1,0,,,,,,,,,,,,,,,,,,,,,1,,,,,,,,,,,,,,,,,,,,,,,,,,,,,,,,,,,,,,,,,,,,,,79,156697,21,Female,1,2024/02/27_08:49:34,YZ,None,
,,,,,,practice,0,32,1,679,4,V,0,right,0.6845336560218129,1,0,,,,,,,,,,,,,,,,,,,,,1,,,,,,,,,,,,,,,,,,,,,,,,,,,,,,,,,,,,,,,,,,,,,,79,156697,21,Female,1,2024/02/27_08:49:34,YZ,None,
,,,,,,practice,0,32,1,679,5,C,0,right,0.6170928720093798,1,0,,,,,,,,,,,,,,,,,,,,,1,,,,,,,,,,,,,,,,,,,,,,,,,,,,,,,,,,,,,,,,,,,,,,79,156697,21,Female,1,2024/02/27_08:49:34,YZ,None,
,,,,,,practice,0,32,1,679,6,C,1,left,0.7405382359866053,1,0,,,,,,,,,,,,,,,,,,,,,1,,,,,,,,,,,,,,,,,,,,,,,,,,,,,,,,,,,,,,,,,,,,,,79,156697,21,Female,1,2024/02/27_08:49:34,YZ,None,
,,,,,,practice,0,32,1,679,7,Q,0,right,0.6483609589922708,1,0,,,,,,,,,,,,,,,,,,,,,1,,,,,,,,,,,,,,,,,,,,,,,,,,,,,,,,,,,,,,,,,,,,,,79,156697,21,Female,1,2024/02/27_08:49:34,YZ,None,
,,,,,,practice,0,32,1,679,8,V,0,right,0.7558658960042521,1,0,,,,,,,,,,,,,,,,,,,,,1,,,,,,,,,,,,,,,,,,,,,,,,,,,,,,,,,,,,,,,,,,,,,,79,156697,21,Female,1,2024/02/27_08:49:34,YZ,None,
,,,,,,practice,0,32,1,679,9,X,0,right,0.6442676139995456,1,0,,,,,,,,,,,,,,,,,,,,,1,,,,,,,,,,,,,,,,,,,,,,,,,,,,,,,,,,,,,,,,,,,,,,79,156697,21,Female,1,2024/02/27_08:49:34,YZ,None,
,,,,,,practice,0,32,1,679,10,X,1,left,0.6532125509984326,1,0,,,,,,,,,,,,,,,,,,,,,1,,,,,,,,,,,,,,,,,,,,,,,,,,,,,,,,,,,,,,,,,,,,,,79,156697,21,Female,1,2024/02/27_08:49:34,YZ,None,
,,,,,,practice,0,32,1,679,11,F,0,right,0.584293413994601,1,0,,,,,,,,,,,,,,,,,,,,,1,,,,,,,,,,,,,,,,,,,,,,,,,,,,,,,,,,,,,,,,,,,,,,79,156697,21,Female,1,2024/02/27_08:49:34,YZ,None,
,,,,,,practice,0,32,1,679,12,J,0,right,0.6264195640105754,1,0,,,,,,,,,,,,,,,,,,,,,1,,,,,,,,,,,,,,,,,,,,,,,,,,,,,,,,,,,,,,,,,,,,,,79,156697,21,Female,1,2024/02/27_08:49:34,YZ,None,
,,,,,,practice,0,32,1,679,13,J,1,left,0.7092559279990382,1,0,,,,,,,,,,,,,,,,,,,,,1,,,,,,,,,,,,,,,,,,,,,,,,,,,,,,,,,,,,,,,,,,,,,,79,156697,21,Female,1,2024/02/27_08:49:34,YZ,None,
,,,,,,practice,0,32,1,679,14,Q,0,right,0.7244331559923012,1,0,,,,,,,,,,,,,,,,,,,,,1,,,,,,,,,,,,,,,,,,,,,,,,,,,,,,,,,,,,,,,,,,,,,,79,156697,21,Female,1,2024/02/27_08:49:34,YZ,None,
,,,,,,practice,0,32,1,679,,,,,,,,0.9375,0.75,0.0,1.0,0.0,1.0,0.7270286205020966,3,0,0,0,0,10,13,4,10,0,,,,1,,,,,,,,,,,,,,,,,,,,,,,,,,,,,,,,,,,,,,,,,,,,,,79,156697,21,Female,1,2024/02/27_08:49:34,YZ,None,
1,./instructions/inst_prac_3/Slide37.png,right,1.6739293890132103,724.2794052239915,725.9533346130047,,,,,,,,,,,,,,,,,,,,,,,,,,,,,,,,,1,,,,,,,,,,,,,,,,,,,,,,,,,,,,,,,,,,,,,,,,,,,,,,79,156697,21,Female,1,2024/02/27_08:49:34,YZ,None,
2,./instructions/inst_prac_3/Slide38.png,right,5.063198607007507,725.9864149589848,731.0496135659923,,,,,,,,,,,,,,,,,,,,,,,,,,,,,,,,,1,,,,,,,,,,,,,,,,,,,,,,,,,,,,,,,,,,,,,,,,,,,,,,79,156697,21,Female,1,2024/02/27_08:49:34,YZ,None,
3,./instructions/inst_prac_3/Slide39.png,right,2.8697289139963686,731.0837980129872,733.9535269269836,,,,,,,,,,,,,,,,,,,,,,,,,,,,,,,,,1,,,,,,,,,,,,,,,,,,,,,,,,,,,,,,,,,,,,,,,,,,,,,,79,156697,21,Female,1,2024/02/27_08:49:34,YZ,None,
4,./instructions/inst_prac_3/Slide40.png,right,4.941759133012965,733.987553643994,738.929312777007,,,,,,,,,,,,,,,,,,,,,,,,,,,,,,,,,1,,,,,,,,,,,,,,,,,,,,,,,,,,,,,,,,,,,,,,,,,,,,,,79,156697,21,Female,1,2024/02/27_08:49:34,YZ,None,
5,./instructions/inst_prac_3/Slide41.png,right,2.198778181016678,738.9626902749878,741.1614684560045,,,,,,,,,,,,,,,,,,,,,,,,,,,,,,,,,1,,,,,,,,,,,,,,,,,,,,,,,,,,,,,,,,,,,,,,,,,,,,,,79,156697,21,Female,1,2024/02/27_08:49:34,YZ,None,
6,./instructions/inst_prac_3/Slide42.png,right,9.51774683201802,741.1958482799819,750.7135951119999,,,,,,,,,,,,,,,,,,,,,,,,,,,,,,,,,1,,,,,,,,,,,,,,,,,,,,,,,,,,,,,,,,,,,,,,,,,,,,,,79,156697,21,Female,1,2024/02/27_08:49:34,YZ,None,
7,./instructions/inst_prac_3/Slide43.png,right,3.733382039004937,750.747973333986,754.481355372991,,,,,,,,,,,,,,,,,,,,,,,,,,,,,,,,,1,,,,,,,,,,,,,,,,,,,,,,,,,,,,,,,,,,,,,,,,,,,,,,79,156697,21,Female,1,2024/02/27_08:49:34,YZ,None,
8,./instructions/inst_prac_3/Slide44.png,right,2.4459305759810377,754.515522036003,756.961452611984,,,,,,,,,,,,,,,,,,,,,,,,,,,,,,,,,1,,,,,,,,,,,,,,,,,,,,,,,,,,,,,,,,,,,,,,,,,,,,,,79,156697,21,Female,1,2024/02/27_08:49:34,YZ,None,
,,,,,,practice,0,3,3,788,1,J,0,right,2.813963947002776,1,0,,,,,,,,,,,,,,,,,,,,,1,,,,,,,,,,,,,,,,,,,,,,,,,,,,,,,,,,,,,,,,,,,,,,79,156697,21,Female,1,2024/02/27_08:49:34,YZ,None,
,,,,,,practice,0,3,3,788,2,C,0,right,1.6519460130075458,1,0,,,,,,,,,,,,,,,,,,,,,1,,,,,,,,,,,,,,,,,,,,,,,,,,,,,,,,,,,,,,,,,,,,,,79,156697,21,Female,1,2024/02/27_08:49:34,YZ,None,
,,,,,,practice,0,3,3,788,3,X,0,right,0.5084359970060177,1,0,,,,,,,,,,,,,,,,,,,,,1,,,,,,,,,,,,,,,,,,,,,,,,,,,,,,,,,,,,,,,,,,,,,,79,156697,21,Female,1,2024/02/27_08:49:34,YZ,None,
,,,,,,practice,0,3,3,788,4,Q,0,right,0.7810644080163911,1,0,,,,,,,,,,,,,,,,,,,,,1,,,,,,,,,,,,,,,,,,,,,,,,,,,,,,,,,,,,,,,,,,,,,,79,156697,21,Female,1,2024/02/27_08:49:34,YZ,None,
,,,,,,practice,0,3,3,788,5,N,0,right,2.900784665980609,1,0,,,,,,,,,,,,,,,,,,,,,1,,,,,,,,,,,,,,,,,,,,,,,,,,,,,,,,,,,,,,,,,,,,,,79,156697,21,Female,1,2024/02/27_08:49:34,YZ,None,
,,,,,,practice,0,3,3,788,6,X,1,left,5.723941059986828,1,0,,,,,,,,,,,,,,,,,,,,,1,,,,,,,,,,,,,,,,,,,,,,,,,,,,,,,,,,,,,,,,,,,,,,79,156697,21,Female,1,2024/02/27_08:49:34,YZ,None,
,,,,,,practice,0,3,3,788,7,Q,1,right,2.9683282710029744,0,0,,,,,,,,,,,,,,,,,,,,,1,,,,,,,,,,,,,,,,,,,,,,,,,,,,,,,,,,,,,,,,,,,,,,79,156697,21,Female,1,2024/02/27_08:49:34,YZ,None,
,,,,,,practice,0,3,3,788,8,V,0,right,0.932733747002203,1,0,,,,,,,,,,,,,,,,,,,,,1,,,,,,,,,,,,,,,,,,,,,,,,,,,,,,,,,,,,,,,,,,,,,,79,156697,21,Female,1,2024/02/27_08:49:34,YZ,None,
,,,,,,practice,0,3,3,788,9,Q,0,right,0.844485864014132,1,0,,,,,,,,,,,,,,,,,,,,,1,,,,,,,,,,,,,,,,,,,,,,,,,,,,,,,,,,,,,,,,,,,,,,79,156697,21,Female,1,2024/02/27_08:49:34,YZ,None,
,,,,,,practice,0,3,3,788,10,F,0,right,0.8842797770048492,1,0,,,,,,,,,,,,,,,,,,,,,1,,,,,,,,,,,,,,,,,,,,,,,,,,,,,,,,,,,,,,,,,,,,,,79,156697,21,Female,1,2024/02/27_08:49:34,YZ,None,
,,,,,,practice,0,3,3,788,11,X,0,right,0.8128174980229232,1,0,,,,,,,,,,,,,,,,,,,,,1,,,,,,,,,,,,,,,,,,,,,,,,,,,,,,,,,,,,,,,,,,,,,,79,156697,21,Female,1,2024/02/27_08:49:34,YZ,None,
,,,,,,practice,0,3,3,788,12,Q,1,left,0.7273392049828544,1,0,,,,,,,,,,,,,,,,,,,,,1,,,,,,,,,,,,,,,,,,,,,,,,,,,,,,,,,,,,,,,,,,,,,,79,156697,21,Female,1,2024/02/27_08:49:34,YZ,None,
,,,,,,practice,0,3,3,788,13,F,1,left,0.8446450030023698,1,0,,,,,,,,,,,,,,,,,,,,,1,,,,,,,,,,,,,,,,,,,,,,,,,,,,,,,,,,,,,,,,,,,,,,79,156697,21,Female,1,2024/02/27_08:49:34,YZ,None,
,,,,,,practice,0,3,3,788,,,,,,,,0.9375,0.75,0.0,1.0,0.0,1.0,1.7226742658486518,3,0,0,0,0,9,12,4,9,0,,,,1,,,,,,,,,,,,,,,,,,,,,,,,,,,,,,,,,,,,,,,,,,,,,,79,156697,21,Female,1,2024/02/27_08:49:34,YZ,None,
-1,./instructions/inst_prac_3_next/Slide49.png,left,4.11576555101783,793.54977048398,797.6655360349978,,,,,,,,,,,,,,,,,,,,,,,,,,,,,,,,,1,,,,,,,,,,,,,,,,,,,,,,,,,,,,,,,,,,,,,,,,,,,,,,79,156697,21,Female,1,2024/02/27_08:49:34,YZ,None,
,,,,,,practice,0,6,3,679,1,N,0,right,1.8647031050059013,1,0,,,,,,,,,,,,,,,,,,,,,1,,,,,,,,,,,,,,,,,,,,,,,,,,,,,,,,,,,,,,,,,,,,,,79,156697,21,Female,1,2024/02/27_08:49:34,YZ,None,
,,,,,,practice,0,6,3,679,2,C,0,right,1.0616110450064298,1,0,,,,,,,,,,,,,,,,,,,,,1,,,,,,,,,,,,,,,,,,,,,,,,,,,,,,,,,,,,,,,,,,,,,,79,156697,21,Female,1,2024/02/27_08:49:34,YZ,None,
,,,,,,practice,0,6,3,679,3,X,0,right,0.4078124049992766,1,0,,,,,,,,,,,,,,,,,,,,,1,,,,,,,,,,,,,,,,,,,,,,,,,,,,,,,,,,,,,,,,,,,,,,79,156697,21,Female,1,2024/02/27_08:49:34,YZ,None,
,,,,,,practice,0,6,3,679,4,J,0,right,1.4048124740074854,1,0,,,,,,,,,,,,,,,,,,,,,1,,,,,,,,,,,,,,,,,,,,,,,,,,,,,,,,,,,,,,,,,,,,,,79,156697,21,Female,1,2024/02/27_08:49:34,YZ,None,
,,,,,,practice,0,6,3,679,5,C,1,left,0.7165286210074555,1,0,,,,,,,,,,,,,,,,,,,,,1,,,,,,,,,,,,,,,,,,,,,,,,,,,,,,,,,,,,,,,,,,,,,,79,156697,21,Female,1,2024/02/27_08:49:34,YZ,None,
,,,,,,practice,0,6,3,679,6,X,1,left,0.7660108169948217,1,0,,,,,,,,,,,,,,,,,,,,,1,,,,,,,,,,,,,,,,,,,,,,,,,,,,,,,,,,,,,,,,,,,,,,79,156697,21,Female,1,2024/02/27_08:49:34,YZ,None,
,,,,,,practice,0,6,3,679,7,Q,0,right,0.8439104300050531,1,0,,,,,,,,,,,,,,,,,,,,,1,,,,,,,,,,,,,,,,,,,,,,,,,,,,,,,,,,,,,,,,,,,,,,79,156697,21,Female,1,2024/02/27_08:49:34,YZ,None,
,,,,,,practice,0,6,3,679,8,C,1,left,0.7423360310203861,1,0,,,,,,,,,,,,,,,,,,,,,1,,,,,,,,,,,,,,,,,,,,,,,,,,,,,,,,,,,,,,,,,,,,,,79,156697,21,Female,1,2024/02/27_08:49:34,YZ,None,
,,,,,,practice,0,6,3,679,9,Q,0,right,0.6881876880070195,1,0,,,,,,,,,,,,,,,,,,,,,1,,,,,,,,,,,,,,,,,,,,,,,,,,,,,,,,,,,,,,,,,,,,,,79,156697,21,Female,1,2024/02/27_08:49:34,YZ,None,
,,,,,,practice,0,6,3,679,10,J,0,right,0.8760243470023852,1,0,,,,,,,,,,,,,,,,,,,,,1,,,,,,,,,,,,,,,,,,,,,,,,,,,,,,,,,,,,,,,,,,,,,,79,156697,21,Female,1,2024/02/27_08:49:34,YZ,None,
,,,,,,practice,0,6,3,679,11,C,1,left,0.6870489220018499,1,0,,,,,,,,,,,,,,,,,,,,,1,,,,,,,,,,,,,,,,,,,,,,,,,,,,,,,,,,,,,,,,,,,,,,79,156697,21,Female,1,2024/02/27_08:49:34,YZ,None,
,,,,,,practice,0,6,3,679,12,X,0,right,0.8767851540178526,1,0,,,,,,,,,,,,,,,,,,,,,1,,,,,,,,,,,,,,,,,,,,,,,,,,,,,,,,,,,,,,,,,,,,,,79,156697,21,Female,1,2024/02/27_08:49:34,YZ,None,
,,,,,,practice,0,6,3,679,13,Q,0,right,1.1400106950022746,1,0,,,,,,,,,,,,,,,,,,,,,1,,,,,,,,,,,,,,,,,,,,,,,,,,,,,,,,,,,,,,,,,,,,,,79,156697,21,Female,1,2024/02/27_08:49:34,YZ,None,
,,,,,,practice,0,6,3,679,14,Q,0,right,0.8449069780181162,1,0,,,,,,,,,,,,,,,,,,,,,1,,,,,,,,,,,,,,,,,,,,,,,,,,,,,,,,,,,,,,,,,,,,,,79,156697,21,Female,1,2024/02/27_08:49:34,YZ,None,
,,,,,,practice,0,6,3,679,,,,,,,,1.0,1.0,0.0,1.0,0.0,1.0,0.9229063365783077,4,0,0,0,0,10,14,4,10,0,,,,1,,,,,,,,,,,,,,,,,,,,,,,,,,,,,,,,,,,,,,,,,,,,,,79,156697,21,Female,1,2024/02/27_08:49:34,YZ,None,
1,./instructions/inst_prac_3_next/Slide49.png,right,1.237087513989536,826.3482310629915,827.5853185769811,,,,,,,,,,,,,,,,,,,,,,,,,,,,,,,,,1,,,,,,,,,,,,,,,,,,,,,,,,,,,,,,,,,,,,,,,,,,,,,,79,156697,21,Female,1,2024/02/27_08:49:34,YZ,None,
,,,,,,practice,0,32,3,679,1,Q,0,right,1.0162613189895637,1,0,,,,,,,,,,,,,,,,,,,,,1,,,,,,,,,,,,,,,,,,,,,,,,,,,,,,,,,,,,,,,,,,,,,,79,156697,21,Female,1,2024/02/27_08:49:34,YZ,None,
,,,,,,practice,0,32,3,679,2,X,0,right,1.4822344979911577,1,0,,,,,,,,,,,,,,,,,,,,,1,,,,,,,,,,,,,,,,,,,,,,,,,,,,,,,,,,,,,,,,,,,,,,79,156697,21,Female,1,2024/02/27_08:49:34,YZ,None,
,,,,,,practice,0,32,3,679,3,Q,0,right,1.3198584390047472,1,0,,,,,,,,,,,,,,,,,,,,,1,,,,,,,,,,,,,,,,,,,,,,,,,,,,,,,,,,,,,,,,,,,,,,79,156697,21,Female,1,2024/02/27_08:49:34,YZ,None,
,,,,,,practice,0,32,3,679,4,X,0,right,1.9758002739981748,1,0,,,,,,,,,,,,,,,,,,,,,1,,,,,,,,,,,,,,,,,,,,,,,,,,,,,,,,,,,,,,,,,,,,,,79,156697,21,Female,1,2024/02/27_08:49:34,YZ,None,
,,,,,,practice,0,32,3,679,5,X,1,right,3.0803851089731324,0,0,,,,,,,,,,,,,,,,,,,,,1,,,,,,,,,,,,,,,,,,,,,,,,,,,,,,,,,,,,,,,,,,,,,,79,156697,21,Female,1,2024/02/27_08:49:34,YZ,None,
,,,,,,practice,0,32,3,679,6,C,0,right,2.0225344179780222,1,0,,,,,,,,,,,,,,,,,,,,,1,,,,,,,,,,,,,,,,,,,,,,,,,,,,,,,,,,,,,,,,,,,,,,79,156697,21,Female,1,2024/02/27_08:49:34,YZ,None,
,,,,,,practice,0,32,3,679,7,X,1,right,0.7111156739993021,0,0,,,,,,,,,,,,,,,,,,,,,1,,,,,,,,,,,,,,,,,,,,,,,,,,,,,,,,,,,,,,,,,,,,,,79,156697,21,Female,1,2024/02/27_08:49:34,YZ,None,
,,,,,,practice,0,32,3,679,8,F,0,right,1.0082719920028467,1,0,,,,,,,,,,,,,,,,,,,,,1,,,,,,,,,,,,,,,,,,,,,,,,,,,,,,,,,,,,,,,,,,,,,,79,156697,21,Female,1,2024/02/27_08:49:34,YZ,None,
,,,,,,practice,0,32,3,679,9,V,0,right,3.3295455159968697,1,0,,,,,,,,,,,,,,,,,,,,,1,,,,,,,,,,,,,,,,,,,,,,,,,,,,,,,,,,,,,,,,,,,,,,79,156697,21,Female,1,2024/02/27_08:49:34,YZ,None,
,,,,,,practice,0,32,3,679,10,J,0,right,0.8446023400174454,1,0,,,,,,,,,,,,,,,,,,,,,1,,,,,,,,,,,,,,,,,,,,,,,,,,,,,,,,,,,,,,,,,,,,,,79,156697,21,Female,1,2024/02/27_08:49:34,YZ,None,
,,,,,,practice,0,32,3,679,11,F,1,left,0.5963732039963361,1,0,,,,,,,,,,,,,,,,,,,,,1,,,,,,,,,,,,,,,,,,,,,,,,,,,,,,,,,,,,,,,,,,,,,,79,156697,21,Female,1,2024/02/27_08:49:34,YZ,None,
,,,,,,practice,0,32,3,679,12,S,0,right,0.8047435779881198,1,0,,,,,,,,,,,,,,,,,,,,,1,,,,,,,,,,,,,,,,,,,,,,,,,,,,,,,,,,,,,,,,,,,,,,79,156697,21,Female,1,2024/02/27_08:49:34,YZ,None,
,,,,,,practice,0,32,3,679,13,J,1,right,0.9054240359982941,0,0,,,,,,,,,,,,,,,,,,,,,1,,,,,,,,,,,,,,,,,,,,,,,,,,,,,,,,,,,,,,,,,,,,,,79,156697,21,Female,1,2024/02/27_08:49:34,YZ,None,
,,,,,,practice,0,32,3,679,14,Q,0,right,1.5769307330192532,1,0,,,,,,,,,,,,,,,,,,,,,1,,,,,,,,,,,,,,,,,,,,,,,,,,,,,,,,,,,,,,,,,,,,,,79,156697,21,Female,1,2024/02/27_08:49:34,YZ,None,
,,,,,,practice,0,32,3,679,,,,,,,,0.8125,0.25,0.0,1.0,0.0,1.0,1.4767200807109475,1,0,0,0,0,10,11,4,10,0,,,,1,,,,,,,,,,,,,,,,,,,,,,,,,,,,,,,,,,,,,,,,,,,,,,79,156697,21,Female,1,2024/02/27_08:49:34,YZ,None,
,,,,,,practice,0,36,3,679,1,S,0,right,1.8056734580022749,1,0,,,,,,,,,,,,,,,,,,,,,1,,,,,,,,,,,,,,,,,,,,,,,,,,,,,,,,,,,,,,,,,,,,,,79,156697,21,Female,1,2024/02/27_08:49:34,YZ,None,
,,,,,,practice,0,36,3,679,2,J,0,right,0.8079085839854088,1,0,,,,,,,,,,,,,,,,,,,,,1,,,,,,,,,,,,,,,,,,,,,,,,,,,,,,,,,,,,,,,,,,,,,,79,156697,21,Female,1,2024/02/27_08:49:34,YZ,None,
,,,,,,practice,0,36,3,679,3,X,0,right,1.2240601099911146,1,0,,,,,,,,,,,,,,,,,,,,,1,,,,,,,,,,,,,,,,,,,,,,,,,,,,,,,,,,,,,,,,,,,,,,79,156697,21,Female,1,2024/02/27_08:49:34,YZ,None,
,,,,,,practice,0,36,3,679,4,X,0,right,1.6727825840061996,1,0,,,,,,,,,,,,,,,,,,,,,1,,,,,,,,,,,,,,,,,,,,,,,,,,,,,,,,,,,,,,,,,,,,,,79,156697,21,Female,1,2024/02/27_08:49:34,YZ,None,
,,,,,,practice,0,36,3,679,5,N,0,right,2.4073427109979093,1,0,,,,,,,,,,,,,,,,,,,,,1,,,,,,,,,,,,,,,,,,,,,,,,,,,,,,,,,,,,,,,,,,,,,,79,156697,21,Female,1,2024/02/27_08:49:34,YZ,None,
,,,,,,practice,0,36,3,679,6,X,1,right,0.6794902980036568,0,0,,,,,,,,,,,,,,,,,,,,,1,,,,,,,,,,,,,,,,,,,,,,,,,,,,,,,,,,,,,,,,,,,,,,79,156697,21,Female,1,2024/02/27_08:49:34,YZ,None,
,,,,,,practice,0,36,3,679,7,C,0,right,0.9804452119860798,1,0,,,,,,,,,,,,,,,,,,,,,1,,,,,,,,,,,,,,,,,,,,,,,,,,,,,,,,,,,,,,,,,,,,,,79,156697,21,Female,1,2024/02/27_08:49:34,YZ,None,
,,,,,,practice,0,36,3,679,8,J,0,right,1.2170958569913637,1,0,,,,,,,,,,,,,,,,,,,,,1,,,,,,,,,,,,,,,,,,,,,,,,,,,,,,,,,,,,,,,,,,,,,,79,156697,21,Female,1,2024/02/27_08:49:34,YZ,None,
,,,,,,practice,0,36,3,679,9,X,1,right,0.712705621990608,0,0,,,,,,,,,,,,,,,,,,,,,1,,,,,,,,,,,,,,,,,,,,,,,,,,,,,,,,,,,,,,,,,,,,,,79,156697,21,Female,1,2024/02/27_08:49:34,YZ,None,
,,,,,,practice,0,36,3,679,10,N,0,right,0.5171271130093373,1,0,,,,,,,,,,,,,,,,,,,,,1,,,,,,,,,,,,,,,,,,,,,,,,,,,,,,,,,,,,,,,,,,,,,,79,156697,21,Female,1,2024/02/27_08:49:34,YZ,None,
,,,,,,practice,0,36,3,679,11,Q,0,left,0.3444139979837928,0,0,,,,,,,,,,,,,,,,,,,,,1,,,,,,,,,,,,,,,,,,,,,,,,,,,,,,,,,,,,,,,,,,,,,,79,156697,21,Female,1,2024/02/27_08:49:34,YZ,None,
,,,,,,practice,0,36,3,679,12,X,1,right,0.23277159500867128,0,0,,,,,,,,,,,,,,,,,,,,,1,,,,,,,,,,,,,,,,,,,,,,,,,,,,,,,,,,,,,,,,,,,,,,79,156697,21,Female,1,2024/02/27_08:49:34,YZ,None,
,,,,,,practice,0,36,3,679,13,F,0,right,0.1448039079841692,1,0,,,,,,,,,,,,,,,,,,,,,1,,,,,,,,,,,,,,,,,,,,,,,,,,,,,,,,,,,,,,,,,,,,,,79,156697,21,Female,1,2024/02/27_08:49:34,YZ,None,
,,,,,,practice,0,36,3,679,14,Q,1,left,0.0,1,0,,,,,,,,,,,,,,,,,,,,,1,,,,,,,,,,,,,,,,,,,,,,,,,,,,,,,,,,,,,,,,,,,,,,79,156697,21,Female,1,2024/02/27_08:49:34,YZ,None,
,,,,,,practice,0,36,3,679,,,,,,,,0.6875,0.25,0.1,0.9,0.0,0.9,0.9104729321386132,1,1,0,0,0,9,10,4,10,0,,,,1,,,,,,,,,,,,,,,,,,,,,,,,,,,,,,,,,,,,,,,,,,,,,,79,156697,21,Female,1,2024/02/27_08:49:34,YZ,None,
1,./instructions/inst_redo_3/Slide47.png,right,0.3621954279951751,878.3272859829885,878.6894814109837,,,,,,,,,,,,,,,,,,,,,,,,,,,,,,,,,1,,,,,,,,,,,,,,,,,,,,,,,,,,,,,,,,,,,,,,,,,,,,,,79,156697,21,Female,1,2024/02/27_08:49:34,YZ,None,
,,,,,,practice,0,24,3,679,1,Q,0,left,5.423237861017697,0,0,,,,,,,,,,,,,,,,,,,,,1,,,,,,,,,,,,,,,,,,,,,,,,,,,,,,,,,,,,,,,,,,,,,,79,156697,21,Female,1,2024/02/27_08:49:34,YZ,None,
,,,,,,practice,0,24,3,679,2,S,0,right,1.2249404620088171,1,0,,,,,,,,,,,,,,,,,,,,,1,,,,,,,,,,,,,,,,,,,,,,,,,,,,,,,,,,,,,,,,,,,,,,79,156697,21,Female,1,2024/02/27_08:49:34,YZ,None,
,,,,,,practice,0,24,3,679,3,Q,0,right,1.0725217159779277,1,0,,,,,,,,,,,,,,,,,,,,,1,,,,,,,,,,,,,,,,,,,,,,,,,,,,,,,,,,,,,,,,,,,,,,79,156697,21,Female,1,2024/02/27_08:49:34,YZ,None,
,,,,,,practice,0,24,3,679,4,J,0,right,1.2973710660007782,1,0,,,,,,,,,,,,,,,,,,,,,1,,,,,,,,,,,,,,,,,,,,,,,,,,,,,,,,,,,,,,,,,,,,,,79,156697,21,Female,1,2024/02/27_08:49:34,YZ,None,
,,,,,,practice,0,24,3,679,5,X,0,right,1.1938463900005445,1,0,,,,,,,,,,,,,,,,,,,,,1,,,,,,,,,,,,,,,,,,,,,,,,,,,,,,,,,,,,,,,,,,,,,,79,156697,21,Female,1,2024/02/27_08:49:34,YZ,None,
,,,,,,practice,0,24,3,679,6,X,0,left,1.0684637560043484,0,0,,,,,,,,,,,,,,,,,,,,,1,,,,,,,,,,,,,,,,,,,,,,,,,,,,,,,,,,,,,,,,,,,,,,79,156697,21,Female,1,2024/02/27_08:49:34,YZ,None,
,,,,,,practice,0,24,3,679,7,C,0,right,0.26539363301708363,1,0,,,,,,,,,,,,,,,,,,,,,1,,,,,,,,,,,,,,,,,,,,,,,,,,,,,,,,,,,,,,,,,,,,,,79,156697,21,Female,1,2024/02/27_08:49:34,YZ,None,
,,,,,,practice,0,24,3,679,8,J,0,right,0.4556325309968088,1,0,,,,,,,,,,,,,,,,,,,,,1,,,,,,,,,,,,,,,,,,,,,,,,,,,,,,,,,,,,,,,,,,,,,,79,156697,21,Female,1,2024/02/27_08:49:34,YZ,None,
,,,,,,practice,0,24,3,679,9,X,1,right,0.32424996799090877,0,0,,,,,,,,,,,,,,,,,,,,,1,,,,,,,,,,,,,,,,,,,,,,,,,,,,,,,,,,,,,,,,,,,,,,79,156697,21,Female,1,2024/02/27_08:49:34,YZ,None,
,,,,,,practice,0,24,3,679,10,C,1,right,0.11400123898056336,0,0,,,,,,,,,,,,,,,,,,,,,1,,,,,,,,,,,,,,,,,,,,,,,,,,,,,,,,,,,,,,,,,,,,,,79,156697,21,Female,1,2024/02/27_08:49:34,YZ,None,
,,,,,,practice,0,24,3,679,11,Q,0,left,0.13671684998553246,0,0,,,,,,,,,,,,,,,,,,,,,1,,,,,,,,,,,,,,,,,,,,,,,,,,,,,,,,,,,,,,,,,,,,,,79,156697,21,Female,1,2024/02/27_08:49:34,YZ,None,
,,,,,,practice,0,24,3,679,12,J,0,right,0.10391429997980595,1,0,,,,,,,,,,,,,,,,,,,,,1,,,,,,,,,,,,,,,,,,,,,,,,,,,,,,,,,,,,,,,,,,,,,,79,156697,21,Female,1,2024/02/27_08:49:34,YZ,None,
,,,,,,practice,0,24,3,679,13,C,1,right,0.00037381501169875264,0,0,,,,,,,,,,,,,,,,,,,,,1,,,,,,,,,,,,,,,,,,,,,,,,,,,,,,,,,,,,,,,,,,,,,,79,156697,21,Female,1,2024/02/27_08:49:34,YZ,None,
,,,,,,practice,0,24,3,679,14,Q,1,left,0.099332608981058,1,0,,,,,,,,,,,,,,,,,,,,,1,,,,,,,,,,,,,,,,,,,,,,,,,,,,,,,,,,,,,,,,,,,,,,79,156697,21,Female,1,2024/02/27_08:49:34,YZ,None,
,,,,,,practice,0,24,3,679,,,,,,,,0.029166666666666646,0.25,0.3,0.7,0.0,0.7,0.9128568711395408,1,3,0,0,0,7,8,4,10,0,,,,1,,,,,,,,,,,,,,,,,,,,,,,,,,,,,,,,,,,,,,,,,,,,,,79,156697,21,Female,1,2024/02/27_08:49:34,YZ,None,
-1,./instructions/inst_redo_3/Slide47.png,left,22.550879913003882,899.8748464789824,922.4257263919862,,,,,,,,,,,,,,,,,,,,,,,,,,,,,,,,,1,,,,,,,,,,,,,,,,,,,,,,,,,,,,,,,,,,,,,,,,,,,,,,79,156697,21,Female,1,2024/02/27_08:49:34,YZ,None,
,,,,,,practice,0,34,3,679,1,N,0,right,2.7311126380227506,1,0,,,,,,,,,,,,,,,,,,,,,1,,,,,,,,,,,,,,,,,,,,,,,,,,,,,,,,,,,,,,,,,,,,,,79,156697,21,Female,1,2024/02/27_08:49:34,YZ,None,
,,,,,,practice,0,34,3,679,2,X,0,right,0.4632413699873723,1,0,,,,,,,,,,,,,,,,,,,,,1,,,,,,,,,,,,,,,,,,,,,,,,,,,,,,,,,,,,,,,,,,,,,,79,156697,21,Female,1,2024/02/27_08:49:34,YZ,None,
,,,,,,practice,0,34,3,679,3,N,0,right,0.5881802010117099,1,0,,,,,,,,,,,,,,,,,,,,,1,,,,,,,,,,,,,,,,,,,,,,,,,,,,,,,,,,,,,,,,,,,,,,79,156697,21,Female,1,2024/02/27_08:49:34,YZ,None,
,,,,,,practice,0,34,3,679,4,N,1,left,0.7602322200255003,1,0,,,,,,,,,,,,,,,,,,,,,1,,,,,,,,,,,,,,,,,,,,,,,,,,,,,,,,,,,,,,,,,,,,,,79,156697,21,Female,1,2024/02/27_08:49:34,YZ,None,
,,,,,,practice,0,34,3,679,5,Q,0,right,0.8120864229858853,1,0,,,,,,,,,,,,,,,,,,,,,1,,,,,,,,,,,,,,,,,,,,,,,,,,,,,,,,,,,,,,,,,,,,,,79,156697,21,Female,1,2024/02/27_08:49:34,YZ,None,
,,,,,,practice,0,34,3,679,6,N,1,right,0.7166654460015707,0,0,,,,,,,,,,,,,,,,,,,,,1,,,,,,,,,,,,,,,,,,,,,,,,,,,,,,,,,,,,,,,,,,,,,,79,156697,21,Female,1,2024/02/27_08:49:34,YZ,None,
,,,,,,practice,0,34,3,679,7,S,0,right,0.8312808399787173,1,0,,,,,,,,,,,,,,,,,,,,,1,,,,,,,,,,,,,,,,,,,,,,,,,,,,,,,,,,,,,,,,,,,,,,79,156697,21,Female,1,2024/02/27_08:49:34,YZ,None,
,,,,,,practice,0,34,3,679,8,X,0,right,0.7806647910038009,1,0,,,,,,,,,,,,,,,,,,,,,1,,,,,,,,,,,,,,,,,,,,,,,,,,,,,,,,,,,,,,,,,,,,,,79,156697,21,Female,1,2024/02/27_08:49:34,YZ,None,
,,,,,,practice,0,34,3,679,9,J,0,left,0.42859965600655414,0,0,,,,,,,,,,,,,,,,,,,,,1,,,,,,,,,,,,,,,,,,,,,,,,,,,,,,,,,,,,,,,,,,,,,,79,156697,21,Female,1,2024/02/27_08:49:34,YZ,None,
,,,,,,practice,0,34,3,679,10,S,1,right,0.3547293309820816,0,0,,,,,,,,,,,,,,,,,,,,,1,,,,,,,,,,,,,,,,,,,,,,,,,,,,,,,,,,,,,,,,,,,,,,79,156697,21,Female,1,2024/02/27_08:49:34,YZ,None,
,,,,,,practice,0,34,3,679,11,J,0,right,0.3724465040140785,1,0,,,,,,,,,,,,,,,,,,,,,1,,,,,,,,,,,,,,,,,,,,,,,,,,,,,,,,,,,,,,,,,,,,,,79,156697,21,Female,1,2024/02/27_08:49:34,YZ,None,
,,,,,,practice,0,34,3,679,12,C,0,right,0.4887897669977974,1,0,,,,,,,,,,,,,,,,,,,,,1,,,,,,,,,,,,,,,,,,,,,,,,,,,,,,,,,,,,,,,,,,,,,,79,156697,21,Female,1,2024/02/27_08:49:34,YZ,None,
,,,,,,practice,0,34,3,679,13,S,1,left,0.2958041710080579,1,0,,,,,,,,,,,,,,,,,,,,,1,,,,,,,,,,,,,,,,,,,,,,,,,,,,,,,,,,,,,,,,,,,,,,79,156697,21,Female,1,2024/02/27_08:49:34,YZ,None,
,,,,,,practice,0,34,3,679,14,N,0,right,0.1964131339918822,1,0,,,,,,,,,,,,,,,,,,,,,1,,,,,,,,,,,,,,,,,,,,,,,,,,,,,,,,,,,,,,,,,,,,,,79,156697,21,Female,1,2024/02/27_08:49:34,YZ,None,
,,,,,,practice,0,34,3,679,,,,,,,,0.7999999999999999,0.5,0.1,0.9,0.0,0.9,0.7014461780012685,2,1,0,0,0,9,11,4,10,0,,,,1,,,,,,,,,,,,,,,,,,,,,,,,,,,,,,,,,,,,,,,,,,,,,,79,156697,21,Female,1,2024/02/27_08:49:34,YZ,None,
1,./instructions/inst_prac_main/Slide51.png,right,3.4553123540244997,942.1699936509831,945.6253060050076,,,,,,,,,,,,,,,,,,,,,,,,,,,,,,,,,1,,,,,,,,,,,,,,,,,,,,,,,,,,,,,,,,,,,,,,,,,,,,,,79,156697,21,Female,1,2024/02/27_08:49:34,YZ,None,
2,./instructions/inst_prac_main/Slide52.png,right,17.805699989985442,945.6597847130033,963.4654847029888,,,,,,,,,,,,,,,,,,,,,,,,,,,,,,,,,1,,,,,,,,,,,,,,,,,,,,,,,,,,,,,,,,,,,,,,,,,,,,,,79,156697,21,Female,1,2024/02/27_08:49:34,YZ,None,
3,./instructions/inst_prac_main/Slide53.png,right,8.005632291984512,963.4998734270048,971.5055057189893,,,,,,,,,,,,,,,,,,,,,,,,,,,,,,,,,1,,,,,,,,,,,,,,,,,,,,,,,,,,,,,,,,,,,,,,,,,,,,,,79,156697,21,Female,1,2024/02/27_08:49:34,YZ,None,
4,./instructions/inst_prac_main/Slide54.png,right,6.389831306994893,971.5396940709907,977.9295253779856,,,,,,,,,,,,,,,,,,,,,,,,,,,,,,,,,1,,,,,,,,,,,,,,,,,,,,,,,,,,,,,,,,,,,,,,,,,,,,,,79,156697,21,Female,1,2024/02/27_08:49:34,YZ,None,
,,,,,,practice_main,0,1,1,679,1,J,0,None,nan,0,1,,,,,,,,,,,,,,,,,,,,,1,,,,,,,,,,,,,,,,,,,,,,,,,,,,,,,,,,,,,,,,,,,,,,79,156697,21,Female,1,2024/02/27_08:49:34,YZ,None,
,,,,,,practice_main,0,1,1,679,2,N,0,None,nan,0,1,,,,,,,,,,,,,,,,,,,,,1,,,,,,,,,,,,,,,,,,,,,,,,,,,,,,,,,,,,,,,,,,,,,,79,156697,21,Female,1,2024/02/27_08:49:34,YZ,None,
,,,,,,practice_main,0,1,1,679,3,N,1,None,nan,0,1,,,,,,,,,,,,,,,,,,,,,1,,,,,,,,,,,,,,,,,,,,,,,,,,,,,,,,,,,,,,,,,,,,,,79,156697,21,Female,1,2024/02/27_08:49:34,YZ,None,
,,,,,,practice_main,0,1,1,679,4,J,0,right,0.23693999199895188,1,0,,,,,,,,,,,,,,,,,,,,,1,,,,,,,,,,,,,,,,,,,,,,,,,,,,,,,,,,,,,,,,,,,,,,79,156697,21,Female,1,2024/02/27_08:49:34,YZ,None,
,,,,,,practice_main,0,1,1,679,5,J,1,right,0.27131476599606685,0,0,,,,,,,,,,,,,,,,,,,,,1,,,,,,,,,,,,,,,,,,,,,,,,,,,,,,,,,,,,,,,,,,,,,,79,156697,21,Female,1,2024/02/27_08:49:34,YZ,None,
,,,,,,practice_main,0,1,1,679,6,C,0,left,0.2396601759828627,0,0,,,,,,,,,,,,,,,,,,,,,1,,,,,,,,,,,,,,,,,,,,,,,,,,,,,,,,,,,,,,,,,,,,,,79,156697,21,Female,1,2024/02/27_08:49:34,YZ,None,
,,,,,,practice_main,0,1,1,679,7,J,0,right,0.1278078320028726,1,0,,,,,,,,,,,,,,,,,,,,,1,,,,,,,,,,,,,,,,,,,,,,,,,,,,,,,,,,,,,,,,,,,,,,79,156697,21,Female,1,2024/02/27_08:49:34,YZ,None,
,,,,,,practice_main,0,1,1,679,8,J,1,right,0.026140386005863547,0,0,,,,,,,,,,,,,,,,,,,,,1,,,,,,,,,,,,,,,,,,,,,,,,,,,,,,,,,,,,,,,,,,,,,,79,156697,21,Female,1,2024/02/27_08:49:34,YZ,None,
,,,,,,practice_main,0,1,1,679,9,Q,0,right,0.42806911101797596,1,0,,,,,,,,,,,,,,,,,,,,,1,,,,,,,,,,,,,,,,,,,,,,,,,,,,,,,,,,,,,,,,,,,,,,79,156697,21,Female,1,2024/02/27_08:49:34,YZ,None,
,,,,,,practice_main,0,1,1,679,10,C,0,left,0.16507252599694766,0,0,,,,,,,,,,,,,,,,,,,,,1,,,,,,,,,,,,,,,,,,,,,,,,,,,,,,,,,,,,,,,,,,,,,,79,156697,21,Female,1,2024/02/27_08:49:34,YZ,None,
,,,,,,practice_main,0,1,1,679,11,C,1,right,0.27211086798342876,0,0,,,,,,,,,,,,,,,,,,,,,1,,,,,,,,,,,,,,,,,,,,,,,,,,,,,,,,,,,,,,,,,,,,,,79,156697,21,Female,1,2024/02/27_08:49:34,YZ,None,
,,,,,,practice_main,0,1,1,679,12,F,0,right,0.2480817119940184,1,0,,,,,,,,,,,,,,,,,,,,,1,,,,,,,,,,,,,,,,,,,,,,,,,,,,,,,,,,,,,,,,,,,,,,79,156697,21,Female,1,2024/02/27_08:49:34,YZ,None,
,,,,,,practice_main,0,1,1,679,13,C,0,right,0.4096001550205983,1,0,,,,,,,,,,,,,,,,,,,,,1,,,,,,,,,,,,,,,,,,,,,,,,,,,,,,,,,,,,,,,,,,,,,,79,156697,21,Female,1,2024/02/27_08:49:34,YZ,None,
,,,,,,practice_main,0,1,1,679,14,X,0,left,0.41202843000064604,0,0,,,,,,,,,,,,,,,,,,,,,1,,,,,,,,,,,,,,,,,,,,,,,,,,,,,,,,,,,,,,,,,,,,,,79,156697,21,Female,1,2024/02/27_08:49:34,YZ,None,
,,,,,,practice_main,0,1,1,679,,,,,,,,0.175,0.0,0.3,0.625,0.21428571428571427,0.48571428571428565,0.25789326854547573,0,3,1,2,3,5,5,4,10,0,,,,1,,,,,,,,,,,,,,,,,,,,,,,,,,,,,,,,,,,,,,,,,,,,,,79,156697,21,Female,1,2024/02/27_08:49:34,YZ,None,
,,,,,240227_091518,PRACTICE,0,1,1,679,,,,,,,,,,,,,,,,,,,,,,,,,,,,1,9,1,1,cue1.png,easy,A,39,1.7227488110074773,0,980.9995917129854,982.7573020039999,,,,,,,,,,,,,,,,,,,,,,,,,,,,,,,,,,,79,156697,21,Female,1,2024/02/27_08:49:34,YZ,None,
,,,,,,practice_main,0,2,3,679,1,V,0,right,1.396571875025984,1,0,,,,,,,,,,,,,,,,,,,,,1,,,,,,,,,,,,,,,,,,,,,,,,,,,,,,,,,,,,,,,,,,,,,,79,156697,21,Female,1,2024/02/27_08:49:34,YZ,None,
,,,,,,practice_main,0,2,3,679,2,S,0,right,0.512159387988504,1,0,,,,,,,,,,,,,,,,,,,,,1,,,,,,,,,,,,,,,,,,,,,,,,,,,,,,,,,,,,,,,,,,,,,,79,156697,21,Female,1,2024/02/27_08:49:34,YZ,None,
,,,,,,practice_main,0,2,3,679,3,X,0,right,0.6330221940006595,1,0,,,,,,,,,,,,,,,,,,,,,1,,,,,,,,,,,,,,,,,,,,,,,,,,,,,,,,,,,,,,,,,,,,,,79,156697,21,Female,1,2024/02/27_08:49:34,YZ,None,
,,,,,,practice_main,0,2,3,679,4,X,0,right,0.5581426009885035,1,0,,,,,,,,,,,,,,,,,,,,,1,,,,,,,,,,,,,,,,,,,,,,,,,,,,,,,,,,,,,,,,,,,,,,79,156697,21,Female,1,2024/02/27_08:49:34,YZ,None,
,,,,,,practice_main,0,2,3,679,5,C,0,right,0.9394709449843504,1,0,,,,,,,,,,,,,,,,,,,,,1,,,,,,,,,,,,,,,,,,,,,,,,,,,,,,,,,,,,,,,,,,,,,,79,156697,21,Female,1,2024/02/27_08:49:34,YZ,None,
,,,,,,practice_main,0,2,3,679,6,X,1,right,0.5123493330029305,0,0,,,,,,,,,,,,,,,,,,,,,1,,,,,,,,,,,,,,,,,,,,,,,,,,,,,,,,,,,,,,,,,,,,,,79,156697,21,Female,1,2024/02/27_08:49:34,YZ,None,
,,,,,,practice_main,0,2,3,679,7,V,0,left,0.5920809720118996,0,0,,,,,,,,,,,,,,,,,,,,,1,,,,,,,,,,,,,,,,,,,,,,,,,,,,,,,,,,,,,,,,,,,,,,79,156697,21,Female,1,2024/02/27_08:49:34,YZ,None,
,,,,,,practice_main,0,2,3,679,8,N,0,right,0.3778620660013985,1,0,,,,,,,,,,,,,,,,,,,,,1,,,,,,,,,,,,,,,,,,,,,,,,,,,,,,,,,,,,,,,,,,,,,,79,156697,21,Female,1,2024/02/27_08:49:34,YZ,None,
,,,,,,practice_main,0,2,3,679,9,J,0,right,0.4208554629876744,1,0,,,,,,,,,,,,,,,,,,,,,1,,,,,,,,,,,,,,,,,,,,,,,,,,,,,,,,,,,,,,,,,,,,,,79,156697,21,Female,1,2024/02/27_08:49:34,YZ,None,
,,,,,,practice_main,0,2,3,679,10,Q,0,left,0.424212774989428,0,0,,,,,,,,,,,,,,,,,,,,,1,,,,,,,,,,,,,,,,,,,,,,,,,,,,,,,,,,,,,,,,,,,,,,79,156697,21,Female,1,2024/02/27_08:49:34,YZ,None,
,,,,,,practice_main,0,2,3,679,11,N,1,right,0.49590092498692684,0,0,,,,,,,,,,,,,,,,,,,,,1,,,,,,,,,,,,,,,,,,,,,,,,,,,,,,,,,,,,,,,,,,,,,,79,156697,21,Female,1,2024/02/27_08:49:34,YZ,None,
,,,,,,practice_main,0,2,3,679,12,S,0,right,0.7401365940168034,1,0,,,,,,,,,,,,,,,,,,,,,1,,,,,,,,,,,,,,,,,,,,,,,,,,,,,,,,,,,,,,,,,,,,,,79,156697,21,Female,1,2024/02/27_08:49:34,YZ,None,
,,,,,,practice_main,0,2,3,679,13,Q,1,left,0.3006748420011718,1,0,,,,,,,,,,,,,,,,,,,,,1,,,,,,,,,,,,,,,,,,,,,,,,,,,,,,,,,,,,,,,,,,,,,,79,156697,21,Female,1,2024/02/27_08:49:34,YZ,None,
,,,,,,practice_main,0,2,3,679,14,N,1,right,0.4164591960143298,0,0,,,,,,,,,,,,,,,,,,,,,1,,,,,,,,,,,,,,,,,,,,,,,,,,,,,,,,,,,,,,,,,,,,,,79,156697,21,Female,1,2024/02/27_08:49:34,YZ,None,
,,,,,,practice_main,0,2,3,679,,,,,,,,0.5625,0.25,0.2,0.8,0.0,0.8,0.5942785120714689,1,2,0,0,0,8,9,4,10,0,,,,1,,,,,,,,,,,,,,,,,,,,,,,,,,,,,,,,,,,,,,,,,,,,,,79,156697,21,Female,1,2024/02/27_08:49:34,YZ,None,
,,,,,240227_091544,PRACTICE,0,2,3,679,,,,,,,,,,,,,,,,,,,,,,,,,,,,1,2,2,2,cue2.png,hard,A,27,1.1781867730023805,0,1008.0803565589886,1009.2710734680004,,,,,,,,,,,,,,,,,,,,,,,,,,,,,,,,,,,79,156697,21,Female,1,2024/02/27_08:49:34,YZ,None,
,,,,,,practice_main,0,3,3,679,1,Q,0,right,0.9269033889868297,1,0,,,,,,,,,,,,,,,,,,,,,1,,,,,,,,,,,,,,,,,,,,,,,,,,,,,,,,,,,,,,,,,,,,,,79,156697,21,Female,1,2024/02/27_08:49:34,YZ,None,
,,,,,,practice_main,0,3,3,679,2,C,0,right,0.48319336702115834,1,0,,,,,,,,,,,,,,,,,,,,,1,,,,,,,,,,,,,,,,,,,,,,,,,,,,,,,,,,,,,,,,,,,,,,79,156697,21,Female,1,2024/02/27_08:49:34,YZ,None,
,,,,,,practice_main,0,3,3,679,3,C,0,right,0.6085079539916478,1,0,,,,,,,,,,,,,,,,,,,,,1,,,,,,,,,,,,,,,,,,,,,,,,,,,,,,,,,,,,,,,,,,,,,,79,156697,21,Female,1,2024/02/27_08:49:34,YZ,None,
,,,,,,practice_main,0,3,3,679,4,J,0,right,0.5191046510008164,1,0,,,,,,,,,,,,,,,,,,,,,1,,,,,,,,,,,,,,,,,,,,,,,,,,,,,,,,,,,,,,,,,,,,,,79,156697,21,Female,1,2024/02/27_08:49:34,YZ,None,
,,,,,,practice_main,0,3,3,679,5,C,1,left,0.7055408380110748,1,0,,,,,,,,,,,,,,,,,,,,,1,,,,,,,,,,,,,,,,,,,,,,,,,,,,,,,,,,,,,,,,,,,,,,79,156697,21,Female,1,2024/02/27_08:49:34,YZ,None,
,,,,,,practice_main,0,3,3,679,6,X,0,right,0.5802447070018388,1,0,,,,,,,,,,,,,,,,,,,,,1,,,,,,,,,,,,,,,,,,,,,,,,,,,,,,,,,,,,,,,,,,,,,,79,156697,21,Female,1,2024/02/27_08:49:34,YZ,None,
,,,,,,practice_main,0,3,3,679,7,S,0,right,0.9316427989979275,1,0,,,,,,,,,,,,,,,,,,,,,1,,,,,,,,,,,,,,,,,,,,,,,,,,,,,,,,,,,,,,,,,,,,,,79,156697,21,Female,1,2024/02/27_08:49:34,YZ,None,
,,,,,,practice_main,0,3,3,679,8,C,1,left,0.4828804360004142,1,0,,,,,,,,,,,,,,,,,,,,,1,,,,,,,,,,,,,,,,,,,,,,,,,,,,,,,,,,,,,,,,,,,,,,79,156697,21,Female,1,2024/02/27_08:49:34,YZ,None,
,,,,,,practice_main,0,3,3,679,9,X,1,right,0.5717662709939759,0,0,,,,,,,,,,,,,,,,,,,,,1,,,,,,,,,,,,,,,,,,,,,,,,,,,,,,,,,,,,,,,,,,,,,,79,156697,21,Female,1,2024/02/27_08:49:34,YZ,None,
,,,,,,practice_main,0,3,3,679,10,N,0,left,0.4049760490015615,0,0,,,,,,,,,,,,,,,,,,,,,1,,,,,,,,,,,,,,,,,,,,,,,,,,,,,,,,,,,,,,,,,,,,,,79,156697,21,Female,1,2024/02/27_08:49:34,YZ,None,
,,,,,,practice_main,0,3,3,679,11,J,0,left,0.4011029670073185,0,0,,,,,,,,,,,,,,,,,,,,,1,,,,,,,,,,,,,,,,,,,,,,,,,,,,,,,,,,,,,,,,,,,,,,79,156697,21,Female,1,2024/02/27_08:49:34,YZ,None,
,,,,,,practice_main,0,3,3,679,12,X,1,right,0.25729389098705724,0,0,,,,,,,,,,,,,,,,,,,,,1,,,,,,,,,,,,,,,,,,,,,,,,,,,,,,,,,,,,,,,,,,,,,,79,156697,21,Female,1,2024/02/27_08:49:34,YZ,None,
,,,,,,practice_main,0,3,3,679,13,Q,0,right,0.24161205600830726,1,0,,,,,,,,,,,,,,,,,,,,,1,,,,,,,,,,,,,,,,,,,,,,,,,,,,,,,,,,,,,,,,,,,,,,79,156697,21,Female,1,2024/02/27_08:49:34,YZ,None,
,,,,,,practice_main,0,3,3,679,14,F,0,right,0.28048174700234085,1,0,,,,,,,,,,,,,,,,,,,,,1,,,,,,,,,,,,,,,,,,,,,,,,,,,,,,,,,,,,,,,,,,,,,,79,156697,21,Female,1,2024/02/27_08:49:34,YZ,None,
,,,,,,practice_main,0,3,3,679,,,,,,,,0.725,0.5,0.2,0.8,0.0,0.8,0.5282322230008764,2,2,0,0,0,8,10,4,10,0,,,,1,,,,,,,,,,,,,,,,,,,,,,,,,,,,,,,,,,,,,,,,,,,,,,79,156697,21,Female,1,2024/02/27_08:49:34,YZ,None,
,,,,,240227_091609,PRACTICE,0,3,3,679,,,,,,,,,,,,,,,,,,,,,,,,,,,,1,33,3,3,cue2.png,hard,A,28,1.2803007810143754,0,1034.0987012599944,1035.4045061329962,,,,,,,,,,,,,,,,,,,,,,,,,,,,,,,,,,,79,156697,21,Female,1,2024/02/27_08:49:34,YZ,None,
-1,./instructions/inst_prac_end/Slide56.png,left,42.7283244249993,1057.825482182001,1100.5538066070003,,,,,,,,,,,,,,,,,,,,,,,,,,,,,,,,,1,,,,,,,,,,,,,,,,,,,,,,,,,,,,,,,,,,,,,,,,,,,,,,79,156697,21,Female,1,2024/02/27_08:49:34,YZ,None,
1,./instructions/inst_test/Slide57.png,right,106.7991492349829,1100.586562965007,1207.38571219999,,,,,,,,,,,,,,,,,,,,,,,,,,,,,,,,,1,,,,,,,,,,,,,,,,,,,,,,,,,,,,,,,,,,,,,,,,,,,,,,79,156697,21,Female,1,2024/02/27_08:49:34,YZ,None,
,,,,,,test,1,1,1,679,1,Q,0,right,0.626072133978596,1,0,,,,,,,,,,,,,,,,,,,,,1,,,,,,,,,,,,,,,,,,,,,,,,,,,,,,,,,,,,,,,,,,,,,,79,156697,21,Female,1,2024/02/27_08:49:34,YZ,None,
,,,,,,test,1,1,1,679,2,S,0,right,0.46128225000575185,1,0,,,,,,,,,,,,,,,,,,,,,1,,,,,,,,,,,,,,,,,,,,,,,,,,,,,,,,,,,,,,,,,,,,,,79,156697,21,Female,1,2024/02/27_08:49:34,YZ,None,
,,,,,,test,1,1,1,679,3,S,1,left,0.5491441889898852,1,0,,,,,,,,,,,,,,,,,,,,,1,,,,,,,,,,,,,,,,,,,,,,,,,,,,,,,,,,,,,,,,,,,,,,79,156697,21,Female,1,2024/02/27_08:49:34,YZ,None,
,,,,,,test,1,1,1,679,4,N,0,right,0.8271343979868107,1,0,,,,,,,,,,,,,,,,,,,,,1,,,,,,,,,,,,,,,,,,,,,,,,,,,,,,,,,,,,,,,,,,,,,,79,156697,21,Female,1,2024/02/27_08:49:34,YZ,None,
,,,,,,test,1,1,1,679,5,J,0,right,0.6337617689860053,1,0,,,,,,,,,,,,,,,,,,,,,1,,,,,,,,,,,,,,,,,,,,,,,,,,,,,,,,,,,,,,,,,,,,,,79,156697,21,Female,1,2024/02/27_08:49:34,YZ,None,
,,,,,,test,1,1,1,679,6,J,1,left,0.5528505729744211,1,0,,,,,,,,,,,,,,,,,,,,,1,,,,,,,,,,,,,,,,,,,,,,,,,,,,,,,,,,,,,,,,,,,,,,79,156697,21,Female,1,2024/02/27_08:49:34,YZ,None,
,,,,,,test,1,1,1,679,7,Q,0,right,0.6362285040086135,1,0,,,,,,,,,,,,,,,,,,,,,1,,,,,,,,,,,,,,,,,,,,,,,,,,,,,,,,,,,,,,,,,,,,,,79,156697,21,Female,1,2024/02/27_08:49:34,YZ,None,
,,,,,,test,1,1,1,679,8,Q,1,left,0.5469922169868369,1,0,,,,,,,,,,,,,,,,,,,,,1,,,,,,,,,,,,,,,,,,,,,,,,,,,,,,,,,,,,,,,,,,,,,,79,156697,21,Female,1,2024/02/27_08:49:34,YZ,None,
,,,,,,test,1,1,1,679,9,F,0,right,0.7148085739754606,1,0,,,,,,,,,,,,,,,,,,,,,1,,,,,,,,,,,,,,,,,,,,,,,,,,,,,,,,,,,,,,,,,,,,,,79,156697,21,Female,1,2024/02/27_08:49:34,YZ,None,
,,,,,,test,1,1,1,679,10,V,0,right,0.45565535000059754,1,0,,,,,,,,,,,,,,,,,,,,,1,,,,,,,,,,,,,,,,,,,,,,,,,,,,,,,,,,,,,,,,,,,,,,79,156697,21,Female,1,2024/02/27_08:49:34,YZ,None,
,,,,,,test,1,1,1,679,11,V,1,left,0.4335841530119069,1,0,,,,,,,,,,,,,,,,,,,,,1,,,,,,,,,,,,,,,,,,,,,,,,,,,,,,,,,,,,,,,,,,,,,,79,156697,21,Female,1,2024/02/27_08:49:34,YZ,None,
,,,,,,test,1,1,1,679,12,X,0,right,0.5191954570182133,1,0,,,,,,,,,,,,,,,,,,,,,1,,,,,,,,,,,,,,,,,,,,,,,,,,,,,,,,,,,,,,,,,,,,,,79,156697,21,Female,1,2024/02/27_08:49:34,YZ,None,
,,,,,,test,1,1,1,679,13,S,0,right,0.41365784298977815,1,0,,,,,,,,,,,,,,,,,,,,,1,,,,,,,,,,,,,,,,,,,,,,,,,,,,,,,,,,,,,,,,,,,,,,79,156697,21,Female,1,2024/02/27_08:49:34,YZ,None,
,,,,,,test,1,1,1,679,14,N,0,right,0.5373871079937089,1,0,,,,,,,,,,,,,,,,,,,,,1,,,,,,,,,,,,,,,,,,,,,,,,,,,,,,,,,,,,,,,,,,,,,,79,156697,21,Female,1,2024/02/27_08:49:34,YZ,None,
,,,,,,Test,1,1,1,679,,,,,,,,1.0,1.0,0.0,1.0,0.0,1.0,0.5648396084933276,4,0,0,0,0,10,14,4,10,0,,,,1,,,,,,,,,,,,,,,,,,,,,,,,,,,,,,,,,,,,,,,,,,,,,,79,156697,21,Female,1,2024/02/27_08:49:34,YZ,None,
,,,,,240227_091908,TEST,1,1,1,679,,,,,,,,,,,,,,,,,,,,,,,,,,,,1,1,1,1,cue1.png,easy,A,12,0.8038660760212224,0,1212.4447763820062,1213.2678192909807,,,,,,,,,,,,,,,,,,,,,,,,,,,,,,,,,,,79,156697,21,Female,1,2024/02/27_08:49:34,YZ,None,
,,,,,,test,1,2,3,679,1,Q,0,right,1.065174740011571,1,0,,,,,,,,,,,,,,,,,,,,,1,,,,,,,,,,,,,,,,,,,,,,,,,,,,,,,,,,,,,,,,,,,,,,79,156697,21,Female,1,2024/02/27_08:49:34,YZ,None,
,,,,,,test,1,2,3,679,2,X,0,right,0.5241542919829953,1,0,,,,,,,,,,,,,,,,,,,,,1,,,,,,,,,,,,,,,,,,,,,,,,,,,,,,,,,,,,,,,,,,,,,,79,156697,21,Female,1,2024/02/27_08:49:34,YZ,None,
,,,,,,test,1,2,3,679,3,Q,0,right,0.8394859090039972,1,0,,,,,,,,,,,,,,,,,,,,,1,,,,,,,,,,,,,,,,,,,,,,,,,,,,,,,,,,,,,,,,,,,,,,79,156697,21,Female,1,2024/02/27_08:49:34,YZ,None,
,,,,,,test,1,2,3,679,4,F,0,right,0.47499054300715216,1,0,,,,,,,,,,,,,,,,,,,,,1,,,,,,,,,,,,,,,,,,,,,,,,,,,,,,,,,,,,,,,,,,,,,,79,156697,21,Female,1,2024/02/27_08:49:34,YZ,None,
,,,,,,test,1,2,3,679,5,N,0,left,0.8089532200247049,0,0,,,,,,,,,,,,,,,,,,,,,1,,,,,,,,,,,,,,,,,,,,,,,,,,,,,,,,,,,,,,,,,,,,,,79,156697,21,Female,1,2024/02/27_08:49:34,YZ,None,
,,,,,,test,1,2,3,679,6,X,0,right,0.25003138501779176,1,0,,,,,,,,,,,,,,,,,,,,,1,,,,,,,,,,,,,,,,,,,,,,,,,,,,,,,,,,,,,,,,,,,,,,79,156697,21,Female,1,2024/02/27_08:49:34,YZ,None,
,,,,,,test,1,2,3,679,7,X,0,right,0.3842321970150806,1,0,,,,,,,,,,,,,,,,,,,,,1,,,,,,,,,,,,,,,,,,,,,,,,,,,,,,,,,,,,,,,,,,,,,,79,156697,21,Female,1,2024/02/27_08:49:34,YZ,None,
,,,,,,test,1,2,3,679,8,V,0,left,0.31690956000238657,0,0,,,,,,,,,,,,,,,,,,,,,1,,,,,,,,,,,,,,,,,,,,,,,,,,,,,,,,,,,,,,,,,,,,,,79,156697,21,Female,1,2024/02/27_08:49:34,YZ,None,
,,,,,,test,1,2,3,679,9,X,1,right,0.2643826919957064,0,0,,,,,,,,,,,,,,,,,,,,,1,,,,,,,,,,,,,,,,,,,,,,,,,,,,,,,,,,,,,,,,,,,,,,79,156697,21,Female,1,2024/02/27_08:49:34,YZ,None,
,,,,,,test,1,2,3,679,10,S,0,right,0.3622867919912096,1,0,,,,,,,,,,,,,,,,,,,,,1,,,,,,,,,,,,,,,,,,,,,,,,,,,,,,,,,,,,,,,,,,,,,,79,156697,21,Female,1,2024/02/27_08:49:34,YZ,None,
,,,,,,test,1,2,3,679,11,V,1,left,0.30963221300044097,1,0,,,,,,,,,,,,,,,,,,,,,1,,,,,,,,,,,,,,,,,,,,,,,,,,,,,,,,,,,,,,,,,,,,,,79,156697,21,Female,1,2024/02/27_08:49:34,YZ,None,
,,,,,,test,1,2,3,679,12,S,0,right,0.35660836900933646,1,0,,,,,,,,,,,,,,,,,,,,,1,,,,,,,,,,,,,,,,,,,,,,,,,,,,,,,,,,,,,,,,,,,,,,79,156697,21,Female,1,2024/02/27_08:49:34,YZ,None,
,,,,,,test,1,2,3,679,13,S,1,right,0.27287794000585563,0,0,,,,,,,,,,,,,,,,,,,,,1,,,,,,,,,,,,,,,,,,,,,,,,,,,,,,,,,,,,,,,,,,,,,,79,156697,21,Female,1,2024/02/27_08:49:34,YZ,None,
