Instruction,Stimulus,Key,RT,START,END,Phase,Block,TrialN,NbackLevel,ISI,LetterN,Letter,Letter_isSame,Letter_Resp,Letter_RT,Letter_Accuracy,Letter_Timeout,Trial_A_measure,Trial_HR,Trial_FAR,Trial_CDR,Trial_MSR,Trial_ACC,Trial_RT,Trial_HitsCount,Trial_FAsCount,Trial_SameNoRespCount,Trial_DiffNoRespCount,Trial_NoRespCount,Trial_CDsCount,Trial_CorrectRespCount,Trial_SameLetterCount,Trial_DiffLetterCount,Trial_InvalidLetterCount,TrialCountCali,CaliEnd_A_measure,ISI_calibrated,Run,TrialIndex,TrialNumber_total,TrialNumber_valid,CueLearning,TrialDemandLearning,CueMapping,OnlineRating,OnlineRatingRT,OnlineRatingTimeOut,CueSTART,RatingSTART,OfflineRatingTimePoint,OfflineRatingQuesIndex,CueFigure,TrialDemand,OfflineRating,OfflineRatingRT,CueStart,OfflineRatingStart,PhaseType,CueLeft,CueDemandLeft,CueRight,CueDemandRight,Choice,ChoiceDemand,TaskDemand,ChoiceRT,ChoiceTimeOut,ChoiceSTART,CueCheck,CueDemandCheck,CorrectAnswer,Answer,AnswerDemand,AnswerRT,AnswerACC,AnswerTimeOut,CheckSTART,DemandRatingQuesIndex,QuesTLX,DemandLevel,DemandRating,DemandRatingRT,QuesStart,PID,SONA,Age,Gender,Run,TIME,EXPERIMENTER,frameRate,
-1,./instructions/inst_begin/Slide2.png,left,27.74785615998553,0.1251748270005919,27.873030986986123,,,,,,,,,,,,,,,,,,,,,,,,,,,,,,,,,1,,,,,,,,,,,,,,,,,,,,,,,,,,,,,,,,,,,,,,,,,,,,,,99,145813,22,Female,1,2024/03/18_14:53:49,YZ,None,
0,./instructions/inst_begin/Slide4.png,right,7.724783326004399,27.90003574397997,35.62481906998437,,,,,,,,,,,,,,,,,,,,,,,,,,,,,,,,,1,,,,,,,,,,,,,,,,,,,,,,,,,,,,,,,,,,,,,,,,,,,,,,99,145813,22,Female,1,2024/03/18_14:53:49,YZ,None,
1,./instructions/inst_begin/Slide2.png,right,4.570899750979152,35.65386932800175,40.2247690789809,,,,,,,,,,,,,,,,,,,,,,,,,,,,,,,,,1,,,,,,,,,,,,,,,,,,,,,,,,,,,,,,,,,,,,,,,,,,,,,,99,145813,22,Female,1,2024/03/18_14:53:49,YZ,None,
2,./instructions/inst_begin/Slide3.png,right,8.818845831992803,40.25399285799358,49.07283868998638,,,,,,,,,,,,,,,,,,,,,,,,,,,,,,,,,1,,,,,,,,,,,,,,,,,,,,,,,,,,,,,,,,,,,,,,,,,,,,,,99,145813,22,Female,1,2024/03/18_14:53:49,YZ,None,
3,./instructions/inst_begin/Slide4.png,right,6.470030118012801,49.09875877798186,55.56878889599466,,,,,,,,,,,,,,,,,,,,,,,,,,,,,,,,,1,,,,,,,,,,,,,,,,,,,,,,,,,,,,,,,,,,,,,,,,,,,,,,99,145813,22,Female,1,2024/03/18_14:53:49,YZ,None,
1,./instructions/inst_prac_2/Slide6.png,right,11.91855376699823,55.60227104500518,67.52082481200341,,,,,,,,,,,,,,,,,,,,,,,,,,,,,,,,,1,,,,,,,,,,,,,,,,,,,,,,,,,,,,,,,,,,,,,,,,,,,,,,99,145813,22,Female,1,2024/03/18_14:53:49,YZ,None,
2,./instructions/inst_prac_2/Slide7.png,right,16.098822257015854,67.55007536397898,83.64889762099483,,,,,,,,,,,,,,,,,,,,,,,,,,,,,,,,,1,,,,,,,,,,,,,,,,,,,,,,,,,,,,,,,,,,,,,,,,,,,,,,99,145813,22,Female,1,2024/03/18_14:53:49,YZ,None,
3,./instructions/inst_prac_2/Slide8.png,right,10.902147684013471,83.67472947799251,94.57687716200599,,,,,,,,,,,,,,,,,,,,,,,,,,,,,,,,,1,,,,,,,,,,,,,,,,,,,,,,,,,,,,,,,,,,,,,,,,,,,,,,99,145813,22,Female,1,2024/03/18_14:53:49,YZ,None,
4,./instructions/inst_prac_2/Slide9.png,right,4.394359291007277,94.60646173599525,99.00082102700253,,,,,,,,,,,,,,,,,,,,,,,,,,,,,,,,,1,,,,,,,,,,,,,,,,,,,,,,,,,,,,,,,,,,,,,,,,,,,,,,99,145813,22,Female,1,2024/03/18_14:53:49,YZ,None,
5,./instructions/inst_prac_2/Slide10.png,right,1.77125411000452,99.02937295800075,100.80062706800527,,,,,,,,,,,,,,,,,,,,,,,,,,,,,,,,,1,,,,,,,,,,,,,,,,,,,,,,,,,,,,,,,,,,,,,,,,,,,,,,99,145813,22,Female,1,2024/03/18_14:53:49,YZ,None,
6,./instructions/inst_prac_2/Slide11.png,right,1.5077254979987629,100.82914624200203,102.33687174000079,,,,,,,,,,,,,,,,,,,,,,,,,,,,,,,,,1,,,,,,,,,,,,,,,,,,,,,,,,,,,,,,,,,,,,,,,,,,,,,,99,145813,22,Female,1,2024/03/18_14:53:49,YZ,None,
7,./instructions/inst_prac_2/Slide12.png,right,0.7793295200099237,102.36536185699515,103.14469137700507,,,,,,,,,,,,,,,,,,,,,,,,,,,,,,,,,1,,,,,,,,,,,,,,,,,,,,,,,,,,,,,,,,,,,,,,,,,,,,,,99,145813,22,Female,1,2024/03/18_14:53:49,YZ,None,
8,./instructions/inst_prac_2/Slide13.png,right,0.7096736270177644,103.17115277898847,103.88082640600624,,,,,,,,,,,,,,,,,,,,,,,,,,,,,,,,,1,,,,,,,,,,,,,,,,,,,,,,,,,,,,,,,,,,,,,,,,,,,,,,99,145813,22,Female,1,2024/03/18_14:53:49,YZ,None,
9,./instructions/inst_prac_2/Slide14.png,right,10.306841015990358,103.90995987699716,114.21680089298752,,,,,,,,,,,,,,,,,,,,,,,,,,,,,,,,,1,,,,,,,,,,,,,,,,,,,,,,,,,,,,,,,,,,,,,,,,,,,,,,99,145813,22,Female,1,2024/03/18_14:53:49,YZ,None,
10,./instructions/inst_prac_2/Slide15.png,right,8.84361852298025,114.24522965500364,123.08884817798389,,,,,,,,,,,,,,,,,,,,,,,,,,,,,,,,,1,,,,,,,,,,,,,,,,,,,,,,,,,,,,,,,,,,,,,,,,,,,,,,99,145813,22,Female,1,2024/03/18_14:53:49,YZ,None,
,,,,,,practice,0,22,2,2583,1,J,0,right,4.097794030007208,1,0,,,,,,,,,,,,,,,,,,,,,1,,,,,,,,,,,,,,,,,,,,,,,,,,,,,,,,,,,,,,,,,,,,,,99,145813,22,Female,1,2024/03/18_14:53:49,YZ,None,
,,,,,,practice,0,22,2,2583,2,Q,0,right,1.2532768759992905,1,0,,,,,,,,,,,,,,,,,,,,,1,,,,,,,,,,,,,,,,,,,,,,,,,,,,,,,,,,,,,,,,,,,,,,99,145813,22,Female,1,2024/03/18_14:53:49,YZ,None,
,,,,,,practice,0,22,2,2583,3,J,1,left,2.9521822609822266,1,0,,,,,,,,,,,,,,,,,,,,,1,,,,,,,,,,,,,,,,,,,,,,,,,,,,,,,,,,,,,,,,,,,,,,99,145813,22,Female,1,2024/03/18_14:53:49,YZ,None,
,,,,,,practice,0,22,2,2583,4,X,0,right,1.7168246789951809,1,0,,,,,,,,,,,,,,,,,,,,,1,,,,,,,,,,,,,,,,,,,,,,,,,,,,,,,,,,,,,,,,,,,,,,99,145813,22,Female,1,2024/03/18_14:53:49,YZ,None,
,,,,,,practice,0,22,2,2583,5,C,0,right,3.137374098005239,1,0,,,,,,,,,,,,,,,,,,,,,1,,,,,,,,,,,,,,,,,,,,,,,,,,,,,,,,,,,,,,,,,,,,,,99,145813,22,Female,1,2024/03/18_14:53:49,YZ,None,
,,,,,,practice,0,22,2,2583,6,X,1,left,1.6121743640105706,1,0,,,,,,,,,,,,,,,,,,,,,1,,,,,,,,,,,,,,,,,,,,,,,,,,,,,,,,,,,,,,,,,,,,,,99,145813,22,Female,1,2024/03/18_14:53:49,YZ,None,
,,,,,,practice,0,22,2,2583,,,,,,,,1.0,1.0,0.0,1.0,0.0,1.0,2.4616043846666193,2,0,0,0,0,4,6,2,4,0,,,,1,,,,,,,,,,,,,,,,,,,,,,,,,,,,,,,,,,,,,,,,,,,,,,99,145813,22,Female,1,2024/03/18_14:53:49,YZ,None,
1,./instructions/inst_to_cali/Slide20.png,right,2.905022827006178,144.20784883198212,147.1128716589883,,,,,,,,,,,,,,,,,,,,,,,,,,,,,,,,,1,,,,,,,,,,,,,,,,,,,,,,,,,,,,,,,,,,,,,,,,,,,,,,99,145813,22,Female,1,2024/03/18_14:53:49,YZ,None,
1,./instructions/inst_cali/Slide22.png,right,1.5589676050003618,147.14593136298936,148.70489896798972,,,,,,,,,,,,,,,,,,,,,,,,,,,,,,,,,1,,,,,,,,,,,,,,,,,,,,,,,,,,,,,,,,,,,,,,,,,,,,,,99,145813,22,Female,1,2024/03/18_14:53:49,YZ,None,
,,,,,,calibration,0,28,2,583,1,V,0,right,1.7618511759792455,1,0,,,,,,,,,,,,,,,,,,,,,1,,,,,,,,,,,,,,,,,,,,,,,,,,,,,,,,,,,,,,,,,,,,,,99,145813,22,Female,1,2024/03/18_14:53:49,YZ,None,
,,,,,,calibration,0,28,2,583,2,Q,0,right,1.6726997350051533,1,0,,,,,,,,,,,,,,,,,,,,,1,,,,,,,,,,,,,,,,,,,,,,,,,,,,,,,,,,,,,,,,,,,,,,99,145813,22,Female,1,2024/03/18_14:53:49,YZ,None,
,,,,,,calibration,0,28,2,583,3,V,1,right,1.3360624019987881,0,0,,,,,,,,,,,,,,,,,,,,,1,,,,,,,,,,,,,,,,,,,,,,,,,,,,,,,,,,,,,,,,,,,,,,99,145813,22,Female,1,2024/03/18_14:53:49,YZ,None,
,,,,,,calibration,0,28,2,583,4,S,0,right,1.4332734429917764,1,0,,,,,,,,,,,,,,,,,,,,,1,,,,,,,,,,,,,,,,,,,,,,,,,,,,,,,,,,,,,,,,,,,,,,99,145813,22,Female,1,2024/03/18_14:53:49,YZ,None,
,,,,,,calibration,0,28,2,583,5,V,1,left,0.9807026300113648,1,0,,,,,,,,,,,,,,,,,,,,,1,,,,,,,,,,,,,,,,,,,,,,,,,,,,,,,,,,,,,,,,,,,,,,99,145813,22,Female,1,2024/03/18_14:53:49,YZ,None,
,,,,,,calibration,0,28,2,583,6,S,1,right,0.7751753889897373,0,0,,,,,,,,,,,,,,,,,,,,,1,,,,,,,,,,,,,,,,,,,,,,,,,,,,,,,,,,,,,,,,,,,,,,99,145813,22,Female,1,2024/03/18_14:53:49,YZ,None,
,,,,,,calibration,0,28,2,583,7,X,0,left,1.325506220018724,0,0,,,,,,,,,,,,,,,,,,,,,1,,,,,,,,,,,,,,,,,,,,,,,,,,,,,,,,,,,,,,,,,,,,,,99,145813,22,Female,1,2024/03/18_14:53:49,YZ,None,
,,,,,,calibration,0,28,2,583,8,C,0,right,1.8495140050072223,1,0,,,,,,,,,,,,,,,,,,,,,1,,,,,,,,,,,,,,,,,,,,,,,,,,,,,,,,,,,,,,,,,,,,,,99,145813,22,Female,1,2024/03/18_14:53:49,YZ,None,
,,,,,,calibration,0,28,2,583,9,F,0,right,1.107991080993088,1,0,,,,,,,,,,,,,,,,,,,,,1,,,,,,,,,,,,,,,,,,,,,,,,,,,,,,,,,,,,,,,,,,,,,,99,145813,22,Female,1,2024/03/18_14:53:49,YZ,None,
,,,,,,calibration,0,28,2,583,10,C,1,left,1.1552953589998651,1,0,,,,,,,,,,,,,,,,,,,,,1,,,,,,,,,,,,,,,,,,,,,,,,,,,,,,,,,,,,,,,,,,,,,,99,145813,22,Female,1,2024/03/18_14:53:49,YZ,None,
,,,,,,calibration,0,28,2,583,11,S,0,right,0.8631746460159775,1,0,,,,,,,,,,,,,,,,,,,,,1,,,,,,,,,,,,,,,,,,,,,,,,,,,,,,,,,,,,,,,,,,,,,,99,145813,22,Female,1,2024/03/18_14:53:49,YZ,None,
,,,,,,calibration,0,28,2,583,12,C,1,left,1.325653002015315,1,0,,,,,,,,,,,,,,,,,,,,,1,,,,,,,,,,,,,,,,,,,,,,,,,,,,,,,,,,,,,,,,,,,,,,99,145813,22,Female,1,2024/03/18_14:53:49,YZ,None,
,,,,,,calibration,0,28,2,583,13,Q,0,right,0.6102609079971444,1,0,,,,,,,,,,,,,,,,,,,,,1,,,,,,,,,,,,,,,,,,,,,,,,,,,,,,,,,,,,,,,,,,,,,,99,145813,22,Female,1,2024/03/18_14:53:49,YZ,None,
,,,,,,calibration,0,28,2,583,14,V,0,right,0.8589850709831808,1,0,,,,,,,,,,,,,,,,,,,,,1,,,,,,,,,,,,,,,,,,,,,,,,,,,,,,,,,,,,,,,,,,,,,,99,145813,22,Female,1,2024/03/18_14:53:49,YZ,None,
,,,,,,calibration,0,28,2,583,15,C,0,left,0.8186284950061236,0,0,,,,,,,,,,,,,,,,,,,,,1,,,,,,,,,,,,,,,,,,,,,,,,,,,,,,,,,,,,,,,,,,,,,,99,145813,22,Female,1,2024/03/18_14:53:49,YZ,None,
,,,,,,calibration,0,28,2,583,,,,,,,,0.77,0.6,0.2,0.8,0.0,0.8,1.191651570800847,3,2,0,0,0,8,11,5,10,0,,,,1,,,,,,,,,,,,,,,,,,,,,,,,,,,,,,,,,,,,,,,,,,,,,,99,145813,22,Female,1,2024/03/18_14:53:49,YZ,None,
,,,,,,Calibration,0,,2,583,,,,,,,,,,,,,,,,,,,,,,,,,1,,,1,,,,,,,,,,,,,,,,,,,,,,,,,,,,,,,,,,,,,,,,,,,,,,99,145813,22,Female,1,2024/03/18_14:53:49,YZ,None,
,,,,,,calibration,0,13,2,583,1,C,0,right,1.96756504100631,1,0,,,,,,,,,,,,,,,,,,,,,1,,,,,,,,,,,,,,,,,,,,,,,,,,,,,,,,,,,,,,,,,,,,,,99,145813,22,Female,1,2024/03/18_14:53:49,YZ,None,
,,,,,,calibration,0,13,2,583,2,S,0,right,0.8578682199877221,1,0,,,,,,,,,,,,,,,,,,,,,1,,,,,,,,,,,,,,,,,,,,,,,,,,,,,,,,,,,,,,,,,,,,,,99,145813,22,Female,1,2024/03/18_14:53:49,YZ,None,
,,,,,,calibration,0,13,2,583,3,Q,0,right,0.9051104339887388,1,0,,,,,,,,,,,,,,,,,,,,,1,,,,,,,,,,,,,,,,,,,,,,,,,,,,,,,,,,,,,,,,,,,,,,99,145813,22,Female,1,2024/03/18_14:53:49,YZ,None,
,,,,,,calibration,0,13,2,583,4,F,0,right,0.9963562510092743,1,0,,,,,,,,,,,,,,,,,,,,,1,,,,,,,,,,,,,,,,,,,,,,,,,,,,,,,,,,,,,,,,,,,,,,99,145813,22,Female,1,2024/03/18_14:53:49,YZ,None,
,,,,,,calibration,0,13,2,583,5,Q,1,left,0.814997352019418,1,0,,,,,,,,,,,,,,,,,,,,,1,,,,,,,,,,,,,,,,,,,,,,,,,,,,,,,,,,,,,,,,,,,,,,99,145813,22,Female,1,2024/03/18_14:53:49,YZ,None,
,,,,,,calibration,0,13,2,583,6,X,0,right,0.6741665409936104,1,0,,,,,,,,,,,,,,,,,,,,,1,,,,,,,,,,,,,,,,,,,,,,,,,,,,,,,,,,,,,,,,,,,,,,99,145813,22,Female,1,2024/03/18_14:53:49,YZ,None,
,,,,,,calibration,0,13,2,583,7,Q,1,right,nan,0,1,,,,,,,,,,,,,,,,,,,,,1,,,,,,,,,,,,,,,,,,,,,,,,,,,,,,,,,,,,,,,,,,,,,,99,145813,22,Female,1,2024/03/18_14:53:49,YZ,None,
,,,,,,calibration,0,13,2,583,8,C,0,right,0.0,1,0,,,,,,,,,,,,,,,,,,,,,1,,,,,,,,,,,,,,,,,,,,,,,,,,,,,,,,,,,,,,,,,,,,,,99,145813,22,Female,1,2024/03/18_14:53:49,YZ,None,
,,,,,,calibration,0,13,2,583,9,Q,1,right,0.9468277950072661,0,0,,,,,,,,,,,,,,,,,,,,,1,,,,,,,,,,,,,,,,,,,,,,,,,,,,,,,,,,,,,,,,,,,,,,99,145813,22,Female,1,2024/03/18_14:53:49,YZ,None,
,,,,,,calibration,0,13,2,583,10,X,0,right,0.8537036679917946,1,0,,,,,,,,,,,,,,,,,,,,,1,,,,,,,,,,,,,,,,,,,,,,,,,,,,,,,,,,,,,,,,,,,,,,99,145813,22,Female,1,2024/03/18_14:53:49,YZ,None,
,,,,,,calibration,0,13,2,583,11,C,0,right,1.5483186490018852,1,0,,,,,,,,,,,,,,,,,,,,,1,,,,,,,,,,,,,,,,,,,,,,,,,,,,,,,,,,,,,,,,,,,,,,99,145813,22,Female,1,2024/03/18_14:53:49,YZ,None,
,,,,,,calibration,0,13,2,583,12,X,1,left,0.5914034669985995,1,0,,,,,,,,,,,,,,,,,,,,,1,,,,,,,,,,,,,,,,,,,,,,,,,,,,,,,,,,,,,,,,,,,,,,99,145813,22,Female,1,2024/03/18_14:53:49,YZ,None,
,,,,,,calibration,0,13,2,583,13,N,0,right,0.46658736700192094,1,0,,,,,,,,,,,,,,,,,,,,,1,,,,,,,,,,,,,,,,,,,,,,,,,,,,,,,,,,,,,,,,,,,,,,99,145813,22,Female,1,2024/03/18_14:53:49,YZ,None,
,,,,,,calibration,0,13,2,583,14,X,1,right,0.7593588349991478,0,0,,,,,,,,,,,,,,,,,,,,,1,,,,,,,,,,,,,,,,,,,,,,,,,,,,,,,,,,,,,,,,,,,,,,99,145813,22,Female,1,2024/03/18_14:53:49,YZ,None,
,,,,,,calibration,0,13,2,583,15,V,0,right,1.057914842007449,1,0,,,,,,,,,,,,,,,,,,,,,1,,,,,,,,,,,,,,,,,,,,,,,,,,,,,,,,,,,,,,,,,,,,,,99,145813,22,Female,1,2024/03/18_14:53:49,YZ,None,
,,,,,,calibration,0,13,2,583,,,,,,,,0.85,0.4,0.0,1.0,0.06666666666666667,0.9333333333333333,0.8885841758580811,2,0,1,0,1,10,12,5,10,0,,,,1,,,,,,,,,,,,,,,,,,,,,,,,,,,,,,,,,,,,,,,,,,,,,,99,145813,22,Female,1,2024/03/18_14:53:49,YZ,None,
,,,,,,Calibration,0,,2,583,,,,,,,,,,,,,,,,,,,,,,,,,2,,,1,,,,,,,,,,,,,,,,,,,,,,,,,,,,,,,,,,,,,,,,,,,,,,99,145813,22,Female,1,2024/03/18_14:53:49,YZ,None,
,,,,,,calibration,0,16,2,583,1,S,0,right,1.2475311910093296,1,0,,,,,,,,,,,,,,,,,,,,,1,,,,,,,,,,,,,,,,,,,,,,,,,,,,,,,,,,,,,,,,,,,,,,99,145813,22,Female,1,2024/03/18_14:53:49,YZ,None,
,,,,,,calibration,0,16,2,583,2,N,0,right,0.4453326250077225,1,0,,,,,,,,,,,,,,,,,,,,,1,,,,,,,,,,,,,,,,,,,,,,,,,,,,,,,,,,,,,,,,,,,,,,99,145813,22,Female,1,2024/03/18_14:53:49,YZ,None,
,,,,,,calibration,0,16,2,583,3,C,0,right,0.6527527880098205,1,0,,,,,,,,,,,,,,,,,,,,,1,,,,,,,,,,,,,,,,,,,,,,,,,,,,,,,,,,,,,,,,,,,,,,99,145813,22,Female,1,2024/03/18_14:53:49,YZ,None,
,,,,,,calibration,0,16,2,583,4,N,1,left,0.773677601973759,1,0,,,,,,,,,,,,,,,,,,,,,1,,,,,,,,,,,,,,,,,,,,,,,,,,,,,,,,,,,,,,,,,,,,,,99,145813,22,Female,1,2024/03/18_14:53:49,YZ,None,
,,,,,,calibration,0,16,2,583,5,V,0,right,0.4594886080012657,1,0,,,,,,,,,,,,,,,,,,,,,1,,,,,,,,,,,,,,,,,,,,,,,,,,,,,,,,,,,,,,,,,,,,,,99,145813,22,Female,1,2024/03/18_14:53:49,YZ,None,
,,,,,,calibration,0,16,2,583,6,X,0,right,0.590892445994541,1,0,,,,,,,,,,,,,,,,,,,,,1,,,,,,,,,,,,,,,,,,,,,,,,,,,,,,,,,,,,,,,,,,,,,,99,145813,22,Female,1,2024/03/18_14:53:49,YZ,None,
,,,,,,calibration,0,16,2,583,7,C,0,right,0.851376197009813,1,0,,,,,,,,,,,,,,,,,,,,,1,,,,,,,,,,,,,,,,,,,,,,,,,,,,,,,,,,,,,,,,,,,,,,99,145813,22,Female,1,2024/03/18_14:53:49,YZ,None,
,,,,,,calibration,0,16,2,583,8,S,0,right,0.587715082016075,1,0,,,,,,,,,,,,,,,,,,,,,1,,,,,,,,,,,,,,,,,,,,,,,,,,,,,,,,,,,,,,,,,,,,,,99,145813,22,Female,1,2024/03/18_14:53:49,YZ,None,
,,,,,,calibration,0,16,2,583,9,Q,0,right,0.512427656998625,1,0,,,,,,,,,,,,,,,,,,,,,1,,,,,,,,,,,,,,,,,,,,,,,,,,,,,,,,,,,,,,,,,,,,,,99,145813,22,Female,1,2024/03/18_14:53:49,YZ,None,
,,,,,,calibration,0,16,2,583,10,S,1,left,0.5587766289827414,1,0,,,,,,,,,,,,,,,,,,,,,1,,,,,,,,,,,,,,,,,,,,,,,,,,,,,,,,,,,,,,,,,,,,,,99,145813,22,Female,1,2024/03/18_14:53:49,YZ,None,
,,,,,,calibration,0,16,2,583,11,F,0,right,0.535885170014808,1,0,,,,,,,,,,,,,,,,,,,,,1,,,,,,,,,,,,,,,,,,,,,,,,,,,,,,,,,,,,,,,,,,,,,,99,145813,22,Female,1,2024/03/18_14:53:49,YZ,None,
,,,,,,calibration,0,16,2,583,12,S,1,right,0.41968147800071165,0,0,,,,,,,,,,,,,,,,,,,,,1,,,,,,,,,,,,,,,,,,,,,,,,,,,,,,,,,,,,,,,,,,,,,,99,145813,22,Female,1,2024/03/18_14:53:49,YZ,None,
,,,,,,calibration,0,16,2,583,13,X,0,right,1.0758289310033433,1,0,,,,,,,,,,,,,,,,,,,,,1,,,,,,,,,,,,,,,,,,,,,,,,,,,,,,,,,,,,,,,,,,,,,,99,145813,22,Female,1,2024/03/18_14:53:49,YZ,None,
,,,,,,calibration,0,16,2,583,14,V,0,right,0.6009978299844079,1,0,,,,,,,,,,,,,,,,,,,,,1,,,,,,,,,,,,,,,,,,,,,,,,,,,,,,,,,,,,,,,,,,,,,,99,145813,22,Female,1,2024/03/18_14:53:49,YZ,None,
,,,,,,calibration,0,16,2,583,15,X,1,left,0.8913771540101152,1,0,,,,,,,,,,,,,,,,,,,,,1,,,,,,,,,,,,,,,,,,,,,,,,,,,,,,,,,,,,,,,,,,,,,,99,145813,22,Female,1,2024/03/18_14:53:49,YZ,None,
,,,,,,calibration,0,16,2,583,,,,,,,,0.9375,0.75,0.0,1.0,0.0,1.0,0.6802494258678052,3,0,0,0,0,11,14,4,11,0,,,,1,,,,,,,,,,,,,,,,,,,,,,,,,,,,,,,,,,,,,,,,,,,,,,99,145813,22,Female,1,2024/03/18_14:53:49,YZ,None,
,,,,,,Calibration,0,,2,583,,,,,,,,,,,,,,,,,,,,,,,,,3,,,1,,,,,,,,,,,,,,,,,,,,,,,,,,,,,,,,,,,,,,,,,,,,,,99,145813,22,Female,1,2024/03/18_14:53:49,YZ,None,
,,,,,,calibration,0,30,2,500,1,N,0,None,nan,0,1,,,,,,,,,,,,,,,,,,,,,1,,,,,,,,,,,,,,,,,,,,,,,,,,,,,,,,,,,,,,,,,,,,,,99,145813,22,Female,1,2024/03/18_14:53:49,YZ,None,
,,,,,,calibration,0,30,2,500,2,S,0,right,0.5411619730002712,1,0,,,,,,,,,,,,,,,,,,,,,1,,,,,,,,,,,,,,,,,,,,,,,,,,,,,,,,,,,,,,,,,,,,,,99,145813,22,Female,1,2024/03/18_14:53:49,YZ,None,
,,,,,,calibration,0,30,2,500,3,Q,0,right,nan,0,1,,,,,,,,,,,,,,,,,,,,,1,,,,,,,,,,,,,,,,,,,,,,,,,,,,,,,,,,,,,,,,,,,,,,99,145813,22,Female,1,2024/03/18_14:53:49,YZ,None,
,,,,,,calibration,0,30,2,500,4,S,1,right,0.7989920020045247,0,0,,,,,,,,,,,,,,,,,,,,,1,,,,,,,,,,,,,,,,,,,,,,,,,,,,,,,,,,,,,,,,,,,,,,99,145813,22,Female,1,2024/03/18_14:53:49,YZ,None,
,,,,,,calibration,0,30,2,500,5,X,0,right,0.665114598989021,1,0,,,,,,,,,,,,,,,,,,,,,1,,,,,,,,,,,,,,,,,,,,,,,,,,,,,,,,,,,,,,,,,,,,,,99,145813,22,Female,1,2024/03/18_14:53:49,YZ,None,
,,,,,,calibration,0,30,2,500,6,N,0,right,0.7913744429824874,1,0,,,,,,,,,,,,,,,,,,,,,1,,,,,,,,,,,,,,,,,,,,,,,,,,,,,,,,,,,,,,,,,,,,,,99,145813,22,Female,1,2024/03/18_14:53:49,YZ,None,
,,,,,,calibration,0,30,2,500,7,V,0,right,0.7046195089933462,1,0,,,,,,,,,,,,,,,,,,,,,1,,,,,,,,,,,,,,,,,,,,,,,,,,,,,,,,,,,,,,,,,,,,,,99,145813,22,Female,1,2024/03/18_14:53:49,YZ,None,
,,,,,,calibration,0,30,2,500,8,N,1,right,nan,0,1,,,,,,,,,,,,,,,,,,,,,1,,,,,,,,,,,,,,,,,,,,,,,,,,,,,,,,,,,,,,,,,,,,,,99,145813,22,Female,1,2024/03/18_14:53:49,YZ,None,
,,,,,,calibration,0,30,2,500,9,C,0,right,nan,0,1,,,,,,,,,,,,,,,,,,,,,1,,,,,,,,,,,,,,,,,,,,,,,,,,,,,,,,,,,,,,,,,,,,,,99,145813,22,Female,1,2024/03/18_14:53:49,YZ,None,
,,,,,,calibration,0,30,2,500,10,S,0,right,0.0,1,0,,,,,,,,,,,,,,,,,,,,,1,,,,,,,,,,,,,,,,,,,,,,,,,,,,,,,,,,,,,,,,,,,,,,99,145813,22,Female,1,2024/03/18_14:53:49,YZ,None,
,,,,,,calibration,0,30,2,500,11,F,0,left,0.9374044180149212,0,0,,,,,,,,,,,,,,,,,,,,,1,,,,,,,,,,,,,,,,,,,,,,,,,,,,,,,,,,,,,,,,,,,,,,99,145813,22,Female,1,2024/03/18_14:53:49,YZ,None,
,,,,,,calibration,0,30,2,500,12,Q,0,right,0.80938538297778,1,0,,,,,,,,,,,,,,,,,,,,,1,,,,,,,,,,,,,,,,,,,,,,,,,,,,,,,,,,,,,,,,,,,,,,99,145813,22,Female,1,2024/03/18_14:53:49,YZ,None,
,,,,,,calibration,0,30,2,500,13,F,1,right,nan,0,1,,,,,,,,,,,,,,,,,,,,,1,,,,,,,,,,,,,,,,,,,,,,,,,,,,,,,,,,,,,,,,,,,,,,99,145813,22,Female,1,2024/03/18_14:53:49,YZ,None,
,,,,,,calibration,0,30,2,500,14,Q,1,right,0.9476436899858527,0,0,,,,,,,,,,,,,,,,,,,,,1,,,,,,,,,,,,,,,,,,,,,,,,,,,,,,,,,,,,,,,,,,,,,,99,145813,22,Female,1,2024/03/18_14:53:49,YZ,None,
,,,,,,calibration,0,30,2,500,15,V,0,right,nan,0,1,,,,,,,,,,,,,,,,,,,,,1,,,,,,,,,,,,,,,,,,,,,,,,,,,,,,,,,,,,,,,,,,,,,,99,145813,22,Female,1,2024/03/18_14:53:49,YZ,None,
,,,,,,calibration,0,30,2,500,16,F,0,right,0.0,1,0,,,,,,,,,,,,,,,,,,,,,1,,,,,,,,,,,,,,,,,,,,,,,,,,,,,,,,,,,,,,,,,,,,,,99,145813,22,Female,1,2024/03/18_14:53:49,YZ,None,
,,,,,,calibration,0,30,2,500,,,,,,,,0.22916666666666666,0.0,0.08333333333333333,0.875,0.375,0.5416666666666666,0.6195696016948204,0,1,2,4,6,7,7,4,12,0,,,,1,,,,,,,,,,,,,,,,,,,,,,,,,,,,,,,,,,,,,,,,,,,,,,99,145813,22,Female,1,2024/03/18_14:53:49,YZ,None,
,,,,,,Calibration,0,,2,500,,,,,,,,,,,,,,,,,,,,,,,,,4,,,1,,,,,,,,,,,,,,,,,,,,,,,,,,,,,,,,,,,,,,,,,,,,,,99,145813,22,Female,1,2024/03/18_14:53:49,YZ,None,
,,,,,,calibration,0,29,2,583,1,X,0,right,0.7885205500060692,1,0,,,,,,,,,,,,,,,,,,,,,1,,,,,,,,,,,,,,,,,,,,,,,,,,,,,,,,,,,,,,,,,,,,,,99,145813,22,Female,1,2024/03/18_14:53:49,YZ,None,
,,,,,,calibration,0,29,2,583,2,Q,0,right,0.7963717560051009,1,0,,,,,,,,,,,,,,,,,,,,,1,,,,,,,,,,,,,,,,,,,,,,,,,,,,,,,,,,,,,,,,,,,,,,99,145813,22,Female,1,2024/03/18_14:53:49,YZ,None,
,,,,,,calibration,0,29,2,583,3,F,0,right,1.1028982409916352,1,0,,,,,,,,,,,,,,,,,,,,,1,,,,,,,,,,,,,,,,,,,,,,,,,,,,,,,,,,,,,,,,,,,,,,99,145813,22,Female,1,2024/03/18_14:53:49,YZ,None,
,,,,,,calibration,0,29,2,583,4,Q,1,left,0.9481967070023529,1,0,,,,,,,,,,,,,,,,,,,,,1,,,,,,,,,,,,,,,,,,,,,,,,,,,,,,,,,,,,,,,,,,,,,,99,145813,22,Female,1,2024/03/18_14:53:49,YZ,None,
,,,,,,calibration,0,29,2,583,5,N,0,right,1.0660384619841352,1,0,,,,,,,,,,,,,,,,,,,,,1,,,,,,,,,,,,,,,,,,,,,,,,,,,,,,,,,,,,,,,,,,,,,,99,145813,22,Female,1,2024/03/18_14:53:49,YZ,None,
,,,,,,calibration,0,29,2,583,6,S,0,right,0.7080646810063627,1,0,,,,,,,,,,,,,,,,,,,,,1,,,,,,,,,,,,,,,,,,,,,,,,,,,,,,,,,,,,,,,,,,,,,,99,145813,22,Female,1,2024/03/18_14:53:49,YZ,None,
,,,,,,calibration,0,29,2,583,7,N,1,right,1.3598565720021725,0,0,,,,,,,,,,,,,,,,,,,,,1,,,,,,,,,,,,,,,,,,,,,,,,,,,,,,,,,,,,,,,,,,,,,,99,145813,22,Female,1,2024/03/18_14:53:49,YZ,None,
,,,,,,calibration,0,29,2,583,8,Q,0,right,1.2431217730045319,1,0,,,,,,,,,,,,,,,,,,,,,1,,,,,,,,,,,,,,,,,,,,,,,,,,,,,,,,,,,,,,,,,,,,,,99,145813,22,Female,1,2024/03/18_14:53:49,YZ,None,
,,,,,,calibration,0,29,2,583,9,V,0,right,0.7585699589981232,1,0,,,,,,,,,,,,,,,,,,,,,1,,,,,,,,,,,,,,,,,,,,,,,,,,,,,,,,,,,,,,,,,,,,,,99,145813,22,Female,1,2024/03/18_14:53:49,YZ,None,
,,,,,,calibration,0,29,2,583,10,N,0,left,0.8313129610032775,0,0,,,,,,,,,,,,,,,,,,,,,1,,,,,,,,,,,,,,,,,,,,,,,,,,,,,,,,,,,,,,,,,,,,,,99,145813,22,Female,1,2024/03/18_14:53:49,YZ,None,
,,,,,,calibration,0,29,2,583,11,V,1,right,0.95929503600928,0,0,,,,,,,,,,,,,,,,,,,,,1,,,,,,,,,,,,,,,,,,,,,,,,,,,,,,,,,,,,,,,,,,,,,,99,145813,22,Female,1,2024/03/18_14:53:49,YZ,None,
,,,,,,calibration,0,29,2,583,12,X,0,right,1.4994074440037366,1,0,,,,,,,,,,,,,,,,,,,,,1,,,,,,,,,,,,,,,,,,,,,,,,,,,,,,,,,,,,,,,,,,,,,,99,145813,22,Female,1,2024/03/18_14:53:49,YZ,None,
,,,,,,calibration,0,29,2,583,13,C,0,right,1.51497562698205,1,0,,,,,,,,,,,,,,,,,,,,,1,,,,,,,,,,,,,,,,,,,,,,,,,,,,,,,,,,,,,,,,,,,,,,99,145813,22,Female,1,2024/03/18_14:53:49,YZ,None,
,,,,,,calibration,0,29,2,583,14,X,1,left,0.7331832440104336,1,0,,,,,,,,,,,,,,,,,,,,,1,,,,,,,,,,,,,,,,,,,,,,,,,,,,,,,,,,,,,,,,,,,,,,99,145813,22,Female,1,2024/03/18_14:53:49,YZ,None,
,,,,,,calibration,0,29,2,583,15,V,0,right,0.6082186629937496,1,0,,,,,,,,,,,,,,,,,,,,,1,,,,,,,,,,,,,,,,,,,,,,,,,,,,,,,,,,,,,,,,,,,,,,99,145813,22,Female,1,2024/03/18_14:53:49,YZ,None,
,,,,,,calibration,0,29,2,583,,,,,,,,0.8068181818181819,0.5,0.09090909090909091,0.9090909090909091,0.0,0.9090909090909091,0.9945354450668674,2,1,0,0,0,10,12,4,11,0,,,,1,,,,,,,,,,,,,,,,,,,,,,,,,,,,,,,,,,,,,,,,,,,,,,99,145813,22,Female,1,2024/03/18_14:53:49,YZ,None,
,,,,,,Calibration,0,,2,583,,,,,,,,,,,,,,,,,,,,,,,,,5,,,1,,,,,,,,,,,,,,,,,,,,,,,,,,,,,,,,,,,,,,,,,,,,,,99,145813,22,Female,1,2024/03/18_14:53:49,YZ,None,
,,,,,,calibration,0,19,2,583,1,C,0,right,0.6595288010139484,1,0,,,,,,,,,,,,,,,,,,,,,1,,,,,,,,,,,,,,,,,,,,,,,,,,,,,,,,,,,,,,,,,,,,,,99,145813,22,Female,1,2024/03/18_14:53:49,YZ,None,
,,,,,,calibration,0,19,2,583,2,F,0,right,0.4433561159821693,1,0,,,,,,,,,,,,,,,,,,,,,1,,,,,,,,,,,,,,,,,,,,,,,,,,,,,,,,,,,,,,,,,,,,,,99,145813,22,Female,1,2024/03/18_14:53:49,YZ,None,
,,,,,,calibration,0,19,2,583,3,V,0,right,0.696685115020955,1,0,,,,,,,,,,,,,,,,,,,,,1,,,,,,,,,,,,,,,,,,,,,,,,,,,,,,,,,,,,,,,,,,,,,,99,145813,22,Female,1,2024/03/18_14:53:49,YZ,None,
,,,,,,calibration,0,19,2,583,4,N,0,right,1.0853283510077745,1,0,,,,,,,,,,,,,,,,,,,,,1,,,,,,,,,,,,,,,,,,,,,,,,,,,,,,,,,,,,,,,,,,,,,,99,145813,22,Female,1,2024/03/18_14:53:49,YZ,None,
,,,,,,calibration,0,19,2,583,5,Q,0,right,1.0051443270058371,1,0,,,,,,,,,,,,,,,,,,,,,1,,,,,,,,,,,,,,,,,,,,,,,,,,,,,,,,,,,,,,,,,,,,,,99,145813,22,Female,1,2024/03/18_14:53:49,YZ,None,
,,,,,,calibration,0,19,2,583,6,N,1,left,0.6173435910022818,1,0,,,,,,,,,,,,,,,,,,,,,1,,,,,,,,,,,,,,,,,,,,,,,,,,,,,,,,,,,,,,,,,,,,,,99,145813,22,Female,1,2024/03/18_14:53:49,YZ,None,
,,,,,,calibration,0,19,2,583,7,Q,1,right,0.7743957259808667,0,0,,,,,,,,,,,,,,,,,,,,,1,,,,,,,,,,,,,,,,,,,,,,,,,,,,,,,,,,,,,,,,,,,,,,99,145813,22,Female,1,2024/03/18_14:53:49,YZ,None,
,,,,,,calibration,0,19,2,583,8,S,0,right,1.0114206380094402,1,0,,,,,,,,,,,,,,,,,,,,,1,,,,,,,,,,,,,,,,,,,,,,,,,,,,,,,,,,,,,,,,,,,,,,99,145813,22,Female,1,2024/03/18_14:53:49,YZ,None,
,,,,,,calibration,0,19,2,583,9,X,0,right,0.9996450120233931,1,0,,,,,,,,,,,,,,,,,,,,,1,,,,,,,,,,,,,,,,,,,,,,,,,,,,,,,,,,,,,,,,,,,,,,99,145813,22,Female,1,2024/03/18_14:53:49,YZ,None,
,,,,,,calibration,0,19,2,583,10,V,0,right,0.7751683660026174,1,0,,,,,,,,,,,,,,,,,,,,,1,,,,,,,,,,,,,,,,,,,,,,,,,,,,,,,,,,,,,,,,,,,,,,99,145813,22,Female,1,2024/03/18_14:53:49,YZ,None,
,,,,,,calibration,0,19,2,583,11,F,0,right,0.826111016998766,1,0,,,,,,,,,,,,,,,,,,,,,1,,,,,,,,,,,,,,,,,,,,,,,,,,,,,,,,,,,,,,,,,,,,,,99,145813,22,Female,1,2024/03/18_14:53:49,YZ,None,
,,,,,,calibration,0,19,2,583,12,V,1,left,0.6471964489901438,1,0,,,,,,,,,,,,,,,,,,,,,1,,,,,,,,,,,,,,,,,,,,,,,,,,,,,,,,,,,,,,,,,,,,,,99,145813,22,Female,1,2024/03/18_14:53:49,YZ,None,
,,,,,,calibration,0,19,2,583,13,C,0,right,0.6588972030149307,1,0,,,,,,,,,,,,,,,,,,,,,1,,,,,,,,,,,,,,,,,,,,,,,,,,,,,,,,,,,,,,,,,,,,,,99,145813,22,Female,1,2024/03/18_14:53:49,YZ,None,
,,,,,,calibration,0,19,2,583,14,V,1,left,0.6703617029997986,1,0,,,,,,,,,,,,,,,,,,,,,1,,,,,,,,,,,,,,,,,,,,,,,,,,,,,,,,,,,,,,,,,,,,,,99,145813,22,Female,1,2024/03/18_14:53:49,YZ,None,
,,,,,,calibration,0,19,2,583,15,N,0,right,0.4837854409997817,1,0,,,,,,,,,,,,,,,,,,,,,1,,,,,,,,,,,,,,,,,,,,,,,,,,,,,,,,,,,,,,,,,,,,,,99,145813,22,Female,1,2024/03/18_14:53:49,YZ,None,
,,,,,,calibration,0,19,2,583,,,,,,,,0.9375,0.75,0.0,1.0,0.0,1.0,0.7569578570701803,3,0,0,0,0,11,14,4,11,0,,,,1,,,,,,,,,,,,,,,,,,,,,,,,,,,,,,,,,,,,,,,,,,,,,,99,145813,22,Female,1,2024/03/18_14:53:49,YZ,None,
,,,,,,Calibration,0,,2,583,,,,,,,,,,,,,,,,,,,,,,,,,6,,,1,,,,,,,,,,,,,,,,,,,,,,,,,,,,,,,,,,,,,,,,,,,,,,99,145813,22,Female,1,2024/03/18_14:53:49,YZ,None,
,,,,,,calibration,0,11,2,500,1,J,0,right,0.7473296530079097,1,0,,,,,,,,,,,,,,,,,,,,,1,,,,,,,,,,,,,,,,,,,,,,,,,,,,,,,,,,,,,,,,,,,,,,99,145813,22,Female,1,2024/03/18_14:53:49,YZ,None,
,,,,,,calibration,0,11,2,500,2,S,0,right,0.3542955279990565,1,0,,,,,,,,,,,,,,,,,,,,,1,,,,,,,,,,,,,,,,,,,,,,,,,,,,,,,,,,,,,,,,,,,,,,99,145813,22,Female,1,2024/03/18_14:53:49,YZ,None,
,,,,,,calibration,0,11,2,500,3,J,1,left,0.5811665380024351,1,0,,,,,,,,,,,,,,,,,,,,,1,,,,,,,,,,,,,,,,,,,,,,,,,,,,,,,,,,,,,,,,,,,,,,99,145813,22,Female,1,2024/03/18_14:53:49,YZ,None,
,,,,,,calibration,0,11,2,500,4,C,0,right,0.5244491100020241,1,0,,,,,,,,,,,,,,,,,,,,,1,,,,,,,,,,,,,,,,,,,,,,,,,,,,,,,,,,,,,,,,,,,,,,99,145813,22,Female,1,2024/03/18_14:53:49,YZ,None,
,,,,,,calibration,0,11,2,500,5,S,0,left,0.9628317760070786,0,0,,,,,,,,,,,,,,,,,,,,,1,,,,,,,,,,,,,,,,,,,,,,,,,,,,,,,,,,,,,,,,,,,,,,99,145813,22,Female,1,2024/03/18_14:53:49,YZ,None,
,,,,,,calibration,0,11,2,500,6,C,1,left,0.9746466409997083,1,0,,,,,,,,,,,,,,,,,,,,,1,,,,,,,,,,,,,,,,,,,,,,,,,,,,,,,,,,,,,,,,,,,,,,99,145813,22,Female,1,2024/03/18_14:53:49,YZ,None,
,,,,,,calibration,0,11,2,500,7,J,0,right,0.9717242300102953,1,0,,,,,,,,,,,,,,,,,,,,,1,,,,,,,,,,,,,,,,,,,,,,,,,,,,,,,,,,,,,,,,,,,,,,99,145813,22,Female,1,2024/03/18_14:53:49,YZ,None,
,,,,,,calibration,0,11,2,500,8,N,0,right,0.6398034730227664,1,0,,,,,,,,,,,,,,,,,,,,,1,,,,,,,,,,,,,,,,,,,,,,,,,,,,,,,,,,,,,,,,,,,,,,99,145813,22,Female,1,2024/03/18_14:53:49,YZ,None,
,,,,,,calibration,0,11,2,500,9,V,0,right,0.7188766350154765,1,0,,,,,,,,,,,,,,,,,,,,,1,,,,,,,,,,,,,,,,,,,,,,,,,,,,,,,,,,,,,,,,,,,,,,99,145813,22,Female,1,2024/03/18_14:53:49,YZ,None,
,,,,,,calibration,0,11,2,500,10,N,1,left,0.5415394169976935,1,0,,,,,,,,,,,,,,,,,,,,,1,,,,,,,,,,,,,,,,,,,,,,,,,,,,,,,,,,,,,,,,,,,,,,99,145813,22,Female,1,2024/03/18_14:53:49,YZ,None,
,,,,,,calibration,0,11,2,500,11,C,0,right,0.5974931199743878,1,0,,,,,,,,,,,,,,,,,,,,,1,,,,,,,,,,,,,,,,,,,,,,,,,,,,,,,,,,,,,,,,,,,,,,99,145813,22,Female,1,2024/03/18_14:53:49,YZ,None,
,,,,,,calibration,0,11,2,500,12,S,0,right,nan,0,1,,,,,,,,,,,,,,,,,,,,,1,,,,,,,,,,,,,,,,,,,,,,,,,,,,,,,,,,,,,,,,,,,,,,99,145813,22,Female,1,2024/03/18_14:53:49,YZ,None,
,,,,,,calibration,0,11,2,500,13,C,1,left,0.7748460040020291,1,0,,,,,,,,,,,,,,,,,,,,,1,,,,,,,,,,,,,,,,,,,,,,,,,,,,,,,,,,,,,,,,,,,,,,99,145813,22,Female,1,2024/03/18_14:53:49,YZ,None,
,,,,,,calibration,0,11,2,500,14,J,0,right,0.5252172049949877,1,0,,,,,,,,,,,,,,,,,,,,,1,,,,,,,,,,,,,,,,,,,,,,,,,,,,,,,,,,,,,,,,,,,,,,99,145813,22,Female,1,2024/03/18_14:53:49,YZ,None,
,,,,,,calibration,0,11,2,500,15,X,0,right,0.5123735049855895,1,0,,,,,,,,,,,,,,,,,,,,,1,,,,,,,,,,,,,,,,,,,,,,,,,,,,,,,,,,,,,,,,,,,,,,99,145813,22,Female,1,2024/03/18_14:53:49,YZ,None,
,,,,,,calibration,0,11,2,500,16,Q,0,right,0.530991453997558,1,0,,,,,,,,,,,,,,,,,,,,,1,,,,,,,,,,,,,,,,,,,,,,,,,,,,,,,,,,,,,,,,,,,,,,99,145813,22,Female,1,2024/03/18_14:53:49,YZ,None,
,,,,,,calibration,0,11,2,500,,,,,,,,0.9791666666666666,1.0,0.08333333333333333,0.9090909090909091,0.0625,0.8541666666666666,0.6638389526012664,4,1,0,1,1,10,14,4,12,0,,,,1,,,,,,,,,,,,,,,,,,,,,,,,,,,,,,,,,,,,,,,,,,,,,,99,145813,22,Female,1,2024/03/18_14:53:49,YZ,None,
,,,,,,Calibration,0,,2,500,,,,,,,,,,,,,,,,,,,,,,,,,7,,,1,,,,,,,,,,,,,,,,,,,,,,,,,,,,,,,,,,,,,,,,,,,,,,99,145813,22,Female,1,2024/03/18_14:53:49,YZ,None,
,,,,,,calibration,0,25,2,426,1,V,0,right,0.9568769439938478,1,0,,,,,,,,,,,,,,,,,,,,,1,,,,,,,,,,,,,,,,,,,,,,,,,,,,,,,,,,,,,,,,,,,,,,99,145813,22,Female,1,2024/03/18_14:53:49,YZ,None,
,,,,,,calibration,0,25,2,426,2,N,0,right,0.3777659699844662,1,0,,,,,,,,,,,,,,,,,,,,,1,,,,,,,,,,,,,,,,,,,,,,,,,,,,,,,,,,,,,,,,,,,,,,99,145813,22,Female,1,2024/03/18_14:53:49,YZ,None,
,,,,,,calibration,0,25,2,426,3,F,0,right,0.5458309210080188,1,0,,,,,,,,,,,,,,,,,,,,,1,,,,,,,,,,,,,,,,,,,,,,,,,,,,,,,,,,,,,,,,,,,,,,99,145813,22,Female,1,2024/03/18_14:53:49,YZ,None,
,,,,,,calibration,0,25,2,426,4,Q,0,right,0.5420126910030376,1,0,,,,,,,,,,,,,,,,,,,,,1,,,,,,,,,,,,,,,,,,,,,,,,,,,,,,,,,,,,,,,,,,,,,,99,145813,22,Female,1,2024/03/18_14:53:49,YZ,None,
,,,,,,calibration,0,25,2,426,5,N,0,left,0.7218301460088696,0,0,,,,,,,,,,,,,,,,,,,,,1,,,,,,,,,,,,,,,,,,,,,,,,,,,,,,,,,,,,,,,,,,,,,,99,145813,22,Female,1,2024/03/18_14:53:49,YZ,None,
,,,,,,calibration,0,25,2,426,6,Q,1,right,0.4745688650000375,0,0,,,,,,,,,,,,,,,,,,,,,1,,,,,,,,,,,,,,,,,,,,,,,,,,,,,,,,,,,,,,,,,,,,,,99,145813,22,Female,1,2024/03/18_14:53:49,YZ,None,
,,,,,,calibration,0,25,2,426,7,V,0,right,0.43798427999718115,1,0,,,,,,,,,,,,,,,,,,,,,1,,,,,,,,,,,,,,,,,,,,,,,,,,,,,,,,,,,,,,,,,,,,,,99,145813,22,Female,1,2024/03/18_14:53:49,YZ,None,
,,,,,,calibration,0,25,2,426,8,N,0,right,nan,0,1,,,,,,,,,,,,,,,,,,,,,1,,,,,,,,,,,,,,,,,,,,,,,,,,,,,,,,,,,,,,,,,,,,,,99,145813,22,Female,1,2024/03/18_14:53:49,YZ,None,
,,,,,,calibration,0,25,2,426,9,Q,0,right,0.0,1,0,,,,,,,,,,,,,,,,,,,,,1,,,,,,,,,,,,,,,,,,,,,,,,,,,,,,,,,,,,,,,,,,,,,,99,145813,22,Female,1,2024/03/18_14:53:49,YZ,None,
,,,,,,calibration,0,25,2,426,10,C,0,right,0.868232386012096,1,0,,,,,,,,,,,,,,,,,,,,,1,,,,,,,,,,,,,,,,,,,,,,,,,,,,,,,,,,,,,,,,,,,,,,99,145813,22,Female,1,2024/03/18_14:53:49,YZ,None,
,,,,,,calibration,0,25,2,426,11,Q,1,right,0.7740066430123989,0,0,,,,,,,,,,,,,,,,,,,,,1,,,,,,,,,,,,,,,,,,,,,,,,,,,,,,,,,,,,,,,,,,,,,,99,145813,22,Female,1,2024/03/18_14:53:49,YZ,None,
,,,,,,calibration,0,25,2,426,12,N,0,right,nan,0,1,,,,,,,,,,,,,,,,,,,,,1,,,,,,,,,,,,,,,,,,,,,,,,,,,,,,,,,,,,,,,,,,,,,,99,145813,22,Female,1,2024/03/18_14:53:49,YZ,None,
,,,,,,calibration,0,25,2,426,13,X,0,right,0.02369822599575855,1,0,,,,,,,,,,,,,,,,,,,,,1,,,,,,,,,,,,,,,,,,,,,,,,,,,,,,,,,,,,,,,,,,,,,,99,145813,22,Female,1,2024/03/18_14:53:49,YZ,None,
,,,,,,calibration,0,25,2,426,14,N,1,right,0.4768763160100207,0,0,,,,,,,,,,,,,,,,,,,,,1,,,,,,,,,,,,,,,,,,,,,,,,,,,,,,,,,,,,,,,,,,,,,,99,145813,22,Female,1,2024/03/18_14:53:49,YZ,None,
,,,,,,calibration,0,25,2,426,15,X,1,left,0.8889979090017732,1,0,,,,,,,,,,,,,,,,,,,,,1,,,,,,,,,,,,,,,,,,,,,,,,,,,,,,,,,,,,,,,,,,,,,,99,145813,22,Female,1,2024/03/18_14:53:49,YZ,None,
,,,,,,calibration,0,25,2,426,16,Q,0,right,0.6136257800098974,1,0,,,,,,,,,,,,,,,,,,,,,1,,,,,,,,,,,,,,,,,,,,,,,,,,,,,,,,,,,,,,,,,,,,,,99,145813,22,Female,1,2024/03/18_14:53:49,YZ,None,
,,,,,,calibration,0,25,2,426,17,X,1,left,0.66502340399893,1,0,,,,,,,,,,,,,,,,,,,,,1,,,,,,,,,,,,,,,,,,,,,,,,,,,,,,,,,,,,,,,,,,,,,,99,145813,22,Female,1,2024/03/18_14:53:49,YZ,None,
,,,,,,calibration,0,25,2,426,,,,,,,,0.7770833333333333,0.4,0.08333333333333333,0.9,0.11764705882352941,0.7990196078431372,0.5578220320690889,2,1,0,2,2,9,11,5,12,0,,,,1,,,,,,,,,,,,,,,,,,,,,,,,,,,,,,,,,,,,,,,,,,,,,,99,145813,22,Female,1,2024/03/18_14:53:49,YZ,None,
,,,,,,Calibration,0,,2,426,,,,,,,,,,,,,,,,,,,,,,,,,8,,,1,,,,,,,,,,,,,,,,,,,,,,,,,,,,,,,,,,,,,,,,,,,,,,99,145813,22,Female,1,2024/03/18_14:53:49,YZ,None,
,,,,,,calibration,0,18,2,426,1,S,0,right,0.8200999500113539,1,0,,,,,,,,,,,,,,,,,,,,,1,,,,,,,,,,,,,,,,,,,,,,,,,,,,,,,,,,,,,,,,,,,,,,99,145813,22,Female,1,2024/03/18_14:53:49,YZ,None,
,,,,,,calibration,0,18,2,426,2,N,0,right,0.560737253021216,1,0,,,,,,,,,,,,,,,,,,,,,1,,,,,,,,,,,,,,,,,,,,,,,,,,,,,,,,,,,,,,,,,,,,,,99,145813,22,Female,1,2024/03/18_14:53:49,YZ,None,
,,,,,,calibration,0,18,2,426,3,F,0,right,0.5699774279783014,1,0,,,,,,,,,,,,,,,,,,,,,1,,,,,,,,,,,,,,,,,,,,,,,,,,,,,,,,,,,,,,,,,,,,,,99,145813,22,Female,1,2024/03/18_14:53:49,YZ,None,
,,,,,,calibration,0,18,2,426,4,N,1,left,0.8385665779933333,1,0,,,,,,,,,,,,,,,,,,,,,1,,,,,,,,,,,,,,,,,,,,,,,,,,,,,,,,,,,,,,,,,,,,,,99,145813,22,Female,1,2024/03/18_14:53:49,YZ,None,
,,,,,,calibration,0,18,2,426,5,J,0,right,0.500229679979384,1,0,,,,,,,,,,,,,,,,,,,,,1,,,,,,,,,,,,,,,,,,,,,,,,,,,,,,,,,,,,,,,,,,,,,,99,145813,22,Female,1,2024/03/18_14:53:49,YZ,None,
,,,,,,calibration,0,18,2,426,6,N,1,left,0.5688210070075002,1,0,,,,,,,,,,,,,,,,,,,,,1,,,,,,,,,,,,,,,,,,,,,,,,,,,,,,,,,,,,,,,,,,,,,,99,145813,22,Female,1,2024/03/18_14:53:49,YZ,None,
,,,,,,calibration,0,18,2,426,7,C,0,right,0.36739816100453027,1,0,,,,,,,,,,,,,,,,,,,,,1,,,,,,,,,,,,,,,,,,,,,,,,,,,,,,,,,,,,,,,,,,,,,,99,145813,22,Female,1,2024/03/18_14:53:49,YZ,None,
,,,,,,calibration,0,18,2,426,8,J,0,left,0.6526040750031825,0,0,,,,,,,,,,,,,,,,,,,,,1,,,,,,,,,,,,,,,,,,,,,,,,,,,,,,,,,,,,,,,,,,,,,,99,145813,22,Female,1,2024/03/18_14:53:49,YZ,None,
,,,,,,calibration,0,18,2,426,9,C,1,right,0.3467656499997247,0,0,,,,,,,,,,,,,,,,,,,,,1,,,,,,,,,,,,,,,,,,,,,,,,,,,,,,,,,,,,,,,,,,,,,,99,145813,22,Female,1,2024/03/18_14:53:49,YZ,None,
,,,,,,calibration,0,18,2,426,10,S,0,right,0.7448800610145554,1,0,,,,,,,,,,,,,,,,,,,,,1,,,,,,,,,,,,,,,,,,,,,,,,,,,,,,,,,,,,,,,,,,,,,,99,145813,22,Female,1,2024/03/18_14:53:49,YZ,None,
,,,,,,calibration,0,18,2,426,11,N,0,right,0.691129325015936,1,0,,,,,,,,,,,,,,,,,,,,,1,,,,,,,,,,,,,,,,,,,,,,,,,,,,,,,,,,,,,,,,,,,,,,99,145813,22,Female,1,2024/03/18_14:53:49,YZ,None,
,,,,,,calibration,0,18,2,426,12,X,0,right,0.4679082350048702,1,0,,,,,,,,,,,,,,,,,,,,,1,,,,,,,,,,,,,,,,,,,,,,,,,,,,,,,,,,,,,,,,,,,,,,99,145813,22,Female,1,2024/03/18_14:53:49,YZ,None,
,,,,,,calibration,0,18,2,426,13,Q,0,right,0.5242612430010922,1,0,,,,,,,,,,,,,,,,,,,,,1,,,,,,,,,,,,,,,,,,,,,,,,,,,,,,,,,,,,,,,,,,,,,,99,145813,22,Female,1,2024/03/18_14:53:49,YZ,None,
,,,,,,calibration,0,18,2,426,14,X,1,right,0.7803329660091549,0,0,,,,,,,,,,,,,,,,,,,,,1,,,,,,,,,,,,,,,,,,,,,,,,,,,,,,,,,,,,,,,,,,,,,,99,145813,22,Female,1,2024/03/18_14:53:49,YZ,None,
,,,,,,calibration,0,18,2,426,15,J,0,right,0.5580368700029794,1,0,,,,,,,,,,,,,,,,,,,,,1,,,,,,,,,,,,,,,,,,,,,,,,,,,,,,,,,,,,,,,,,,,,,,99,145813,22,Female,1,2024/03/18_14:53:49,YZ,None,
,,,,,,calibration,0,18,2,426,16,X,1,left,0.5442254400113598,1,0,,,,,,,,,,,,,,,,,,,,,1,,,,,,,,,,,,,,,,,,,,,,,,,,,,,,,,,,,,,,,,,,,,,,99,145813,22,Female,1,2024/03/18_14:53:49,YZ,None,
,,,,,,calibration,0,18,2,426,17,S,0,right,0.8409417650254909,1,0,,,,,,,,,,,,,,,,,,,,,1,,,,,,,,,,,,,,,,,,,,,,,,,,,,,,,,,,,,,,,,,,,,,,99,145813,22,Female,1,2024/03/18_14:53:49,YZ,None,
,,,,,,calibration,0,18,2,426,,,,,,,,0.8458333333333333,0.6,0.08333333333333333,0.9166666666666666,0.0,0.9166666666666666,0.6104068051225862,3,1,0,0,0,11,14,5,12,0,,,,1,,,,,,,,,,,,,,,,,,,,,,,,,,,,,,,,,,,,,,,,,,,,,,99,145813,22,Female,1,2024/03/18_14:53:49,YZ,None,
,,,,,,Calibration,0,,2,426,,,,,,,,,,,,,,,,,,,,,,,,,9,,,1,,,,,,,,,,,,,,,,,,,,,,,,,,,,,,,,,,,,,,,,,,,,,,99,145813,22,Female,1,2024/03/18_14:53:49,YZ,None,
,,,,,,calibration,0,1,2,426,1,S,0,right,0.8267129629966803,1,0,,,,,,,,,,,,,,,,,,,,,1,,,,,,,,,,,,,,,,,,,,,,,,,,,,,,,,,,,,,,,,,,,,,,99,145813,22,Female,1,2024/03/18_14:53:49,YZ,None,
,,,,,,calibration,0,1,2,426,2,C,0,right,0.48481983700185083,1,0,,,,,,,,,,,,,,,,,,,,,1,,,,,,,,,,,,,,,,,,,,,,,,,,,,,,,,,,,,,,,,,,,,,,99,145813,22,Female,1,2024/03/18_14:53:49,YZ,None,
,,,,,,calibration,0,1,2,426,3,S,1,left,0.6993371510179713,1,0,,,,,,,,,,,,,,,,,,,,,1,,,,,,,,,,,,,,,,,,,,,,,,,,,,,,,,,,,,,,,,,,,,,,99,145813,22,Female,1,2024/03/18_14:53:49,YZ,None,
,,,,,,calibration,0,1,2,426,4,X,0,right,0.4864918109960854,1,0,,,,,,,,,,,,,,,,,,,,,1,,,,,,,,,,,,,,,,,,,,,,,,,,,,,,,,,,,,,,,,,,,,,,99,145813,22,Female,1,2024/03/18_14:53:49,YZ,None,
,,,,,,calibration,0,1,2,426,5,V,0,right,0.49662416902719997,1,0,,,,,,,,,,,,,,,,,,,,,1,,,,,,,,,,,,,,,,,,,,,,,,,,,,,,,,,,,,,,,,,,,,,,99,145813,22,Female,1,2024/03/18_14:53:49,YZ,None,
,,,,,,calibration,0,1,2,426,6,Q,0,right,0.6093014380021486,1,0,,,,,,,,,,,,,,,,,,,,,1,,,,,,,,,,,,,,,,,,,,,,,,,,,,,,,,,,,,,,,,,,,,,,99,145813,22,Female,1,2024/03/18_14:53:49,YZ,None,
,,,,,,calibration,0,1,2,426,7,J,0,right,0.5256867069983855,1,0,,,,,,,,,,,,,,,,,,,,,1,,,,,,,,,,,,,,,,,,,,,,,,,,,,,,,,,,,,,,,,,,,,,,99,145813,22,Female,1,2024/03/18_14:53:49,YZ,None,
,,,,,,calibration,0,1,2,426,8,Q,1,left,0.5821955039864406,1,0,,,,,,,,,,,,,,,,,,,,,1,,,,,,,,,,,,,,,,,,,,,,,,,,,,,,,,,,,,,,,,,,,,,,99,145813,22,Female,1,2024/03/18_14:53:49,YZ,None,
,,,,,,calibration,0,1,2,426,9,F,0,right,0.43763935499009676,1,0,,,,,,,,,,,,,,,,,,,,,1,,,,,,,,,,,,,,,,,,,,,,,,,,,,,,,,,,,,,,,,,,,,,,99,145813,22,Female,1,2024/03/18_14:53:49,YZ,None,
,,,,,,calibration,0,1,2,426,10,S,0,right,0.44710293199750595,1,0,,,,,,,,,,,,,,,,,,,,,1,,,,,,,,,,,,,,,,,,,,,,,,,,,,,,,,,,,,,,,,,,,,,,99,145813,22,Female,1,2024/03/18_14:53:49,YZ,None,
,,,,,,calibration,0,1,2,426,11,F,1,right,0.5269769089936744,0,0,,,,,,,,,,,,,,,,,,,,,1,,,,,,,,,,,,,,,,,,,,,,,,,,,,,,,,,,,,,,,,,,,,,,99,145813,22,Female,1,2024/03/18_14:53:49,YZ,None,
,,,,,,calibration,0,1,2,426,12,S,1,right,0.5403528640163131,0,0,,,,,,,,,,,,,,,,,,,,,1,,,,,,,,,,,,,,,,,,,,,,,,,,,,,,,,,,,,,,,,,,,,,,99,145813,22,Female,1,2024/03/18_14:53:49,YZ,None,
,,,,,,calibration,0,1,2,426,13,X,0,right,nan,0,1,,,,,,,,,,,,,,,,,,,,,1,,,,,,,,,,,,,,,,,,,,,,,,,,,,,,,,,,,,,,,,,,,,,,99,145813,22,Female,1,2024/03/18_14:53:49,YZ,None,
,,,,,,calibration,0,1,2,426,14,Q,0,right,0.7746491419966333,1,0,,,,,,,,,,,,,,,,,,,,,1,,,,,,,,,,,,,,,,,,,,,,,,,,,,,,,,,,,,,,,,,,,,,,99,145813,22,Female,1,2024/03/18_14:53:49,YZ,None,
,,,,,,calibration,0,1,2,426,15,N,0,right,0.518478135985788,1,0,,,,,,,,,,,,,,,,,,,,,1,,,,,,,,,,,,,,,,,,,,,,,,,,,,,,,,,,,,,,,,,,,,,,99,145813,22,Female,1,2024/03/18_14:53:49,YZ,None,
,,,,,,calibration,0,1,2,426,16,S,0,right,nan,0,1,,,,,,,,,,,,,,,,,,,,,1,,,,,,,,,,,,,,,,,,,,,,,,,,,,,,,,,,,,,,,,,,,,,,99,145813,22,Female,1,2024/03/18_14:53:49,YZ,None,
,,,,,,calibration,0,1,2,426,17,N,1,right,0.0,0,0,,,,,,,,,,,,,,,,,,,,,1,,,,,,,,,,,,,,,,,,,,,,,,,,,,,,,,,,,,,,,,,,,,,,99,145813,22,Female,1,2024/03/18_14:53:49,YZ,None,
,,,,,,calibration,0,1,2,426,,,,,,,,0.85,0.4,0.0,1.0,0.11764705882352941,0.8823529411764706,0.530424594533785,2,0,0,2,2,10,12,5,12,0,,,,1,,,,,,,,,,,,,,,,,,,,,,,,,,,,,,,,,,,,,,,,,,,,,,99,145813,22,Female,1,2024/03/18_14:53:49,YZ,None,
,,,,,,Calibration,0,,2,426,,,,,,,,,,,,,,,,,,,,,,,,,10,,,1,,,,,,,,,,,,,,,,,,,,,,,,,,,,,,,,,,,,,,,,,,,,,,99,145813,22,Female,1,2024/03/18_14:53:49,YZ,None,
,,,,,,calibration,0,10,2,426,1,N,0,None,nan,0,1,,,,,,,,,,,,,,,,,,,,,1,,,,,,,,,,,,,,,,,,,,,,,,,,,,,,,,,,,,,,,,,,,,,,99,145813,22,Female,1,2024/03/18_14:53:49,YZ,None,
,,,,,,calibration,0,10,2,426,2,J,0,right,0.5427013339940459,1,0,,,,,,,,,,,,,,,,,,,,,1,,,,,,,,,,,,,,,,,,,,,,,,,,,,,,,,,,,,,,,,,,,,,,99,145813,22,Female,1,2024/03/18_14:53:49,YZ,None,
,,,,,,calibration,0,10,2,426,3,X,0,right,0.5951955709897447,1,0,,,,,,,,,,,,,,,,,,,,,1,,,,,,,,,,,,,,,,,,,,,,,,,,,,,,,,,,,,,,,,,,,,,,99,145813,22,Female,1,2024/03/18_14:53:49,YZ,None,
,,,,,,calibration,0,10,2,426,4,N,0,right,0.5479951179877389,1,0,,,,,,,,,,,,,,,,,,,,,1,,,,,,,,,,,,,,,,,,,,,,,,,,,,,,,,,,,,,,,,,,,,,,99,145813,22,Female,1,2024/03/18_14:53:49,YZ,None,
,,,,,,calibration,0,10,2,426,5,X,1,right,nan,0,1,,,,,,,,,,,,,,,,,,,,,1,,,,,,,,,,,,,,,,,,,,,,,,,,,,,,,,,,,,,,,,,,,,,,99,145813,22,Female,1,2024/03/18_14:53:49,YZ,None,
,,,,,,calibration,0,10,2,426,6,S,0,right,0.6823421729786787,1,0,,,,,,,,,,,,,,,,,,,,,1,,,,,,,,,,,,,,,,,,,,,,,,,,,,,,,,,,,,,,,,,,,,,,99,145813,22,Female,1,2024/03/18_14:53:49,YZ,None,
,,,,,,calibration,0,10,2,426,7,X,1,left,0.47417668098933063,1,0,,,,,,,,,,,,,,,,,,,,,1,,,,,,,,,,,,,,,,,,,,,,,,,,,,,,,,,,,,,,,,,,,,,,99,145813,22,Female,1,2024/03/18_14:53:49,YZ,None,
,,,,,,calibration,0,10,2,426,8,S,1,right,0.48946578800678253,0,0,,,,,,,,,,,,,,,,,,,,,1,,,,,,,,,,,,,,,,,,,,,,,,,,,,,,,,,,,,,,,,,,,,,,99,145813,22,Female,1,2024/03/18_14:53:49,YZ,None,
,,,,,,calibration,0,10,2,426,9,F,0,right,0.8094013160152826,1,0,,,,,,,,,,,,,,,,,,,,,1,,,,,,,,,,,,,,,,,,,,,,,,,,,,,,,,,,,,,,,,,,,,,,99,145813,22,Female,1,2024/03/18_14:53:49,YZ,None,
,,,,,,calibration,0,10,2,426,10,V,0,right,0.5243885409727227,1,0,,,,,,,,,,,,,,,,,,,,,1,,,,,,,,,,,,,,,,,,,,,,,,,,,,,,,,,,,,,,,,,,,,,,99,145813,22,Female,1,2024/03/18_14:53:49,YZ,None,
,,,,,,calibration,0,10,2,426,11,N,0,right,0.990144754992798,1,0,,,,,,,,,,,,,,,,,,,,,1,,,,,,,,,,,,,,,,,,,,,,,,,,,,,,,,,,,,,,,,,,,,,,99,145813,22,Female,1,2024/03/18_14:53:49,YZ,None,
,,,,,,calibration,0,10,2,426,12,V,1,left,0.7182158129871823,1,0,,,,,,,,,,,,,,,,,,,,,1,,,,,,,,,,,,,,,,,,,,,,,,,,,,,,,,,,,,,,,,,,,,,,99,145813,22,Female,1,2024/03/18_14:53:49,YZ,None,
,,,,,,calibration,0,10,2,426,13,N,1,left,0.7089293600001838,1,0,,,,,,,,,,,,,,,,,,,,,1,,,,,,,,,,,,,,,,,,,,,,,,,,,,,,,,,,,,,,,,,,,,,,99,145813,22,Female,1,2024/03/18_14:53:49,YZ,None,
,,,,,,calibration,0,10,2,426,14,X,0,right,0.6494430300081149,1,0,,,,,,,,,,,,,,,,,,,,,1,,,,,,,,,,,,,,,,,,,,,,,,,,,,,,,,,,,,,,,,,,,,,,99,145813,22,Female,1,2024/03/18_14:53:49,YZ,None,
,,,,,,calibration,0,10,2,426,15,C,0,right,0.6249229120148811,1,0,,,,,,,,,,,,,,,,,,,,,1,,,,,,,,,,,,,,,,,,,,,,,,,,,,,,,,,,,,,,,,,,,,,,99,145813,22,Female,1,2024/03/18_14:53:49,YZ,None,
,,,,,,calibration,0,10,2,426,16,N,0,left,0.6593929580121767,0,0,,,,,,,,,,,,,,,,,,,,,1,,,,,,,,,,,,,,,,,,,,,,,,,,,,,,,,,,,,,,,,,,,,,,99,145813,22,Female,1,2024/03/18_14:53:49,YZ,None,
,,,,,,calibration,0,10,2,426,17,X,0,right,0.7977332459995523,1,0,,,,,,,,,,,,,,,,,,,,,1,,,,,,,,,,,,,,,,,,,,,,,,,,,,,,,,,,,,,,,,,,,,,,99,145813,22,Female,1,2024/03/18_14:53:49,YZ,None,
,,,,,,calibration,0,10,2,426,,,,,,,,0.8458333333333333,0.6,0.08333333333333333,0.9090909090909091,0.11764705882352941,0.7990196078431372,0.654296573063281,3,1,1,1,2,10,13,5,12,0,,,,1,,,,,,,,,,,,,,,,,,,,,,,,,,,,,,,,,,,,,,,,,,,,,,99,145813,22,Female,1,2024/03/18_14:53:49,YZ,None,
,,,,,,Calibration,0,,2,426,,,,,,,,,,,,,,,,,,,,,,,,,11,,,1,,,,,,,,,,,,,,,,,,,,,,,,,,,,,,,,,,,,,,,,,,,,,,99,145813,22,Female,1,2024/03/18_14:53:49,YZ,None,
,,,,,,calibration,0,1,2,426,1,S,0,right,0.7641685379785486,1,0,,,,,,,,,,,,,,,,,,,,,1,,,,,,,,,,,,,,,,,,,,,,,,,,,,,,,,,,,,,,,,,,,,,,99,145813,22,Female,1,2024/03/18_14:53:49,YZ,None,
,,,,,,calibration,0,1,2,426,2,C,0,right,0.3883875320025254,1,0,,,,,,,,,,,,,,,,,,,,,1,,,,,,,,,,,,,,,,,,,,,,,,,,,,,,,,,,,,,,,,,,,,,,99,145813,22,Female,1,2024/03/18_14:53:49,YZ,None,
,,,,,,calibration,0,1,2,426,3,S,1,left,0.724869547993876,1,0,,,,,,,,,,,,,,,,,,,,,1,,,,,,,,,,,,,,,,,,,,,,,,,,,,,,,,,,,,,,,,,,,,,,99,145813,22,Female,1,2024/03/18_14:53:49,YZ,None,
,,,,,,calibration,0,1,2,426,4,X,0,right,0.8076173499866854,1,0,,,,,,,,,,,,,,,,,,,,,1,,,,,,,,,,,,,,,,,,,,,,,,,,,,,,,,,,,,,,,,,,,,,,99,145813,22,Female,1,2024/03/18_14:53:49,YZ,None,
,,,,,,calibration,0,1,2,426,5,V,0,right,0.5708091970009264,1,0,,,,,,,,,,,,,,,,,,,,,1,,,,,,,,,,,,,,,,,,,,,,,,,,,,,,,,,,,,,,,,,,,,,,99,145813,22,Female,1,2024/03/18_14:53:49,YZ,None,
,,,,,,calibration,0,1,2,426,6,Q,0,right,0.6436433490016498,1,0,,,,,,,,,,,,,,,,,,,,,1,,,,,,,,,,,,,,,,,,,,,,,,,,,,,,,,,,,,,,,,,,,,,,99,145813,22,Female,1,2024/03/18_14:53:49,YZ,None,
,,,,,,calibration,0,1,2,426,7,J,0,right,0.4933358349953778,1,0,,,,,,,,,,,,,,,,,,,,,1,,,,,,,,,,,,,,,,,,,,,,,,,,,,,,,,,,,,,,,,,,,,,,99,145813,22,Female,1,2024/03/18_14:53:49,YZ,None,
,,,,,,calibration,0,1,2,426,8,Q,1,left,0.6335945719911251,1,0,,,,,,,,,,,,,,,,,,,,,1,,,,,,,,,,,,,,,,,,,,,,,,,,,,,,,,,,,,,,,,,,,,,,99,145813,22,Female,1,2024/03/18_14:53:49,YZ,None,
,,,,,,calibration,0,1,2,426,9,F,0,right,0.5123553659941535,1,0,,,,,,,,,,,,,,,,,,,,,1,,,,,,,,,,,,,,,,,,,,,,,,,,,,,,,,,,,,,,,,,,,,,,99,145813,22,Female,1,2024/03/18_14:53:49,YZ,None,
,,,,,,calibration,0,1,2,426,10,S,0,right,0.5310899649921339,1,0,,,,,,,,,,,,,,,,,,,,,1,,,,,,,,,,,,,,,,,,,,,,,,,,,,,,,,,,,,,,,,,,,,,,99,145813,22,Female,1,2024/03/18_14:53:49,YZ,None,
,,,,,,calibration,0,1,2,426,11,F,1,left,0.6976781880075578,1,0,,,,,,,,,,,,,,,,,,,,,1,,,,,,,,,,,,,,,,,,,,,,,,,,,,,,,,,,,,,,,,,,,,,,99,145813,22,Female,1,2024/03/18_14:53:49,YZ,None,
,,,,,,calibration,0,1,2,426,12,S,1,left,0.7325620969932061,1,0,,,,,,,,,,,,,,,,,,,,,1,,,,,,,,,,,,,,,,,,,,,,,,,,,,,,,,,,,,,,,,,,,,,,99,145813,22,Female,1,2024/03/18_14:53:49,YZ,None,
,,,,,,calibration,0,1,2,426,13,X,0,right,0.6083222849993035,1,0,,,,,,,,,,,,,,,,,,,,,1,,,,,,,,,,,,,,,,,,,,,,,,,,,,,,,,,,,,,,,,,,,,,,99,145813,22,Female,1,2024/03/18_14:53:49,YZ,None,
,,,,,,calibration,0,1,2,426,14,Q,0,right,0.684890410018852,1,0,,,,,,,,,,,,,,,,,,,,,1,,,,,,,,,,,,,,,,,,,,,,,,,,,,,,,,,,,,,,,,,,,,,,99,145813,22,Female,1,2024/03/18_14:53:49,YZ,None,
,,,,,,calibration,0,1,2,426,15,N,0,right,0.5266697719926015,1,0,,,,,,,,,,,,,,,,,,,,,1,,,,,,,,,,,,,,,,,,,,,,,,,,,,,,,,,,,,,,,,,,,,,,99,145813,22,Female,1,2024/03/18_14:53:49,YZ,None,
,,,,,,calibration,0,1,2,426,16,S,0,right,0.5406832220032811,1,0,,,,,,,,,,,,,,,,,,,,,1,,,,,,,,,,,,,,,,,,,,,,,,,,,,,,,,,,,,,,,,,,,,,,99,145813,22,Female,1,2024/03/18_14:53:49,YZ,None,
,,,,,,calibration,0,1,2,426,17,N,1,left,0.5731700150063261,1,0,,,,,,,,,,,,,,,,,,,,,1,,,,,,,,,,,,,,,,,,,,,,,,,,,,,,,,,,,,,,,,,,,,,,99,145813,22,Female,1,2024/03/18_14:53:49,YZ,None,
,,,,,,calibration,0,1,2,426,,,,,,,,1.0,1.0,0.0,1.0,0.0,1.0,0.6137557200563606,5,0,0,0,0,12,17,5,12,0,,,,1,,,,,,,,,,,,,,,,,,,,,,,,,,,,,,,,,,,,,,,,,,,,,,99,145813,22,Female,1,2024/03/18_14:53:49,YZ,None,
,,,,,,Calibration,0,,2,426,,,,,,,,,,,,,,,,,,,,,,,,,12,,,1,,,,,,,,,,,,,,,,,,,,,,,,,,,,,,,,,,,,,,,,,,,,,,99,145813,22,Female,1,2024/03/18_14:53:49,YZ,None,
,,,,,,calibration,0,7,2,361,1,F,0,right,0.3731889130140189,1,0,,,,,,,,,,,,,,,,,,,,,1,,,,,,,,,,,,,,,,,,,,,,,,,,,,,,,,,,,,,,,,,,,,,,99,145813,22,Female,1,2024/03/18_14:53:49,YZ,None,
,,,,,,calibration,0,7,2,361,2,N,0,right,0.3212366869847756,1,0,,,,,,,,,,,,,,,,,,,,,1,,,,,,,,,,,,,,,,,,,,,,,,,,,,,,,,,,,,,,,,,,,,,,99,145813,22,Female,1,2024/03/18_14:53:49,YZ,None,
,,,,,,calibration,0,7,2,361,3,X,0,right,0.42405765198054723,1,0,,,,,,,,,,,,,,,,,,,,,1,,,,,,,,,,,,,,,,,,,,,,,,,,,,,,,,,,,,,,,,,,,,,,99,145813,22,Female,1,2024/03/18_14:53:49,YZ,None,
,,,,,,calibration,0,7,2,361,4,N,1,right,0.6417448239808436,0,0,,,,,,,,,,,,,,,,,,,,,1,,,,,,,,,,,,,,,,,,,,,,,,,,,,,,,,,,,,,,,,,,,,,,99,145813,22,Female,1,2024/03/18_14:53:49,YZ,None,
,,,,,,calibration,0,7,2,361,5,Q,0,right,0.4824515809887089,1,0,,,,,,,,,,,,,,,,,,,,,1,,,,,,,,,,,,,,,,,,,,,,,,,,,,,,,,,,,,,,,,,,,,,,99,145813,22,Female,1,2024/03/18_14:53:49,YZ,None,
,,,,,,calibration,0,7,2,361,6,S,0,right,0.5250736819871236,1,0,,,,,,,,,,,,,,,,,,,,,1,,,,,,,,,,,,,,,,,,,,,,,,,,,,,,,,,,,,,,,,,,,,,,99,145813,22,Female,1,2024/03/18_14:53:49,YZ,None,
,,,,,,calibration,0,7,2,361,7,Q,1,left,0.6914828300068621,1,0,,,,,,,,,,,,,,,,,,,,,1,,,,,,,,,,,,,,,,,,,,,,,,,,,,,,,,,,,,,,,,,,,,,,99,145813,22,Female,1,2024/03/18_14:53:49,YZ,None,
,,,,,,calibration,0,7,2,361,8,V,0,right,0.6416497710160911,1,0,,,,,,,,,,,,,,,,,,,,,1,,,,,,,,,,,,,,,,,,,,,,,,,,,,,,,,,,,,,,,,,,,,,,99,145813,22,Female,1,2024/03/18_14:53:49,YZ,None,
,,,,,,calibration,0,7,2,361,9,F,0,right,0.5123197609791532,1,0,,,,,,,,,,,,,,,,,,,,,1,,,,,,,,,,,,,,,,,,,,,,,,,,,,,,,,,,,,,,,,,,,,,,99,145813,22,Female,1,2024/03/18_14:53:49,YZ,None,
,,,,,,calibration,0,7,2,361,10,J,0,right,0.5120569579885341,1,0,,,,,,,,,,,,,,,,,,,,,1,,,,,,,,,,,,,,,,,,,,,,,,,,,,,,,,,,,,,,,,,,,,,,99,145813,22,Female,1,2024/03/18_14:53:49,YZ,None,
,,,,,,calibration,0,7,2,361,11,F,1,left,0.5253171109943651,1,0,,,,,,,,,,,,,,,,,,,,,1,,,,,,,,,,,,,,,,,,,,,,,,,,,,,,,,,,,,,,,,,,,,,,99,145813,22,Female,1,2024/03/18_14:53:49,YZ,None,
,,,,,,calibration,0,7,2,361,12,J,1,left,0.7323232240159996,1,0,,,,,,,,,,,,,,,,,,,,,1,,,,,,,,,,,,,,,,,,,,,,,,,,,,,,,,,,,,,,,,,,,,,,99,145813,22,Female,1,2024/03/18_14:53:49,YZ,None,
,,,,,,calibration,0,7,2,361,13,V,0,right,0.5122185799991712,1,0,,,,,,,,,,,,,,,,,,,,,1,,,,,,,,,,,,,,,,,,,,,,,,,,,,,,,,,,,,,,,,,,,,,,99,145813,22,Female,1,2024/03/18_14:53:49,YZ,None,
,,,,,,calibration,0,7,2,361,14,J,1,left,0.6082202880061232,1,0,,,,,,,,,,,,,,,,,,,,,1,,,,,,,,,,,,,,,,,,,,,,,,,,,,,,,,,,,,,,,,,,,,,,99,145813,22,Female,1,2024/03/18_14:53:49,YZ,None,
,,,,,,calibration,0,7,2,361,15,C,0,right,0.5515971519926097,1,0,,,,,,,,,,,,,,,,,,,,,1,,,,,,,,,,,,,,,,,,,,,,,,,,,,,,,,,,,,,,,,,,,,,,99,145813,22,Female,1,2024/03/18_14:53:49,YZ,None,
,,,,,,calibration,0,7,2,361,16,Q,0,right,0.5735583130153827,1,0,,,,,,,,,,,,,,,,,,,,,1,,,,,,,,,,,,,,,,,,,,,,,,,,,,,,,,,,,,,,,,,,,,,,99,145813,22,Female,1,2024/03/18_14:53:49,YZ,None,
,,,,,,calibration,0,7,2,361,17,J,0,right,0.9687783560075331,1,0,,,,,,,,,,,,,,,,,,,,,1,,,,,,,,,,,,,,,,,,,,,,,,,,,,,,,,,,,,,,,,,,,,,,99,145813,22,Female,1,2024/03/18_14:53:49,YZ,None,
,,,,,,calibration,0,7,2,361,18,V,0,right,0.6182990770030301,1,0,,,,,,,,,,,,,,,,,,,,,1,,,,,,,,,,,,,,,,,,,,,,,,,,,,,,,,,,,,,,,,,,,,,,99,145813,22,Female,1,2024/03/18_14:53:49,YZ,None,
,,,,,,calibration,0,7,2,361,,,,,,,,0.95,0.8,0.0,1.0,0.0,1.0,0.5675319311089374,4,0,0,0,0,13,17,5,13,0,,,,1,,,,,,,,,,,,,,,,,,,,,,,,,,,,,,,,,,,,,,,,,,,,,,99,145813,22,Female,1,2024/03/18_14:53:49,YZ,None,
,,,,,,Calibration,0,,2,361,,,,,,,,,,,,,,,,,,,,,,,,,13,,,1,,,,,,,,,,,,,,,,,,,,,,,,,,,,,,,,,,,,,,,,,,,,,,99,145813,22,Female,1,2024/03/18_14:53:49,YZ,None,
,,,,,,calibration,0,1,2,303,1,N,0,None,nan,0,1,,,,,,,,,,,,,,,,,,,,,1,,,,,,,,,,,,,,,,,,,,,,,,,,,,,,,,,,,,,,,,,,,,,,99,145813,22,Female,1,2024/03/18_14:53:49,YZ,None,
,,,,,,calibration,0,1,2,303,2,X,0,right,0.8458673830027692,1,0,,,,,,,,,,,,,,,,,,,,,1,,,,,,,,,,,,,,,,,,,,,,,,,,,,,,,,,,,,,,,,,,,,,,99,145813,22,Female,1,2024/03/18_14:53:49,YZ,None,
,,,,,,calibration,0,1,2,303,3,F,0,right,0.4829434389830567,1,0,,,,,,,,,,,,,,,,,,,,,1,,,,,,,,,,,,,,,,,,,,,,,,,,,,,,,,,,,,,,,,,,,,,,99,145813,22,Female,1,2024/03/18_14:53:49,YZ,None,
,,,,,,calibration,0,1,2,303,4,X,1,left,0.5829897119838279,1,0,,,,,,,,,,,,,,,,,,,,,1,,,,,,,,,,,,,,,,,,,,,,,,,,,,,,,,,,,,,,,,,,,,,,99,145813,22,Female,1,2024/03/18_14:53:49,YZ,None,
,,,,,,calibration,0,1,2,303,5,N,0,left,nan,0,1,,,,,,,,,,,,,,,,,,,,,1,,,,,,,,,,,,,,,,,,,,,,,,,,,,,,,,,,,,,,,,,,,,,,99,145813,22,Female,1,2024/03/18_14:53:49,YZ,None,
,,,,,,calibration,0,1,2,303,6,X,1,left,0.5745838950097095,1,0,,,,,,,,,,,,,,,,,,,,,1,,,,,,,,,,,,,,,,,,,,,,,,,,,,,,,,,,,,,,,,,,,,,,99,145813,22,Female,1,2024/03/18_14:53:49,YZ,None,
,,,,,,calibration,0,1,2,303,7,Q,0,right,0.710173522005789,1,0,,,,,,,,,,,,,,,,,,,,,1,,,,,,,,,,,,,,,,,,,,,,,,,,,,,,,,,,,,,,,,,,,,,,99,145813,22,Female,1,2024/03/18_14:53:49,YZ,None,
,,,,,,calibration,0,1,2,303,8,F,0,right,0.5421551290201023,1,0,,,,,,,,,,,,,,,,,,,,,1,,,,,,,,,,,,,,,,,,,,,,,,,,,,,,,,,,,,,,,,,,,,,,99,145813,22,Female,1,2024/03/18_14:53:49,YZ,None,
,,,,,,calibration,0,1,2,303,9,X,0,right,0.8259603909973521,1,0,,,,,,,,,,,,,,,,,,,,,1,,,,,,,,,,,,,,,,,,,,,,,,,,,,,,,,,,,,,,,,,,,,,,99,145813,22,Female,1,2024/03/18_14:53:49,YZ,None,
,,,,,,calibration,0,1,2,303,10,J,0,right,0.5243384610221256,1,0,,,,,,,,,,,,,,,,,,,,,1,,,,,,,,,,,,,,,,,,,,,,,,,,,,,,,,,,,,,,,,,,,,,,99,145813,22,Female,1,2024/03/18_14:53:49,YZ,None,
,,,,,,calibration,0,1,2,303,11,C,0,right,0.48644669097848237,1,0,,,,,,,,,,,,,,,,,,,,,1,,,,,,,,,,,,,,,,,,,,,,,,,,,,,,,,,,,,,,,,,,,,,,99,145813,22,Female,1,2024/03/18_14:53:49,YZ,None,
,,,,,,calibration,0,1,2,303,12,X,0,right,0.7502831660094671,1,0,,,,,,,,,,,,,,,,,,,,,1,,,,,,,,,,,,,,,,,,,,,,,,,,,,,,,,,,,,,,,,,,,,,,99,145813,22,Female,1,2024/03/18_14:53:49,YZ,None,
,,,,,,calibration,0,1,2,303,13,S,0,right,0.5746668820211198,1,0,,,,,,,,,,,,,,,,,,,,,1,,,,,,,,,,,,,,,,,,,,,,,,,,,,,,,,,,,,,,,,,,,,,,99,145813,22,Female,1,2024/03/18_14:53:49,YZ,None,
,,,,,,calibration,0,1,2,303,14,X,1,right,0.692002317024162,0,0,,,,,,,,,,,,,,,,,,,,,1,,,,,,,,,,,,,,,,,,,,,,,,,,,,,,,,,,,,,,,,,,,,,,99,145813,22,Female,1,2024/03/18_14:53:49,YZ,None,
,,,,,,calibration,0,1,2,303,15,N,0,right,0.5744512819801457,1,0,,,,,,,,,,,,,,,,,,,,,1,,,,,,,,,,,,,,,,,,,,,,,,,,,,,,,,,,,,,,,,,,,,,,99,145813,22,Female,1,2024/03/18_14:53:49,YZ,None,
,,,,,,calibration,0,1,2,303,16,X,1,left,0.929292898013955,1,0,,,,,,,,,,,,,,,,,,,,,1,,,,,,,,,,,,,,,,,,,,,,,,,,,,,,,,,,,,,,,,,,,,,,99,145813,22,Female,1,2024/03/18_14:53:49,YZ,None,
,,,,,,calibration,0,1,2,303,17,J,0,right,0.5819653880025726,1,0,,,,,,,,,,,,,,,,,,,,,1,,,,,,,,,,,,,,,,,,,,,,,,,,,,,,,,,,,,,,,,,,,,,,99,145813,22,Female,1,2024/03/18_14:53:49,YZ,None,
,,,,,,calibration,0,1,2,303,18,X,1,left,0.7816927789826877,1,0,,,,,,,,,,,,,,,,,,,,,1,,,,,,,,,,,,,,,,,,,,,,,,,,,,,,,,,,,,,,,,,,,,,,99,145813,22,Female,1,2024/03/18_14:53:49,YZ,None,
,,,,,,calibration,0,1,2,303,19,F,0,right,0.5924940190161578,1,0,,,,,,,,,,,,,,,,,,,,,1,,,,,,,,,,,,,,,,,,,,,,,,,,,,,,,,,,,,,,,,,,,,,,99,145813,22,Female,1,2024/03/18_14:53:49,YZ,None,
,,,,,,calibration,0,1,2,303,,,,,,,,0.95,0.8,0.0,1.0,0.10526315789473684,0.8947368421052632,0.6501357267090284,4,0,0,2,2,12,16,5,14,0,,,,1,,,,,,,,,,,,,,,,,,,,,,,,,,,,,,,,,,,,,,,,,,,,,,99,145813,22,Female,1,2024/03/18_14:53:49,YZ,None,
,,,,,,Calibration,0,,2,303,,,,,,,,,,,,,,,,,,,,,,,,,14,,,1,,,,,,,,,,,,,,,,,,,,,,,,,,,,,,,,,,,,,,,,,,,,,,99,145813,22,Female,1,2024/03/18_14:53:49,YZ,None,
,,,,,,calibration,0,23,2,250,1,X,0,right,0.5170273180119693,1,0,,,,,,,,,,,,,,,,,,,,,1,,,,,,,,,,,,,,,,,,,,,,,,,,,,,,,,,,,,,,,,,,,,,,99,145813,22,Female,1,2024/03/18_14:53:49,YZ,None,
,,,,,,calibration,0,23,2,250,2,N,0,right,0.3759202809887938,1,0,,,,,,,,,,,,,,,,,,,,,1,,,,,,,,,,,,,,,,,,,,,,,,,,,,,,,,,,,,,,,,,,,,,,99,145813,22,Female,1,2024/03/18_14:53:49,YZ,None,
,,,,,,calibration,0,23,2,250,3,X,1,left,0.3885335389932152,1,0,,,,,,,,,,,,,,,,,,,,,1,,,,,,,,,,,,,,,,,,,,,,,,,,,,,,,,,,,,,,,,,,,,,,99,145813,22,Female,1,2024/03/18_14:53:49,YZ,None,
,,,,,,calibration,0,23,2,250,4,F,0,right,0.5123908339883201,1,0,,,,,,,,,,,,,,,,,,,,,1,,,,,,,,,,,,,,,,,,,,,,,,,,,,,,,,,,,,,,,,,,,,,,99,145813,22,Female,1,2024/03/18_14:53:49,YZ,None,
,,,,,,calibration,0,23,2,250,5,V,0,right,0.7086975260172039,1,0,,,,,,,,,,,,,,,,,,,,,1,,,,,,,,,,,,,,,,,,,,,,,,,,,,,,,,,,,,,,,,,,,,,,99,145813,22,Female,1,2024/03/18_14:53:49,YZ,None,
,,,,,,calibration,0,23,2,250,6,N,0,right,0.7923736849916168,1,0,,,,,,,,,,,,,,,,,,,,,1,,,,,,,,,,,,,,,,,,,,,,,,,,,,,,,,,,,,,,,,,,,,,,99,145813,22,Female,1,2024/03/18_14:53:49,YZ,None,
,,,,,,calibration,0,23,2,250,7,S,0,right,0.6810697990003973,1,0,,,,,,,,,,,,,,,,,,,,,1,,,,,,,,,,,,,,,,,,,,,,,,,,,,,,,,,,,,,,,,,,,,,,99,145813,22,Female,1,2024/03/18_14:53:49,YZ,None,
,,,,,,calibration,0,23,2,250,8,J,0,right,0.6424708109989297,1,0,,,,,,,,,,,,,,,,,,,,,1,,,,,,,,,,,,,,,,,,,,,,,,,,,,,,,,,,,,,,,,,,,,,,99,145813,22,Female,1,2024/03/18_14:53:49,YZ,None,
,,,,,,calibration,0,23,2,250,9,X,0,right,nan,0,1,,,,,,,,,,,,,,,,,,,,,1,,,,,,,,,,,,,,,,,,,,,,,,,,,,,,,,,,,,,,,,,,,,,,99,145813,22,Female,1,2024/03/18_14:53:49,YZ,None,
,,,,,,calibration,0,23,2,250,10,S,0,left,0.841258293017745,0,0,,,,,,,,,,,,,,,,,,,,,1,,,,,,,,,,,,,,,,,,,,,,,,,,,,,,,,,,,,,,,,,,,,,,99,145813,22,Female,1,2024/03/18_14:53:49,YZ,None,
,,,,,,calibration,0,23,2,250,11,X,1,right,0.8520072379906196,0,0,,,,,,,,,,,,,,,,,,,,,1,,,,,,,,,,,,,,,,,,,,,,,,,,,,,,,,,,,,,,,,,,,,,,99,145813,22,Female,1,2024/03/18_14:53:49,YZ,None,
,,,,,,calibration,0,23,2,250,12,C,0,right,nan,0,1,,,,,,,,,,,,,,,,,,,,,1,,,,,,,,,,,,,,,,,,,,,,,,,,,,,,,,,,,,,,,,,,,,,,99,145813,22,Female,1,2024/03/18_14:53:49,YZ,None,
,,,,,,calibration,0,23,2,250,13,X,1,right,nan,0,1,,,,,,,,,,,,,,,,,,,,,1,,,,,,,,,,,,,,,,,,,,,,,,,,,,,,,,,,,,,,,,,,,,,,99,145813,22,Female,1,2024/03/18_14:53:49,YZ,None,
,,,,,,calibration,0,23,2,250,14,C,1,right,nan,0,1,,,,,,,,,,,,,,,,,,,,,1,,,,,,,,,,,,,,,,,,,,,,,,,,,,,,,,,,,,,,,,,,,,,,99,145813,22,Female,1,2024/03/18_14:53:49,YZ,None,
,,,,,,calibration,0,23,2,250,15,N,0,right,nan,0,1,,,,,,,,,,,,,,,,,,,,,1,,,,,,,,,,,,,,,,,,,,,,,,,,,,,,,,,,,,,,,,,,,,,,99,145813,22,Female,1,2024/03/18_14:53:49,YZ,None,
,,,,,,calibration,0,23,2,250,16,C,1,left,0.8922623980033677,1,0,,,,,,,,,,,,,,,,,,,,,1,,,,,,,,,,,,,,,,,,,,,,,,,,,,,,,,,,,,,,,,,,,,,,99,145813,22,Female,1,2024/03/18_14:53:49,YZ,None,
,,,,,,calibration,0,23,2,250,17,X,0,right,0.9087969819956925,1,0,,,,,,,,,,,,,,,,,,,,,1,,,,,,,,,,,,,,,,,,,,,,,,,,,,,,,,,,,,,,,,,,,,,,99,145813,22,Female,1,2024/03/18_14:53:49,YZ,None,
,,,,,,calibration,0,23,2,250,18,Q,0,right,0.6306566669954918,1,0,,,,,,,,,,,,,,,,,,,,,1,,,,,,,,,,,,,,,,,,,,,,,,,,,,,,,,,,,,,,,,,,,,,,99,145813,22,Female,1,2024/03/18_14:53:49,YZ,None,
,,,,,,calibration,0,23,2,250,19,N,0,right,0.8826657830213662,1,0,,,,,,,,,,,,,,,,,,,,,1,,,,,,,,,,,,,,,,,,,,,,,,,,,,,,,,,,,,,,,,,,,,,,99,145813,22,Female,1,2024/03/18_14:53:49,YZ,None,
,,,,,,calibration,0,23,2,250,20,V,0,right,0.5244371650042012,1,0,,,,,,,,,,,,,,,,,,,,,1,,,,,,,,,,,,,,,,,,,,,,,,,,,,,,,,,,,,,,,,,,,,,,99,145813,22,Female,1,2024/03/18_14:53:49,YZ,None,
,,,,,,calibration,0,23,2,250,,,,,,,,0.7916666666666667,0.4,0.06666666666666667,0.9166666666666666,0.25,0.6833333333333333,0.676704554601262,2,1,2,3,5,11,13,5,15,0,,,,1,,,,,,,,,,,,,,,,,,,,,,,,,,,,,,,,,,,,,,,,,,,,,,99,145813,22,Female,1,2024/03/18_14:53:49,YZ,None,
,,,,,,Calibration,0,,2,250,,,,,,,,,,,,,,,,,,,,,,,,,15,,,1,,,,,,,,,,,,,,,,,,,,,,,,,,,,,,,,,,,,,,,,,,,,,,99,145813,22,Female,1,2024/03/18_14:53:49,YZ,None,
,,,,,,CALIBRATION,0,,,,,,,,,,,,,,,,,,,,,,,,,,,,15,0.7916666666666667,250,1,,,,,,,,,,,,,,,,,,,,,,,,,,,,,,,,,,,,,,,,,,,,,,99,145813,22,Female,1,2024/03/18_14:53:49,YZ,None,
1,./instructions/inst_prac_1/Slide24.png,right,12.04108268901473,504.4958356609859,516.5369183500006,,,,,,,,,,,,,,,,,,,,,,,,,,,,,,,,,1,,,,,,,,,,,,,,,,,,,,,,,,,,,,,,,,,,,,,,,,,,,,,,99,145813,22,Female,1,2024/03/18_14:53:49,YZ,None,
2,./instructions/inst_prac_1/Slide25.png,right,2.074806427001022,516.566049563,518.640855990001,,,,,,,,,,,,,,,,,,,,,,,,,,,,,,,,,1,,,,,,,,,,,,,,,,,,,,,,,,,,,,,,,,,,,,,,,,,,,,,,99,145813,22,Female,1,2024/03/18_14:53:49,YZ,None,
3,./instructions/inst_prac_1/Slide26.png,right,0.4672888850036543,518.669517140981,519.1368060259847,,,,,,,,,,,,,,,,,,,,,,,,,,,,,,,,,1,,,,,,,,,,,,,,,,,,,,,,,,,,,,,,,,,,,,,,,,,,,,,,99,145813,22,Female,1,2024/03/18_14:53:49,YZ,None,
4,./instructions/inst_prac_1/Slide27.png,right,0.44327897898619995,519.1654676489998,519.608746627986,,,,,,,,,,,,,,,,,,,,,,,,,,,,,,,,,1,,,,,,,,,,,,,,,,,,,,,,,,,,,,,,,,,,,,,,,,,,,,,,99,145813,22,Female,1,2024/03/18_14:53:49,YZ,None,
5,./instructions/inst_prac_1/Slide28.png,right,0.2515278240025509,519.6373544739909,519.8888822979934,,,,,,,,,,,,,,,,,,,,,,,,,,,,,,,,,1,,,,,,,,,,,,,,,,,,,,,,,,,,,,,,,,,,,,,,,,,,,,,,99,145813,22,Female,1,2024/03/18_14:53:49,YZ,None,
6,./instructions/inst_prac_1/Slide29.png,right,0.200398948014481,519.9185005239851,520.1188994719996,,,,,,,,,,,,,,,,,,,,,,,,,,,,,,,,,1,,,,,,,,,,,,,,,,,,,,,,,,,,,,,,,,,,,,,,,,,,,,,,99,145813,22,Female,1,2024/03/18_14:53:49,YZ,None,
7,./instructions/inst_prac_1/Slide30.png,right,0.2004177909984719,520.1415564309864,520.3419742219849,,,,,,,,,,,,,,,,,,,,,,,,,,,,,,,,,1,,,,,,,,,,,,,,,,,,,,,,,,,,,,,,,,,,,,,,,,,,,,,,99,145813,22,Female,1,2024/03/18_14:53:49,YZ,None,
,,,,,,practice,0,27,1,1250,1,S,0,right,5.77747126398026,1,0,,,,,,,,,,,,,,,,,,,,,1,,,,,,,,,,,,,,,,,,,,,,,,,,,,,,,,,,,,,,,,,,,,,,99,145813,22,Female,1,2024/03/18_14:53:49,YZ,None,
,,,,,,practice,0,27,1,1250,2,S,1,left,0.8634807540220208,1,0,,,,,,,,,,,,,,,,,,,,,1,,,,,,,,,,,,,,,,,,,,,,,,,,,,,,,,,,,,,,,,,,,,,,99,145813,22,Female,1,2024/03/18_14:53:49,YZ,None,
,,,,,,practice,0,27,1,1250,3,Q,0,right,0.5735424880112987,1,0,,,,,,,,,,,,,,,,,,,,,1,,,,,,,,,,,,,,,,,,,,,,,,,,,,,,,,,,,,,,,,,,,,,,99,145813,22,Female,1,2024/03/18_14:53:49,YZ,None,
,,,,,,practice,0,27,1,1250,4,X,0,right,0.5182833560102154,1,0,,,,,,,,,,,,,,,,,,,,,1,,,,,,,,,,,,,,,,,,,,,,,,,,,,,,,,,,,,,,,,,,,,,,99,145813,22,Female,1,2024/03/18_14:53:49,YZ,None,
,,,,,,practice,0,27,1,1250,5,N,0,right,0.41426551999757066,1,0,,,,,,,,,,,,,,,,,,,,,1,,,,,,,,,,,,,,,,,,,,,,,,,,,,,,,,,,,,,,,,,,,,,,99,145813,22,Female,1,2024/03/18_14:53:49,YZ,None,
,,,,,,practice,0,27,1,1250,6,N,1,right,0.4310834110074211,0,0,,,,,,,,,,,,,,,,,,,,,1,,,,,,,,,,,,,,,,,,,,,,,,,,,,,,,,,,,,,,,,,,,,,,99,145813,22,Female,1,2024/03/18_14:53:49,YZ,None,
,,,,,,practice,0,27,1,1250,7,X,0,right,0.8277138800185639,1,0,,,,,,,,,,,,,,,,,,,,,1,,,,,,,,,,,,,,,,,,,,,,,,,,,,,,,,,,,,,,,,,,,,,,99,145813,22,Female,1,2024/03/18_14:53:49,YZ,None,
,,,,,,practice,0,27,1,1250,8,X,1,left,0.6893893289961852,1,0,,,,,,,,,,,,,,,,,,,,,1,,,,,,,,,,,,,,,,,,,,,,,,,,,,,,,,,,,,,,,,,,,,,,99,145813,22,Female,1,2024/03/18_14:53:49,YZ,None,
,,,,,,practice,0,27,1,1250,9,C,0,right,0.4865475279802922,1,0,,,,,,,,,,,,,,,,,,,,,1,,,,,,,,,,,,,,,,,,,,,,,,,,,,,,,,,,,,,,,,,,,,,,99,145813,22,Female,1,2024/03/18_14:53:49,YZ,None,
,,,,,,practice,0,27,1,1250,10,V,0,right,0.5076586679788306,1,0,,,,,,,,,,,,,,,,,,,,,1,,,,,,,,,,,,,,,,,,,,,,,,,,,,,,,,,,,,,,,,,,,,,,99,145813,22,Female,1,2024/03/18_14:53:49,YZ,None,
,,,,,,practice,0,27,1,1250,,,,,,,,0.9166666666666666,0.6666666666666666,0.0,1.0,0.0,1.0,1.1089436198002658,2,0,0,0,0,7,9,3,7,0,,,,1,,,,,,,,,,,,,,,,,,,,,,,,,,,,,,,,,,,,,,,,,,,,,,99,145813,22,Female,1,2024/03/18_14:53:49,YZ,None,
1,./instructions/inst_prac_1_next/Slide35.png,right,0.9215323020180222,542.4710504899849,543.3925827920029,,,,,,,,,,,,,,,,,,,,,,,,,,,,,,,,,1,,,,,,,,,,,,,,,,,,,,,,,,,,,,,,,,,,,,,,,,,,,,,,99,145813,22,Female,1,2024/03/18_14:53:49,YZ,None,
,,,,,,practice,0,23,1,250,1,N,0,right,0.7953365670109633,1,0,,,,,,,,,,,,,,,,,,,,,1,,,,,,,,,,,,,,,,,,,,,,,,,,,,,,,,,,,,,,,,,,,,,,99,145813,22,Female,1,2024/03/18_14:53:49,YZ,None,
,,,,,,practice,0,23,1,250,2,N,1,left,0.6417450289882254,1,0,,,,,,,,,,,,,,,,,,,,,1,,,,,,,,,,,,,,,,,,,,,,,,,,,,,,,,,,,,,,,,,,,,,,99,145813,22,Female,1,2024/03/18_14:53:49,YZ,None,
,,,,,,practice,0,23,1,250,3,V,0,right,0.5246982469980139,1,0,,,,,,,,,,,,,,,,,,,,,1,,,,,,,,,,,,,,,,,,,,,,,,,,,,,,,,,,,,,,,,,,,,,,99,145813,22,Female,1,2024/03/18_14:53:49,YZ,None,
,,,,,,practice,0,23,1,250,4,C,0,right,0.552453139971476,1,0,,,,,,,,,,,,,,,,,,,,,1,,,,,,,,,,,,,,,,,,,,,,,,,,,,,,,,,,,,,,,,,,,,,,99,145813,22,Female,1,2024/03/18_14:53:49,YZ,None,
,,,,,,practice,0,23,1,250,5,J,0,right,0.48809599500964396,1,0,,,,,,,,,,,,,,,,,,,,,1,,,,,,,,,,,,,,,,,,,,,,,,,,,,,,,,,,,,,,,,,,,,,,99,145813,22,Female,1,2024/03/18_14:53:49,YZ,None,
,,,,,,practice,0,23,1,250,6,J,1,left,0.5921945440059062,1,0,,,,,,,,,,,,,,,,,,,,,1,,,,,,,,,,,,,,,,,,,,,,,,,,,,,,,,,,,,,,,,,,,,,,99,145813,22,Female,1,2024/03/18_14:53:49,YZ,None,
,,,,,,practice,0,23,1,250,7,C,0,right,0.496330929978285,1,0,,,,,,,,,,,,,,,,,,,,,1,,,,,,,,,,,,,,,,,,,,,,,,,,,,,,,,,,,,,,,,,,,,,,99,145813,22,Female,1,2024/03/18_14:53:49,YZ,None,
,,,,,,practice,0,23,1,250,8,S,0,right,0.5004127289867029,1,0,,,,,,,,,,,,,,,,,,,,,1,,,,,,,,,,,,,,,,,,,,,,,,,,,,,,,,,,,,,,,,,,,,,,99,145813,22,Female,1,2024/03/18_14:53:49,YZ,None,
,,,,,,practice,0,23,1,250,9,S,1,left,0.577278666984057,1,0,,,,,,,,,,,,,,,,,,,,,1,,,,,,,,,,,,,,,,,,,,,,,,,,,,,,,,,,,,,,,,,,,,,,99,145813,22,Female,1,2024/03/18_14:53:49,YZ,None,
,,,,,,practice,0,23,1,250,10,N,0,right,0.4558283949736506,1,0,,,,,,,,,,,,,,,,,,,,,1,,,,,,,,,,,,,,,,,,,,,,,,,,,,,,,,,,,,,,,,,,,,,,99,145813,22,Female,1,2024/03/18_14:53:49,YZ,None,
,,,,,,practice,0,23,1,250,11,N,1,left,0.6883181699959096,1,0,,,,,,,,,,,,,,,,,,,,,1,,,,,,,,,,,,,,,,,,,,,,,,,,,,,,,,,,,,,,,,,,,,,,99,145813,22,Female,1,2024/03/18_14:53:49,YZ,None,
,,,,,,practice,0,23,1,250,12,X,0,right,0.5198646640055813,1,0,,,,,,,,,,,,,,,,,,,,,1,,,,,,,,,,,,,,,,,,,,,,,,,,,,,,,,,,,,,,,,,,,,,,99,145813,22,Female,1,2024/03/18_14:53:49,YZ,None,
,,,,,,practice,0,23,1,250,13,Q,0,right,0.417689716006862,1,0,,,,,,,,,,,,,,,,,,,,,1,,,,,,,,,,,,,,,,,,,,,,,,,,,,,,,,,,,,,,,,,,,,,,99,145813,22,Female,1,2024/03/18_14:53:49,YZ,None,
,,,,,,practice,0,23,1,250,14,J,0,right,0.47406615599174984,1,0,,,,,,,,,,,,,,,,,,,,,1,,,,,,,,,,,,,,,,,,,,,,,,,,,,,,,,,,,,,,,,,,,,,,99,145813,22,Female,1,2024/03/18_14:53:49,YZ,None,
,,,,,,practice,0,23,1,250,15,S,0,right,0.4573557910043746,1,0,,,,,,,,,,,,,,,,,,,,,1,,,,,,,,,,,,,,,,,,,,,,,,,,,,,,,,,,,,,,,,,,,,,,99,145813,22,Female,1,2024/03/18_14:53:49,YZ,None,
,,,,,,practice,0,23,1,250,16,Q,0,right,0.7621854419994634,1,0,,,,,,,,,,,,,,,,,,,,,1,,,,,,,,,,,,,,,,,,,,,,,,,,,,,,,,,,,,,,,,,,,,,,99,145813,22,Female,1,2024/03/18_14:53:49,YZ,None,
,,,,,,practice,0,23,1,250,17,Q,1,left,0.7080236189940479,1,0,,,,,,,,,,,,,,,,,,,,,1,,,,,,,,,,,,,,,,,,,,,,,,,,,,,,,,,,,,,,,,,,,,,,99,145813,22,Female,1,2024/03/18_14:53:49,YZ,None,
,,,,,,practice,0,23,1,250,18,N,0,right,0.5968987240048591,1,0,,,,,,,,,,,,,,,,,,,,,1,,,,,,,,,,,,,,,,,,,,,,,,,,,,,,,,,,,,,,,,,,,,,,99,145813,22,Female,1,2024/03/18_14:53:49,YZ,None,
,,,,,,practice,0,23,1,250,19,J,0,right,0.6687631940003484,1,0,,,,,,,,,,,,,,,,,,,,,1,,,,,,,,,,,,,,,,,,,,,,,,,,,,,,,,,,,,,,,,,,,,,,99,145813,22,Female,1,2024/03/18_14:53:49,YZ,None,
,,,,,,practice,0,23,1,250,20,C,0,right,0.48862536501837894,1,0,,,,,,,,,,,,,,,,,,,,,1,,,,,,,,,,,,,,,,,,,,,,,,,,,,,,,,,,,,,,,,,,,,,,99,145813,22,Female,1,2024/03/18_14:53:49,YZ,None,
,,,,,,practice,0,23,1,250,,,,,,,,1.0,1.0,0.0,1.0,0.0,1.0,0.570308254196425,5,0,0,0,0,15,20,5,15,0,,,,1,,,,,,,,,,,,,,,,,,,,,,,,,,,,,,,,,,,,,,,,,,,,,,99,145813,22,Female,1,2024/03/18_14:53:49,YZ,None,
,,,,,,practice,0,4,1,250,1,X,0,right,0.7813663700071629,1,0,,,,,,,,,,,,,,,,,,,,,1,,,,,,,,,,,,,,,,,,,,,,,,,,,,,,,,,,,,,,,,,,,,,,99,145813,22,Female,1,2024/03/18_14:53:49,YZ,None,
,,,,,,practice,0,4,1,250,2,X,1,left,0.6889434850018006,1,0,,,,,,,,,,,,,,,,,,,,,1,,,,,,,,,,,,,,,,,,,,,,,,,,,,,,,,,,,,,,,,,,,,,,99,145813,22,Female,1,2024/03/18_14:53:49,YZ,None,
,,,,,,practice,0,4,1,250,3,V,0,right,0.5486242530168965,1,0,,,,,,,,,,,,,,,,,,,,,1,,,,,,,,,,,,,,,,,,,,,,,,,,,,,,,,,,,,,,,,,,,,,,99,145813,22,Female,1,2024/03/18_14:53:49,YZ,None,
,,,,,,practice,0,4,1,250,4,V,1,right,0.44470629599527456,0,0,,,,,,,,,,,,,,,,,,,,,1,,,,,,,,,,,,,,,,,,,,,,,,,,,,,,,,,,,,,,,,,,,,,,99,145813,22,Female,1,2024/03/18_14:53:49,YZ,None,
,,,,,,practice,0,4,1,250,5,C,0,right,0.8767668820219114,1,0,,,,,,,,,,,,,,,,,,,,,1,,,,,,,,,,,,,,,,,,,,,,,,,,,,,,,,,,,,,,,,,,,,,,99,145813,22,Female,1,2024/03/18_14:53:49,YZ,None,
,,,,,,practice,0,4,1,250,6,S,0,right,0.6214046780078206,1,0,,,,,,,,,,,,,,,,,,,,,1,,,,,,,,,,,,,,,,,,,,,,,,,,,,,,,,,,,,,,,,,,,,,,99,145813,22,Female,1,2024/03/18_14:53:49,YZ,None,
,,,,,,practice,0,4,1,250,7,N,0,right,0.5594064329925459,1,0,,,,,,,,,,,,,,,,,,,,,1,,,,,,,,,,,,,,,,,,,,,,,,,,,,,,,,,,,,,,,,,,,,,,99,145813,22,Female,1,2024/03/18_14:53:49,YZ,None,
,,,,,,practice,0,4,1,250,8,N,1,left,0.616658417013241,1,0,,,,,,,,,,,,,,,,,,,,,1,,,,,,,,,,,,,,,,,,,,,,,,,,,,,,,,,,,,,,,,,,,,,,99,145813,22,Female,1,2024/03/18_14:53:49,YZ,None,
,,,,,,practice,0,4,1,250,9,X,0,right,0.5362616780039389,1,0,,,,,,,,,,,,,,,,,,,,,1,,,,,,,,,,,,,,,,,,,,,,,,,,,,,,,,,,,,,,,,,,,,,,99,145813,22,Female,1,2024/03/18_14:53:49,YZ,None,
,,,,,,practice,0,4,1,250,10,V,0,right,1.0770027219841722,1,0,,,,,,,,,,,,,,,,,,,,,1,,,,,,,,,,,,,,,,,,,,,,,,,,,,,,,,,,,,,,,,,,,,,,99,145813,22,Female,1,2024/03/18_14:53:49,YZ,None,
,,,,,,practice,0,4,1,250,11,C,0,right,0.9085188870085403,1,0,,,,,,,,,,,,,,,,,,,,,1,,,,,,,,,,,,,,,,,,,,,,,,,,,,,,,,,,,,,,,,,,,,,,99,145813,22,Female,1,2024/03/18_14:53:49,YZ,None,
,,,,,,practice,0,4,1,250,12,N,0,right,0.5089668259897735,1,0,,,,,,,,,,,,,,,,,,,,,1,,,,,,,,,,,,,,,,,,,,,,,,,,,,,,,,,,,,,,,,,,,,,,99,145813,22,Female,1,2024/03/18_14:53:49,YZ,None,
,,,,,,practice,0,4,1,250,13,C,0,right,0.7612700549943838,1,0,,,,,,,,,,,,,,,,,,,,,1,,,,,,,,,,,,,,,,,,,,,,,,,,,,,,,,,,,,,,,,,,,,,,99,145813,22,Female,1,2024/03/18_14:53:49,YZ,None,
,,,,,,practice,0,4,1,250,14,F,0,right,0.548954165977193,1,0,,,,,,,,,,,,,,,,,,,,,1,,,,,,,,,,,,,,,,,,,,,,,,,,,,,,,,,,,,,,,,,,,,,,99,145813,22,Female,1,2024/03/18_14:53:49,YZ,None,
,,,,,,practice,0,4,1,250,15,F,1,left,0.6588975409977138,1,0,,,,,,,,,,,,,,,,,,,,,1,,,,,,,,,,,,,,,,,,,,,,,,,,,,,,,,,,,,,,,,,,,,,,99,145813,22,Female,1,2024/03/18_14:53:49,YZ,None,
,,,,,,practice,0,4,1,250,16,C,0,right,0.6499784819898196,1,0,,,,,,,,,,,,,,,,,,,,,1,,,,,,,,,,,,,,,,,,,,,,,,,,,,,,,,,,,,,,,,,,,,,,99,145813,22,Female,1,2024/03/18_14:53:49,YZ,None,
,,,,,,practice,0,4,1,250,17,C,1,left,0.5530100760224741,1,0,,,,,,,,,,,,,,,,,,,,,1,,,,,,,,,,,,,,,,,,,,,,,,,,,,,,,,,,,,,,,,,,,,,,99,145813,22,Female,1,2024/03/18_14:53:49,YZ,None,
,,,,,,practice,0,4,1,250,18,X,0,right,0.49647825601277873,1,0,,,,,,,,,,,,,,,,,,,,,1,,,,,,,,,,,,,,,,,,,,,,,,,,,,,,,,,,,,,,,,,,,,,,99,145813,22,Female,1,2024/03/18_14:53:49,YZ,None,
,,,,,,practice,0,4,1,250,19,C,0,right,0.7327743140049279,1,0,,,,,,,,,,,,,,,,,,,,,1,,,,,,,,,,,,,,,,,,,,,,,,,,,,,,,,,,,,,,,,,,,,,,99,145813,22,Female,1,2024/03/18_14:53:49,YZ,None,
,,,,,,practice,0,4,1,250,20,C,1,left,0.7145806459884625,1,0,,,,,,,,,,,,,,,,,,,,,1,,,,,,,,,,,,,,,,,,,,,,,,,,,,,,,,,,,,,,,,,,,,,,99,145813,22,Female,1,2024/03/18_14:53:49,YZ,None,
,,,,,,practice,0,4,1,250,,,,,,,,0.9583333333333334,0.8333333333333334,0.0,1.0,0.0,1.0,0.6642285231515416,5,0,0,0,0,14,19,6,14,0,,,,1,,,,,,,,,,,,,,,,,,,,,,,,,,,,,,,,,,,,,,,,,,,,,,99,145813,22,Female,1,2024/03/18_14:53:49,YZ,None,
1,./instructions/inst_prac_3/Slide37.png,right,6.920202774985228,593.1924442489981,600.1126470239833,,,,,,,,,,,,,,,,,,,,,,,,,,,,,,,,,1,,,,,,,,,,,,,,,,,,,,,,,,,,,,,,,,,,,,,,,,,,,,,,99,145813,22,Female,1,2024/03/18_14:53:49,YZ,None,
2,./instructions/inst_prac_3/Slide38.png,right,2.4649054180190433,600.143817507982,602.6087229260011,,,,,,,,,,,,,,,,,,,,,,,,,,,,,,,,,1,,,,,,,,,,,,,,,,,,,,,,,,,,,,,,,,,,,,,,,,,,,,,,99,145813,22,Female,1,2024/03/18_14:53:49,YZ,None,
3,./instructions/inst_prac_3/Slide39.png,right,0.7978905659983866,602.6350318199839,603.4329223859822,,,,,,,,,,,,,,,,,,,,,,,,,,,,,,,,,1,,,,,,,,,,,,,,,,,,,,,,,,,,,,,,,,,,,,,,,,,,,,,,99,145813,22,Female,1,2024/03/18_14:53:49,YZ,None,
4,./instructions/inst_prac_3/Slide40.png,right,0.699151568027446,603.4616101129795,604.160761681007,,,,,,,,,,,,,,,,,,,,,,,,,,,,,,,,,1,,,,,,,,,,,,,,,,,,,,,,,,,,,,,,,,,,,,,,,,,,,,,,99,145813,22,Female,1,2024/03/18_14:53:49,YZ,None,
5,./instructions/inst_prac_3/Slide41.png,right,7.086234674003208,604.1865737529879,611.2728084269911,,,,,,,,,,,,,,,,,,,,,,,,,,,,,,,,,1,,,,,,,,,,,,,,,,,,,,,,,,,,,,,,,,,,,,,,,,,,,,,,99,145813,22,Female,1,2024/03/18_14:53:49,YZ,None,
6,./instructions/inst_prac_3/Slide42.png,right,2.331142256007297,611.3016263439786,613.6327685999859,,,,,,,,,,,,,,,,,,,,,,,,,,,,,,,,,1,,,,,,,,,,,,,,,,,,,,,,,,,,,,,,,,,,,,,,,,,,,,,,99,145813,22,Female,1,2024/03/18_14:53:49,YZ,None,
7,./instructions/inst_prac_3/Slide43.png,right,1.2372240550175775,613.6594867679814,614.896710822999,,,,,,,,,,,,,,,,,,,,,,,,,,,,,,,,,1,,,,,,,,,,,,,,,,,,,,,,,,,,,,,,,,,,,,,,,,,,,,,,99,145813,22,Female,1,2024/03/18_14:53:49,YZ,None,
8,./instructions/inst_prac_3/Slide44.png,right,0.8426329990033992,614.9261434999935,615.7687764989969,,,,,,,,,,,,,,,,,,,,,,,,,,,,,,,,,1,,,,,,,,,,,,,,,,,,,,,,,,,,,,,,,,,,,,,,,,,,,,,,99,145813,22,Female,1,2024/03/18_14:53:49,YZ,None,
,,,,,,practice,0,11,3,788,1,V,0,right,4.025435340998229,1,0,,,,,,,,,,,,,,,,,,,,,1,,,,,,,,,,,,,,,,,,,,,,,,,,,,,,,,,,,,,,,,,,,,,,99,145813,22,Female,1,2024/03/18_14:53:49,YZ,None,
,,,,,,practice,0,11,3,788,2,N,0,right,0.7176029499969445,1,0,,,,,,,,,,,,,,,,,,,,,1,,,,,,,,,,,,,,,,,,,,,,,,,,,,,,,,,,,,,,,,,,,,,,99,145813,22,Female,1,2024/03/18_14:53:49,YZ,None,
,,,,,,practice,0,11,3,788,3,N,0,right,1.0856364009960089,1,0,,,,,,,,,,,,,,,,,,,,,1,,,,,,,,,,,,,,,,,,,,,,,,,,,,,,,,,,,,,,,,,,,,,,99,145813,22,Female,1,2024/03/18_14:53:49,YZ,None,
,,,,,,practice,0,11,3,788,4,Q,0,right,3.5504612060030922,1,0,,,,,,,,,,,,,,,,,,,,,1,,,,,,,,,,,,,,,,,,,,,,,,,,,,,,,,,,,,,,,,,,,,,,99,145813,22,Female,1,2024/03/18_14:53:49,YZ,None,
,,,,,,practice,0,11,3,788,5,N,1,left,1.2600745310191996,1,0,,,,,,,,,,,,,,,,,,,,,1,,,,,,,,,,,,,,,,,,,,,,,,,,,,,,,,,,,,,,,,,,,,,,99,145813,22,Female,1,2024/03/18_14:53:49,YZ,None,
,,,,,,practice,0,11,3,788,6,Q,0,right,0.9491447400068864,1,0,,,,,,,,,,,,,,,,,,,,,1,,,,,,,,,,,,,,,,,,,,,,,,,,,,,,,,,,,,,,,,,,,,,,99,145813,22,Female,1,2024/03/18_14:53:49,YZ,None,
,,,,,,practice,0,11,3,788,7,J,0,right,2.3089733739907388,1,0,,,,,,,,,,,,,,,,,,,,,1,,,,,,,,,,,,,,,,,,,,,,,,,,,,,,,,,,,,,,,,,,,,,,99,145813,22,Female,1,2024/03/18_14:53:49,YZ,None,
,,,,,,practice,0,11,3,788,8,N,1,right,1.2790286559902597,0,0,,,,,,,,,,,,,,,,,,,,,1,,,,,,,,,,,,,,,,,,,,,,,,,,,,,,,,,,,,,,,,,,,,,,99,145813,22,Female,1,2024/03/18_14:53:49,YZ,None,
,,,,,,practice,0,11,3,788,9,V,0,right,2.7886376500246115,1,0,,,,,,,,,,,,,,,,,,,,,1,,,,,,,,,,,,,,,,,,,,,,,,,,,,,,,,,,,,,,,,,,,,,,99,145813,22,Female,1,2024/03/18_14:53:49,YZ,None,
,,,,,,practice,0,11,3,788,10,J,1,left,1.0204338729963638,1,0,,,,,,,,,,,,,,,,,,,,,1,,,,,,,,,,,,,,,,,,,,,,,,,,,,,,,,,,,,,,,,,,,,,,99,145813,22,Female,1,2024/03/18_14:53:49,YZ,None,
,,,,,,practice,0,11,3,788,11,F,0,right,0.7609640429727733,1,0,,,,,,,,,,,,,,,,,,,,,1,,,,,,,,,,,,,,,,,,,,,,,,,,,,,,,,,,,,,,,,,,,,,,99,145813,22,Female,1,2024/03/18_14:53:49,YZ,None,
,,,,,,practice,0,11,3,788,12,X,0,right,1.4925285450008232,1,0,,,,,,,,,,,,,,,,,,,,,1,,,,,,,,,,,,,,,,,,,,,,,,,,,,,,,,,,,,,,,,,,,,,,99,145813,22,Female,1,2024/03/18_14:53:49,YZ,None,
,,,,,,practice,0,11,3,788,13,J,1,left,0.8623443609976675,1,0,,,,,,,,,,,,,,,,,,,,,1,,,,,,,,,,,,,,,,,,,,,,,,,,,,,,,,,,,,,,,,,,,,,,99,145813,22,Female,1,2024/03/18_14:53:49,YZ,None,
,,,,,,practice,0,11,3,788,,,,,,,,0.9375,0.75,0.0,1.0,0.0,1.0,1.7000973593072,3,0,0,0,0,9,12,4,9,0,,,,1,,,,,,,,,,,,,,,,,,,,,,,,,,,,,,,,,,,,,,,,,,,,,,99,145813,22,Female,1,2024/03/18_14:53:49,YZ,None,
1,./instructions/inst_prac_3_next/Slide49.png,right,0.9446228909946512,652.0641405259958,653.0087634169904,,,,,,,,,,,,,,,,,,,,,,,,,,,,,,,,,1,,,,,,,,,,,,,,,,,,,,,,,,,,,,,,,,,,,,,,,,,,,,,,99,145813,22,Female,1,2024/03/18_14:53:49,YZ,None,
,,,,,,practice,0,21,3,250,1,C,0,right,0.9082501820230391,1,0,,,,,,,,,,,,,,,,,,,,,1,,,,,,,,,,,,,,,,,,,,,,,,,,,,,,,,,,,,,,,,,,,,,,99,145813,22,Female,1,2024/03/18_14:53:49,YZ,None,
,,,,,,practice,0,21,3,250,2,N,0,right,0.632917870010715,1,0,,,,,,,,,,,,,,,,,,,,,1,,,,,,,,,,,,,,,,,,,,,,,,,,,,,,,,,,,,,,,,,,,,,,99,145813,22,Female,1,2024/03/18_14:53:49,YZ,None,
,,,,,,practice,0,21,3,250,3,F,0,right,0.8098833000112791,1,0,,,,,,,,,,,,,,,,,,,,,1,,,,,,,,,,,,,,,,,,,,,,,,,,,,,,,,,,,,,,,,,,,,,,99,145813,22,Female,1,2024/03/18_14:53:49,YZ,None,
,,,,,,practice,0,21,3,250,4,X,0,right,1.1125722370052245,1,0,,,,,,,,,,,,,,,,,,,,,1,,,,,,,,,,,,,,,,,,,,,,,,,,,,,,,,,,,,,,,,,,,,,,99,145813,22,Female,1,2024/03/18_14:53:49,YZ,None,
,,,,,,practice,0,21,3,250,5,N,1,right,9.544169442990096,0,0,,,,,,,,,,,,,,,,,,,,,1,,,,,,,,,,,,,,,,,,,,,,,,,,,,,,,,,,,,,,,,,,,,,,99,145813,22,Female,1,2024/03/18_14:53:49,YZ,None,
,,,,,,practice,0,21,3,250,6,Q,0,right,9.431681977992412,1,0,,,,,,,,,,,,,,,,,,,,,1,,,,,,,,,,,,,,,,,,,,,,,,,,,,,,,,,,,,,,,,,,,,,,99,145813,22,Female,1,2024/03/18_14:53:49,YZ,None,
,,,,,,practice,0,21,3,250,7,V,0,left,5.5529605119954795,0,0,,,,,,,,,,,,,,,,,,,,,1,,,,,,,,,,,,,,,,,,,,,,,,,,,,,,,,,,,,,,,,,,,,,,99,145813,22,Female,1,2024/03/18_14:53:49,YZ,None,
,,,,,,practice,0,21,3,250,8,X,0,left,1.7664108180033509,0,0,,,,,,,,,,,,,,,,,,,,,1,,,,,,,,,,,,,,,,,,,,,,,,,,,,,,,,,,,,,,,,,,,,,,99,145813,22,Female,1,2024/03/18_14:53:49,YZ,None,
,,,,,,practice,0,21,3,250,9,F,0,right,4.8080758639844134,1,0,,,,,,,,,,,,,,,,,,,,,1,,,,,,,,,,,,,,,,,,,,,,,,,,,,,,,,,,,,,,,,,,,,,,99,145813,22,Female,1,2024/03/18_14:53:49,YZ,None,
,,,,,,practice,0,21,3,250,10,V,1,left,8.660521231009625,1,0,,,,,,,,,,,,,,,,,,,,,1,,,,,,,,,,,,,,,,,,,,,,,,,,,,,,,,,,,,,,,,,,,,,,99,145813,22,Female,1,2024/03/18_14:53:49,YZ,None,
,,,,,,practice,0,21,3,250,11,J,0,right,4.519298592989799,1,0,,,,,,,,,,,,,,,,,,,,,1,,,,,,,,,,,,,,,,,,,,,,,,,,,,,,,,,,,,,,,,,,,,,,99,145813,22,Female,1,2024/03/18_14:53:49,YZ,None,
,,,,,,practice,0,21,3,250,12,X,0,left,1.2010268770100083,0,0,,,,,,,,,,,,,,,,,,,,,1,,,,,,,,,,,,,,,,,,,,,,,,,,,,,,,,,,,,,,,,,,,,,,99,145813,22,Female,1,2024/03/18_14:53:49,YZ,None,
,,,,,,practice,0,21,3,250,13,V,1,right,2.451983921986539,0,0,,,,,,,,,,,,,,,,,,,,,1,,,,,,,,,,,,,,,,,,,,,,,,,,,,,,,,,,,,,,,,,,,,,,99,145813,22,Female,1,2024/03/18_14:53:49,YZ,None,
,,,,,,practice,0,21,3,250,14,J,1,left,2.5083132869913243,1,0,,,,,,,,,,,,,,,,,,,,,1,,,,,,,,,,,,,,,,,,,,,,,,,,,,,,,,,,,,,,,,,,,,,,99,145813,22,Female,1,2024/03/18_14:53:49,YZ,None,
,,,,,,practice,0,21,3,250,15,Q,0,right,2.109166850015754,1,0,,,,,,,,,,,,,,,,,,,,,1,,,,,,,,,,,,,,,,,,,,,,,,,,,,,,,,,,,,,,,,,,,,,,99,145813,22,Female,1,2024/03/18_14:53:49,YZ,None,
,,,,,,practice,0,21,3,250,16,V,1,left,1.6337700659933034,1,0,,,,,,,,,,,,,,,,,,,,,1,,,,,,,,,,,,,,,,,,,,,,,,,,,,,,,,,,,,,,,,,,,,,,99,145813,22,Female,1,2024/03/18_14:53:49,YZ,None,
,,,,,,practice,0,21,3,250,17,J,1,right,2.336909386998741,0,0,,,,,,,,,,,,,,,,,,,,,1,,,,,,,,,,,,,,,,,,,,,,,,,,,,,,,,,,,,,,,,,,,,,,99,145813,22,Female,1,2024/03/18_14:53:49,YZ,None,
,,,,,,practice,0,21,3,250,18,X,0,left,1.3120501340017654,0,0,,,,,,,,,,,,,,,,,,,,,1,,,,,,,,,,,,,,,,,,,,,,,,,,,,,,,,,,,,,,,,,,,,,,99,145813,22,Female,1,2024/03/18_14:53:49,YZ,None,
,,,,,,practice,0,21,3,250,19,Q,0,right,3.837047092994908,1,0,,,,,,,,,,,,,,,,,,,,,1,,,,,,,,,,,,,,,,,,,,,,,,,,,,,,,,,,,,,,,,,,,,,,99,145813,22,Female,1,2024/03/18_14:53:49,YZ,None,
,,,,,,practice,0,21,3,250,20,F,0,left,2.072045452980092,0,0,,,,,,,,,,,,,,,,,,,,,1,,,,,,,,,,,,,,,,,,,,,,,,,,,,,,,,,,,,,,,,,,,,,,99,145813,22,Female,1,2024/03/18_14:53:49,YZ,None,
,,,,,,practice,0,21,3,250,,,,,,,,0.6071428571428571,0.5,0.35714285714285715,0.6428571428571429,0.0,0.6428571428571428,3.360452754849393,3,5,0,0,0,9,12,6,14,0,,,,1,,,,,,,,,,,,,,,,,,,,,,,,,,,,,,,,,,,,,,,,,,,,,,99,145813,22,Female,1,2024/03/18_14:53:49,YZ,None,
,,,,,,practice,0,35,3,250,1,S,0,right,3.607304691016907,1,0,,,,,,,,,,,,,,,,,,,,,1,,,,,,,,,,,,,,,,,,,,,,,,,,,,,,,,,,,,,,,,,,,,,,99,145813,22,Female,1,2024/03/18_14:53:49,YZ,None,
,,,,,,practice,0,35,3,250,2,F,0,right,2.4742763840185944,1,0,,,,,,,,,,,,,,,,,,,,,1,,,,,,,,,,,,,,,,,,,,,,,,,,,,,,,,,,,,,,,,,,,,,,99,145813,22,Female,1,2024/03/18_14:53:49,YZ,None,
,,,,,,practice,0,35,3,250,3,J,0,right,2.431939902016893,1,0,,,,,,,,,,,,,,,,,,,,,1,,,,,,,,,,,,,,,,,,,,,,,,,,,,,,,,,,,,,,,,,,,,,,99,145813,22,Female,1,2024/03/18_14:53:49,YZ,None,
,,,,,,practice,0,35,3,250,4,S,1,left,0.9571224139945116,1,0,,,,,,,,,,,,,,,,,,,,,1,,,,,,,,,,,,,,,,,,,,,,,,,,,,,,,,,,,,,,,,,,,,,,99,145813,22,Female,1,2024/03/18_14:53:49,YZ,None,
,,,,,,practice,0,35,3,250,5,X,0,right,10.762909184995806,1,0,,,,,,,,,,,,,,,,,,,,,1,,,,,,,,,,,,,,,,,,,,,,,,,,,,,,,,,,,,,,,,,,,,,,99,145813,22,Female,1,2024/03/18_14:53:49,YZ,None,
,,,,,,practice,0,35,3,250,6,X,0,right,3.079740071989363,1,0,,,,,,,,,,,,,,,,,,,,,1,,,,,,,,,,,,,,,,,,,,,,,,,,,,,,,,,,,,,,,,,,,,,,99,145813,22,Female,1,2024/03/18_14:53:49,YZ,None,
,,,,,,practice,0,35,3,250,7,S,1,right,8.268605657998705,0,0,,,,,,,,,,,,,,,,,,,,,1,,,,,,,,,,,,,,,,,,,,,,,,,,,,,,,,,,,,,,,,,,,,,,99,145813,22,Female,1,2024/03/18_14:53:49,YZ,None,
,,,,,,practice,0,35,3,250,8,N,0,right,5.52252583601512,1,0,,,,,,,,,,,,,,,,,,,,,1,,,,,,,,,,,,,,,,,,,,,,,,,,,,,,,,,,,,,,,,,,,,,,99,145813,22,Female,1,2024/03/18_14:53:49,YZ,None,
,,,,,,practice,0,35,3,250,9,X,1,left,2.4653214360005222,1,0,,,,,,,,,,,,,,,,,,,,,1,,,,,,,,,,,,,,,,,,,,,,,,,,,,,,,,,,,,,,,,,,,,,,99,145813,22,Female,1,2024/03/18_14:53:49,YZ,None,
,,,,,,practice,0,35,3,250,10,F,0,right,3.0925098480074666,1,0,,,,,,,,,,,,,,,,,,,,,1,,,,,,,,,,,,,,,,,,,,,,,,,,,,,,,,,,,,,,,,,,,,,,99,145813,22,Female,1,2024/03/18_14:53:49,YZ,None,
,,,,,,practice,0,35,3,250,11,C,0,right,6.131844833987998,1,0,,,,,,,,,,,,,,,,,,,,,1,,,,,,,,,,,,,,,,,,,,,,,,,,,,,,,,,,,,,,,,,,,,,,99,145813,22,Female,1,2024/03/18_14:53:49,YZ,None,
,,,,,,practice,0,35,3,250,12,Q,0,right,2.357254806003766,1,0,,,,,,,,,,,,,,,,,,,,,1,,,,,,,,,,,,,,,,,,,,,,,,,,,,,,,,,,,,,,,,,,,,,,99,145813,22,Female,1,2024/03/18_14:53:49,YZ,None,
,,,,,,practice,0,35,3,250,13,Q,0,right,7.992313290014863,1,0,,,,,,,,,,,,,,,,,,,,,1,,,,,,,,,,,,,,,,,,,,,,,,,,,,,,,,,,,,,,,,,,,,,,99,145813,22,Female,1,2024/03/18_14:53:49,YZ,None,
,,,,,,practice,0,35,3,250,14,X,0,right,4.591685113002313,1,0,,,,,,,,,,,,,,,,,,,,,1,,,,,,,,,,,,,,,,,,,,,,,,,,,,,,,,,,,,,,,,,,,,,,99,145813,22,Female,1,2024/03/18_14:53:49,YZ,None,
,,,,,,practice,0,35,3,250,15,X,0,right,3.49393976200372,1,0,,,,,,,,,,,,,,,,,,,,,1,,,,,,,,,,,,,,,,,,,,,,,,,,,,,,,,,,,,,,,,,,,,,,99,145813,22,Female,1,2024/03/18_14:53:49,YZ,None,
,,,,,,practice,0,35,3,250,16,Q,1,left,3.481234964012401,1,0,,,,,,,,,,,,,,,,,,,,,1,,,,,,,,,,,,,,,,,,,,,,,,,,,,,,,,,,,,,,,,,,,,,,99,145813,22,Female,1,2024/03/18_14:53:49,YZ,None,
,,,,,,practice,0,35,3,250,17,X,1,left,12.309458746982273,1,0,,,,,,,,,,,,,,,,,,,,,1,,,,,,,,,,,,,,,,,,,,,,,,,,,,,,,,,,,,,,,,,,,,,,99,145813,22,Female,1,2024/03/18_14:53:49,YZ,None,
,,,,,,practice,0,35,3,250,18,F,0,right,7.372415982012171,1,0,,,,,,,,,,,,,,,,,,,,,1,,,,,,,,,,,,,,,,,,,,,,,,,,,,,,,,,,,,,,,,,,,,,,99,145813,22,Female,1,2024/03/18_14:53:49,YZ,None,
,,,,,,practice,0,35,3,250,19,C,0,right,4.792362103005871,1,0,,,,,,,,,,,,,,,,,,,,,1,,,,,,,,,,,,,,,,,,,,,,,,,,,,,,,,,,,,,,,,,,,,,,99,145813,22,Female,1,2024/03/18_14:53:49,YZ,None,
,,,,,,practice,0,35,3,250,20,S,0,right,4.009245788998669,1,0,,,,,,,,,,,,,,,,,,,,,1,,,,,,,,,,,,,,,,,,,,,,,,,,,,,,,,,,,,,,,,,,,,,,99,145813,22,Female,1,2024/03/18_14:53:49,YZ,None,
,,,,,,practice,0,35,3,250,,,,,,,,0.95,0.8,0.0,1.0,0.0,1.0,4.9597005408038966,4,0,0,0,0,15,19,5,15,0,,,,1,,,,,,,,,,,,,,,,,,,,,,,,,,,,,,,,,,,,,,,,,,,,,,99,145813,22,Female,1,2024/03/18_14:53:49,YZ,None,
1,./instructions/inst_prac_main/Slide51.png,right,4.228347632015357,844.5003481769818,848.7286958089971,,,,,,,,,,,,,,,,,,,,,,,,,,,,,,,,,1,,,,,,,,,,,,,,,,,,,,,,,,,,,,,,,,,,,,,,,,,,,,,,99,145813,22,Female,1,2024/03/18_14:53:49,YZ,None,
2,./instructions/inst_prac_main/Slide52.png,right,19.41083778400207,848.7580568999983,868.1688946840004,,,,,,,,,,,,,,,,,,,,,,,,,,,,,,,,,1,,,,,,,,,,,,,,,,,,,,,,,,,,,,,,,,,,,,,,,,,,,,,,99,145813,22,Female,1,2024/03/18_14:53:49,YZ,None,
1,./instructions/inst_prac_main/Slide53.png,left,5.2454672919993754,868.1953440959915,873.4408113879908,,,,,,,,,,,,,,,,,,,,,,,,,,,,,,,,,1,,,,,,,,,,,,,,,,,,,,,,,,,,,,,,,,,,,,,,,,,,,,,,99,145813,22,Female,1,2024/03/18_14:53:49,YZ,None,
0,./instructions/inst_prac_main/Slide52.png,left,0.20064121100585908,873.4636801589804,873.6643213699863,,,,,,,,,,,,,,,,,,,,,,,,,,,,,,,,,1,,,,,,,,,,,,,,,,,,,,,,,,,,,,,,,,,,,,,,,,,,,,,,99,145813,22,Female,1,2024/03/18_14:53:49,YZ,None,
-1,./instructions/inst_prac_main/Slide51.png,left,0.2003622420015745,873.6836383629998,873.8840006050013,,,,,,,,,,,,,,,,,,,,,,,,,,,,,,,,,1,,,,,,,,,,,,,,,,,,,,,,,,,,,,,,,,,,,,,,,,,,,,,,99,145813,22,Female,1,2024/03/18_14:53:49,YZ,None,
-2,./instructions/inst_prac_main/Slide54.png,left,0.20042685299995355,873.9069998220075,874.1074266750074,,,,,,,,,,,,,,,,,,,,,,,,,,,,,,,,,1,,,,,,,,,,,,,,,,,,,,,,,,,,,,,,,,,,,,,,,,,,,,,,99,145813,22,Female,1,2024/03/18_14:53:49,YZ,None,
-3,./instructions/inst_prac_main/Slide53.png,left,0.2004717089876067,874.1300170299946,874.3304887389822,,,,,,,,,,,,,,,,,,,,,,,,,,,,,,,,,1,,,,,,,,,,,,,,,,,,,,,,,,,,,,,,,,,,,,,,,,,,,,,,99,145813,22,Female,1,2024/03/18_14:53:49,YZ,None,
-4,./instructions/inst_prac_main/Slide52.png,left,0.2003951239748858,874.3536876550061,874.554082778981,,,,,,,,,,,,,,,,,,,,,,,,,,,,,,,,,1,,,,,,,,,,,,,,,,,,,,,,,,,,,,,,,,,,,,,,,,,,,,,,99,145813,22,Female,1,2024/03/18_14:53:49,YZ,None,
,,,,,,practice_main,0,1,1,250,1,Q,0,None,nan,0,1,,,,,,,,,,,,,,,,,,,,,1,,,,,,,,,,,,,,,,,,,,,,,,,,,,,,,,,,,,,,,,,,,,,,99,145813,22,Female,1,2024/03/18_14:53:49,YZ,None,
,,,,,,practice_main,0,1,1,250,2,X,0,None,nan,0,1,,,,,,,,,,,,,,,,,,,,,1,,,,,,,,,,,,,,,,,,,,,,,,,,,,,,,,,,,,,,,,,,,,,,99,145813,22,Female,1,2024/03/18_14:53:49,YZ,None,
,,,,,,practice_main,0,1,1,250,3,Q,0,None,nan,0,1,,,,,,,,,,,,,,,,,,,,,1,,,,,,,,,,,,,,,,,,,,,,,,,,,,,,,,,,,,,,,,,,,,,,99,145813,22,Female,1,2024/03/18_14:53:49,YZ,None,
,,,,,,practice_main,0,1,1,250,4,N,0,None,nan,0,1,,,,,,,,,,,,,,,,,,,,,1,,,,,,,,,,,,,,,,,,,,,,,,,,,,,,,,,,,,,,,,,,,,,,99,145813,22,Female,1,2024/03/18_14:53:49,YZ,None,
,,,,,,practice_main,0,1,1,250,5,S,0,None,nan,0,1,,,,,,,,,,,,,,,,,,,,,1,,,,,,,,,,,,,,,,,,,,,,,,,,,,,,,,,,,,,,,,,,,,,,99,145813,22,Female,1,2024/03/18_14:53:49,YZ,None,
,,,,,,practice_main,0,1,1,250,6,S,1,None,nan,0,1,,,,,,,,,,,,,,,,,,,,,1,,,,,,,,,,,,,,,,,,,,,,,,,,,,,,,,,,,,,,,,,,,,,,99,145813,22,Female,1,2024/03/18_14:53:49,YZ,None,
,,,,,,practice_main,0,1,1,250,7,X,0,None,nan,0,1,,,,,,,,,,,,,,,,,,,,,1,,,,,,,,,,,,,,,,,,,,,,,,,,,,,,,,,,,,,,,,,,,,,,99,145813,22,Female,1,2024/03/18_14:53:49,YZ,None,
,,,,,,practice_main,0,1,1,250,8,S,0,None,nan,0,1,,,,,,,,,,,,,,,,,,,,,1,,,,,,,,,,,,,,,,,,,,,,,,,,,,,,,,,,,,,,,,,,,,,,99,145813,22,Female,1,2024/03/18_14:53:49,YZ,None,
,,,,,,practice_main,0,1,1,250,9,F,0,right,0.0,1,0,,,,,,,,,,,,,,,,,,,,,1,,,,,,,,,,,,,,,,,,,,,,,,,,,,,,,,,,,,,,,,,,,,,,99,145813,22,Female,1,2024/03/18_14:53:49,YZ,None,
,,,,,,practice_main,0,1,1,250,10,N,0,right,nan,0,1,,,,,,,,,,,,,,,,,,,,,1,,,,,,,,,,,,,,,,,,,,,,,,,,,,,,,,,,,,,,,,,,,,,,99,145813,22,Female,1,2024/03/18_14:53:49,YZ,None,
,,,,,,practice_main,0,1,1,250,11,N,1,right,nan,0,1,,,,,,,,,,,,,,,,,,,,,1,,,,,,,,,,,,,,,,,,,,,,,,,,,,,,,,,,,,,,,,,,,,,,99,145813,22,Female,1,2024/03/18_14:53:49,YZ,None,
,,,,,,practice_main,0,1,1,250,12,X,0,right,nan,0,1,,,,,,,,,,,,,,,,,,,,,1,,,,,,,,,,,,,,,,,,,,,,,,,,,,,,,,,,,,,,,,,,,,,,99,145813,22,Female,1,2024/03/18_14:53:49,YZ,None,
,,,,,,practice_main,0,1,1,250,13,V,0,right,nan,0,1,,,,,,,,,,,,,,,,,,,,,1,,,,,,,,,,,,,,,,,,,,,,,,,,,,,,,,,,,,,,,,,,,,,,99,145813,22,Female,1,2024/03/18_14:53:49,YZ,None,
,,,,,,practice_main,0,1,1,250,14,V,1,right,nan,0,1,,,,,,,,,,,,,,,,,,,,,1,,,,,,,,,,,,,,,,,,,,,,,,,,,,,,,,,,,,,,,,,,,,,,99,145813,22,Female,1,2024/03/18_14:53:49,YZ,None,
,,,,,,practice_main,0,1,1,250,15,Q,0,right,nan,0,1,,,,,,,,,,,,,,,,,,,,,1,,,,,,,,,,,,,,,,,,,,,,,,,,,,,,,,,,,,,,,,,,,,,,99,145813,22,Female,1,2024/03/18_14:53:49,YZ,None,
,,,,,,practice_main,0,1,1,250,16,C,0,right,nan,0,1,,,,,,,,,,,,,,,,,,,,,1,,,,,,,,,,,,,,,,,,,,,,,,,,,,,,,,,,,,,,,,,,,,,,99,145813,22,Female,1,2024/03/18_14:53:49,YZ,None,
,,,,,,practice_main,0,1,1,250,17,Q,0,right,0.9086422190011945,1,0,,,,,,,,,,,,,,,,,,,,,1,,,,,,,,,,,,,,,,,,,,,,,,,,,,,,,,,,,,,,,,,,,,,,99,145813,22,Female,1,2024/03/18_14:53:49,YZ,None,
,,,,,,practice_main,0,1,1,250,18,Q,1,right,nan,0,1,,,,,,,,,,,,,,,,,,,,,1,,,,,,,,,,,,,,,,,,,,,,,,,,,,,,,,,,,,,,,,,,,,,,99,145813,22,Female,1,2024/03/18_14:53:49,YZ,None,
,,,,,,practice_main,0,1,1,250,19,F,0,right,0.9758309410244692,1,0,,,,,,,,,,,,,,,,,,,,,1,,,,,,,,,,,,,,,,,,,,,,,,,,,,,,,,,,,,,,,,,,,,,,99,145813,22,Female,1,2024/03/18_14:53:49,YZ,None,
,,,,,,practice_main,0,1,1,250,20,F,1,right,0.6185442130081356,0,0,,,,,,,,,,,,,,,,,,,,,1,,,,,,,,,,,,,,,,,,,,,,,,,,,,,,,,,,,,,,,,,,,,,,99,145813,22,Female,1,2024/03/18_14:53:49,YZ,None,
,,,,,,practice_main,0,1,1,250,,,,,,,,0.5,0.0,0.0,1.0,0.8,0.19999999999999996,0.6257543432584498,0,0,4,12,16,3,3,5,15,0,,,,1,,,,,,,,,,,,,,,,,,,,,,,,,,,,,,,,,,,,,,,,,,,,,,99,145813,22,Female,1,2024/03/18_14:53:49,YZ,None,
,,,,,240318_151334,PRACTICE,0,1,1,250,,,,,,,,,,,,,,,,,,,,,,,,,,,,1,47,1,1,cue1.png,easy,A,0,2.5585083680052776,0,877.611696234002,880.1978796439944,,,,,,,,,,,,,,,,,,,,,,,,,,,,,,,,,,,99,145813,22,Female,1,2024/03/18_14:53:49,YZ,None,
,,,,,,practice_main,0,2,3,250,1,Q,0,None,nan,0,1,,,,,,,,,,,,,,,,,,,,,1,,,,,,,,,,,,,,,,,,,,,,,,,,,,,,,,,,,,,,,,,,,,,,99,145813,22,Female,1,2024/03/18_14:53:49,YZ,None,
,,,,,,practice_main,0,2,3,250,2,N,0,None,nan,0,1,,,,,,,,,,,,,,,,,,,,,1,,,,,,,,,,,,,,,,,,,,,,,,,,,,,,,,,,,,,,,,,,,,,,99,145813,22,Female,1,2024/03/18_14:53:49,YZ,None,
,,,,,,practice_main,0,2,3,250,3,N,0,None,nan,0,1,,,,,,,,,,,,,,,,,,,,,1,,,,,,,,,,,,,,,,,,,,,,,,,,,,,,,,,,,,,,,,,,,,,,99,145813,22,Female,1,2024/03/18_14:53:49,YZ,None,
,,,,,,practice_main,0,2,3,250,4,Q,1,None,nan,0,1,,,,,,,,,,,,,,,,,,,,,1,,,,,,,,,,,,,,,,,,,,,,,,,,,,,,,,,,,,,,,,,,,,,,99,145813,22,Female,1,2024/03/18_14:53:49,YZ,None,
,,,,,,practice_main,0,2,3,250,5,C,0,None,nan,0,1,,,,,,,,,,,,,,,,,,,,,1,,,,,,,,,,,,,,,,,,,,,,,,,,,,,,,,,,,,,,,,,,,,,,99,145813,22,Female,1,2024/03/18_14:53:49,YZ,None,
,,,,,,practice_main,0,2,3,250,6,C,0,left,0.8918253350129817,0,0,,,,,,,,,,,,,,,,,,,,,1,,,,,,,,,,,,,,,,,,,,,,,,,,,,,,,,,,,,,,,,,,,,,,99,145813,22,Female,1,2024/03/18_14:53:49,YZ,None,
,,,,,,practice_main,0,2,3,250,7,S,0,left,0.9927307420002762,0,0,,,,,,,,,,,,,,,,,,,,,1,,,,,,,,,,,,,,,,,,,,,,,,,,,,,,,,,,,,,,,,,,,,,,99,145813,22,Female,1,2024/03/18_14:53:49,YZ,None,
,,,,,,practice_main,0,2,3,250,8,S,0,left,nan,0,1,,,,,,,,,,,,,,,,,,,,,1,,,,,,,,,,,,,,,,,,,,,,,,,,,,,,,,,,,,,,,,,,,,,,99,145813,22,Female,1,2024/03/18_14:53:49,YZ,None,
,,,,,,practice_main,0,2,3,250,9,N,0,right,0.37120189701090567,1,0,,,,,,,,,,,,,,,,,,,,,1,,,,,,,,,,,,,,,,,,,,,,,,,,,,,,,,,,,,,,,,,,,,,,99,145813,22,Female,1,2024/03/18_14:53:49,YZ,None,
,,,,,,practice_main,0,2,3,250,10,S,1,left,0.6499288130144123,1,0,,,,,,,,,,,,,,,,,,,,,1,,,,,,,,,,,,,,,,,,,,,,,,,,,,,,,,,,,,,,,,,,,,,,99,145813,22,Female,1,2024/03/18_14:53:49,YZ,None,
,,,,,,practice_main,0,2,3,250,11,Q,0,right,0.34209207398816943,1,0,,,,,,,,,,,,,,,,,,,,,1,,,,,,,,,,,,,,,,,,,,,,,,,,,,,,,,,,,,,,,,,,,,,,99,145813,22,Female,1,2024/03/18_14:53:49,YZ,None,
,,,,,,practice_main,0,2,3,250,12,S,0,left,0.9968886400165502,0,0,,,,,,,,,,,,,,,,,,,,,1,,,,,,,,,,,,,,,,,,,,,,,,,,,,,,,,,,,,,,,,,,,,,,99,145813,22,Female,1,2024/03/18_14:53:49,YZ,None,
,,,,,,practice_main,0,2,3,250,13,S,1,right,0.8258855370222591,0,0,,,,,,,,,,,,,,,,,,,,,1,,,,,,,,,,,,,,,,,,,,,,,,,,,,,,,,,,,,,,,,,,,,,,99,145813,22,Female,1,2024/03/18_14:53:49,YZ,None,
,,,,,,practice_main,0,2,3,250,14,V,0,left,0.7262981880048756,0,0,,,,,,,,,,,,,,,,,,,,,1,,,,,,,,,,,,,,,,,,,,,,,,,,,,,,,,,,,,,,,,,,,,,,99,145813,22,Female,1,2024/03/18_14:53:49,YZ,None,
,,,,,,practice_main,0,2,3,250,15,Q,0,right,0.8980675580096431,1,0,,,,,,,,,,,,,,,,,,,,,1,,,,,,,,,,,,,,,,,,,,,,,,,,,,,,,,,,,,,,,,,,,,,,99,145813,22,Female,1,2024/03/18_14:53:49,YZ,None,
,,,,,,practice_main,0,2,3,250,16,S,1,right,nan,0,1,,,,,,,,,,,,,,,,,,,,,1,,,,,,,,,,,,,,,,,,,,,,,,,,,,,,,,,,,,,,,,,,,,,,99,145813,22,Female,1,2024/03/18_14:53:49,YZ,None,
,,,,,,practice_main,0,2,3,250,17,V,1,right,0.782927218999248,0,0,,,,,,,,,,,,,,,,,,,,,1,,,,,,,,,,,,,,,,,,,,,,,,,,,,,,,,,,,,,,,,,,,,,,99,145813,22,Female,1,2024/03/18_14:53:49,YZ,None,
,,,,,,practice_main,0,2,3,250,18,N,0,right,0.598512024997035,1,0,,,,,,,,,,,,,,,,,,,,,1,,,,,,,,,,,,,,,,,,,,,,,,,,,,,,,,,,,,,,,,,,,,,,99,145813,22,Female,1,2024/03/18_14:53:49,YZ,None,
,,,,,,practice_main,0,2,3,250,19,J,0,right,0.45281121600419283,1,0,,,,,,,,,,,,,,,,,,,,,1,,,,,,,,,,,,,,,,,,,,,,,,,,,,,,,,,,,,,,,,,,,,,,99,145813,22,Female,1,2024/03/18_14:53:49,YZ,None,
,,,,,,practice_main,0,2,3,250,20,S,0,right,0.6013598730205558,1,0,,,,,,,,,,,,,,,,,,,,,1,,,,,,,,,,,,,,,,,,,,,,,,,,,,,,,,,,,,,,,,,,,,,,99,145813,22,Female,1,2024/03/18_14:53:49,YZ,None,
,,,,,,practice_main,0,2,3,250,,,,,,,,0.04583333333333334,0.2,0.26666666666666666,0.6,0.35,0.3833333333333334,0.7023483936231619,1,4,2,5,7,6,7,5,15,0,,,,1,,,,,,,,,,,,,,,,,,,,,,,,,,,,,,,,,,,,,,,,,,,,,,99,145813,22,Female,1,2024/03/18_14:53:49,YZ,None,
,,,,,240318_151412,PRACTICE,0,2,3,250,,,,,,,,,,,,,,,,,,,,,,,,,,,,1,36,2,2,cue2.png,hard,A,0,2.290624129003845,0,918.4347869949997,920.7419200139993,,,,,,,,,,,,,,,,,,,,,,,,,,,,,,,,,,,99,145813,22,Female,1,2024/03/18_14:53:49,YZ,None,
,,,,,,practice_main,0,3,3,250,1,N,0,right,0.6886497139930725,1,0,,,,,,,,,,,,,,,,,,,,,1,,,,,,,,,,,,,,,,,,,,,,,,,,,,,,,,,,,,,,,,,,,,,,99,145813,22,Female,1,2024/03/18_14:53:49,YZ,None,
,,,,,,practice_main,0,3,3,250,2,S,0,right,0.9049518569954671,1,0,,,,,,,,,,,,,,,,,,,,,1,,,,,,,,,,,,,,,,,,,,,,,,,,,,,,,,,,,,,,,,,,,,,,99,145813,22,Female,1,2024/03/18_14:53:49,YZ,None,
,,,,,,practice_main,0,3,3,250,3,N,0,right,nan,0,1,,,,,,,,,,,,,,,,,,,,,1,,,,,,,,,,,,,,,,,,,,,,,,,,,,,,,,,,,,,,,,,,,,,,99,145813,22,Female,1,2024/03/18_14:53:49,YZ,None,
,,,,,,practice_main,0,3,3,250,4,Q,0,right,nan,0,1,,,,,,,,,,,,,,,,,,,,,1,,,,,,,,,,,,,,,,,,,,,,,,,,,,,,,,,,,,,,,,,,,,,,99,145813,22,Female,1,2024/03/18_14:53:49,YZ,None,
,,,,,,practice_main,0,3,3,250,5,F,0,right,0.624559402000159,1,0,,,,,,,,,,,,,,,,,,,,,1,,,,,,,,,,,,,,,,,,,,,,,,,,,,,,,,,,,,,,,,,,,,,,99,145813,22,Female,1,2024/03/18_14:53:49,YZ,None,
,,,,,,practice_main,0,3,3,250,6,S,0,right,0.6371135690133087,1,0,,,,,,,,,,,,,,,,,,,,,1,,,,,,,,,,,,,,,,,,,,,,,,,,,,,,,,,,,,,,,,,,,,,,99,145813,22,Female,1,2024/03/18_14:53:49,YZ,None,
,,,,,,practice_main,0,3,3,250,7,N,0,right,0.7471294999995735,1,0,,,,,,,,,,,,,,,,,,,,,1,,,,,,,,,,,,,,,,,,,,,,,,,,,,,,,,,,,,,,,,,,,,,,99,145813,22,Female,1,2024/03/18_14:53:49,YZ,None,
,,,,,,practice_main,0,3,3,250,8,Q,0,right,nan,0,1,,,,,,,,,,,,,,,,,,,,,1,,,,,,,,,,,,,,,,,,,,,,,,,,,,,,,,,,,,,,,,,,,,,,99,145813,22,Female,1,2024/03/18_14:53:49,YZ,None,
,,,,,,practice_main,0,3,3,250,9,J,0,right,0.741172855021432,1,0,,,,,,,,,,,,,,,,,,,,,1,,,,,,,,,,,,,,,,,,,,,,,,,,,,,,,,,,,,,,,,,,,,,,99,145813,22,Female,1,2024/03/18_14:53:49,YZ,None,
,,,,,,practice_main,0,3,3,250,10,N,1,left,0.6718606229987927,1,0,,,,,,,,,,,,,,,,,,,,,1,,,,,,,,,,,,,,,,,,,,,,,,,,,,,,,,,,,,,,,,,,,,,,99,145813,22,Female,1,2024/03/18_14:53:49,YZ,None,
,,,,,,practice_main,0,3,3,250,11,Q,1,right,0.6245651129866019,0,0,,,,,,,,,,,,,,,,,,,,,1,,,,,,,,,,,,,,,,,,,,,,,,,,,,,,,,,,,,,,,,,,,,,,99,145813,22,Female,1,2024/03/18_14:53:49,YZ,None,
,,,,,,practice_main,0,3,3,250,12,Q,0,right,0.8188285910000559,1,0,,,,,,,,,,,,,,,,,,,,,1,,,,,,,,,,,,,,,,,,,,,,,,,,,,,,,,,,,,,,,,,,,,,,99,145813,22,Female,1,2024/03/18_14:53:49,YZ,None,
,,,,,,practice_main,0,3,3,250,13,N,1,right,0.9446732420183253,0,0,,,,,,,,,,,,,,,,,,,,,1,,,,,,,,,,,,,,,,,,,,,,,,,,,,,,,,,,,,,,,,,,,,,,99,145813,22,Female,1,2024/03/18_14:53:49,YZ,None,
,,,,,,practice_main,0,3,3,250,14,Q,1,right,nan,0,1,,,,,,,,,,,,,,,,,,,,,1,,,,,,,,,,,,,,,,,,,,,,,,,,,,,,,,,,,,,,,,,,,,,,99,145813,22,Female,1,2024/03/18_14:53:49,YZ,None,
,,,,,,practice_main,0,3,3,250,15,J,0,right,0.6080095390207134,1,0,,,,,,,,,,,,,,,,,,,,,1,,,,,,,,,,,,,,,,,,,,,,,,,,,,,,,,,,,,,,,,,,,,,,99,145813,22,Female,1,2024/03/18_14:53:49,YZ,None,
,,,,,,practice_main,0,3,3,250,16,N,1,right,0.39729198301211,0,0,,,,,,,,,,,,,,,,,,,,,1,,,,,,,,,,,,,,,,,,,,,,,,,,,,,,,,,,,,,,,,,,,,,,99,145813,22,Female,1,2024/03/18_14:53:49,YZ,None,
,,,,,,practice_main,0,3,3,250,17,C,0,right,0.5299694550049026,1,0,,,,,,,,,,,,,,,,,,,,,1,,,,,,,,,,,,,,,,,,,,,,,,,,,,,,,,,,,,,,,,,,,,,,99,145813,22,Female,1,2024/03/18_14:53:49,YZ,None,
,,,,,,practice_main,0,3,3,250,18,S,0,right,0.41915728099411353,1,0,,,,,,,,,,,,,,,,,,,,,1,,,,,,,,,,,,,,,,,,,,,,,,,,,,,,,,,,,,,,,,,,,,,,99,145813,22,Female,1,2024/03/18_14:53:49,YZ,None,
,,,,,,practice_main,0,3,3,250,19,J,0,right,0.5652142890030518,1,0,,,,,,,,,,,,,,,,,,,,,1,,,,,,,,,,,,,,,,,,,,,,,,,,,,,,,,,,,,,,,,,,,,,,99,145813,22,Female,1,2024/03/18_14:53:49,YZ,None,
,,,,,,practice_main,0,3,3,250,20,Q,0,right,0.4687285679974593,1,0,,,,,,,,,,,,,,,,,,,,,1,,,,,,,,,,,,,,,,,,,,,,,,,,,,,,,,,,,,,,,,,,,,,,99,145813,22,Female,1,2024/03/18_14:53:49,YZ,None,
,,,,,,practice_main,0,3,3,250,,,,,,,,0.8,0.2,0.0,1.0,0.2,0.8,0.6494922238161962,1,0,1,3,4,12,13,5,15,0,,,,1,,,,,,,,,,,,,,,,,,,,,,,,,,,,,,,,,,,,,,,,,,,,,,99,145813,22,Female,1,2024/03/18_14:53:49,YZ,None,
,,,,,240318_151449,PRACTICE,0,3,3,250,,,,,,,,,,,,,,,,,,,,,,,,,,,,1,30,3,3,cue2.png,hard,A,0,2.9179455779958516,0,956.6129219519789,959.5565171219932,,,,,,,,,,,,,,,,,,,,,,,,,,,,,,,,,,,99,145813,22,Female,1,2024/03/18_14:53:49,YZ,None,
-1,./instructions/inst_prac_end/Slide56.png,left,63.87489726001513,992.1661533509905,1056.0410506110056,,,,,,,,,,,,,,,,,,,,,,,,,,,,,,,,,1,,,,,,,,,,,,,,,,,,,,,,,,,,,,,,,,,,,,,,,,,,,,,,99,145813,22,Female,1,2024/03/18_14:53:49,YZ,None,
1,./instructions/inst_test/Slide57.png,right,37.41201510699466,1056.0689428680053,1093.480957975,,,,,,,,,,,,,,,,,,,,,,,,,,,,,,,,,1,,,,,,,,,,,,,,,,,,,,,,,,,,,,,,,,,,,,,,,,,,,,,,99,145813,22,Female,1,2024/03/18_14:53:49,YZ,None,
,,,,,,test,1,1,1,250,1,F,0,right,0.923078320978675,1,0,,,,,,,,,,,,,,,,,,,,,1,,,,,,,,,,,,,,,,,,,,,,,,,,,,,,,,,,,,,,,,,,,,,,99,145813,22,Female,1,2024/03/18_14:53:49,YZ,None,
,,,,,,test,1,1,1,250,2,F,1,left,0.5124695630220231,1,0,,,,,,,,,,,,,,,,,,,,,1,,,,,,,,,,,,,,,,,,,,,,,,,,,,,,,,,,,,,,,,,,,,,,99,145813,22,Female,1,2024/03/18_14:53:49,YZ,None,
,,,,,,test,1,1,1,250,3,N,0,right,0.531156920013018,1,0,,,,,,,,,,,,,,,,,,,,,1,,,,,,,,,,,,,,,,,,,,,,,,,,,,,,,,,,,,,,,,,,,,,,99,145813,22,Female,1,2024/03/18_14:53:49,YZ,None,
,,,,,,test,1,1,1,250,4,F,0,right,0.877038786013145,1,0,,,,,,,,,,,,,,,,,,,,,1,,,,,,,,,,,,,,,,,,,,,,,,,,,,,,,,,,,,,,,,,,,,,,99,145813,22,Female,1,2024/03/18_14:53:49,YZ,None,
,,,,,,test,1,1,1,250,5,F,1,left,0.6353401749802288,1,0,,,,,,,,,,,,,,,,,,,,,1,,,,,,,,,,,,,,,,,,,,,,,,,,,,,,,,,,,,,,,,,,,,,,99,145813,22,Female,1,2024/03/18_14:53:49,YZ,None,
,,,,,,test,1,1,1,250,6,V,0,right,0.5416711379948538,1,0,,,,,,,,,,,,,,,,,,,,,1,,,,,,,,,,,,,,,,,,,,,,,,,,,,,,,,,,,,,,,,,,,,,,99,145813,22,Female,1,2024/03/18_14:53:49,YZ,None,
,,,,,,test,1,1,1,250,7,S,0,right,0.5495025340060238,1,0,,,,,,,,,,,,,,,,,,,,,1,,,,,,,,,,,,,,,,,,,,,,,,,,,,,,,,,,,,,,,,,,,,,,99,145813,22,Female,1,2024/03/18_14:53:49,YZ,None,
,,,,,,test,1,1,1,250,8,J,0,right,0.4531388650066219,1,0,,,,,,,,,,,,,,,,,,,,,1,,,,,,,,,,,,,,,,,,,,,,,,,,,,,,,,,,,,,,,,,,,,,,99,145813,22,Female,1,2024/03/18_14:53:49,YZ,None,
,,,,,,test,1,1,1,250,9,S,0,right,0.6804138160077855,1,0,,,,,,,,,,,,,,,,,,,,,1,,,,,,,,,,,,,,,,,,,,,,,,,,,,,,,,,,,,,,,,,,,,,,99,145813,22,Female,1,2024/03/18_14:53:49,YZ,None,
,,,,,,test,1,1,1,250,10,S,1,left,0.8210106909973547,1,0,,,,,,,,,,,,,,,,,,,,,1,,,,,,,,,,,,,,,,,,,,,,,,,,,,,,,,,,,,,,,,,,,,,,99,145813,22,Female,1,2024/03/18_14:53:49,YZ,None,
,,,,,,test,1,1,1,250,11,J,0,right,0.5391913600033149,1,0,,,,,,,,,,,,,,,,,,,,,1,,,,,,,,,,,,,,,,,,,,,,,,,,,,,,,,,,,,,,,,,,,,,,99,145813,22,Female,1,2024/03/18_14:53:49,YZ,None,
,,,,,,test,1,1,1,250,12,X,0,right,0.5453433009970468,1,0,,,,,,,,,,,,,,,,,,,,,1,,,,,,,,,,,,,,,,,,,,,,,,,,,,,,,,,,,,,,,,,,,,,,99,145813,22,Female,1,2024/03/18_14:53:49,YZ,None,
,,,,,,test,1,1,1,250,13,J,0,right,0.6483248060103506,1,0,,,,,,,,,,,,,,,,,,,,,1,,,,,,,,,,,,,,,,,,,,,,,,,,,,,,,,,,,,,,,,,,,,,,99,145813,22,Female,1,2024/03/18_14:53:49,YZ,None,
,,,,,,test,1,1,1,250,14,X,0,right,0.7245225959923118,1,0,,,,,,,,,,,,,,,,,,,,,1,,,,,,,,,,,,,,,,,,,,,,,,,,,,,,,,,,,,,,,,,,,,,,99,145813,22,Female,1,2024/03/18_14:53:49,YZ,None,
,,,,,,test,1,1,1,250,15,Q,0,right,0.5516343890049029,1,0,,,,,,,,,,,,,,,,,,,,,1,,,,,,,,,,,,,,,,,,,,,,,,,,,,,,,,,,,,,,,,,,,,,,99,145813,22,Female,1,2024/03/18_14:53:49,YZ,None,
,,,,,,test,1,1,1,250,16,J,0,right,0.40270417000283487,1,0,,,,,,,,,,,,,,,,,,,,,1,,,,,,,,,,,,,,,,,,,,,,,,,,,,,,,,,,,,,,,,,,,,,,99,145813,22,Female,1,2024/03/18_14:53:49,YZ,None,
,,,,,,test,1,1,1,250,17,C,0,right,0.525285267009167,1,0,,,,,,,,,,,,,,,,,,,,,1,,,,,,,,,,,,,,,,,,,,,,,,,,,,,,,,,,,,,,,,,,,,,,99,145813,22,Female,1,2024/03/18_14:53:49,YZ,None,
,,,,,,test,1,1,1,250,18,C,1,left,0.4181030089966953,1,0,,,,,,,,,,,,,,,,,,,,,1,,,,,,,,,,,,,,,,,,,,,,,,,,,,,,,,,,,,,,,,,,,,,,99,145813,22,Female,1,2024/03/18_14:53:49,YZ,None,
,,,,,,test,1,1,1,250,19,Q,0,right,0.40795652801170945,1,0,,,,,,,,,,,,,,,,,,,,,1,,,,,,,,,,,,,,,,,,,,,,,,,,,,,,,,,,,,,,,,,,,,,,99,145813,22,Female,1,2024/03/18_14:53:49,YZ,None,
,,,,,,test,1,1,1,250,20,Q,1,left,0.4328926269954536,1,0,,,,,,,,,,,,,,,,,,,,,1,,,,,,,,,,,,,,,,,,,,,,,,,,,,,,,,,,,,,,,,,,,,,,99,145813,22,Female,1,2024/03/18_14:53:49,YZ,None,
,,,,,,Test,1,1,1,250,,,,,,,,1.0,1.0,0.0,1.0,0.0,1.0,0.5860389431021759,5,0,0,0,0,15,20,5,15,0,,,,1,,,,,,,,,,,,,,,,,,,,,,,,,,,,,,,,,,,,,,,,,,,,,,99,145813,22,Female,1,2024/03/18_14:53:49,YZ,None,
,,,,,240318_151707,TEST,1,1,1,250,,,,,,,,,,,,,,,,,,,,,,,,,,,,1,1,1,1,cue1.png,easy,A,0,1.3603892259998247,0,1098.539207683003,1099.9209521879966,,,,,,,,,,,,,,,,,,,,,,,,,,,,,,,,,,,99,145813,22,Female,1,2024/03/18_14:53:49,YZ,None,
,,,,,,test,1,2,3,250,1,N,0,right,0.9988537129829638,1,0,,,,,,,,,,,,,,,,,,,,,1,,,,,,,,,,,,,,,,,,,,,,,,,,,,,,,,,,,,,,,,,,,,,,99,145813,22,Female,1,2024/03/18_14:53:49,YZ,None,
,,,,,,test,1,2,3,250,2,X,0,right,0.3132658039976377,1,0,,,,,,,,,,,,,,,,,,,,,1,,,,,,,,,,,,,,,,,,,,,,,,,,,,,,,,,,,,,,,,,,,,,,99,145813,22,Female,1,2024/03/18_14:53:49,YZ,None,
,,,,,,test,1,2,3,250,3,X,0,right,0.6250530159741174,1,0,,,,,,,,,,,,,,,,,,,,,1,,,,,,,,,,,,,,,,,,,,,,,,,,,,,,,,,,,,,,,,,,,,,,99,145813,22,Female,1,2024/03/18_14:53:49,YZ,None,
,,,,,,test,1,2,3,250,4,N,1,left,0.4494863459840417,1,0,,,,,,,,,,,,,,,,,,,,,1,,,,,,,,,,,,,,,,,,,,,,,,,,,,,,,,,,,,,,,,,,,,,,99,145813,22,Female,1,2024/03/18_14:53:49,YZ,None,
