Instruction,Stimulus,Key,RT,START,END,Phase,Block,TrialN,NbackLevel,ISI,LetterN,Letter,Letter_isSame,Letter_Resp,Letter_RT,Letter_Accuracy,Letter_Timeout,Trial_A_measure,Trial_HR,Trial_FAR,Trial_CDR,Trial_MSR,Trial_ACC,Trial_RT,Trial_HitsCount,Trial_FAsCount,Trial_SameNoRespCount,Trial_DiffNoRespCount,Trial_NoRespCount,Trial_CDsCount,Trial_CorrectRespCount,Trial_SameLetterCount,Trial_DiffLetterCount,Trial_InvalidLetterCount,TrialCountCali,CaliEnd_A_measure,ISI_calibrated,Run,TrialIndex,TrialNumber_total,TrialNumber_valid,CueLearning,TrialDemandLearning,CueMapping,OnlineRating,OnlineRatingRT,OnlineRatingTimeOut,CueSTART,RatingSTART,OfflineRatingTimePoint,OfflineRatingQuesIndex,CueFigure,TrialDemand,OfflineRating,OfflineRatingRT,CueStart,OfflineRatingStart,PhaseType,CueLeft,CueDemandLeft,CueRight,CueDemandRight,Choice,ChoiceDemand,TaskDemand,ChoiceRT,ChoiceTimeOut,ChoiceSTART,CueCheck,CueDemandCheck,CorrectAnswer,Answer,AnswerDemand,AnswerRT,AnswerACC,AnswerTimeOut,CheckSTART,DemandRatingQuesIndex,QuesTLX,DemandLevel,DemandRating,DemandRatingRT,QuesStart,PID,SONA,Age,Gender,Run,TIME,EXPERIMENTER,frameRate,
1,./instructions/inst_begin/Slide2.png,right,35.04733542900067,0.11635339799977373,35.16368882700044,,,,,,,,,,,,,,,,,,,,,,,,,,,,,,,,,1,,,,,,,,,,,,,,,,,,,,,,,,,,,,,,,,,,,,,,,,,,,,,,61,156442,19,Female,1,2024/02/15_16:42:54,JV,None,
2,./instructions/inst_begin/Slide3.png,right,5.403420711001672,35.19212705699829,40.59554776799996,,,,,,,,,,,,,,,,,,,,,,,,,,,,,,,,,1,,,,,,,,,,,,,,,,,,,,,,,,,,,,,,,,,,,,,,,,,,,,,,61,156442,19,Female,1,2024/02/15_16:42:54,JV,None,
3,./instructions/inst_begin/Slide4.png,right,1.3710207600015565,40.62454333699861,41.99556409700017,,,,,,,,,,,,,,,,,,,,,,,,,,,,,,,,,1,,,,,,,,,,,,,,,,,,,,,,,,,,,,,,,,,,,,,,,,,,,,,,61,156442,19,Female,1,2024/02/15_16:42:54,JV,None,
1,./instructions/inst_prac_2/Slide6.png,right,9.222391759001766,42.02904479299832,51.25143655200009,,,,,,,,,,,,,,,,,,,,,,,,,,,,,,,,,1,,,,,,,,,,,,,,,,,,,,,,,,,,,,,,,,,,,,,,,,,,,,,,61,156442,19,Female,1,2024/02/15_16:42:54,JV,None,
2,./instructions/inst_prac_2/Slide7.png,right,0.8511182820002432,51.280394450997846,52.13151273299809,,,,,,,,,,,,,,,,,,,,,,,,,,,,,,,,,1,,,,,,,,,,,,,,,,,,,,,,,,,,,,,,,,,,,,,,,,,,,,,,61,156442,19,Female,1,2024/02/15_16:42:54,JV,None,
3,./instructions/inst_prac_2/Slide8.png,right,1.0493300310008635,52.154295829997864,53.20362586099873,,,,,,,,,,,,,,,,,,,,,,,,,,,,,,,,,1,,,,,,,,,,,,,,,,,,,,,,,,,,,,,,,,,,,,,,,,,,,,,,61,156442,19,Female,1,2024/02/15_16:42:54,JV,None,
4,./instructions/inst_prac_2/Slide9.png,right,0.7314415690016176,53.232106741997995,53.96354831099961,,,,,,,,,,,,,,,,,,,,,,,,,,,,,,,,,1,,,,,,,,,,,,,,,,,,,,,,,,,,,,,,,,,,,,,,,,,,,,,,61,156442,19,Female,1,2024/02/15_16:42:54,JV,None,
5,./instructions/inst_prac_2/Slide10.png,right,0.48564514700046857,53.98985099999845,54.47549614699892,,,,,,,,,,,,,,,,,,,,,,,,,,,,,,,,,1,,,,,,,,,,,,,,,,,,,,,,,,,,,,,,,,,,,,,,,,,,,,,,61,156442,19,Female,1,2024/02/15_16:42:54,JV,None,
6,./instructions/inst_prac_2/Slide11.png,right,0.7476281679992098,54.50400130300113,55.25162947100034,,,,,,,,,,,,,,,,,,,,,,,,,,,,,,,,,1,,,,,,,,,,,,,,,,,,,,,,,,,,,,,,,,,,,,,,,,,,,,,,61,156442,19,Female,1,2024/02/15_16:42:54,JV,None,
7,./instructions/inst_prac_2/Slide12.png,right,0.683253749000869,55.28027422299783,55.9635279719987,,,,,,,,,,,,,,,,,,,,,,,,,,,,,,,,,1,,,,,,,,,,,,,,,,,,,,,,,,,,,,,,,,,,,,,,,,,,,,,,61,156442,19,Female,1,2024/02/15_16:42:54,JV,None,
8,./instructions/inst_prac_2/Slide13.png,right,0.5167840979993343,55.99067297399961,56.50745707199894,,,,,,,,,,,,,,,,,,,,,,,,,,,,,,,,,1,,,,,,,,,,,,,,,,,,,,,,,,,,,,,,,,,,,,,,,,,,,,,,61,156442,19,Female,1,2024/02/15_16:42:54,JV,None,
9,./instructions/inst_prac_2/Slide14.png,right,0.5871624059982423,56.53636170000027,57.12352410599851,,,,,,,,,,,,,,,,,,,,,,,,,,,,,,,,,1,,,,,,,,,,,,,,,,,,,,,,,,,,,,,,,,,,,,,,,,,,,,,,61,156442,19,Female,1,2024/02/15_16:42:54,JV,None,
10,./instructions/inst_prac_2/Slide15.png,right,0.5714339859987376,57.15214651000133,57.72358049600007,,,,,,,,,,,,,,,,,,,,,,,,,,,,,,,,,1,,,,,,,,,,,,,,,,,,,,,,,,,,,,,,,,,,,,,,,,,,,,,,61,156442,19,Female,1,2024/02/15_16:42:54,JV,None,
,,,,,,practice,0,35,2,2583,1,F,0,right,6.36225528200157,1,0,,,,,,,,,,,,,,,,,,,,,1,,,,,,,,,,,,,,,,,,,,,,,,,,,,,,,,,,,,,,,,,,,,,,61,156442,19,Female,1,2024/02/15_16:42:54,JV,None,
,,,,,,practice,0,35,2,2583,2,V,0,right,0.8016057950007962,1,0,,,,,,,,,,,,,,,,,,,,,1,,,,,,,,,,,,,,,,,,,,,,,,,,,,,,,,,,,,,,,,,,,,,,61,156442,19,Female,1,2024/02/15_16:42:54,JV,None,
,,,,,,practice,0,35,2,2583,3,F,1,left,0.7495970159980061,1,0,,,,,,,,,,,,,,,,,,,,,1,,,,,,,,,,,,,,,,,,,,,,,,,,,,,,,,,,,,,,,,,,,,,,61,156442,19,Female,1,2024/02/15_16:42:54,JV,None,
,,,,,,practice,0,35,2,2583,4,J,0,right,2.9881806330013205,1,0,,,,,,,,,,,,,,,,,,,,,1,,,,,,,,,,,,,,,,,,,,,,,,,,,,,,,,,,,,,,,,,,,,,,61,156442,19,Female,1,2024/02/15_16:42:54,JV,None,
,,,,,,practice,0,35,2,2583,5,C,0,right,0.9969732370009297,1,0,,,,,,,,,,,,,,,,,,,,,1,,,,,,,,,,,,,,,,,,,,,,,,,,,,,,,,,,,,,,,,,,,,,,61,156442,19,Female,1,2024/02/15_16:42:54,JV,None,
,,,,,,practice,0,35,2,2583,6,J,1,left,0.9806500079976104,1,0,,,,,,,,,,,,,,,,,,,,,1,,,,,,,,,,,,,,,,,,,,,,,,,,,,,,,,,,,,,,,,,,,,,,61,156442,19,Female,1,2024/02/15_16:42:54,JV,None,
,,,,,,practice,0,35,2,2583,,,,,,,,1.0,1.0,0.0,1.0,0.0,1.0,2.146543661833372,2,0,0,0,0,4,6,2,4,0,,,,1,,,,,,,,,,,,,,,,,,,,,,,,,,,,,,,,,,,,,,,,,,,,,,61,156442,19,Female,1,2024/02/15_16:42:54,JV,None,
1,./instructions/inst_to_cali/Slide20.png,right,2.201171611999598,76.94643054100015,79.14760215299975,,,,,,,,,,,,,,,,,,,,,,,,,,,,,,,,,1,,,,,,,,,,,,,,,,,,,,,,,,,,,,,,,,,,,,,,,,,,,,,,61,156442,19,Female,1,2024/02/15_16:42:54,JV,None,
1,./instructions/inst_cali/Slide22.png,right,1.2712699660005455,79.18029627299984,80.45156623900039,,,,,,,,,,,,,,,,,,,,,,,,,,,,,,,,,1,,,,,,,,,,,,,,,,,,,,,,,,,,,,,,,,,,,,,,,,,,,,,,61,156442,19,Female,1,2024/02/15_16:42:54,JV,None,
,,,,,,calibration,0,24,2,583,1,C,0,left,0.8250351449969457,0,0,,,,,,,,,,,,,,,,,,,,,1,,,,,,,,,,,,,,,,,,,,,,,,,,,,,,,,,,,,,,,,,,,,,,61,156442,19,Female,1,2024/02/15_16:42:54,JV,None,
,,,,,,calibration,0,24,2,583,2,S,0,right,0.8943073150003329,1,0,,,,,,,,,,,,,,,,,,,,,1,,,,,,,,,,,,,,,,,,,,,,,,,,,,,,,,,,,,,,,,,,,,,,61,156442,19,Female,1,2024/02/15_16:42:54,JV,None,
,,,,,,calibration,0,24,2,583,3,V,0,right,0.5929385870003898,1,0,,,,,,,,,,,,,,,,,,,,,1,,,,,,,,,,,,,,,,,,,,,,,,,,,,,,,,,,,,,,,,,,,,,,61,156442,19,Female,1,2024/02/15_16:42:54,JV,None,
,,,,,,calibration,0,24,2,583,4,C,0,right,0.5119658930016158,1,0,,,,,,,,,,,,,,,,,,,,,1,,,,,,,,,,,,,,,,,,,,,,,,,,,,,,,,,,,,,,,,,,,,,,61,156442,19,Female,1,2024/02/15_16:42:54,JV,None,
,,,,,,calibration,0,24,2,583,5,V,1,right,0.5814896270021563,0,0,,,,,,,,,,,,,,,,,,,,,1,,,,,,,,,,,,,,,,,,,,,,,,,,,,,,,,,,,,,,,,,,,,,,61,156442,19,Female,1,2024/02/15_16:42:54,JV,None,
,,,,,,calibration,0,24,2,583,6,N,0,right,0.9281591110011504,1,0,,,,,,,,,,,,,,,,,,,,,1,,,,,,,,,,,,,,,,,,,,,,,,,,,,,,,,,,,,,,,,,,,,,,61,156442,19,Female,1,2024/02/15_16:42:54,JV,None,
,,,,,,calibration,0,24,2,583,7,V,1,right,0.8425613189974683,0,0,,,,,,,,,,,,,,,,,,,,,1,,,,,,,,,,,,,,,,,,,,,,,,,,,,,,,,,,,,,,,,,,,,,,61,156442,19,Female,1,2024/02/15_16:42:54,JV,None,
,,,,,,calibration,0,24,2,583,8,J,0,right,0.6696045229982701,1,0,,,,,,,,,,,,,,,,,,,,,1,,,,,,,,,,,,,,,,,,,,,,,,,,,,,,,,,,,,,,,,,,,,,,61,156442,19,Female,1,2024/02/15_16:42:54,JV,None,
,,,,,,calibration,0,24,2,583,9,F,0,right,0.6616015340005106,1,0,,,,,,,,,,,,,,,,,,,,,1,,,,,,,,,,,,,,,,,,,,,,,,,,,,,,,,,,,,,,,,,,,,,,61,156442,19,Female,1,2024/02/15_16:42:54,JV,None,
,,,,,,calibration,0,24,2,583,10,J,1,left,0.5413141859971802,1,0,,,,,,,,,,,,,,,,,,,,,1,,,,,,,,,,,,,,,,,,,,,,,,,,,,,,,,,,,,,,,,,,,,,,61,156442,19,Female,1,2024/02/15_16:42:54,JV,None,
,,,,,,calibration,0,24,2,583,11,F,1,left,0.8907915899981163,1,0,,,,,,,,,,,,,,,,,,,,,1,,,,,,,,,,,,,,,,,,,,,,,,,,,,,,,,,,,,,,,,,,,,,,61,156442,19,Female,1,2024/02/15_16:42:54,JV,None,
,,,,,,calibration,0,24,2,583,12,S,0,right,0.6394872939999914,1,0,,,,,,,,,,,,,,,,,,,,,1,,,,,,,,,,,,,,,,,,,,,,,,,,,,,,,,,,,,,,,,,,,,,,61,156442,19,Female,1,2024/02/15_16:42:54,JV,None,
,,,,,,calibration,0,24,2,583,13,F,1,left,0.4438645420013927,1,0,,,,,,,,,,,,,,,,,,,,,1,,,,,,,,,,,,,,,,,,,,,,,,,,,,,,,,,,,,,,,,,,,,,,61,156442,19,Female,1,2024/02/15_16:42:54,JV,None,
,,,,,,calibration,0,24,2,583,14,Q,0,right,0.475303695002367,1,0,,,,,,,,,,,,,,,,,,,,,1,,,,,,,,,,,,,,,,,,,,,,,,,,,,,,,,,,,,,,,,,,,,,,61,156442,19,Female,1,2024/02/15_16:42:54,JV,None,
,,,,,,calibration,0,24,2,583,15,S,0,left,0.6405143119991408,0,0,,,,,,,,,,,,,,,,,,,,,1,,,,,,,,,,,,,,,,,,,,,,,,,,,,,,,,,,,,,,,,,,,,,,61,156442,19,Female,1,2024/02/15_16:42:54,JV,None,
,,,,,,calibration,0,24,2,583,,,,,,,,0.77,0.6,0.2,0.8,0.0,0.8,0.6759292448664685,3,2,0,0,0,8,11,5,10,0,,,,1,,,,,,,,,,,,,,,,,,,,,,,,,,,,,,,,,,,,,,,,,,,,,,61,156442,19,Female,1,2024/02/15_16:42:54,JV,None,
,,,,,,Calibration,0,,2,583,,,,,,,,,,,,,,,,,,,,,,,,,1,,,1,,,,,,,,,,,,,,,,,,,,,,,,,,,,,,,,,,,,,,,,,,,,,,61,156442,19,Female,1,2024/02/15_16:42:54,JV,None,
,,,,,,calibration,0,36,2,583,1,S,0,left,0.6448793329982436,0,0,,,,,,,,,,,,,,,,,,,,,1,,,,,,,,,,,,,,,,,,,,,,,,,,,,,,,,,,,,,,,,,,,,,,61,156442,19,Female,1,2024/02/15_16:42:54,JV,None,
,,,,,,calibration,0,36,2,583,2,Q,0,left,nan,0,1,,,,,,,,,,,,,,,,,,,,,1,,,,,,,,,,,,,,,,,,,,,,,,,,,,,,,,,,,,,,,,,,,,,,61,156442,19,Female,1,2024/02/15_16:42:54,JV,None,
,,,,,,calibration,0,36,2,583,3,C,0,right,0.5752204790005635,1,0,,,,,,,,,,,,,,,,,,,,,1,,,,,,,,,,,,,,,,,,,,,,,,,,,,,,,,,,,,,,,,,,,,,,61,156442,19,Female,1,2024/02/15_16:42:54,JV,None,
,,,,,,calibration,0,36,2,583,4,Q,1,right,0.3695989850020851,0,0,,,,,,,,,,,,,,,,,,,,,1,,,,,,,,,,,,,,,,,,,,,,,,,,,,,,,,,,,,,,,,,,,,,,61,156442,19,Female,1,2024/02/15_16:42:54,JV,None,
,,,,,,calibration,0,36,2,583,5,N,0,right,0.512093602999812,1,0,,,,,,,,,,,,,,,,,,,,,1,,,,,,,,,,,,,,,,,,,,,,,,,,,,,,,,,,,,,,,,,,,,,,61,156442,19,Female,1,2024/02/15_16:42:54,JV,None,
,,,,,,calibration,0,36,2,583,6,X,0,right,0.4933344679993752,1,0,,,,,,,,,,,,,,,,,,,,,1,,,,,,,,,,,,,,,,,,,,,,,,,,,,,,,,,,,,,,,,,,,,,,61,156442,19,Female,1,2024/02/15_16:42:54,JV,None,
,,,,,,calibration,0,36,2,583,7,F,0,right,0.42855337699802476,1,0,,,,,,,,,,,,,,,,,,,,,1,,,,,,,,,,,,,,,,,,,,,,,,,,,,,,,,,,,,,,,,,,,,,,61,156442,19,Female,1,2024/02/15_16:42:54,JV,None,
,,,,,,calibration,0,36,2,583,8,S,0,right,0.6090221740014385,1,0,,,,,,,,,,,,,,,,,,,,,1,,,,,,,,,,,,,,,,,,,,,,,,,,,,,,,,,,,,,,,,,,,,,,61,156442,19,Female,1,2024/02/15_16:42:54,JV,None,
,,,,,,calibration,0,36,2,583,9,F,1,right,0.6791140810018987,0,0,,,,,,,,,,,,,,,,,,,,,1,,,,,,,,,,,,,,,,,,,,,,,,,,,,,,,,,,,,,,,,,,,,,,61,156442,19,Female,1,2024/02/15_16:42:54,JV,None,
,,,,,,calibration,0,36,2,583,10,V,0,left,0.6915029249976214,0,0,,,,,,,,,,,,,,,,,,,,,1,,,,,,,,,,,,,,,,,,,,,,,,,,,,,,,,,,,,,,,,,,,,,,61,156442,19,Female,1,2024/02/15_16:42:54,JV,None,
,,,,,,calibration,0,36,2,583,11,C,0,right,0.7744787550000183,1,0,,,,,,,,,,,,,,,,,,,,,1,,,,,,,,,,,,,,,,,,,,,,,,,,,,,,,,,,,,,,,,,,,,,,61,156442,19,Female,1,2024/02/15_16:42:54,JV,None,
,,,,,,calibration,0,36,2,583,12,V,1,right,0.6049567499976547,0,0,,,,,,,,,,,,,,,,,,,,,1,,,,,,,,,,,,,,,,,,,,,,,,,,,,,,,,,,,,,,,,,,,,,,61,156442,19,Female,1,2024/02/15_16:42:54,JV,None,
,,,,,,calibration,0,36,2,583,13,C,1,right,0.4301641180027218,0,0,,,,,,,,,,,,,,,,,,,,,1,,,,,,,,,,,,,,,,,,,,,,,,,,,,,,,,,,,,,,,,,,,,,,61,156442,19,Female,1,2024/02/15_16:42:54,JV,None,
,,,,,,calibration,0,36,2,583,14,F,0,right,0.7730000029987423,1,0,,,,,,,,,,,,,,,,,,,,,1,,,,,,,,,,,,,,,,,,,,,,,,,,,,,,,,,,,,,,,,,,,,,,61,156442,19,Female,1,2024/02/15_16:42:54,JV,None,
,,,,,,calibration,0,36,2,583,15,C,1,right,nan,0,1,,,,,,,,,,,,,,,,,,,,,1,,,,,,,,,,,,,,,,,,,,,,,,,,,,,,,,,,,,,,,,,,,,,,61,156442,19,Female,1,2024/02/15_16:42:54,JV,None,
,,,,,,calibration,0,36,2,583,,,,,,,,0.2,0.0,0.2,0.7777777777777778,0.13333333333333333,0.6666666666666667,0.5835322346921692,0,2,1,1,2,7,7,5,10,0,,,,1,,,,,,,,,,,,,,,,,,,,,,,,,,,,,,,,,,,,,,,,,,,,,,61,156442,19,Female,1,2024/02/15_16:42:54,JV,None,
,,,,,,Calibration,0,,2,583,,,,,,,,,,,,,,,,,,,,,,,,,2,,,1,,,,,,,,,,,,,,,,,,,,,,,,,,,,,,,,,,,,,,,,,,,,,,61,156442,19,Female,1,2024/02/15_16:42:54,JV,None,
,,,,,,calibration,0,34,2,679,1,Q,0,left,0.8983311350020813,0,0,,,,,,,,,,,,,,,,,,,,,1,,,,,,,,,,,,,,,,,,,,,,,,,,,,,,,,,,,,,,,,,,,,,,61,156442,19,Female,1,2024/02/15_16:42:54,JV,None,
,,,,,,calibration,0,34,2,679,2,Q,0,left,nan,0,1,,,,,,,,,,,,,,,,,,,,,1,,,,,,,,,,,,,,,,,,,,,,,,,,,,,,,,,,,,,,,,,,,,,,61,156442,19,Female,1,2024/02/15_16:42:54,JV,None,
,,,,,,calibration,0,34,2,679,3,Q,1,left,1.1138519279993488,1,0,,,,,,,,,,,,,,,,,,,,,1,,,,,,,,,,,,,,,,,,,,,,,,,,,,,,,,,,,,,,,,,,,,,,61,156442,19,Female,1,2024/02/15_16:42:54,JV,None,
,,,,,,calibration,0,34,2,679,4,Q,1,left,0.43364230999941356,1,0,,,,,,,,,,,,,,,,,,,,,1,,,,,,,,,,,,,,,,,,,,,,,,,,,,,,,,,,,,,,,,,,,,,,61,156442,19,Female,1,2024/02/15_16:42:54,JV,None,
,,,,,,calibration,0,34,2,679,5,X,0,right,0.5392087530017307,1,0,,,,,,,,,,,,,,,,,,,,,1,,,,,,,,,,,,,,,,,,,,,,,,,,,,,,,,,,,,,,,,,,,,,,61,156442,19,Female,1,2024/02/15_16:42:54,JV,None,
,,,,,,calibration,0,34,2,679,6,C,0,right,0.4707435349992011,1,0,,,,,,,,,,,,,,,,,,,,,1,,,,,,,,,,,,,,,,,,,,,,,,,,,,,,,,,,,,,,,,,,,,,,61,156442,19,Female,1,2024/02/15_16:42:54,JV,None,
,,,,,,calibration,0,34,2,679,7,F,0,right,0.4483358559991757,1,0,,,,,,,,,,,,,,,,,,,,,1,,,,,,,,,,,,,,,,,,,,,,,,,,,,,,,,,,,,,,,,,,,,,,61,156442,19,Female,1,2024/02/15_16:42:54,JV,None,
,,,,,,calibration,0,34,2,679,8,J,0,right,0.3971140989997366,1,0,,,,,,,,,,,,,,,,,,,,,1,,,,,,,,,,,,,,,,,,,,,,,,,,,,,,,,,,,,,,,,,,,,,,61,156442,19,Female,1,2024/02/15_16:42:54,JV,None,
,,,,,,calibration,0,34,2,679,9,F,1,left,1.2358233579980151,1,0,,,,,,,,,,,,,,,,,,,,,1,,,,,,,,,,,,,,,,,,,,,,,,,,,,,,,,,,,,,,,,,,,,,,61,156442,19,Female,1,2024/02/15_16:42:54,JV,None,
,,,,,,calibration,0,34,2,679,10,Q,0,right,0.639392257999134,1,0,,,,,,,,,,,,,,,,,,,,,1,,,,,,,,,,,,,,,,,,,,,,,,,,,,,,,,,,,,,,,,,,,,,,61,156442,19,Female,1,2024/02/15_16:42:54,JV,None,
,,,,,,calibration,0,34,2,679,11,V,0,right,0.8387299860005442,1,0,,,,,,,,,,,,,,,,,,,,,1,,,,,,,,,,,,,,,,,,,,,,,,,,,,,,,,,,,,,,,,,,,,,,61,156442,19,Female,1,2024/02/15_16:42:54,JV,None,
,,,,,,calibration,0,34,2,679,12,C,0,right,0.6416468489987892,1,0,,,,,,,,,,,,,,,,,,,,,1,,,,,,,,,,,,,,,,,,,,,,,,,,,,,,,,,,,,,,,,,,,,,,61,156442,19,Female,1,2024/02/15_16:42:54,JV,None,
,,,,,,calibration,0,34,2,679,13,J,0,right,0.6542486869984714,1,0,,,,,,,,,,,,,,,,,,,,,1,,,,,,,,,,,,,,,,,,,,,,,,,,,,,,,,,,,,,,,,,,,,,,61,156442,19,Female,1,2024/02/15_16:42:54,JV,None,
,,,,,,calibration,0,34,2,679,14,C,1,left,0.8432744599995203,1,0,,,,,,,,,,,,,,,,,,,,,1,,,,,,,,,,,,,,,,,,,,,,,,,,,,,,,,,,,,,,,,,,,,,,61,156442,19,Female,1,2024/02/15_16:42:54,JV,None,
,,,,,,calibration,0,34,2,679,,,,,,,,0.975,1.0,0.1,0.8888888888888888,0.07142857142857142,0.8285714285714286,0.7041802472303971,4,1,0,1,1,8,12,4,10,0,,,,1,,,,,,,,,,,,,,,,,,,,,,,,,,,,,,,,,,,,,,,,,,,,,,61,156442,19,Female,1,2024/02/15_16:42:54,JV,None,
,,,,,,Calibration,0,,2,679,,,,,,,,,,,,,,,,,,,,,,,,,3,,,1,,,,,,,,,,,,,,,,,,,,,,,,,,,,,,,,,,,,,,,,,,,,,,61,156442,19,Female,1,2024/02/15_16:42:54,JV,None,
,,,,,,calibration,0,34,2,583,1,Q,0,right,0.5944231499997841,1,0,,,,,,,,,,,,,,,,,,,,,1,,,,,,,,,,,,,,,,,,,,,,,,,,,,,,,,,,,,,,,,,,,,,,61,156442,19,Female,1,2024/02/15_16:42:54,JV,None,
,,,,,,calibration,0,34,2,583,2,X,0,right,0.5420125070013455,1,0,,,,,,,,,,,,,,,,,,,,,1,,,,,,,,,,,,,,,,,,,,,,,,,,,,,,,,,,,,,,,,,,,,,,61,156442,19,Female,1,2024/02/15_16:42:54,JV,None,
,,,,,,calibration,0,34,2,583,3,Q,1,left,0.47154093499921146,1,0,,,,,,,,,,,,,,,,,,,,,1,,,,,,,,,,,,,,,,,,,,,,,,,,,,,,,,,,,,,,,,,,,,,,61,156442,19,Female,1,2024/02/15_16:42:54,JV,None,
,,,,,,calibration,0,34,2,583,4,F,0,right,0.441590295999049,1,0,,,,,,,,,,,,,,,,,,,,,1,,,,,,,,,,,,,,,,,,,,,,,,,,,,,,,,,,,,,,,,,,,,,,61,156442,19,Female,1,2024/02/15_16:42:54,JV,None,
,,,,,,calibration,0,34,2,583,5,Q,1,left,0.6261783279987867,1,0,,,,,,,,,,,,,,,,,,,,,1,,,,,,,,,,,,,,,,,,,,,,,,,,,,,,,,,,,,,,,,,,,,,,61,156442,19,Female,1,2024/02/15_16:42:54,JV,None,
,,,,,,calibration,0,34,2,583,6,N,0,right,0.4963621189999685,1,0,,,,,,,,,,,,,,,,,,,,,1,,,,,,,,,,,,,,,,,,,,,,,,,,,,,,,,,,,,,,,,,,,,,,61,156442,19,Female,1,2024/02/15_16:42:54,JV,None,
,,,,,,calibration,0,34,2,583,7,C,0,right,0.8227542280001217,1,0,,,,,,,,,,,,,,,,,,,,,1,,,,,,,,,,,,,,,,,,,,,,,,,,,,,,,,,,,,,,,,,,,,,,61,156442,19,Female,1,2024/02/15_16:42:54,JV,None,
,,,,,,calibration,0,34,2,583,8,Q,0,right,0.6469712350008194,1,0,,,,,,,,,,,,,,,,,,,,,1,,,,,,,,,,,,,,,,,,,,,,,,,,,,,,,,,,,,,,,,,,,,,,61,156442,19,Female,1,2024/02/15_16:42:54,JV,None,
,,,,,,calibration,0,34,2,583,9,X,0,right,0.6439274120020855,1,0,,,,,,,,,,,,,,,,,,,,,1,,,,,,,,,,,,,,,,,,,,,,,,,,,,,,,,,,,,,,,,,,,,,,61,156442,19,Female,1,2024/02/15_16:42:54,JV,None,
,,,,,,calibration,0,34,2,583,10,N,0,right,0.7756340399973851,1,0,,,,,,,,,,,,,,,,,,,,,1,,,,,,,,,,,,,,,,,,,,,,,,,,,,,,,,,,,,,,,,,,,,,,61,156442,19,Female,1,2024/02/15_16:42:54,JV,None,
,,,,,,calibration,0,34,2,583,11,X,1,left,0.7085980819974793,1,0,,,,,,,,,,,,,,,,,,,,,1,,,,,,,,,,,,,,,,,,,,,,,,,,,,,,,,,,,,,,,,,,,,,,61,156442,19,Female,1,2024/02/15_16:42:54,JV,None,
,,,,,,calibration,0,34,2,583,12,N,1,left,0.7414007799998217,1,0,,,,,,,,,,,,,,,,,,,,,1,,,,,,,,,,,,,,,,,,,,,,,,,,,,,,,,,,,,,,,,,,,,,,61,156442,19,Female,1,2024/02/15_16:42:54,JV,None,
,,,,,,calibration,0,34,2,583,13,Q,0,right,0.38908835500114947,1,0,,,,,,,,,,,,,,,,,,,,,1,,,,,,,,,,,,,,,,,,,,,,,,,,,,,,,,,,,,,,,,,,,,,,61,156442,19,Female,1,2024/02/15_16:42:54,JV,None,
,,,,,,calibration,0,34,2,583,14,F,0,right,0.6264938380008971,1,0,,,,,,,,,,,,,,,,,,,,,1,,,,,,,,,,,,,,,,,,,,,,,,,,,,,,,,,,,,,,,,,,,,,,61,156442,19,Female,1,2024/02/15_16:42:54,JV,None,
,,,,,,calibration,0,34,2,583,15,Q,1,left,0.5723326920015097,1,0,,,,,,,,,,,,,,,,,,,,,1,,,,,,,,,,,,,,,,,,,,,,,,,,,,,,,,,,,,,,,,,,,,,,61,156442,19,Female,1,2024/02/15_16:42:54,JV,None,
,,,,,,calibration,0,34,2,583,,,,,,,,1.0,1.0,0.0,1.0,0.0,1.0,0.6066205331332942,5,0,0,0,0,10,15,5,10,0,,,,1,,,,,,,,,,,,,,,,,,,,,,,,,,,,,,,,,,,,,,,,,,,,,,61,156442,19,Female,1,2024/02/15_16:42:54,JV,None,
,,,,,,Calibration,0,,2,583,,,,,,,,,,,,,,,,,,,,,,,,,4,,,1,,,,,,,,,,,,,,,,,,,,,,,,,,,,,,,,,,,,,,,,,,,,,,61,156442,19,Female,1,2024/02/15_16:42:54,JV,None,
,,,,,,calibration,0,3,2,500,1,F,0,right,0.6491327410003578,1,0,,,,,,,,,,,,,,,,,,,,,1,,,,,,,,,,,,,,,,,,,,,,,,,,,,,,,,,,,,,,,,,,,,,,61,156442,19,Female,1,2024/02/15_16:42:54,JV,None,
,,,,,,calibration,0,3,2,500,2,V,0,right,0.6713172589988972,1,0,,,,,,,,,,,,,,,,,,,,,1,,,,,,,,,,,,,,,,,,,,,,,,,,,,,,,,,,,,,,,,,,,,,,61,156442,19,Female,1,2024/02/15_16:42:54,JV,None,
,,,,,,calibration,0,3,2,500,3,F,1,left,0.5194755699994857,1,0,,,,,,,,,,,,,,,,,,,,,1,,,,,,,,,,,,,,,,,,,,,,,,,,,,,,,,,,,,,,,,,,,,,,61,156442,19,Female,1,2024/02/15_16:42:54,JV,None,
,,,,,,calibration,0,3,2,500,4,J,0,right,0.41289779400176485,1,0,,,,,,,,,,,,,,,,,,,,,1,,,,,,,,,,,,,,,,,,,,,,,,,,,,,,,,,,,,,,,,,,,,,,61,156442,19,Female,1,2024/02/15_16:42:54,JV,None,
,,,,,,calibration,0,3,2,500,5,Q,0,right,0.5236627610029245,1,0,,,,,,,,,,,,,,,,,,,,,1,,,,,,,,,,,,,,,,,,,,,,,,,,,,,,,,,,,,,,,,,,,,,,61,156442,19,Female,1,2024/02/15_16:42:54,JV,None,
,,,,,,calibration,0,3,2,500,6,C,0,right,0.5753769520015339,1,0,,,,,,,,,,,,,,,,,,,,,1,,,,,,,,,,,,,,,,,,,,,,,,,,,,,,,,,,,,,,,,,,,,,,61,156442,19,Female,1,2024/02/15_16:42:54,JV,None,
,,,,,,calibration,0,3,2,500,7,Q,1,left,0.4185966159966483,1,0,,,,,,,,,,,,,,,,,,,,,1,,,,,,,,,,,,,,,,,,,,,,,,,,,,,,,,,,,,,,,,,,,,,,61,156442,19,Female,1,2024/02/15_16:42:54,JV,None,
,,,,,,calibration,0,3,2,500,8,N,0,right,0.24041086800207268,1,0,,,,,,,,,,,,,,,,,,,,,1,,,,,,,,,,,,,,,,,,,,,,,,,,,,,,,,,,,,,,,,,,,,,,61,156442,19,Female,1,2024/02/15_16:42:54,JV,None,
,,,,,,calibration,0,3,2,500,9,V,0,right,0.4489601210007095,1,0,,,,,,,,,,,,,,,,,,,,,1,,,,,,,,,,,,,,,,,,,,,,,,,,,,,,,,,,,,,,,,,,,,,,61,156442,19,Female,1,2024/02/15_16:42:54,JV,None,
,,,,,,calibration,0,3,2,500,10,N,1,right,0.5370679010011372,0,0,,,,,,,,,,,,,,,,,,,,,1,,,,,,,,,,,,,,,,,,,,,,,,,,,,,,,,,,,,,,,,,,,,,,61,156442,19,Female,1,2024/02/15_16:42:54,JV,None,
,,,,,,calibration,0,3,2,500,11,F,0,right,0.6588135999991209,1,0,,,,,,,,,,,,,,,,,,,,,1,,,,,,,,,,,,,,,,,,,,,,,,,,,,,,,,,,,,,,,,,,,,,,61,156442,19,Female,1,2024/02/15_16:42:54,JV,None,
,,,,,,calibration,0,3,2,500,12,N,1,left,0.6360773320011504,1,0,,,,,,,,,,,,,,,,,,,,,1,,,,,,,,,,,,,,,,,,,,,,,,,,,,,,,,,,,,,,,,,,,,,,61,156442,19,Female,1,2024/02/15_16:42:54,JV,None,
,,,,,,calibration,0,3,2,500,13,X,0,right,0.5290220319984655,1,0,,,,,,,,,,,,,,,,,,,,,1,,,,,,,,,,,,,,,,,,,,,,,,,,,,,,,,,,,,,,,,,,,,,,61,156442,19,Female,1,2024/02/15_16:42:54,JV,None,
,,,,,,calibration,0,3,2,500,14,N,1,right,0.630773359000159,0,0,,,,,,,,,,,,,,,,,,,,,1,,,,,,,,,,,,,,,,,,,,,,,,,,,,,,,,,,,,,,,,,,,,,,61,156442,19,Female,1,2024/02/15_16:42:54,JV,None,
,,,,,,calibration,0,3,2,500,15,S,0,right,0.6990198280000186,1,0,,,,,,,,,,,,,,,,,,,,,1,,,,,,,,,,,,,,,,,,,,,,,,,,,,,,,,,,,,,,,,,,,,,,61,156442,19,Female,1,2024/02/15_16:42:54,JV,None,
,,,,,,calibration,0,3,2,500,16,Q,0,left,0.5119506219998584,0,0,,,,,,,,,,,,,,,,,,,,,1,,,,,,,,,,,,,,,,,,,,,,,,,,,,,,,,,,,,,,,,,,,,,,61,156442,19,Female,1,2024/02/15_16:42:54,JV,None,
,,,,,,calibration,0,3,2,500,,,,,,,,0.8409090909090908,0.6,0.09090909090909091,0.9090909090909091,0.0,0.9090909090909091,0.541409709750269,3,1,0,0,0,10,13,5,11,0,,,,1,,,,,,,,,,,,,,,,,,,,,,,,,,,,,,,,,,,,,,,,,,,,,,61,156442,19,Female,1,2024/02/15_16:42:54,JV,None,
,,,,,,Calibration,0,,2,500,,,,,,,,,,,,,,,,,,,,,,,,,5,,,1,,,,,,,,,,,,,,,,,,,,,,,,,,,,,,,,,,,,,,,,,,,,,,61,156442,19,Female,1,2024/02/15_16:42:54,JV,None,
,,,,,,calibration,0,19,2,500,1,V,0,right,0.5648736319999443,1,0,,,,,,,,,,,,,,,,,,,,,1,,,,,,,,,,,,,,,,,,,,,,,,,,,,,,,,,,,,,,,,,,,,,,61,156442,19,Female,1,2024/02/15_16:42:54,JV,None,
,,,,,,calibration,0,19,2,500,2,S,0,right,0.454665200002637,1,0,,,,,,,,,,,,,,,,,,,,,1,,,,,,,,,,,,,,,,,,,,,,,,,,,,,,,,,,,,,,,,,,,,,,61,156442,19,Female,1,2024/02/15_16:42:54,JV,None,
,,,,,,calibration,0,19,2,500,3,N,0,right,0.5846846490021562,1,0,,,,,,,,,,,,,,,,,,,,,1,,,,,,,,,,,,,,,,,,,,,,,,,,,,,,,,,,,,,,,,,,,,,,61,156442,19,Female,1,2024/02/15_16:42:54,JV,None,
,,,,,,calibration,0,19,2,500,4,S,1,left,0.6076436250004917,1,0,,,,,,,,,,,,,,,,,,,,,1,,,,,,,,,,,,,,,,,,,,,,,,,,,,,,,,,,,,,,,,,,,,,,61,156442,19,Female,1,2024/02/15_16:42:54,JV,None,
,,,,,,calibration,0,19,2,500,5,N,1,right,0.436838394998631,0,0,,,,,,,,,,,,,,,,,,,,,1,,,,,,,,,,,,,,,,,,,,,,,,,,,,,,,,,,,,,,,,,,,,,,61,156442,19,Female,1,2024/02/15_16:42:54,JV,None,
,,,,,,calibration,0,19,2,500,6,C,0,right,0.9172624200000428,1,0,,,,,,,,,,,,,,,,,,,,,1,,,,,,,,,,,,,,,,,,,,,,,,,,,,,,,,,,,,,,,,,,,,,,61,156442,19,Female,1,2024/02/15_16:42:54,JV,None,
,,,,,,calibration,0,19,2,500,7,Q,0,right,0.6927444870016188,1,0,,,,,,,,,,,,,,,,,,,,,1,,,,,,,,,,,,,,,,,,,,,,,,,,,,,,,,,,,,,,,,,,,,,,61,156442,19,Female,1,2024/02/15_16:42:54,JV,None,
,,,,,,calibration,0,19,2,500,8,V,0,right,0.6060805730012362,1,0,,,,,,,,,,,,,,,,,,,,,1,,,,,,,,,,,,,,,,,,,,,,,,,,,,,,,,,,,,,,,,,,,,,,61,156442,19,Female,1,2024/02/15_16:42:54,JV,None,
,,,,,,calibration,0,19,2,500,9,Q,1,left,0.5396599249979772,1,0,,,,,,,,,,,,,,,,,,,,,1,,,,,,,,,,,,,,,,,,,,,,,,,,,,,,,,,,,,,,,,,,,,,,61,156442,19,Female,1,2024/02/15_16:42:54,JV,None,
,,,,,,calibration,0,19,2,500,10,J,0,right,0.46277212899804,1,0,,,,,,,,,,,,,,,,,,,,,1,,,,,,,,,,,,,,,,,,,,,,,,,,,,,,,,,,,,,,,,,,,,,,61,156442,19,Female,1,2024/02/15_16:42:54,JV,None,
,,,,,,calibration,0,19,2,500,11,C,0,right,nan,0,1,,,,,,,,,,,,,,,,,,,,,1,,,,,,,,,,,,,,,,,,,,,,,,,,,,,,,,,,,,,,,,,,,,,,61,156442,19,Female,1,2024/02/15_16:42:54,JV,None,
,,,,,,calibration,0,19,2,500,12,J,1,left,0.5475302620034199,1,0,,,,,,,,,,,,,,,,,,,,,1,,,,,,,,,,,,,,,,,,,,,,,,,,,,,,,,,,,,,,,,,,,,,,61,156442,19,Female,1,2024/02/15_16:42:54,JV,None,
,,,,,,calibration,0,19,2,500,13,S,0,right,0.6407921469981375,1,0,,,,,,,,,,,,,,,,,,,,,1,,,,,,,,,,,,,,,,,,,,,,,,,,,,,,,,,,,,,,,,,,,,,,61,156442,19,Female,1,2024/02/15_16:42:54,JV,None,
,,,,,,calibration,0,19,2,500,14,C,0,right,0.698020379000809,1,0,,,,,,,,,,,,,,,,,,,,,1,,,,,,,,,,,,,,,,,,,,,,,,,,,,,,,,,,,,,,,,,,,,,,61,156442,19,Female,1,2024/02/15_16:42:54,JV,None,
,,,,,,calibration,0,19,2,500,15,J,0,left,0.6090918640002201,0,0,,,,,,,,,,,,,,,,,,,,,1,,,,,,,,,,,,,,,,,,,,,,,,,,,,,,,,,,,,,,,,,,,,,,61,156442,19,Female,1,2024/02/15_16:42:54,JV,None,
,,,,,,calibration,0,19,2,500,16,N,0,right,0.6555482399999164,1,0,,,,,,,,,,,,,,,,,,,,,1,,,,,,,,,,,,,,,,,,,,,,,,,,,,,,,,,,,,,,,,,,,,,,61,156442,19,Female,1,2024/02/15_16:42:54,JV,None,
,,,,,,calibration,0,19,2,500,,,,,,,,0.8958333333333333,0.75,0.08333333333333333,0.9090909090909091,0.0625,0.8541666666666666,0.6012138618003519,3,1,0,1,1,10,13,4,12,0,,,,1,,,,,,,,,,,,,,,,,,,,,,,,,,,,,,,,,,,,,,,,,,,,,,61,156442,19,Female,1,2024/02/15_16:42:54,JV,None,
,,,,,,Calibration,0,,2,500,,,,,,,,,,,,,,,,,,,,,,,,,6,,,1,,,,,,,,,,,,,,,,,,,,,,,,,,,,,,,,,,,,,,,,,,,,,,61,156442,19,Female,1,2024/02/15_16:42:54,JV,None,
,,,,,,calibration,0,14,2,426,1,F,0,right,0.7785807340005704,1,0,,,,,,,,,,,,,,,,,,,,,1,,,,,,,,,,,,,,,,,,,,,,,,,,,,,,,,,,,,,,,,,,,,,,61,156442,19,Female,1,2024/02/15_16:42:54,JV,None,
,,,,,,calibration,0,14,2,426,2,C,0,right,0.4314298930003133,1,0,,,,,,,,,,,,,,,,,,,,,1,,,,,,,,,,,,,,,,,,,,,,,,,,,,,,,,,,,,,,,,,,,,,,61,156442,19,Female,1,2024/02/15_16:42:54,JV,None,
,,,,,,calibration,0,14,2,426,3,X,0,right,0.48914763900029357,1,0,,,,,,,,,,,,,,,,,,,,,1,,,,,,,,,,,,,,,,,,,,,,,,,,,,,,,,,,,,,,,,,,,,,,61,156442,19,Female,1,2024/02/15_16:42:54,JV,None,
,,,,,,calibration,0,14,2,426,4,C,1,left,0.6066574690012203,1,0,,,,,,,,,,,,,,,,,,,,,1,,,,,,,,,,,,,,,,,,,,,,,,,,,,,,,,,,,,,,,,,,,,,,61,156442,19,Female,1,2024/02/15_16:42:54,JV,None,
,,,,,,calibration,0,14,2,426,5,F,0,right,0.3876675100000284,1,0,,,,,,,,,,,,,,,,,,,,,1,,,,,,,,,,,,,,,,,,,,,,,,,,,,,,,,,,,,,,,,,,,,,,61,156442,19,Female,1,2024/02/15_16:42:54,JV,None,
,,,,,,calibration,0,14,2,426,6,C,1,right,0.8356112119981844,0,0,,,,,,,,,,,,,,,,,,,,,1,,,,,,,,,,,,,,,,,,,,,,,,,,,,,,,,,,,,,,,,,,,,,,61,156442,19,Female,1,2024/02/15_16:42:54,JV,None,
,,,,,,calibration,0,14,2,426,7,N,0,right,0.5584367530027521,1,0,,,,,,,,,,,,,,,,,,,,,1,,,,,,,,,,,,,,,,,,,,,,,,,,,,,,,,,,,,,,,,,,,,,,61,156442,19,Female,1,2024/02/15_16:42:54,JV,None,
,,,,,,calibration,0,14,2,426,8,C,1,left,0.5884936900001776,1,0,,,,,,,,,,,,,,,,,,,,,1,,,,,,,,,,,,,,,,,,,,,,,,,,,,,,,,,,,,,,,,,,,,,,61,156442,19,Female,1,2024/02/15_16:42:54,JV,None,
,,,,,,calibration,0,14,2,426,9,F,0,right,0.6744232609999017,1,0,,,,,,,,,,,,,,,,,,,,,1,,,,,,,,,,,,,,,,,,,,,,,,,,,,,,,,,,,,,,,,,,,,,,61,156442,19,Female,1,2024/02/15_16:42:54,JV,None,
,,,,,,calibration,0,14,2,426,10,V,0,right,0.5422758759996213,1,0,,,,,,,,,,,,,,,,,,,,,1,,,,,,,,,,,,,,,,,,,,,,,,,,,,,,,,,,,,,,,,,,,,,,61,156442,19,Female,1,2024/02/15_16:42:54,JV,None,
,,,,,,calibration,0,14,2,426,11,J,0,right,0.5386455900006695,1,0,,,,,,,,,,,,,,,,,,,,,1,,,,,,,,,,,,,,,,,,,,,,,,,,,,,,,,,,,,,,,,,,,,,,61,156442,19,Female,1,2024/02/15_16:42:54,JV,None,
,,,,,,calibration,0,14,2,426,12,V,1,left,0.6719178870007454,1,0,,,,,,,,,,,,,,,,,,,,,1,,,,,,,,,,,,,,,,,,,,,,,,,,,,,,,,,,,,,,,,,,,,,,61,156442,19,Female,1,2024/02/15_16:42:54,JV,None,
,,,,,,calibration,0,14,2,426,13,J,1,right,0.5396458790019096,0,0,,,,,,,,,,,,,,,,,,,,,1,,,,,,,,,,,,,,,,,,,,,,,,,,,,,,,,,,,,,,,,,,,,,,61,156442,19,Female,1,2024/02/15_16:42:54,JV,None,
,,,,,,calibration,0,14,2,426,14,X,0,right,0.4785984340014693,1,0,,,,,,,,,,,,,,,,,,,,,1,,,,,,,,,,,,,,,,,,,,,,,,,,,,,,,,,,,,,,,,,,,,,,61,156442,19,Female,1,2024/02/15_16:42:54,JV,None,
,,,,,,calibration,0,14,2,426,15,S,0,right,0.7399913830013247,1,0,,,,,,,,,,,,,,,,,,,,,1,,,,,,,,,,,,,,,,,,,,,,,,,,,,,,,,,,,,,,,,,,,,,,61,156442,19,Female,1,2024/02/15_16:42:54,JV,None,
,,,,,,calibration,0,14,2,426,16,J,0,left,0.5225345999970159,0,0,,,,,,,,,,,,,,,,,,,,,1,,,,,,,,,,,,,,,,,,,,,,,,,,,,,,,,,,,,,,,,,,,,,,61,156442,19,Female,1,2024/02/15_16:42:54,JV,None,
,,,,,,calibration,0,14,2,426,17,C,0,right,0.41431554299924755,1,0,,,,,,,,,,,,,,,,,,,,,1,,,,,,,,,,,,,,,,,,,,,,,,,,,,,,,,,,,,,,,,,,,,,,61,156442,19,Female,1,2024/02/15_16:42:54,JV,None,
,,,,,,calibration,0,14,2,426,,,,,,,,0.8458333333333333,0.6,0.08333333333333333,0.9166666666666666,0.0,0.9166666666666666,0.5763749031179674,3,1,0,0,0,11,14,5,12,0,,,,1,,,,,,,,,,,,,,,,,,,,,,,,,,,,,,,,,,,,,,,,,,,,,,61,156442,19,Female,1,2024/02/15_16:42:54,JV,None,
,,,,,,Calibration,0,,2,426,,,,,,,,,,,,,,,,,,,,,,,,,7,,,1,,,,,,,,,,,,,,,,,,,,,,,,,,,,,,,,,,,,,,,,,,,,,,61,156442,19,Female,1,2024/02/15_16:42:54,JV,None,
,,,,,,calibration,0,2,2,426,1,C,0,right,0.5481503049995808,1,0,,,,,,,,,,,,,,,,,,,,,1,,,,,,,,,,,,,,,,,,,,,,,,,,,,,,,,,,,,,,,,,,,,,,61,156442,19,Female,1,2024/02/15_16:42:54,JV,None,
,,,,,,calibration,0,2,2,426,2,C,0,left,0.5581133070008946,0,0,,,,,,,,,,,,,,,,,,,,,1,,,,,,,,,,,,,,,,,,,,,,,,,,,,,,,,,,,,,,,,,,,,,,61,156442,19,Female,1,2024/02/15_16:42:54,JV,None,
,,,,,,calibration,0,2,2,426,3,C,1,left,0.8747651490011776,1,0,,,,,,,,,,,,,,,,,,,,,1,,,,,,,,,,,,,,,,,,,,,,,,,,,,,,,,,,,,,,,,,,,,,,61,156442,19,Female,1,2024/02/15_16:42:54,JV,None,
,,,,,,calibration,0,2,2,426,4,V,0,right,0.5537256360003084,1,0,,,,,,,,,,,,,,,,,,,,,1,,,,,,,,,,,,,,,,,,,,,,,,,,,,,,,,,,,,,,,,,,,,,,61,156442,19,Female,1,2024/02/15_16:42:54,JV,None,
,,,,,,calibration,0,2,2,426,5,N,0,right,0.511972065000009,1,0,,,,,,,,,,,,,,,,,,,,,1,,,,,,,,,,,,,,,,,,,,,,,,,,,,,,,,,,,,,,,,,,,,,,61,156442,19,Female,1,2024/02/15_16:42:54,JV,None,
,,,,,,calibration,0,2,2,426,6,C,0,right,0.6770253859976947,1,0,,,,,,,,,,,,,,,,,,,,,1,,,,,,,,,,,,,,,,,,,,,,,,,,,,,,,,,,,,,,,,,,,,,,61,156442,19,Female,1,2024/02/15_16:42:54,JV,None,
,,,,,,calibration,0,2,2,426,7,F,0,right,0.7783991069991316,1,0,,,,,,,,,,,,,,,,,,,,,1,,,,,,,,,,,,,,,,,,,,,,,,,,,,,,,,,,,,,,,,,,,,,,61,156442,19,Female,1,2024/02/15_16:42:54,JV,None,
,,,,,,calibration,0,2,2,426,8,S,0,right,0.5996764900010021,1,0,,,,,,,,,,,,,,,,,,,,,1,,,,,,,,,,,,,,,,,,,,,,,,,,,,,,,,,,,,,,,,,,,,,,61,156442,19,Female,1,2024/02/15_16:42:54,JV,None,
,,,,,,calibration,0,2,2,426,9,J,0,right,0.725288058998558,1,0,,,,,,,,,,,,,,,,,,,,,1,,,,,,,,,,,,,,,,,,,,,,,,,,,,,,,,,,,,,,,,,,,,,,61,156442,19,Female,1,2024/02/15_16:42:54,JV,None,
,,,,,,calibration,0,2,2,426,10,Q,0,right,0.6726125409986707,1,0,,,,,,,,,,,,,,,,,,,,,1,,,,,,,,,,,,,,,,,,,,,,,,,,,,,,,,,,,,,,,,,,,,,,61,156442,19,Female,1,2024/02/15_16:42:54,JV,None,
,,,,,,calibration,0,2,2,426,11,X,0,right,0.6469949919992359,1,0,,,,,,,,,,,,,,,,,,,,,1,,,,,,,,,,,,,,,,,,,,,,,,,,,,,,,,,,,,,,,,,,,,,,61,156442,19,Female,1,2024/02/15_16:42:54,JV,None,
,,,,,,calibration,0,2,2,426,12,Q,1,left,0.5122504040009517,1,0,,,,,,,,,,,,,,,,,,,,,1,,,,,,,,,,,,,,,,,,,,,,,,,,,,,,,,,,,,,,,,,,,,,,61,156442,19,Female,1,2024/02/15_16:42:54,JV,None,
,,,,,,calibration,0,2,2,426,13,X,1,right,0.5237841140005912,0,0,,,,,,,,,,,,,,,,,,,,,1,,,,,,,,,,,,,,,,,,,,,,,,,,,,,,,,,,,,,,,,,,,,,,61,156442,19,Female,1,2024/02/15_16:42:54,JV,None,
,,,,,,calibration,0,2,2,426,14,C,0,right,0.5581112149993714,1,0,,,,,,,,,,,,,,,,,,,,,1,,,,,,,,,,,,,,,,,,,,,,,,,,,,,,,,,,,,,,,,,,,,,,61,156442,19,Female,1,2024/02/15_16:42:54,JV,None,
,,,,,,calibration,0,2,2,426,15,X,1,right,0.8221571419999236,0,0,,,,,,,,,,,,,,,,,,,,,1,,,,,,,,,,,,,,,,,,,,,,,,,,,,,,,,,,,,,,,,,,,,,,61,156442,19,Female,1,2024/02/15_16:42:54,JV,None,
,,,,,,calibration,0,2,2,426,16,J,0,right,nan,0,1,,,,,,,,,,,,,,,,,,,,,1,,,,,,,,,,,,,,,,,,,,,,,,,,,,,,,,,,,,,,,,,,,,,,61,156442,19,Female,1,2024/02/15_16:42:54,JV,None,
,,,,,,calibration,0,2,2,426,17,X,1,right,0.9422605109975848,0,0,,,,,,,,,,,,,,,,,,,,,1,,,,,,,,,,,,,,,,,,,,,,,,,,,,,,,,,,,,,,,,,,,,,,61,156442,19,Female,1,2024/02/15_16:42:54,JV,None,
,,,,,,calibration,0,2,2,426,,,,,,,,0.7770833333333333,0.4,0.08333333333333333,0.9090909090909091,0.058823529411764705,0.8578431372549019,0.6565804014371679,2,1,0,1,1,10,12,5,12,0,,,,1,,,,,,,,,,,,,,,,,,,,,,,,,,,,,,,,,,,,,,,,,,,,,,61,156442,19,Female,1,2024/02/15_16:42:54,JV,None,
,,,,,,Calibration,0,,2,426,,,,,,,,,,,,,,,,,,,,,,,,,8,,,1,,,,,,,,,,,,,,,,,,,,,,,,,,,,,,,,,,,,,,,,,,,,,,61,156442,19,Female,1,2024/02/15_16:42:54,JV,None,
,,,,,,calibration,0,7,2,426,1,N,0,right,0.34557468599814456,1,0,,,,,,,,,,,,,,,,,,,,,1,,,,,,,,,,,,,,,,,,,,,,,,,,,,,,,,,,,,,,,,,,,,,,61,156442,19,Female,1,2024/02/15_16:42:54,JV,None,
,,,,,,calibration,0,7,2,426,2,S,0,right,0.5430207889985468,1,0,,,,,,,,,,,,,,,,,,,,,1,,,,,,,,,,,,,,,,,,,,,,,,,,,,,,,,,,,,,,,,,,,,,,61,156442,19,Female,1,2024/02/15_16:42:54,JV,None,
,,,,,,calibration,0,7,2,426,3,Q,0,right,0.7044630650016188,1,0,,,,,,,,,,,,,,,,,,,,,1,,,,,,,,,,,,,,,,,,,,,,,,,,,,,,,,,,,,,,,,,,,,,,61,156442,19,Female,1,2024/02/15_16:42:54,JV,None,
,,,,,,calibration,0,7,2,426,4,C,0,right,0.6055073499992432,1,0,,,,,,,,,,,,,,,,,,,,,1,,,,,,,,,,,,,,,,,,,,,,,,,,,,,,,,,,,,,,,,,,,,,,61,156442,19,Female,1,2024/02/15_16:42:54,JV,None,
,,,,,,calibration,0,7,2,426,5,Q,1,left,0.4553019020022475,1,0,,,,,,,,,,,,,,,,,,,,,1,,,,,,,,,,,,,,,,,,,,,,,,,,,,,,,,,,,,,,,,,,,,,,61,156442,19,Female,1,2024/02/15_16:42:54,JV,None,
,,,,,,calibration,0,7,2,426,6,X,0,right,0.4173594280000543,1,0,,,,,,,,,,,,,,,,,,,,,1,,,,,,,,,,,,,,,,,,,,,,,,,,,,,,,,,,,,,,,,,,,,,,61,156442,19,Female,1,2024/02/15_16:42:54,JV,None,
,,,,,,calibration,0,7,2,426,7,N,0,right,0.4575724360001914,1,0,,,,,,,,,,,,,,,,,,,,,1,,,,,,,,,,,,,,,,,,,,,,,,,,,,,,,,,,,,,,,,,,,,,,61,156442,19,Female,1,2024/02/15_16:42:54,JV,None,
,,,,,,calibration,0,7,2,426,8,Q,0,left,0.6835977180016926,0,0,,,,,,,,,,,,,,,,,,,,,1,,,,,,,,,,,,,,,,,,,,,,,,,,,,,,,,,,,,,,,,,,,,,,61,156442,19,Female,1,2024/02/15_16:42:54,JV,None,
,,,,,,calibration,0,7,2,426,9,N,1,right,0.30189008800152806,0,0,,,,,,,,,,,,,,,,,,,,,1,,,,,,,,,,,,,,,,,,,,,,,,,,,,,,,,,,,,,,,,,,,,,,61,156442,19,Female,1,2024/02/15_16:42:54,JV,None,
,,,,,,calibration,0,7,2,426,10,Q,1,right,0.4806083219991706,0,0,,,,,,,,,,,,,,,,,,,,,1,,,,,,,,,,,,,,,,,,,,,,,,,,,,,,,,,,,,,,,,,,,,,,61,156442,19,Female,1,2024/02/15_16:42:54,JV,None,
,,,,,,calibration,0,7,2,426,11,X,0,right,0.5915289799995662,1,0,,,,,,,,,,,,,,,,,,,,,1,,,,,,,,,,,,,,,,,,,,,,,,,,,,,,,,,,,,,,,,,,,,,,61,156442,19,Female,1,2024/02/15_16:42:54,JV,None,
,,,,,,calibration,0,7,2,426,12,C,0,right,0.603592044000834,1,0,,,,,,,,,,,,,,,,,,,,,1,,,,,,,,,,,,,,,,,,,,,,,,,,,,,,,,,,,,,,,,,,,,,,61,156442,19,Female,1,2024/02/15_16:42:54,JV,None,
,,,,,,calibration,0,7,2,426,13,Q,0,left,0.5388244360001408,0,0,,,,,,,,,,,,,,,,,,,,,1,,,,,,,,,,,,,,,,,,,,,,,,,,,,,,,,,,,,,,,,,,,,,,61,156442,19,Female,1,2024/02/15_16:42:54,JV,None,
,,,,,,calibration,0,7,2,426,14,S,0,right,0.5884917009971105,1,0,,,,,,,,,,,,,,,,,,,,,1,,,,,,,,,,,,,,,,,,,,,,,,,,,,,,,,,,,,,,,,,,,,,,61,156442,19,Female,1,2024/02/15_16:42:54,JV,None,
,,,,,,calibration,0,7,2,426,15,Q,1,left,0.8251688580021437,1,0,,,,,,,,,,,,,,,,,,,,,1,,,,,,,,,,,,,,,,,,,,,,,,,,,,,,,,,,,,,,,,,,,,,,61,156442,19,Female,1,2024/02/15_16:42:54,JV,None,
,,,,,,calibration,0,7,2,426,16,S,1,right,0.41527283799950965,0,0,,,,,,,,,,,,,,,,,,,,,1,,,,,,,,,,,,,,,,,,,,,,,,,,,,,,,,,,,,,,,,,,,,,,61,156442,19,Female,1,2024/02/15_16:42:54,JV,None,
,,,,,,calibration,0,7,2,426,17,X,0,right,0.7137414420030836,1,0,,,,,,,,,,,,,,,,,,,,,1,,,,,,,,,,,,,,,,,,,,,,,,,,,,,,,,,,,,,,,,,,,,,,61,156442,19,Female,1,2024/02/15_16:42:54,JV,None,
,,,,,,calibration,0,7,2,426,,,,,,,,0.7041666666666667,0.4,0.16666666666666666,0.8333333333333334,0.0,0.8333333333333334,0.5453832990002839,2,2,0,0,0,10,12,5,12,0,,,,1,,,,,,,,,,,,,,,,,,,,,,,,,,,,,,,,,,,,,,,,,,,,,,61,156442,19,Female,1,2024/02/15_16:42:54,JV,None,
,,,,,,Calibration,0,,2,426,,,,,,,,,,,,,,,,,,,,,,,,,9,,,1,,,,,,,,,,,,,,,,,,,,,,,,,,,,,,,,,,,,,,,,,,,,,,61,156442,19,Female,1,2024/02/15_16:42:54,JV,None,
,,,,,,calibration,0,2,2,500,1,N,0,right,0.6800092849989596,1,0,,,,,,,,,,,,,,,,,,,,,1,,,,,,,,,,,,,,,,,,,,,,,,,,,,,,,,,,,,,,,,,,,,,,61,156442,19,Female,1,2024/02/15_16:42:54,JV,None,
,,,,,,calibration,0,2,2,500,2,V,0,right,nan,0,1,,,,,,,,,,,,,,,,,,,,,1,,,,,,,,,,,,,,,,,,,,,,,,,,,,,,,,,,,,,,,,,,,,,,61,156442,19,Female,1,2024/02/15_16:42:54,JV,None,
,,,,,,calibration,0,2,2,500,3,S,0,right,nan,0,1,,,,,,,,,,,,,,,,,,,,,1,,,,,,,,,,,,,,,,,,,,,,,,,,,,,,,,,,,,,,,,,,,,,,61,156442,19,Female,1,2024/02/15_16:42:54,JV,None,
,,,,,,calibration,0,2,2,500,4,F,0,right,0.6320513730024686,1,0,,,,,,,,,,,,,,,,,,,,,1,,,,,,,,,,,,,,,,,,,,,,,,,,,,,,,,,,,,,,,,,,,,,,61,156442,19,Female,1,2024/02/15_16:42:54,JV,None,
,,,,,,calibration,0,2,2,500,5,X,0,right,0.6920577659984701,1,0,,,,,,,,,,,,,,,,,,,,,1,,,,,,,,,,,,,,,,,,,,,,,,,,,,,,,,,,,,,,,,,,,,,,61,156442,19,Female,1,2024/02/15_16:42:54,JV,None,
,,,,,,calibration,0,2,2,500,6,F,1,left,0.6892209530014952,1,0,,,,,,,,,,,,,,,,,,,,,1,,,,,,,,,,,,,,,,,,,,,,,,,,,,,,,,,,,,,,,,,,,,,,61,156442,19,Female,1,2024/02/15_16:42:54,JV,None,
,,,,,,calibration,0,2,2,500,7,X,1,right,0.8057365890017536,0,0,,,,,,,,,,,,,,,,,,,,,1,,,,,,,,,,,,,,,,,,,,,,,,,,,,,,,,,,,,,,,,,,,,,,61,156442,19,Female,1,2024/02/15_16:42:54,JV,None,
,,,,,,calibration,0,2,2,500,8,N,0,right,0.9252922470004705,1,0,,,,,,,,,,,,,,,,,,,,,1,,,,,,,,,,,,,,,,,,,,,,,,,,,,,,,,,,,,,,,,,,,,,,61,156442,19,Female,1,2024/02/15_16:42:54,JV,None,
,,,,,,calibration,0,2,2,500,9,X,1,left,0.7454859249992296,1,0,,,,,,,,,,,,,,,,,,,,,1,,,,,,,,,,,,,,,,,,,,,,,,,,,,,,,,,,,,,,,,,,,,,,61,156442,19,Female,1,2024/02/15_16:42:54,JV,None,
,,,,,,calibration,0,2,2,500,10,V,0,right,0.46049221900102566,1,0,,,,,,,,,,,,,,,,,,,,,1,,,,,,,,,,,,,,,,,,,,,,,,,,,,,,,,,,,,,,,,,,,,,,61,156442,19,Female,1,2024/02/15_16:42:54,JV,None,
,,,,,,calibration,0,2,2,500,11,J,0,right,0.791727878000529,1,0,,,,,,,,,,,,,,,,,,,,,1,,,,,,,,,,,,,,,,,,,,,,,,,,,,,,,,,,,,,,,,,,,,,,61,156442,19,Female,1,2024/02/15_16:42:54,JV,None,
,,,,,,calibration,0,2,2,500,12,F,0,right,0.4687408520003373,1,0,,,,,,,,,,,,,,,,,,,,,1,,,,,,,,,,,,,,,,,,,,,,,,,,,,,,,,,,,,,,,,,,,,,,61,156442,19,Female,1,2024/02/15_16:42:54,JV,None,
,,,,,,calibration,0,2,2,500,13,S,0,left,0.7773016350001853,0,0,,,,,,,,,,,,,,,,,,,,,1,,,,,,,,,,,,,,,,,,,,,,,,,,,,,,,,,,,,,,,,,,,,,,61,156442,19,Female,1,2024/02/15_16:42:54,JV,None,
,,,,,,calibration,0,2,2,500,14,F,1,right,0.4866733840026427,0,0,,,,,,,,,,,,,,,,,,,,,1,,,,,,,,,,,,,,,,,,,,,,,,,,,,,,,,,,,,,,,,,,,,,,61,156442,19,Female,1,2024/02/15_16:42:54,JV,None,
,,,,,,calibration,0,2,2,500,15,V,0,right,0.9655472440026642,1,0,,,,,,,,,,,,,,,,,,,,,1,,,,,,,,,,,,,,,,,,,,,,,,,,,,,,,,,,,,,,,,,,,,,,61,156442,19,Female,1,2024/02/15_16:42:54,JV,None,
,,,,,,calibration,0,2,2,500,16,N,0,right,0.49054976999832434,1,0,,,,,,,,,,,,,,,,,,,,,1,,,,,,,,,,,,,,,,,,,,,,,,,,,,,,,,,,,,,,,,,,,,,,61,156442,19,Female,1,2024/02/15_16:42:54,JV,None,
,,,,,,calibration,0,2,2,500,,,,,,,,0.8125,0.5,0.08333333333333333,0.9,0.125,0.7916666666666666,0.6864919371434682,2,1,0,2,2,9,11,4,12,0,,,,1,,,,,,,,,,,,,,,,,,,,,,,,,,,,,,,,,,,,,,,,,,,,,,61,156442,19,Female,1,2024/02/15_16:42:54,JV,None,
,,,,,,Calibration,0,,2,500,,,,,,,,,,,,,,,,,,,,,,,,,10,,,1,,,,,,,,,,,,,,,,,,,,,,,,,,,,,,,,,,,,,,,,,,,,,,61,156442,19,Female,1,2024/02/15_16:42:54,JV,None,
,,,,,,calibration,0,29,2,500,1,S,0,right,0.456334752998373,1,0,,,,,,,,,,,,,,,,,,,,,1,,,,,,,,,,,,,,,,,,,,,,,,,,,,,,,,,,,,,,,,,,,,,,61,156442,19,Female,1,2024/02/15_16:42:54,JV,None,
,,,,,,calibration,0,29,2,500,2,F,0,right,0.522650163002254,1,0,,,,,,,,,,,,,,,,,,,,,1,,,,,,,,,,,,,,,,,,,,,,,,,,,,,,,,,,,,,,,,,,,,,,61,156442,19,Female,1,2024/02/15_16:42:54,JV,None,
,,,,,,calibration,0,29,2,500,3,V,0,right,0.33406737800032715,1,0,,,,,,,,,,,,,,,,,,,,,1,,,,,,,,,,,,,,,,,,,,,,,,,,,,,,,,,,,,,,,,,,,,,,61,156442,19,Female,1,2024/02/15_16:42:54,JV,None,
,,,,,,calibration,0,29,2,500,4,F,1,right,0.44068340900048497,0,0,,,,,,,,,,,,,,,,,,,,,1,,,,,,,,,,,,,,,,,,,,,,,,,,,,,,,,,,,,,,,,,,,,,,61,156442,19,Female,1,2024/02/15_16:42:54,JV,None,
,,,,,,calibration,0,29,2,500,5,V,1,left,0.8456655449990649,1,0,,,,,,,,,,,,,,,,,,,,,1,,,,,,,,,,,,,,,,,,,,,,,,,,,,,,,,,,,,,,,,,,,,,,61,156442,19,Female,1,2024/02/15_16:42:54,JV,None,
,,,,,,calibration,0,29,2,500,6,N,0,right,0.5962742629999411,1,0,,,,,,,,,,,,,,,,,,,,,1,,,,,,,,,,,,,,,,,,,,,,,,,,,,,,,,,,,,,,,,,,,,,,61,156442,19,Female,1,2024/02/15_16:42:54,JV,None,
,,,,,,calibration,0,29,2,500,7,V,1,left,0.7428869680006756,1,0,,,,,,,,,,,,,,,,,,,,,1,,,,,,,,,,,,,,,,,,,,,,,,,,,,,,,,,,,,,,,,,,,,,,61,156442,19,Female,1,2024/02/15_16:42:54,JV,None,
,,,,,,calibration,0,29,2,500,8,J,0,right,0.6450814780000655,1,0,,,,,,,,,,,,,,,,,,,,,1,,,,,,,,,,,,,,,,,,,,,,,,,,,,,,,,,,,,,,,,,,,,,,61,156442,19,Female,1,2024/02/15_16:42:54,JV,None,
,,,,,,calibration,0,29,2,500,9,V,1,left,0.6143866989987146,1,0,,,,,,,,,,,,,,,,,,,,,1,,,,,,,,,,,,,,,,,,,,,,,,,,,,,,,,,,,,,,,,,,,,,,61,156442,19,Female,1,2024/02/15_16:42:54,JV,None,
,,,,,,calibration,0,29,2,500,10,S,0,right,0.42813093199947616,1,0,,,,,,,,,,,,,,,,,,,,,1,,,,,,,,,,,,,,,,,,,,,,,,,,,,,,,,,,,,,,,,,,,,,,61,156442,19,Female,1,2024/02/15_16:42:54,JV,None,
,,,,,,calibration,0,29,2,500,11,C,0,right,0.49358193300213316,1,0,,,,,,,,,,,,,,,,,,,,,1,,,,,,,,,,,,,,,,,,,,,,,,,,,,,,,,,,,,,,,,,,,,,,61,156442,19,Female,1,2024/02/15_16:42:54,JV,None,
,,,,,,calibration,0,29,2,500,12,S,1,left,0.4288473439992231,1,0,,,,,,,,,,,,,,,,,,,,,1,,,,,,,,,,,,,,,,,,,,,,,,,,,,,,,,,,,,,,,,,,,,,,61,156442,19,Female,1,2024/02/15_16:42:54,JV,None,
,,,,,,calibration,0,29,2,500,13,V,0,right,0.42841385399879073,1,0,,,,,,,,,,,,,,,,,,,,,1,,,,,,,,,,,,,,,,,,,,,,,,,,,,,,,,,,,,,,,,,,,,,,61,156442,19,Female,1,2024/02/15_16:42:54,JV,None,
,,,,,,calibration,0,29,2,500,14,Q,0,right,0.41375468199839815,1,0,,,,,,,,,,,,,,,,,,,,,1,,,,,,,,,,,,,,,,,,,,,,,,,,,,,,,,,,,,,,,,,,,,,,61,156442,19,Female,1,2024/02/15_16:42:54,JV,None,
,,,,,,calibration,0,29,2,500,15,F,0,right,0.5521129980006663,1,0,,,,,,,,,,,,,,,,,,,,,1,,,,,,,,,,,,,,,,,,,,,,,,,,,,,,,,,,,,,,,,,,,,,,61,156442,19,Female,1,2024/02/15_16:42:54,JV,None,
,,,,,,calibration,0,29,2,500,16,J,0,right,0.9087255869999353,1,0,,,,,,,,,,,,,,,,,,,,,1,,,,,,,,,,,,,,,,,,,,,,,,,,,,,,,,,,,,,,,,,,,,,,61,156442,19,Female,1,2024/02/15_16:42:54,JV,None,
,,,,,,calibration,0,29,2,500,,,,,,,,0.95,0.8,0.0,1.0,0.0,1.0,0.5532248741249077,4,0,0,0,0,11,15,5,11,0,,,,1,,,,,,,,,,,,,,,,,,,,,,,,,,,,,,,,,,,,,,,,,,,,,,61,156442,19,Female,1,2024/02/15_16:42:54,JV,None,
,,,,,,Calibration,0,,2,500,,,,,,,,,,,,,,,,,,,,,,,,,11,,,1,,,,,,,,,,,,,,,,,,,,,,,,,,,,,,,,,,,,,,,,,,,,,,61,156442,19,Female,1,2024/02/15_16:42:54,JV,None,
,,,,,,calibration,0,26,2,426,1,N,0,right,0.5247675310019986,1,0,,,,,,,,,,,,,,,,,,,,,1,,,,,,,,,,,,,,,,,,,,,,,,,,,,,,,,,,,,,,,,,,,,,,61,156442,19,Female,1,2024/02/15_16:42:54,JV,None,
,,,,,,calibration,0,26,2,426,2,F,0,right,0.6264006689998496,1,0,,,,,,,,,,,,,,,,,,,,,1,,,,,,,,,,,,,,,,,,,,,,,,,,,,,,,,,,,,,,,,,,,,,,61,156442,19,Female,1,2024/02/15_16:42:54,JV,None,
,,,,,,calibration,0,26,2,426,3,N,1,left,0.5616485399987141,1,0,,,,,,,,,,,,,,,,,,,,,1,,,,,,,,,,,,,,,,,,,,,,,,,,,,,,,,,,,,,,,,,,,,,,61,156442,19,Female,1,2024/02/15_16:42:54,JV,None,
,,,,,,calibration,0,26,2,426,4,S,0,right,0.4842672279992257,1,0,,,,,,,,,,,,,,,,,,,,,1,,,,,,,,,,,,,,,,,,,,,,,,,,,,,,,,,,,,,,,,,,,,,,61,156442,19,Female,1,2024/02/15_16:42:54,JV,None,
,,,,,,calibration,0,26,2,426,5,V,0,right,0.4889421010011574,1,0,,,,,,,,,,,,,,,,,,,,,1,,,,,,,,,,,,,,,,,,,,,,,,,,,,,,,,,,,,,,,,,,,,,,61,156442,19,Female,1,2024/02/15_16:42:54,JV,None,
,,,,,,calibration,0,26,2,426,6,Q,0,right,0.532670902000973,1,0,,,,,,,,,,,,,,,,,,,,,1,,,,,,,,,,,,,,,,,,,,,,,,,,,,,,,,,,,,,,,,,,,,,,61,156442,19,Female,1,2024/02/15_16:42:54,JV,None,
,,,,,,calibration,0,26,2,426,7,V,1,left,0.5752079390003928,1,0,,,,,,,,,,,,,,,,,,,,,1,,,,,,,,,,,,,,,,,,,,,,,,,,,,,,,,,,,,,,,,,,,,,,61,156442,19,Female,1,2024/02/15_16:42:54,JV,None,
,,,,,,calibration,0,26,2,426,8,Q,1,right,0.4390018849990156,0,0,,,,,,,,,,,,,,,,,,,,,1,,,,,,,,,,,,,,,,,,,,,,,,,,,,,,,,,,,,,,,,,,,,,,61,156442,19,Female,1,2024/02/15_16:42:54,JV,None,
,,,,,,calibration,0,26,2,426,9,J,0,left,0.48268212499897345,0,0,,,,,,,,,,,,,,,,,,,,,1,,,,,,,,,,,,,,,,,,,,,,,,,,,,,,,,,,,,,,,,,,,,,,61,156442,19,Female,1,2024/02/15_16:42:54,JV,None,
,,,,,,calibration,0,26,2,426,10,S,0,right,0.5898639629995159,1,0,,,,,,,,,,,,,,,,,,,,,1,,,,,,,,,,,,,,,,,,,,,,,,,,,,,,,,,,,,,,,,,,,,,,61,156442,19,Female,1,2024/02/15_16:42:54,JV,None,
,,,,,,calibration,0,26,2,426,11,J,1,right,0.5118902379981591,0,0,,,,,,,,,,,,,,,,,,,,,1,,,,,,,,,,,,,,,,,,,,,,,,,,,,,,,,,,,,,,,,,,,,,,61,156442,19,Female,1,2024/02/15_16:42:54,JV,None,
,,,,,,calibration,0,26,2,426,12,V,0,right,nan,0,1,,,,,,,,,,,,,,,,,,,,,1,,,,,,,,,,,,,,,,,,,,,,,,,,,,,,,,,,,,,,,,,,,,,,61,156442,19,Female,1,2024/02/15_16:42:54,JV,None,
,,,,,,calibration,0,26,2,426,13,X,0,right,0.2666591460001655,1,0,,,,,,,,,,,,,,,,,,,,,1,,,,,,,,,,,,,,,,,,,,,,,,,,,,,,,,,,,,,,,,,,,,,,61,156442,19,Female,1,2024/02/15_16:42:54,JV,None,
,,,,,,calibration,0,26,2,426,14,V,1,right,0.4812898749987653,0,0,,,,,,,,,,,,,,,,,,,,,1,,,,,,,,,,,,,,,,,,,,,,,,,,,,,,,,,,,,,,,,,,,,,,61,156442,19,Female,1,2024/02/15_16:42:54,JV,None,
,,,,,,calibration,0,26,2,426,15,F,0,right,0.4820065869971586,1,0,,,,,,,,,,,,,,,,,,,,,1,,,,,,,,,,,,,,,,,,,,,,,,,,,,,,,,,,,,,,,,,,,,,,61,156442,19,Female,1,2024/02/15_16:42:54,JV,None,
,,,,,,calibration,0,26,2,426,16,S,0,right,0.5117630059976364,1,0,,,,,,,,,,,,,,,,,,,,,1,,,,,,,,,,,,,,,,,,,,,,,,,,,,,,,,,,,,,,,,,,,,,,61,156442,19,Female,1,2024/02/15_16:42:54,JV,None,
,,,,,,calibration,0,26,2,426,17,J,0,left,0.560586029998376,0,0,,,,,,,,,,,,,,,,,,,,,1,,,,,,,,,,,,,,,,,,,,,,,,,,,,,,,,,,,,,,,,,,,,,,61,156442,19,Female,1,2024/02/15_16:42:54,JV,None,
,,,,,,calibration,0,26,2,426,,,,,,,,0.7041666666666667,0.4,0.16666666666666666,0.8181818181818182,0.058823529411764705,0.7745098039215687,0.5074779853118798,2,2,0,1,1,9,11,5,12,0,,,,1,,,,,,,,,,,,,,,,,,,,,,,,,,,,,,,,,,,,,,,,,,,,,,61,156442,19,Female,1,2024/02/15_16:42:54,JV,None,
,,,,,,Calibration,0,,2,426,,,,,,,,,,,,,,,,,,,,,,,,,12,,,1,,,,,,,,,,,,,,,,,,,,,,,,,,,,,,,,,,,,,,,,,,,,,,61,156442,19,Female,1,2024/02/15_16:42:54,JV,None,
,,,,,,calibration,0,18,2,500,1,F,0,right,0.42831408100028057,1,0,,,,,,,,,,,,,,,,,,,,,1,,,,,,,,,,,,,,,,,,,,,,,,,,,,,,,,,,,,,,,,,,,,,,61,156442,19,Female,1,2024/02/15_16:42:54,JV,None,
,,,,,,calibration,0,18,2,500,2,J,0,right,0.7329471650009509,1,0,,,,,,,,,,,,,,,,,,,,,1,,,,,,,,,,,,,,,,,,,,,,,,,,,,,,,,,,,,,,,,,,,,,,61,156442,19,Female,1,2024/02/15_16:42:54,JV,None,
,,,,,,calibration,0,18,2,500,3,Q,0,right,0.3441373380010191,1,0,,,,,,,,,,,,,,,,,,,,,1,,,,,,,,,,,,,,,,,,,,,,,,,,,,,,,,,,,,,,,,,,,,,,61,156442,19,Female,1,2024/02/15_16:42:54,JV,None,
,,,,,,calibration,0,18,2,500,4,C,0,right,0.4365705939999316,1,0,,,,,,,,,,,,,,,,,,,,,1,,,,,,,,,,,,,,,,,,,,,,,,,,,,,,,,,,,,,,,,,,,,,,61,156442,19,Female,1,2024/02/15_16:42:54,JV,None,
,,,,,,calibration,0,18,2,500,5,V,0,left,0.5610242010006914,0,0,,,,,,,,,,,,,,,,,,,,,1,,,,,,,,,,,,,,,,,,,,,,,,,,,,,,,,,,,,,,,,,,,,,,61,156442,19,Female,1,2024/02/15_16:42:54,JV,None,
,,,,,,calibration,0,18,2,500,6,C,1,right,0.3273905959977128,0,0,,,,,,,,,,,,,,,,,,,,,1,,,,,,,,,,,,,,,,,,,,,,,,,,,,,,,,,,,,,,,,,,,,,,61,156442,19,Female,1,2024/02/15_16:42:54,JV,None,
,,,,,,calibration,0,18,2,500,7,Q,0,right,0.5742503340006806,1,0,,,,,,,,,,,,,,,,,,,,,1,,,,,,,,,,,,,,,,,,,,,,,,,,,,,,,,,,,,,,,,,,,,,,61,156442,19,Female,1,2024/02/15_16:42:54,JV,None,
,,,,,,calibration,0,18,2,500,8,J,0,right,0.4232183519998216,1,0,,,,,,,,,,,,,,,,,,,,,1,,,,,,,,,,,,,,,,,,,,,,,,,,,,,,,,,,,,,,,,,,,,,,61,156442,19,Female,1,2024/02/15_16:42:54,JV,None,
,,,,,,calibration,0,18,2,500,9,N,0,right,0.4133680210034072,1,0,,,,,,,,,,,,,,,,,,,,,1,,,,,,,,,,,,,,,,,,,,,,,,,,,,,,,,,,,,,,,,,,,,,,61,156442,19,Female,1,2024/02/15_16:42:54,JV,None,
,,,,,,calibration,0,18,2,500,10,J,1,left,0.6579995950014563,1,0,,,,,,,,,,,,,,,,,,,,,1,,,,,,,,,,,,,,,,,,,,,,,,,,,,,,,,,,,,,,,,,,,,,,61,156442,19,Female,1,2024/02/15_16:42:54,JV,None,
,,,,,,calibration,0,18,2,500,11,X,0,right,0.48331756399784354,1,0,,,,,,,,,,,,,,,,,,,,,1,,,,,,,,,,,,,,,,,,,,,,,,,,,,,,,,,,,,,,,,,,,,,,61,156442,19,Female,1,2024/02/15_16:42:54,JV,None,
,,,,,,calibration,0,18,2,500,12,V,0,right,0.4326963290004642,1,0,,,,,,,,,,,,,,,,,,,,,1,,,,,,,,,,,,,,,,,,,,,,,,,,,,,,,,,,,,,,,,,,,,,,61,156442,19,Female,1,2024/02/15_16:42:54,JV,None,
,,,,,,calibration,0,18,2,500,13,S,0,right,0.43702951700106496,1,0,,,,,,,,,,,,,,,,,,,,,1,,,,,,,,,,,,,,,,,,,,,,,,,,,,,,,,,,,,,,,,,,,,,,61,156442,19,Female,1,2024/02/15_16:42:54,JV,None,
,,,,,,calibration,0,18,2,500,14,V,1,right,0.4403626460007217,0,0,,,,,,,,,,,,,,,,,,,,,1,,,,,,,,,,,,,,,,,,,,,,,,,,,,,,,,,,,,,,,,,,,,,,61,156442,19,Female,1,2024/02/15_16:42:54,JV,None,
,,,,,,calibration,0,18,2,500,15,J,0,right,0.5943292890005978,1,0,,,,,,,,,,,,,,,,,,,,,1,,,,,,,,,,,,,,,,,,,,,,,,,,,,,,,,,,,,,,,,,,,,,,61,156442,19,Female,1,2024/02/15_16:42:54,JV,None,
,,,,,,calibration,0,18,2,500,16,V,1,right,0.9803959609998856,0,0,,,,,,,,,,,,,,,,,,,,,1,,,,,,,,,,,,,,,,,,,,,,,,,,,,,,,,,,,,,,,,,,,,,,61,156442,19,Female,1,2024/02/15_16:42:54,JV,None,
,,,,,,calibration,0,18,2,500,,,,,,,,0.7083333333333333,0.25,0.08333333333333333,0.9166666666666666,0.0,0.9166666666666666,0.5167094739379081,1,1,0,0,0,11,12,4,12,0,,,,1,,,,,,,,,,,,,,,,,,,,,,,,,,,,,,,,,,,,,,,,,,,,,,61,156442,19,Female,1,2024/02/15_16:42:54,JV,None,
,,,,,,Calibration,0,,2,500,,,,,,,,,,,,,,,,,,,,,,,,,13,,,1,,,,,,,,,,,,,,,,,,,,,,,,,,,,,,,,,,,,,,,,,,,,,,61,156442,19,Female,1,2024/02/15_16:42:54,JV,None,
,,,,,,calibration,0,22,2,583,1,F,0,right,0.7709911909987568,1,0,,,,,,,,,,,,,,,,,,,,,1,,,,,,,,,,,,,,,,,,,,,,,,,,,,,,,,,,,,,,,,,,,,,,61,156442,19,Female,1,2024/02/15_16:42:54,JV,None,
,,,,,,calibration,0,22,2,583,2,F,0,left,0.5593911239993758,0,0,,,,,,,,,,,,,,,,,,,,,1,,,,,,,,,,,,,,,,,,,,,,,,,,,,,,,,,,,,,,,,,,,,,,61,156442,19,Female,1,2024/02/15_16:42:54,JV,None,
,,,,,,calibration,0,22,2,583,3,F,1,left,0.6282323029990948,1,0,,,,,,,,,,,,,,,,,,,,,1,,,,,,,,,,,,,,,,,,,,,,,,,,,,,,,,,,,,,,,,,,,,,,61,156442,19,Female,1,2024/02/15_16:42:54,JV,None,
,,,,,,calibration,0,22,2,583,4,F,1,left,0.598089061997598,1,0,,,,,,,,,,,,,,,,,,,,,1,,,,,,,,,,,,,,,,,,,,,,,,,,,,,,,,,,,,,,,,,,,,,,61,156442,19,Female,1,2024/02/15_16:42:54,JV,None,
,,,,,,calibration,0,22,2,583,5,X,0,right,0.5579733029990166,1,0,,,,,,,,,,,,,,,,,,,,,1,,,,,,,,,,,,,,,,,,,,,,,,,,,,,,,,,,,,,,,,,,,,,,61,156442,19,Female,1,2024/02/15_16:42:54,JV,None,
,,,,,,calibration,0,22,2,583,6,F,1,left,0.8063119470025413,1,0,,,,,,,,,,,,,,,,,,,,,1,,,,,,,,,,,,,,,,,,,,,,,,,,,,,,,,,,,,,,,,,,,,,,61,156442,19,Female,1,2024/02/15_16:42:54,JV,None,
,,,,,,calibration,0,22,2,583,7,N,0,right,0.4022618060007517,1,0,,,,,,,,,,,,,,,,,,,,,1,,,,,,,,,,,,,,,,,,,,,,,,,,,,,,,,,,,,,,,,,,,,,,61,156442,19,Female,1,2024/02/15_16:42:54,JV,None,
,,,,,,calibration,0,22,2,583,8,S,0,right,0.42494617400006973,1,0,,,,,,,,,,,,,,,,,,,,,1,,,,,,,,,,,,,,,,,,,,,,,,,,,,,,,,,,,,,,,,,,,,,,61,156442,19,Female,1,2024/02/15_16:42:54,JV,None,
,,,,,,calibration,0,22,2,583,9,X,0,right,0.4854394840003806,1,0,,,,,,,,,,,,,,,,,,,,,1,,,,,,,,,,,,,,,,,,,,,,,,,,,,,,,,,,,,,,,,,,,,,,61,156442,19,Female,1,2024/02/15_16:42:54,JV,None,
,,,,,,calibration,0,22,2,583,10,S,1,right,0.731740962000913,0,0,,,,,,,,,,,,,,,,,,,,,1,,,,,,,,,,,,,,,,,,,,,,,,,,,,,,,,,,,,,,,,,,,,,,61,156442,19,Female,1,2024/02/15_16:42:54,JV,None,
,,,,,,calibration,0,22,2,583,11,X,1,left,0.511797958999523,1,0,,,,,,,,,,,,,,,,,,,,,1,,,,,,,,,,,,,,,,,,,,,,,,,,,,,,,,,,,,,,,,,,,,,,61,156442,19,Female,1,2024/02/15_16:42:54,JV,None,
,,,,,,calibration,0,22,2,583,12,J,0,right,0.39098521399864694,1,0,,,,,,,,,,,,,,,,,,,,,1,,,,,,,,,,,,,,,,,,,,,,,,,,,,,,,,,,,,,,,,,,,,,,61,156442,19,Female,1,2024/02/15_16:42:54,JV,None,
,,,,,,calibration,0,22,2,583,13,N,0,right,0.6585271170006308,1,0,,,,,,,,,,,,,,,,,,,,,1,,,,,,,,,,,,,,,,,,,,,,,,,,,,,,,,,,,,,,,,,,,,,,61,156442,19,Female,1,2024/02/15_16:42:54,JV,None,
,,,,,,calibration,0,22,2,583,14,X,0,right,0.5121463699979358,1,0,,,,,,,,,,,,,,,,,,,,,1,,,,,,,,,,,,,,,,,,,,,,,,,,,,,,,,,,,,,,,,,,,,,,61,156442,19,Female,1,2024/02/15_16:42:54,JV,None,
,,,,,,calibration,0,22,2,583,15,J,0,right,0.5118518250019406,1,0,,,,,,,,,,,,,,,,,,,,,1,,,,,,,,,,,,,,,,,,,,,,,,,,,,,,,,,,,,,,,,,,,,,,61,156442,19,Female,1,2024/02/15_16:42:54,JV,None,
,,,,,,calibration,0,22,2,583,,,,,,,,0.905,0.8,0.1,0.9,0.0,0.9,0.570045722733145,4,1,0,0,0,9,13,5,10,0,,,,1,,,,,,,,,,,,,,,,,,,,,,,,,,,,,,,,,,,,,,,,,,,,,,61,156442,19,Female,1,2024/02/15_16:42:54,JV,None,
,,,,,,Calibration,0,,2,583,,,,,,,,,,,,,,,,,,,,,,,,,14,,,1,,,,,,,,,,,,,,,,,,,,,,,,,,,,,,,,,,,,,,,,,,,,,,61,156442,19,Female,1,2024/02/15_16:42:54,JV,None,
,,,,,,calibration,0,30,2,500,1,N,0,right,0.5312235620003776,1,0,,,,,,,,,,,,,,,,,,,,,1,,,,,,,,,,,,,,,,,,,,,,,,,,,,,,,,,,,,,,,,,,,,,,61,156442,19,Female,1,2024/02/15_16:42:54,JV,None,
,,,,,,calibration,0,30,2,500,2,S,0,right,0.43090090500118094,1,0,,,,,,,,,,,,,,,,,,,,,1,,,,,,,,,,,,,,,,,,,,,,,,,,,,,,,,,,,,,,,,,,,,,,61,156442,19,Female,1,2024/02/15_16:42:54,JV,None,
,,,,,,calibration,0,30,2,500,3,Q,0,right,0.7053125189995626,1,0,,,,,,,,,,,,,,,,,,,,,1,,,,,,,,,,,,,,,,,,,,,,,,,,,,,,,,,,,,,,,,,,,,,,61,156442,19,Female,1,2024/02/15_16:42:54,JV,None,
,,,,,,calibration,0,30,2,500,4,S,1,left,0.5811913160032418,1,0,,,,,,,,,,,,,,,,,,,,,1,,,,,,,,,,,,,,,,,,,,,,,,,,,,,,,,,,,,,,,,,,,,,,61,156442,19,Female,1,2024/02/15_16:42:54,JV,None,
,,,,,,calibration,0,30,2,500,5,X,0,right,0.565101976000733,1,0,,,,,,,,,,,,,,,,,,,,,1,,,,,,,,,,,,,,,,,,,,,,,,,,,,,,,,,,,,,,,,,,,,,,61,156442,19,Female,1,2024/02/15_16:42:54,JV,None,
,,,,,,calibration,0,30,2,500,6,N,0,right,0.29396879699925194,1,0,,,,,,,,,,,,,,,,,,,,,1,,,,,,,,,,,,,,,,,,,,,,,,,,,,,,,,,,,,,,,,,,,,,,61,156442,19,Female,1,2024/02/15_16:42:54,JV,None,
,,,,,,calibration,0,30,2,500,7,V,0,right,0.7083703810021689,1,0,,,,,,,,,,,,,,,,,,,,,1,,,,,,,,,,,,,,,,,,,,,,,,,,,,,,,,,,,,,,,,,,,,,,61,156442,19,Female,1,2024/02/15_16:42:54,JV,None,
,,,,,,calibration,0,30,2,500,8,N,1,right,nan,0,1,,,,,,,,,,,,,,,,,,,,,1,,,,,,,,,,,,,,,,,,,,,,,,,,,,,,,,,,,,,,,,,,,,,,61,156442,19,Female,1,2024/02/15_16:42:54,JV,None,
,,,,,,calibration,0,30,2,500,9,C,0,right,0.6083739009991405,1,0,,,,,,,,,,,,,,,,,,,,,1,,,,,,,,,,,,,,,,,,,,,,,,,,,,,,,,,,,,,,,,,,,,,,61,156442,19,Female,1,2024/02/15_16:42:54,JV,None,
,,,,,,calibration,0,30,2,500,10,S,0,right,0.42727279900282156,1,0,,,,,,,,,,,,,,,,,,,,,1,,,,,,,,,,,,,,,,,,,,,,,,,,,,,,,,,,,,,,,,,,,,,,61,156442,19,Female,1,2024/02/15_16:42:54,JV,None,
,,,,,,calibration,0,30,2,500,11,F,0,right,0.8388882699982787,1,0,,,,,,,,,,,,,,,,,,,,,1,,,,,,,,,,,,,,,,,,,,,,,,,,,,,,,,,,,,,,,,,,,,,,61,156442,19,Female,1,2024/02/15_16:42:54,JV,None,
,,,,,,calibration,0,30,2,500,12,Q,0,right,0.5120839609990071,1,0,,,,,,,,,,,,,,,,,,,,,1,,,,,,,,,,,,,,,,,,,,,,,,,,,,,,,,,,,,,,,,,,,,,,61,156442,19,Female,1,2024/02/15_16:42:54,JV,None,
,,,,,,calibration,0,30,2,500,13,F,1,left,0.92544626200106,1,0,,,,,,,,,,,,,,,,,,,,,1,,,,,,,,,,,,,,,,,,,,,,,,,,,,,,,,,,,,,,,,,,,,,,61,156442,19,Female,1,2024/02/15_16:42:54,JV,None,
,,,,,,calibration,0,30,2,500,14,Q,1,right,0.3830639810003049,0,0,,,,,,,,,,,,,,,,,,,,,1,,,,,,,,,,,,,,,,,,,,,,,,,,,,,,,,,,,,,,,,,,,,,,61,156442,19,Female,1,2024/02/15_16:42:54,JV,None,
,,,,,,calibration,0,30,2,500,15,V,0,right,0.7685553890005394,1,0,,,,,,,,,,,,,,,,,,,,,1,,,,,,,,,,,,,,,,,,,,,,,,,,,,,,,,,,,,,,,,,,,,,,61,156442,19,Female,1,2024/02/15_16:42:54,JV,None,
,,,,,,calibration,0,30,2,500,16,F,0,right,0.4073542799997085,1,0,,,,,,,,,,,,,,,,,,,,,1,,,,,,,,,,,,,,,,,,,,,,,,,,,,,,,,,,,,,,,,,,,,,,61,156442,19,Female,1,2024/02/15_16:42:54,JV,None,
,,,,,,calibration,0,30,2,500,,,,,,,,0.875,0.5,0.0,1.0,0.0625,0.9375,0.5791405532671585,2,0,1,0,1,12,14,4,12,0,,,,1,,,,,,,,,,,,,,,,,,,,,,,,,,,,,,,,,,,,,,,,,,,,,,61,156442,19,Female,1,2024/02/15_16:42:54,JV,None,
,,,,,,Calibration,0,,2,500,,,,,,,,,,,,,,,,,,,,,,,,,15,,,1,,,,,,,,,,,,,,,,,,,,,,,,,,,,,,,,,,,,,,,,,,,,,,61,156442,19,Female,1,2024/02/15_16:42:54,JV,None,
,,,,,,CALIBRATION,0,,,,,,,,,,,,,,,,,,,,,,,,,,,,15,0.875,500,1,,,,,,,,,,,,,,,,,,,,,,,,,,,,,,,,,,,,,,,,,,,,,,61,156442,19,Female,1,2024/02/15_16:42:54,JV,None,
1,./instructions/inst_prac_1/Slide24.png,right,11.111867965999409,393.7798580630006,404.891726029,,,,,,,,,,,,,,,,,,,,,,,,,,,,,,,,,1,,,,,,,,,,,,,,,,,,,,,,,,,,,,,,,,,,,,,,,,,,,,,,61,156442,19,Female,1,2024/02/15_16:42:54,JV,None,
2,./instructions/inst_prac_1/Slide25.png,right,2.2667594669983373,404.92080752200127,407.1875669889996,,,,,,,,,,,,,,,,,,,,,,,,,,,,,,,,,1,,,,,,,,,,,,,,,,,,,,,,,,,,,,,,,,,,,,,,,,,,,,,,61,156442,19,Female,1,2024/02/15_16:42:54,JV,None,
3,./instructions/inst_prac_1/Slide26.png,right,0.7376313940003456,407.20986054699824,407.9474919409986,,,,,,,,,,,,,,,,,,,,,,,,,,,,,,,,,1,,,,,,,,,,,,,,,,,,,,,,,,,,,,,,,,,,,,,,,,,,,,,,61,156442,19,Female,1,2024/02/15_16:42:54,JV,None,
4,./instructions/inst_prac_1/Slide27.png,right,0.547449959001824,407.97612650799783,408.52357646699966,,,,,,,,,,,,,,,,,,,,,,,,,,,,,,,,,1,,,,,,,,,,,,,,,,,,,,,,,,,,,,,,,,,,,,,,,,,,,,,,61,156442,19,Female,1,2024/02/15_16:42:54,JV,None,
5,./instructions/inst_prac_1/Slide28.png,right,0.47841041200081236,408.54901165299816,409.027422064999,,,,,,,,,,,,,,,,,,,,,,,,,,,,,,,,,1,,,,,,,,,,,,,,,,,,,,,,,,,,,,,,,,,,,,,,,,,,,,,,61,156442,19,Female,1,2024/02/15_16:42:54,JV,None,
6,./instructions/inst_prac_1/Slide29.png,right,1.8835011150003993,409.05601331399885,410.93951442899925,,,,,,,,,,,,,,,,,,,,,,,,,,,,,,,,,1,,,,,,,,,,,,,,,,,,,,,,,,,,,,,,,,,,,,,,,,,,,,,,61,156442,19,Female,1,2024/02/15_16:42:54,JV,None,
7,./instructions/inst_prac_1/Slide30.png,right,1.4773011590004899,410.96615388899954,412.44345504800003,,,,,,,,,,,,,,,,,,,,,,,,,,,,,,,,,1,,,,,,,,,,,,,,,,,,,,,,,,,,,,,,,,,,,,,,,,,,,,,,61,156442,19,Female,1,2024/02/15_16:42:54,JV,None,
,,,,,,practice,0,3,1,1250,1,N,0,right,2.2508951089985203,1,0,,,,,,,,,,,,,,,,,,,,,1,,,,,,,,,,,,,,,,,,,,,,,,,,,,,,,,,,,,,,,,,,,,,,61,156442,19,Female,1,2024/02/15_16:42:54,JV,None,
,,,,,,practice,0,3,1,1250,2,N,1,left,0.8113369540005806,1,0,,,,,,,,,,,,,,,,,,,,,1,,,,,,,,,,,,,,,,,,,,,,,,,,,,,,,,,,,,,,,,,,,,,,61,156442,19,Female,1,2024/02/15_16:42:54,JV,None,
,,,,,,practice,0,3,1,1250,3,X,0,right,0.8437604659993667,1,0,,,,,,,,,,,,,,,,,,,,,1,,,,,,,,,,,,,,,,,,,,,,,,,,,,,,,,,,,,,,,,,,,,,,61,156442,19,Female,1,2024/02/15_16:42:54,JV,None,
,,,,,,practice,0,3,1,1250,4,J,0,right,1.0309967510002025,1,0,,,,,,,,,,,,,,,,,,,,,1,,,,,,,,,,,,,,,,,,,,,,,,,,,,,,,,,,,,,,,,,,,,,,61,156442,19,Female,1,2024/02/15_16:42:54,JV,None,
,,,,,,practice,0,3,1,1250,5,J,1,left,0.5019790599981206,1,0,,,,,,,,,,,,,,,,,,,,,1,,,,,,,,,,,,,,,,,,,,,,,,,,,,,,,,,,,,,,,,,,,,,,61,156442,19,Female,1,2024/02/15_16:42:54,JV,None,
,,,,,,practice,0,3,1,1250,6,S,0,right,0.5414759989980666,1,0,,,,,,,,,,,,,,,,,,,,,1,,,,,,,,,,,,,,,,,,,,,,,,,,,,,,,,,,,,,,,,,,,,,,61,156442,19,Female,1,2024/02/15_16:42:54,JV,None,
,,,,,,practice,0,3,1,1250,7,S,1,left,1.2146457859998918,1,0,,,,,,,,,,,,,,,,,,,,,1,,,,,,,,,,,,,,,,,,,,,,,,,,,,,,,,,,,,,,,,,,,,,,61,156442,19,Female,1,2024/02/15_16:42:54,JV,None,
,,,,,,practice,0,3,1,1250,8,V,0,right,0.47355198500008555,1,0,,,,,,,,,,,,,,,,,,,,,1,,,,,,,,,,,,,,,,,,,,,,,,,,,,,,,,,,,,,,,,,,,,,,61,156442,19,Female,1,2024/02/15_16:42:54,JV,None,
,,,,,,practice,0,3,1,1250,9,F,0,right,0.560641273001238,1,0,,,,,,,,,,,,,,,,,,,,,1,,,,,,,,,,,,,,,,,,,,,,,,,,,,,,,,,,,,,,,,,,,,,,61,156442,19,Female,1,2024/02/15_16:42:54,JV,None,
,,,,,,practice,0,3,1,1250,10,X,0,right,0.5574225099990144,1,0,,,,,,,,,,,,,,,,,,,,,1,,,,,,,,,,,,,,,,,,,,,,,,,,,,,,,,,,,,,,,,,,,,,,61,156442,19,Female,1,2024/02/15_16:42:54,JV,None,
,,,,,,practice,0,3,1,1250,,,,,,,,1.0,1.0,0.0,1.0,0.0,1.0,0.8786705892995087,3,0,0,0,0,7,10,3,7,0,,,,1,,,,,,,,,,,,,,,,,,,,,,,,,,,,,,,,,,,,,,,,,,,,,,61,156442,19,Female,1,2024/02/15_16:42:54,JV,None,
1,./instructions/inst_prac_1_next/Slide35.png,right,4.600820044997818,431.74670319800134,436.34752324299916,,,,,,,,,,,,,,,,,,,,,,,,,,,,,,,,,1,,,,,,,,,,,,,,,,,,,,,,,,,,,,,,,,,,,,,,,,,,,,,,61,156442,19,Female,1,2024/02/15_16:42:54,JV,None,
,,,,,,practice,0,35,1,500,1,S,0,left,1.5485677830001805,0,0,,,,,,,,,,,,,,,,,,,,,1,,,,,,,,,,,,,,,,,,,,,,,,,,,,,,,,,,,,,,,,,,,,,,61,156442,19,Female,1,2024/02/15_16:42:54,JV,None,
,,,,,,practice,0,35,1,500,2,S,1,left,1.01704486500239,1,0,,,,,,,,,,,,,,,,,,,,,1,,,,,,,,,,,,,,,,,,,,,,,,,,,,,,,,,,,,,,,,,,,,,,61,156442,19,Female,1,2024/02/15_16:42:54,JV,None,
,,,,,,practice,0,35,1,500,3,N,0,right,0.497155995999492,1,0,,,,,,,,,,,,,,,,,,,,,1,,,,,,,,,,,,,,,,,,,,,,,,,,,,,,,,,,,,,,,,,,,,,,61,156442,19,Female,1,2024/02/15_16:42:54,JV,None,
,,,,,,practice,0,35,1,500,4,F,0,right,0.5569175890013867,1,0,,,,,,,,,,,,,,,,,,,,,1,,,,,,,,,,,,,,,,,,,,,,,,,,,,,,,,,,,,,,,,,,,,,,61,156442,19,Female,1,2024/02/15_16:42:54,JV,None,
,,,,,,practice,0,35,1,500,5,F,1,left,0.7147938589987461,1,0,,,,,,,,,,,,,,,,,,,,,1,,,,,,,,,,,,,,,,,,,,,,,,,,,,,,,,,,,,,,,,,,,,,,61,156442,19,Female,1,2024/02/15_16:42:54,JV,None,
,,,,,,practice,0,35,1,500,6,S,0,right,0.7708382489981886,1,0,,,,,,,,,,,,,,,,,,,,,1,,,,,,,,,,,,,,,,,,,,,,,,,,,,,,,,,,,,,,,,,,,,,,61,156442,19,Female,1,2024/02/15_16:42:54,JV,None,
,,,,,,practice,0,35,1,500,7,X,0,right,0.6847794400018756,1,0,,,,,,,,,,,,,,,,,,,,,1,,,,,,,,,,,,,,,,,,,,,,,,,,,,,,,,,,,,,,,,,,,,,,61,156442,19,Female,1,2024/02/15_16:42:54,JV,None,
,,,,,,practice,0,35,1,500,8,Q,0,right,0.5438550779981597,1,0,,,,,,,,,,,,,,,,,,,,,1,,,,,,,,,,,,,,,,,,,,,,,,,,,,,,,,,,,,,,,,,,,,,,61,156442,19,Female,1,2024/02/15_16:42:54,JV,None,
,,,,,,practice,0,35,1,500,9,S,0,right,0.7924155969994899,1,0,,,,,,,,,,,,,,,,,,,,,1,,,,,,,,,,,,,,,,,,,,,,,,,,,,,,,,,,,,,,,,,,,,,,61,156442,19,Female,1,2024/02/15_16:42:54,JV,None,
,,,,,,practice,0,35,1,500,10,X,0,right,0.7372474059993692,1,0,,,,,,,,,,,,,,,,,,,,,1,,,,,,,,,,,,,,,,,,,,,,,,,,,,,,,,,,,,,,,,,,,,,,61,156442,19,Female,1,2024/02/15_16:42:54,JV,None,
,,,,,,practice,0,35,1,500,11,X,1,left,0.705092254000192,1,0,,,,,,,,,,,,,,,,,,,,,1,,,,,,,,,,,,,,,,,,,,,,,,,,,,,,,,,,,,,,,,,,,,,,61,156442,19,Female,1,2024/02/15_16:42:54,JV,None,
,,,,,,practice,0,35,1,500,12,C,0,right,0.632370888000878,1,0,,,,,,,,,,,,,,,,,,,,,1,,,,,,,,,,,,,,,,,,,,,,,,,,,,,,,,,,,,,,,,,,,,,,61,156442,19,Female,1,2024/02/15_16:42:54,JV,None,
,,,,,,practice,0,35,1,500,13,C,1,left,0.5486659630005306,1,0,,,,,,,,,,,,,,,,,,,,,1,,,,,,,,,,,,,,,,,,,,,,,,,,,,,,,,,,,,,,,,,,,,,,61,156442,19,Female,1,2024/02/15_16:42:54,JV,None,
,,,,,,practice,0,35,1,500,14,Q,0,right,0.5541788170012296,1,0,,,,,,,,,,,,,,,,,,,,,1,,,,,,,,,,,,,,,,,,,,,,,,,,,,,,,,,,,,,,,,,,,,,,61,156442,19,Female,1,2024/02/15_16:42:54,JV,None,
,,,,,,practice,0,35,1,500,15,V,0,right,0.517557097999088,1,0,,,,,,,,,,,,,,,,,,,,,1,,,,,,,,,,,,,,,,,,,,,,,,,,,,,,,,,,,,,,,,,,,,,,61,156442,19,Female,1,2024/02/15_16:42:54,JV,None,
,,,,,,practice,0,35,1,500,16,J,0,right,0.5458161850001488,1,0,,,,,,,,,,,,,,,,,,,,,1,,,,,,,,,,,,,,,,,,,,,,,,,,,,,,,,,,,,,,,,,,,,,,61,156442,19,Female,1,2024/02/15_16:42:54,JV,None,
,,,,,,practice,0,35,1,500,,,,,,,,0.9791666666666666,1.0,0.08333333333333333,0.9166666666666666,0.0,0.9166666666666666,0.7104560666875841,4,1,0,0,0,11,15,4,12,0,,,,1,,,,,,,,,,,,,,,,,,,,,,,,,,,,,,,,,,,,,,,,,,,,,,61,156442,19,Female,1,2024/02/15_16:42:54,JV,None,
,,,,,,practice,0,28,1,500,1,V,0,right,0.4288981559984677,1,0,,,,,,,,,,,,,,,,,,,,,1,,,,,,,,,,,,,,,,,,,,,,,,,,,,,,,,,,,,,,,,,,,,,,61,156442,19,Female,1,2024/02/15_16:42:54,JV,None,
,,,,,,practice,0,28,1,500,2,V,1,left,0.5302809149980021,1,0,,,,,,,,,,,,,,,,,,,,,1,,,,,,,,,,,,,,,,,,,,,,,,,,,,,,,,,,,,,,,,,,,,,,61,156442,19,Female,1,2024/02/15_16:42:54,JV,None,
,,,,,,practice,0,28,1,500,3,J,0,right,0.4049617959972238,1,0,,,,,,,,,,,,,,,,,,,,,1,,,,,,,,,,,,,,,,,,,,,,,,,,,,,,,,,,,,,,,,,,,,,,61,156442,19,Female,1,2024/02/15_16:42:54,JV,None,
,,,,,,practice,0,28,1,500,4,C,0,right,0.6973028439970221,1,0,,,,,,,,,,,,,,,,,,,,,1,,,,,,,,,,,,,,,,,,,,,,,,,,,,,,,,,,,,,,,,,,,,,,61,156442,19,Female,1,2024/02/15_16:42:54,JV,None,
,,,,,,practice,0,28,1,500,5,F,0,right,0.4208202599984361,1,0,,,,,,,,,,,,,,,,,,,,,1,,,,,,,,,,,,,,,,,,,,,,,,,,,,,,,,,,,,,,,,,,,,,,61,156442,19,Female,1,2024/02/15_16:42:54,JV,None,
,,,,,,practice,0,28,1,500,6,F,1,left,0.5465235619994928,1,0,,,,,,,,,,,,,,,,,,,,,1,,,,,,,,,,,,,,,,,,,,,,,,,,,,,,,,,,,,,,,,,,,,,,61,156442,19,Female,1,2024/02/15_16:42:54,JV,None,
,,,,,,practice,0,28,1,500,7,C,0,right,0.5647902710006747,1,0,,,,,,,,,,,,,,,,,,,,,1,,,,,,,,,,,,,,,,,,,,,,,,,,,,,,,,,,,,,,,,,,,,,,61,156442,19,Female,1,2024/02/15_16:42:54,JV,None,
,,,,,,practice,0,28,1,500,8,C,1,left,0.490203945999383,1,0,,,,,,,,,,,,,,,,,,,,,1,,,,,,,,,,,,,,,,,,,,,,,,,,,,,,,,,,,,,,,,,,,,,,61,156442,19,Female,1,2024/02/15_16:42:54,JV,None,
,,,,,,practice,0,28,1,500,9,X,0,right,0.4518732979995548,1,0,,,,,,,,,,,,,,,,,,,,,1,,,,,,,,,,,,,,,,,,,,,,,,,,,,,,,,,,,,,,,,,,,,,,61,156442,19,Female,1,2024/02/15_16:42:54,JV,None,
,,,,,,practice,0,28,1,500,10,X,1,left,0.62435186500079,1,0,,,,,,,,,,,,,,,,,,,,,1,,,,,,,,,,,,,,,,,,,,,,,,,,,,,,,,,,,,,,,,,,,,,,61,156442,19,Female,1,2024/02/15_16:42:54,JV,None,
,,,,,,practice,0,28,1,500,11,Q,0,right,0.4255324199984898,1,0,,,,,,,,,,,,,,,,,,,,,1,,,,,,,,,,,,,,,,,,,,,,,,,,,,,,,,,,,,,,,,,,,,,,61,156442,19,Female,1,2024/02/15_16:42:54,JV,None,
,,,,,,practice,0,28,1,500,12,J,0,right,0.37025762800112716,1,0,,,,,,,,,,,,,,,,,,,,,1,,,,,,,,,,,,,,,,,,,,,,,,,,,,,,,,,,,,,,,,,,,,,,61,156442,19,Female,1,2024/02/15_16:42:54,JV,None,
,,,,,,practice,0,28,1,500,13,V,0,right,0.46391690599921276,1,0,,,,,,,,,,,,,,,,,,,,,1,,,,,,,,,,,,,,,,,,,,,,,,,,,,,,,,,,,,,,,,,,,,,,61,156442,19,Female,1,2024/02/15_16:42:54,JV,None,
,,,,,,practice,0,28,1,500,14,N,0,right,0.4766393440004322,1,0,,,,,,,,,,,,,,,,,,,,,1,,,,,,,,,,,,,,,,,,,,,,,,,,,,,,,,,,,,,,,,,,,,,,61,156442,19,Female,1,2024/02/15_16:42:54,JV,None,
,,,,,,practice,0,28,1,500,15,N,1,left,0.6292966090004484,1,0,,,,,,,,,,,,,,,,,,,,,1,,,,,,,,,,,,,,,,,,,,,,,,,,,,,,,,,,,,,,,,,,,,,,61,156442,19,Female,1,2024/02/15_16:42:54,JV,None,
,,,,,,practice,0,28,1,500,16,Q,0,right,0.4923909780009126,1,0,,,,,,,,,,,,,,,,,,,,,1,,,,,,,,,,,,,,,,,,,,,,,,,,,,,,,,,,,,,,,,,,,,,,61,156442,19,Female,1,2024/02/15_16:42:54,JV,None,
,,,,,,practice,0,28,1,500,,,,,,,,1.0,1.0,0.0,1.0,0.0,1.0,0.5011275498743544,5,0,0,0,0,11,16,5,11,0,,,,1,,,,,,,,,,,,,,,,,,,,,,,,,,,,,,,,,,,,,,,,,,,,,,61,156442,19,Female,1,2024/02/15_16:42:54,JV,None,
1,./instructions/inst_prac_3/Slide37.png,right,6.236587719999079,476.6150619229993,482.8516496429984,,,,,,,,,,,,,,,,,,,,,,,,,,,,,,,,,1,,,,,,,,,,,,,,,,,,,,,,,,,,,,,,,,,,,,,,,,,,,,,,61,156442,19,Female,1,2024/02/15_16:42:54,JV,None,
0,./instructions/inst_prac_3/Slide38.png,left,1.5071049029975256,482.8806476860009,484.3877525889984,,,,,,,,,,,,,,,,,,,,,,,,,,,,,,,,,1,,,,,,,,,,,,,,,,,,,,,,,,,,,,,,,,,,,,,,,,,,,,,,61,156442,19,Female,1,2024/02/15_16:42:54,JV,None,
1,./instructions/inst_prac_3/Slide37.png,right,3.695606351000606,484.41203454199785,488.10764089299846,,,,,,,,,,,,,,,,,,,,,,,,,,,,,,,,,1,,,,,,,,,,,,,,,,,,,,,,,,,,,,,,,,,,,,,,,,,,,,,,61,156442,19,Female,1,2024/02/15_16:42:54,JV,None,
2,./instructions/inst_prac_3/Slide38.png,right,1.1152374550001696,488.1363683769996,489.25160583199977,,,,,,,,,,,,,,,,,,,,,,,,,,,,,,,,,1,,,,,,,,,,,,,,,,,,,,,,,,,,,,,,,,,,,,,,,,,,,,,,61,156442,19,Female,1,2024/02/15_16:42:54,JV,None,
3,./instructions/inst_prac_3/Slide39.png,right,0.7772773049982789,489.27435544200125,490.05163274699953,,,,,,,,,,,,,,,,,,,,,,,,,,,,,,,,,1,,,,,,,,,,,,,,,,,,,,,,,,,,,,,,,,,,,,,,,,,,,,,,61,156442,19,Female,1,2024/02/15_16:42:54,JV,None,
4,./instructions/inst_prac_3/Slide40.png,right,0.7788973460010311,490.08077364199926,490.8596709880003,,,,,,,,,,,,,,,,,,,,,,,,,,,,,,,,,1,,,,,,,,,,,,,,,,,,,,,,,,,,,,,,,,,,,,,,,,,,,,,,61,156442,19,Female,1,2024/02/15_16:42:54,JV,None,
5,./instructions/inst_prac_3/Slide41.png,right,1.0350847629997588,490.8883950749987,491.92347983799846,,,,,,,,,,,,,,,,,,,,,,,,,,,,,,,,,1,,,,,,,,,,,,,,,,,,,,,,,,,,,,,,,,,,,,,,,,,,,,,,61,156442,19,Female,1,2024/02/15_16:42:54,JV,None,
6,./instructions/inst_prac_3/Slide42.png,right,0.44334596800035797,491.95227742299903,492.3956233909994,,,,,,,,,,,,,,,,,,,,,,,,,,,,,,,,,1,,,,,,,,,,,,,,,,,,,,,,,,,,,,,,,,,,,,,,,,,,,,,,61,156442,19,Female,1,2024/02/15_16:42:54,JV,None,
7,./instructions/inst_prac_3/Slide43.png,right,3.467086503998871,492.4243413469994,495.8914278509983,,,,,,,,,,,,,,,,,,,,,,,,,,,,,,,,,1,,,,,,,,,,,,,,,,,,,,,,,,,,,,,,,,,,,,,,,,,,,,,,61,156442,19,Female,1,2024/02/15_16:42:54,JV,None,
8,./instructions/inst_prac_3/Slide44.png,right,2.139185380001436,495.92046484599996,498.0596502260014,,,,,,,,,,,,,,,,,,,,,,,,,,,,,,,,,1,,,,,,,,,,,,,,,,,,,,,,,,,,,,,,,,,,,,,,,,,,,,,,61,156442,19,Female,1,2024/02/15_16:42:54,JV,None,
,,,,,,practice,0,29,3,788,1,V,0,right,2.8691730979990098,1,0,,,,,,,,,,,,,,,,,,,,,1,,,,,,,,,,,,,,,,,,,,,,,,,,,,,,,,,,,,,,,,,,,,,,61,156442,19,Female,1,2024/02/15_16:42:54,JV,None,
,,,,,,practice,0,29,3,788,2,N,0,right,0.5614437209987955,1,0,,,,,,,,,,,,,,,,,,,,,1,,,,,,,,,,,,,,,,,,,,,,,,,,,,,,,,,,,,,,,,,,,,,,61,156442,19,Female,1,2024/02/15_16:42:54,JV,None,
,,,,,,practice,0,29,3,788,3,V,0,right,0.4537532309987,1,0,,,,,,,,,,,,,,,,,,,,,1,,,,,,,,,,,,,,,,,,,,,,,,,,,,,,,,,,,,,,,,,,,,,,61,156442,19,Female,1,2024/02/15_16:42:54,JV,None,
,,,,,,practice,0,29,3,788,4,C,0,right,0.9411728009981744,1,0,,,,,,,,,,,,,,,,,,,,,1,,,,,,,,,,,,,,,,,,,,,,,,,,,,,,,,,,,,,,,,,,,,,,61,156442,19,Female,1,2024/02/15_16:42:54,JV,None,
,,,,,,practice,0,29,3,788,5,J,0,right,0.6679384609997214,1,0,,,,,,,,,,,,,,,,,,,,,1,,,,,,,,,,,,,,,,,,,,,,,,,,,,,,,,,,,,,,,,,,,,,,61,156442,19,Female,1,2024/02/15_16:42:54,JV,None,
,,,,,,practice,0,29,3,788,6,J,0,right,0.8128638609996415,1,0,,,,,,,,,,,,,,,,,,,,,1,,,,,,,,,,,,,,,,,,,,,,,,,,,,,,,,,,,,,,,,,,,,,,61,156442,19,Female,1,2024/02/15_16:42:54,JV,None,
,,,,,,practice,0,29,3,788,7,N,0,right,0.6858687239982828,1,0,,,,,,,,,,,,,,,,,,,,,1,,,,,,,,,,,,,,,,,,,,,,,,,,,,,,,,,,,,,,,,,,,,,,61,156442,19,Female,1,2024/02/15_16:42:54,JV,None,
,,,,,,practice,0,29,3,788,8,Q,0,right,0.5009886259977065,1,0,,,,,,,,,,,,,,,,,,,,,1,,,,,,,,,,,,,,,,,,,,,,,,,,,,,,,,,,,,,,,,,,,,,,61,156442,19,Female,1,2024/02/15_16:42:54,JV,None,
,,,,,,practice,0,29,3,788,9,J,1,left,0.8775229000020772,1,0,,,,,,,,,,,,,,,,,,,,,1,,,,,,,,,,,,,,,,,,,,,,,,,,,,,,,,,,,,,,,,,,,,,,61,156442,19,Female,1,2024/02/15_16:42:54,JV,None,
,,,,,,practice,0,29,3,788,10,N,1,left,0.9322778579989972,1,0,,,,,,,,,,,,,,,,,,,,,1,,,,,,,,,,,,,,,,,,,,,,,,,,,,,,,,,,,,,,,,,,,,,,61,156442,19,Female,1,2024/02/15_16:42:54,JV,None,
,,,,,,practice,0,29,3,788,11,N,0,right,0.7297217970008205,1,0,,,,,,,,,,,,,,,,,,,,,1,,,,,,,,,,,,,,,,,,,,,,,,,,,,,,,,,,,,,,,,,,,,,,61,156442,19,Female,1,2024/02/15_16:42:54,JV,None,
,,,,,,practice,0,29,3,788,12,J,1,left,0.8393383229995379,1,0,,,,,,,,,,,,,,,,,,,,,1,,,,,,,,,,,,,,,,,,,,,,,,,,,,,,,,,,,,,,,,,,,,,,61,156442,19,Female,1,2024/02/15_16:42:54,JV,None,
,,,,,,practice,0,29,3,788,13,N,1,left,0.7583330199995544,1,0,,,,,,,,,,,,,,,,,,,,,1,,,,,,,,,,,,,,,,,,,,,,,,,,,,,,,,,,,,,,,,,,,,,,61,156442,19,Female,1,2024/02/15_16:42:54,JV,None,
,,,,,,practice,0,29,3,788,,,,,,,,1.0,1.0,0.0,1.0,0.0,1.0,0.8946458785377707,4,0,0,0,0,9,13,4,9,0,,,,1,,,,,,,,,,,,,,,,,,,,,,,,,,,,,,,,,,,,,,,,,,,,,,61,156442,19,Female,1,2024/02/15_16:42:54,JV,None,
1,./instructions/inst_prac_3_next/Slide49.png,right,5.024976444001368,523.3626954089996,528.3876718530009,,,,,,,,,,,,,,,,,,,,,,,,,,,,,,,,,1,,,,,,,,,,,,,,,,,,,,,,,,,,,,,,,,,,,,,,,,,,,,,,61,156442,19,Female,1,2024/02/15_16:42:54,JV,None,
,,,,,,practice,0,11,3,500,1,F,0,right,0.7793109369995364,1,0,,,,,,,,,,,,,,,,,,,,,1,,,,,,,,,,,,,,,,,,,,,,,,,,,,,,,,,,,,,,,,,,,,,,61,156442,19,Female,1,2024/02/15_16:42:54,JV,None,
,,,,,,practice,0,11,3,500,2,S,0,right,0.4608120390003023,1,0,,,,,,,,,,,,,,,,,,,,,1,,,,,,,,,,,,,,,,,,,,,,,,,,,,,,,,,,,,,,,,,,,,,,61,156442,19,Female,1,2024/02/15_16:42:54,JV,None,
,,,,,,practice,0,11,3,500,3,S,0,right,0.45290737799950875,1,0,,,,,,,,,,,,,,,,,,,,,1,,,,,,,,,,,,,,,,,,,,,,,,,,,,,,,,,,,,,,,,,,,,,,61,156442,19,Female,1,2024/02/15_16:42:54,JV,None,
,,,,,,practice,0,11,3,500,4,F,1,left,0.384333117002825,1,0,,,,,,,,,,,,,,,,,,,,,1,,,,,,,,,,,,,,,,,,,,,,,,,,,,,,,,,,,,,,,,,,,,,,61,156442,19,Female,1,2024/02/15_16:42:54,JV,None,
,,,,,,practice,0,11,3,500,5,N,0,right,0.5007036839997454,1,0,,,,,,,,,,,,,,,,,,,,,1,,,,,,,,,,,,,,,,,,,,,,,,,,,,,,,,,,,,,,,,,,,,,,61,156442,19,Female,1,2024/02/15_16:42:54,JV,None,
,,,,,,practice,0,11,3,500,6,Q,0,right,0.4402549930018722,1,0,,,,,,,,,,,,,,,,,,,,,1,,,,,,,,,,,,,,,,,,,,,,,,,,,,,,,,,,,,,,,,,,,,,,61,156442,19,Female,1,2024/02/15_16:42:54,JV,None,
,,,,,,practice,0,11,3,500,7,F,1,right,0.4639691500015033,0,0,,,,,,,,,,,,,,,,,,,,,1,,,,,,,,,,,,,,,,,,,,,,,,,,,,,,,,,,,,,,,,,,,,,,61,156442,19,Female,1,2024/02/15_16:42:54,JV,None,
,,,,,,practice,0,11,3,500,8,S,0,left,0.3887855800021498,0,0,,,,,,,,,,,,,,,,,,,,,1,,,,,,,,,,,,,,,,,,,,,,,,,,,,,,,,,,,,,,,,,,,,,,61,156442,19,Female,1,2024/02/15_16:42:54,JV,None,
,,,,,,practice,0,11,3,500,9,C,0,right,0.7770679370005382,1,0,,,,,,,,,,,,,,,,,,,,,1,,,,,,,,,,,,,,,,,,,,,,,,,,,,,,,,,,,,,,,,,,,,,,61,156442,19,Female,1,2024/02/15_16:42:54,JV,None,
,,,,,,practice,0,11,3,500,10,X,0,right,0.5005421630012279,1,0,,,,,,,,,,,,,,,,,,,,,1,,,,,,,,,,,,,,,,,,,,,,,,,,,,,,,,,,,,,,,,,,,,,,61,156442,19,Female,1,2024/02/15_16:42:54,JV,None,
,,,,,,practice,0,11,3,500,11,S,1,right,0.5371374370006379,0,0,,,,,,,,,,,,,,,,,,,,,1,,,,,,,,,,,,,,,,,,,,,,,,,,,,,,,,,,,,,,,,,,,,,,61,156442,19,Female,1,2024/02/15_16:42:54,JV,None,
,,,,,,practice,0,11,3,500,12,Q,0,right,0.7005466619993967,1,0,,,,,,,,,,,,,,,,,,,,,1,,,,,,,,,,,,,,,,,,,,,,,,,,,,,,,,,,,,,,,,,,,,,,61,156442,19,Female,1,2024/02/15_16:42:54,JV,None,
,,,,,,practice,0,11,3,500,13,X,1,right,0.5130901260017708,0,0,,,,,,,,,,,,,,,,,,,,,1,,,,,,,,,,,,,,,,,,,,,,,,,,,,,,,,,,,,,,,,,,,,,,61,156442,19,Female,1,2024/02/15_16:42:54,JV,None,
,,,,,,practice,0,11,3,500,14,N,0,right,0.6346848590001173,1,0,,,,,,,,,,,,,,,,,,,,,1,,,,,,,,,,,,,,,,,,,,,,,,,,,,,,,,,,,,,,,,,,,,,,61,156442,19,Female,1,2024/02/15_16:42:54,JV,None,
,,,,,,practice,0,11,3,500,15,N,0,right,0.6961766829990665,1,0,,,,,,,,,,,,,,,,,,,,,1,,,,,,,,,,,,,,,,,,,,,,,,,,,,,,,,,,,,,,,,,,,,,,61,156442,19,Female,1,2024/02/15_16:42:54,JV,None,
,,,,,,practice,0,11,3,500,16,C,0,right,0.8424261410000327,1,0,,,,,,,,,,,,,,,,,,,,,1,,,,,,,,,,,,,,,,,,,,,,,,,,,,,,,,,,,,,,,,,,,,,,61,156442,19,Female,1,2024/02/15_16:42:54,JV,None,
,,,,,,practice,0,11,3,500,,,,,,,,0.7083333333333333,0.25,0.08333333333333333,0.9166666666666666,0.0,0.9166666666666666,0.5670468053756395,1,1,0,0,0,11,12,4,12,0,,,,1,,,,,,,,,,,,,,,,,,,,,,,,,,,,,,,,,,,,,,,,,,,,,,61,156442,19,Female,1,2024/02/15_16:42:54,JV,None,
,,,,,,practice,0,25,3,500,1,X,0,right,0.7261129399994388,1,0,,,,,,,,,,,,,,,,,,,,,1,,,,,,,,,,,,,,,,,,,,,,,,,,,,,,,,,,,,,,,,,,,,,,61,156442,19,Female,1,2024/02/15_16:42:54,JV,None,
,,,,,,practice,0,25,3,500,2,C,0,right,0.505510522001714,1,0,,,,,,,,,,,,,,,,,,,,,1,,,,,,,,,,,,,,,,,,,,,,,,,,,,,,,,,,,,,,,,,,,,,,61,156442,19,Female,1,2024/02/15_16:42:54,JV,None,
,,,,,,practice,0,25,3,500,3,C,0,right,0.5051471820006554,1,0,,,,,,,,,,,,,,,,,,,,,1,,,,,,,,,,,,,,,,,,,,,,,,,,,,,,,,,,,,,,,,,,,,,,61,156442,19,Female,1,2024/02/15_16:42:54,JV,None,
,,,,,,practice,0,25,3,500,4,J,0,right,0.6095743890000449,1,0,,,,,,,,,,,,,,,,,,,,,1,,,,,,,,,,,,,,,,,,,,,,,,,,,,,,,,,,,,,,,,,,,,,,61,156442,19,Female,1,2024/02/15_16:42:54,JV,None,
,,,,,,practice,0,25,3,500,5,C,1,right,0.5923972000018694,0,0,,,,,,,,,,,,,,,,,,,,,1,,,,,,,,,,,,,,,,,,,,,,,,,,,,,,,,,,,,,,,,,,,,,,61,156442,19,Female,1,2024/02/15_16:42:54,JV,None,
,,,,,,practice,0,25,3,500,6,X,0,right,1.0739032839992433,1,0,,,,,,,,,,,,,,,,,,,,,1,,,,,,,,,,,,,,,,,,,,,,,,,,,,,,,,,,,,,,,,,,,,,,61,156442,19,Female,1,2024/02/15_16:42:54,JV,None,
,,,,,,practice,0,25,3,500,7,F,0,right,0.8654590270016342,1,0,,,,,,,,,,,,,,,,,,,,,1,,,,,,,,,,,,,,,,,,,,,,,,,,,,,,,,,,,,,,,,,,,,,,61,156442,19,Female,1,2024/02/15_16:42:54,JV,None,
,,,,,,practice,0,25,3,500,8,C,1,left,1.140884445001575,1,0,,,,,,,,,,,,,,,,,,,,,1,,,,,,,,,,,,,,,,,,,,,,,,,,,,,,,,,,,,,,,,,,,,,,61,156442,19,Female,1,2024/02/15_16:42:54,JV,None,
,,,,,,practice,0,25,3,500,9,V,0,right,0.7253299149997474,1,0,,,,,,,,,,,,,,,,,,,,,1,,,,,,,,,,,,,,,,,,,,,,,,,,,,,,,,,,,,,,,,,,,,,,61,156442,19,Female,1,2024/02/15_16:42:54,JV,None,
,,,,,,practice,0,25,3,500,10,F,1,right,1.0733487960023922,0,0,,,,,,,,,,,,,,,,,,,,,1,,,,,,,,,,,,,,,,,,,,,,,,,,,,,,,,,,,,,,,,,,,,,,61,156442,19,Female,1,2024/02/15_16:42:54,JV,None,
,,,,,,practice,0,25,3,500,11,S,0,right,0.8093540119989484,1,0,,,,,,,,,,,,,,,,,,,,,1,,,,,,,,,,,,,,,,,,,,,,,,,,,,,,,,,,,,,,,,,,,,,,61,156442,19,Female,1,2024/02/15_16:42:54,JV,None,
,,,,,,practice,0,25,3,500,12,V,1,right,1.3377846610019333,0,0,,,,,,,,,,,,,,,,,,,,,1,,,,,,,,,,,,,,,,,,,,,,,,,,,,,,,,,,,,,,,,,,,,,,61,156442,19,Female,1,2024/02/15_16:42:54,JV,None,
,,,,,,practice,0,25,3,500,13,X,0,right,1.081118982998305,1,0,,,,,,,,,,,,,,,,,,,,,1,,,,,,,,,,,,,,,,,,,,,,,,,,,,,,,,,,,,,,,,,,,,,,61,156442,19,Female,1,2024/02/15_16:42:54,JV,None,
,,,,,,practice,0,25,3,500,14,F,0,left,1.1727243450004607,0,0,,,,,,,,,,,,,,,,,,,,,1,,,,,,,,,,,,,,,,,,,,,,,,,,,,,,,,,,,,,,,,,,,,,,61,156442,19,Female,1,2024/02/15_16:42:54,JV,None,
,,,,,,practice,0,25,3,500,15,N,0,right,1.0333819840016076,1,0,,,,,,,,,,,,,,,,,,,,,1,,,,,,,,,,,,,,,,,,,,,,,,,,,,,,,,,,,,,,,,,,,,,,61,156442,19,Female,1,2024/02/15_16:42:54,JV,None,
,,,,,,practice,0,25,3,500,16,X,1,right,0.7615842069972132,0,0,,,,,,,,,,,,,,,,,,,,,1,,,,,,,,,,,,,,,,,,,,,,,,,,,,,,,,,,,,,,,,,,,,,,61,156442,19,Female,1,2024/02/15_16:42:54,JV,None,
,,,,,,practice,0,25,3,500,,,,,,,,0.6636363636363636,0.2,0.09090909090909091,0.9090909090909091,0.0,0.9090909090909091,0.8758509932504239,1,1,0,0,0,10,11,5,11,0,,,,1,,,,,,,,,,,,,,,,,,,,,,,,,,,,,,,,,,,,,,,,,,,,,,61,156442,19,Female,1,2024/02/15_16:42:54,JV,None,
1,./instructions/inst_redo_3/Slide47.png,right,8.100382556000113,570.8552509939982,578.9556335499983,,,,,,,,,,,,,,,,,,,,,,,,,,,,,,,,,1,,,,,,,,,,,,,,,,,,,,,,,,,,,,,,,,,,,,,,,,,,,,,,61,156442,19,Female,1,2024/02/15_16:42:54,JV,None,
,,,,,,practice,0,5,3,500,1,X,0,right,0.6339910690003308,1,0,,,,,,,,,,,,,,,,,,,,,1,,,,,,,,,,,,,,,,,,,,,,,,,,,,,,,,,,,,,,,,,,,,,,61,156442,19,Female,1,2024/02/15_16:42:54,JV,None,
,,,,,,practice,0,5,3,500,2,S,0,right,0.7242726619988389,1,0,,,,,,,,,,,,,,,,,,,,,1,,,,,,,,,,,,,,,,,,,,,,,,,,,,,,,,,,,,,,,,,,,,,,61,156442,19,Female,1,2024/02/15_16:42:54,JV,None,
,,,,,,practice,0,5,3,500,3,F,0,right,0.5729758369998308,1,0,,,,,,,,,,,,,,,,,,,,,1,,,,,,,,,,,,,,,,,,,,,,,,,,,,,,,,,,,,,,,,,,,,,,61,156442,19,Female,1,2024/02/15_16:42:54,JV,None,
,,,,,,practice,0,5,3,500,4,N,0,right,2.1069931519996317,1,0,,,,,,,,,,,,,,,,,,,,,1,,,,,,,,,,,,,,,,,,,,,,,,,,,,,,,,,,,,,,,,,,,,,,61,156442,19,Female,1,2024/02/15_16:42:54,JV,None,
,,,,,,practice,0,5,3,500,5,S,1,left,1.7573635279986775,1,0,,,,,,,,,,,,,,,,,,,,,1,,,,,,,,,,,,,,,,,,,,,,,,,,,,,,,,,,,,,,,,,,,,,,61,156442,19,Female,1,2024/02/15_16:42:54,JV,None,
,,,,,,practice,0,5,3,500,6,X,0,right,2.2985789719969034,1,0,,,,,,,,,,,,,,,,,,,,,1,,,,,,,,,,,,,,,,,,,,,,,,,,,,,,,,,,,,,,,,,,,,,,61,156442,19,Female,1,2024/02/15_16:42:54,JV,None,
,,,,,,practice,0,5,3,500,7,F,0,right,1.2478432639982202,1,0,,,,,,,,,,,,,,,,,,,,,1,,,,,,,,,,,,,,,,,,,,,,,,,,,,,,,,,,,,,,,,,,,,,,61,156442,19,Female,1,2024/02/15_16:42:54,JV,None,
,,,,,,practice,0,5,3,500,8,Q,0,right,1.4211706390015024,1,0,,,,,,,,,,,,,,,,,,,,,1,,,,,,,,,,,,,,,,,,,,,,,,,,,,,,,,,,,,,,,,,,,,,,61,156442,19,Female,1,2024/02/15_16:42:54,JV,None,
,,,,,,practice,0,5,3,500,9,Q,0,right,1.552226432999305,1,0,,,,,,,,,,,,,,,,,,,,,1,,,,,,,,,,,,,,,,,,,,,,,,,,,,,,,,,,,,,,,,,,,,,,61,156442,19,Female,1,2024/02/15_16:42:54,JV,None,
,,,,,,practice,0,5,3,500,10,F,1,right,1.1782154069987882,0,0,,,,,,,,,,,,,,,,,,,,,1,,,,,,,,,,,,,,,,,,,,,,,,,,,,,,,,,,,,,,,,,,,,,,61,156442,19,Female,1,2024/02/15_16:42:54,JV,None,
,,,,,,practice,0,5,3,500,11,Q,1,left,0.8645122079979046,1,0,,,,,,,,,,,,,,,,,,,,,1,,,,,,,,,,,,,,,,,,,,,,,,,,,,,,,,,,,,,,,,,,,,,,61,156442,19,Female,1,2024/02/15_16:42:54,JV,None,
,,,,,,practice,0,5,3,500,12,F,0,left,1.8215016790018126,0,0,,,,,,,,,,,,,,,,,,,,,1,,,,,,,,,,,,,,,,,,,,,,,,,,,,,,,,,,,,,,,,,,,,,,61,156442,19,Female,1,2024/02/15_16:42:54,JV,None,
,,,,,,practice,0,5,3,500,13,Q,0,right,2.1361568390020693,1,0,,,,,,,,,,,,,,,,,,,,,1,,,,,,,,,,,,,,,,,,,,,,,,,,,,,,,,,,,,,,,,,,,,,,61,156442,19,Female,1,2024/02/15_16:42:54,JV,None,
,,,,,,practice,0,5,3,500,14,Q,1,left,1.2539724050002405,1,0,,,,,,,,,,,,,,,,,,,,,1,,,,,,,,,,,,,,,,,,,,,,,,,,,,,,,,,,,,,,,,,,,,,,61,156442,19,Female,1,2024/02/15_16:42:54,JV,None,
,,,,,,practice,0,5,3,500,15,J,0,right,1.2576986540007056,1,0,,,,,,,,,,,,,,,,,,,,,1,,,,,,,,,,,,,,,,,,,,,,,,,,,,,,,,,,,,,,,,,,,,,,61,156442,19,Female,1,2024/02/15_16:42:54,JV,None,
,,,,,,practice,0,5,3,500,16,J,0,right,0.9087958689997322,1,0,,,,,,,,,,,,,,,,,,,,,1,,,,,,,,,,,,,,,,,,,,,,,,,,,,,,,,,,,,,,,,,,,,,,61,156442,19,Female,1,2024/02/15_16:42:54,JV,None,
,,,,,,practice,0,5,3,500,,,,,,,,0.8958333333333333,0.75,0.08333333333333333,0.9166666666666666,0.0,0.9166666666666666,1.3585167885621559,3,1,0,0,0,11,14,4,12,0,,,,1,,,,,,,,,,,,,,,,,,,,,,,,,,,,,,,,,,,,,,,,,,,,,,61,156442,19,Female,1,2024/02/15_16:42:54,JV,None,
1,./instructions/inst_prac_main/Slide51.png,right,2.4859705160015437,611.6455926029994,614.1315631190009,,,,,,,,,,,,,,,,,,,,,,,,,,,,,,,,,1,,,,,,,,,,,,,,,,,,,,,,,,,,,,,,,,,,,,,,,,,,,,,,61,156442,19,Female,1,2024/02/15_16:42:54,JV,None,
2,./instructions/inst_prac_main/Slide52.png,right,10.371643067002879,614.159986497998,624.5316295650009,,,,,,,,,,,,,,,,,,,,,,,,,,,,,,,,,1,,,,,,,,,,,,,,,,,,,,,,,,,,,,,,,,,,,,,,,,,,,,,,61,156442,19,Female,1,2024/02/15_16:42:54,JV,None,
3,./instructions/inst_prac_main/Slide53.png,right,6.9666463950015896,624.5569780929982,631.5236244879998,,,,,,,,,,,,,,,,,,,,,,,,,,,,,,,,,1,,,,,,,,,,,,,,,,,,,,,,,,,,,,,,,,,,,,,,,,,,,,,,61,156442,19,Female,1,2024/02/15_16:42:54,JV,None,
4,./instructions/inst_prac_main/Slide54.png,right,12.723182726000232,631.552387208998,644.2755699349982,,,,,,,,,,,,,,,,,,,,,,,,,,,,,,,,,1,,,,,,,,,,,,,,,,,,,,,,,,,,,,,,,,,,,,,,,,,,,,,,61,156442,19,Female,1,2024/02/15_16:42:54,JV,None,
,,,,,,practice_main,0,1,1,500,1,N,0,None,nan,0,1,,,,,,,,,,,,,,,,,,,,,1,,,,,,,,,,,,,,,,,,,,,,,,,,,,,,,,,,,,,,,,,,,,,,61,156442,19,Female,1,2024/02/15_16:42:54,JV,None,
,,,,,,practice_main,0,1,1,500,2,S,0,right,0.1680946899978153,1,0,,,,,,,,,,,,,,,,,,,,,1,,,,,,,,,,,,,,,,,,,,,,,,,,,,,,,,,,,,,,,,,,,,,,61,156442,19,Female,1,2024/02/15_16:42:54,JV,None,
,,,,,,practice_main,0,1,1,500,3,V,0,right,0.11278238900194992,1,0,,,,,,,,,,,,,,,,,,,,,1,,,,,,,,,,,,,,,,,,,,,,,,,,,,,,,,,,,,,,,,,,,,,,61,156442,19,Female,1,2024/02/15_16:42:54,JV,None,
,,,,,,practice_main,0,1,1,500,4,J,0,right,0.16472493000037502,1,0,,,,,,,,,,,,,,,,,,,,,1,,,,,,,,,,,,,,,,,,,,,,,,,,,,,,,,,,,,,,,,,,,,,,61,156442,19,Female,1,2024/02/15_16:42:54,JV,None,
,,,,,,practice_main,0,1,1,500,5,C,0,right,0.15430036800171365,1,0,,,,,,,,,,,,,,,,,,,,,1,,,,,,,,,,,,,,,,,,,,,,,,,,,,,,,,,,,,,,,,,,,,,,61,156442,19,Female,1,2024/02/15_16:42:54,JV,None,
,,,,,,practice_main,0,1,1,500,6,C,1,right,0.18875016799938749,0,0,,,,,,,,,,,,,,,,,,,,,1,,,,,,,,,,,,,,,,,,,,,,,,,,,,,,,,,,,,,,,,,,,,,,61,156442,19,Female,1,2024/02/15_16:42:54,JV,None,
,,,,,,practice_main,0,1,1,500,7,J,0,right,0.3528552860007039,1,0,,,,,,,,,,,,,,,,,,,,,1,,,,,,,,,,,,,,,,,,,,,,,,,,,,,,,,,,,,,,,,,,,,,,61,156442,19,Female,1,2024/02/15_16:42:54,JV,None,
,,,,,,practice_main,0,1,1,500,8,J,1,right,nan,0,1,,,,,,,,,,,,,,,,,,,,,1,,,,,,,,,,,,,,,,,,,,,,,,,,,,,,,,,,,,,,,,,,,,,,61,156442,19,Female,1,2024/02/15_16:42:54,JV,None,
,,,,,,practice_main,0,1,1,500,9,S,0,right,0.26060827300170786,1,0,,,,,,,,,,,,,,,,,,,,,1,,,,,,,,,,,,,,,,,,,,,,,,,,,,,,,,,,,,,,,,,,,,,,61,156442,19,Female,1,2024/02/15_16:42:54,JV,None,
,,,,,,practice_main,0,1,1,500,10,C,0,right,0.5121767060009006,1,0,,,,,,,,,,,,,,,,,,,,,1,,,,,,,,,,,,,,,,,,,,,,,,,,,,,,,,,,,,,,,,,,,,,,61,156442,19,Female,1,2024/02/15_16:42:54,JV,None,
,,,,,,practice_main,0,1,1,500,11,C,1,left,0.524581614001363,1,0,,,,,,,,,,,,,,,,,,,,,1,,,,,,,,,,,,,,,,,,,,,,,,,,,,,,,,,,,,,,,,,,,,,,61,156442,19,Female,1,2024/02/15_16:42:54,JV,None,
,,,,,,practice_main,0,1,1,500,12,X,0,right,0.2983560460015724,1,0,,,,,,,,,,,,,,,,,,,,,1,,,,,,,,,,,,,,,,,,,,,,,,,,,,,,,,,,,,,,,,,,,,,,61,156442,19,Female,1,2024/02/15_16:42:54,JV,None,
,,,,,,practice_main,0,1,1,500,13,J,0,right,0.3573160280029697,1,0,,,,,,,,,,,,,,,,,,,,,1,,,,,,,,,,,,,,,,,,,,,,,,,,,,,,,,,,,,,,,,,,,,,,61,156442,19,Female,1,2024/02/15_16:42:54,JV,None,
,,,,,,practice_main,0,1,1,500,14,J,1,right,0.3964484110001649,0,0,,,,,,,,,,,,,,,,,,,,,1,,,,,,,,,,,,,,,,,,,,,,,,,,,,,,,,,,,,,,,,,,,,,,61,156442,19,Female,1,2024/02/15_16:42:54,JV,None,
,,,,,,practice_main,0,1,1,500,15,X,0,right,nan,0,1,,,,,,,,,,,,,,,,,,,,,1,,,,,,,,,,,,,,,,,,,,,,,,,,,,,,,,,,,,,,,,,,,,,,61,156442,19,Female,1,2024/02/15_16:42:54,JV,None,
,,,,,,practice_main,0,1,1,500,16,J,0,right,0.6662357449968113,1,0,,,,,,,,,,,,,,,,,,,,,1,,,,,,,,,,,,,,,,,,,,,,,,,,,,,,,,,,,,,,,,,,,,,,61,156442,19,Female,1,2024/02/15_16:42:54,JV,None,
,,,,,,practice_main,0,1,1,500,,,,,,,,0.8125,0.25,0.0,1.0,0.1875,0.8125,0.3197869733851873,1,0,1,2,3,10,11,4,12,0,,,,1,,,,,,,,,,,,,,,,,,,,,,,,,,,,,,,,,,,,,,,,,,,,,,61,156442,19,Female,1,2024/02/15_16:42:54,JV,None,
,,,,,240215_165503,PRACTICE,0,1,1,500,,,,,,,,,,,,,,,,,,,,,,,,,,,,1,37,1,1,cue1.png,easy,A,29,2.472248772999592,0,647.3426543269998,649.8406069369994,,,,,,,,,,,,,,,,,,,,,,,,,,,,,,,,,,,61,156442,19,Female,1,2024/02/15_16:42:54,JV,None,
,,,,,,practice_main,0,2,1,500,1,S,0,right,0.36998052800117875,1,0,,,,,,,,,,,,,,,,,,,,,1,,,,,,,,,,,,,,,,,,,,,,,,,,,,,,,,,,,,,,,,,,,,,,61,156442,19,Female,1,2024/02/15_16:42:54,JV,None,
,,,,,,practice_main,0,2,1,500,2,Q,0,right,0.3288863269990543,1,0,,,,,,,,,,,,,,,,,,,,,1,,,,,,,,,,,,,,,,,,,,,,,,,,,,,,,,,,,,,,,,,,,,,,61,156442,19,Female,1,2024/02/15_16:42:54,JV,None,
,,,,,,practice_main,0,2,1,500,3,S,0,left,0.4504716779993032,0,0,,,,,,,,,,,,,,,,,,,,,1,,,,,,,,,,,,,,,,,,,,,,,,,,,,,,,,,,,,,,,,,,,,,,61,156442,19,Female,1,2024/02/15_16:42:54,JV,None,
,,,,,,practice_main,0,2,1,500,4,V,0,right,0.40073968499928014,1,0,,,,,,,,,,,,,,,,,,,,,1,,,,,,,,,,,,,,,,,,,,,,,,,,,,,,,,,,,,,,,,,,,,,,61,156442,19,Female,1,2024/02/15_16:42:54,JV,None,
,,,,,,practice_main,0,2,1,500,5,V,1,left,0.5432205529978091,1,0,,,,,,,,,,,,,,,,,,,,,1,,,,,,,,,,,,,,,,,,,,,,,,,,,,,,,,,,,,,,,,,,,,,,61,156442,19,Female,1,2024/02/15_16:42:54,JV,None,
,,,,,,practice_main,0,2,1,500,6,J,0,right,0.45549954300076934,1,0,,,,,,,,,,,,,,,,,,,,,1,,,,,,,,,,,,,,,,,,,,,,,,,,,,,,,,,,,,,,,,,,,,,,61,156442,19,Female,1,2024/02/15_16:42:54,JV,None,
,,,,,,practice_main,0,2,1,500,7,X,0,right,0.3456313319984474,1,0,,,,,,,,,,,,,,,,,,,,,1,,,,,,,,,,,,,,,,,,,,,,,,,,,,,,,,,,,,,,,,,,,,,,61,156442,19,Female,1,2024/02/15_16:42:54,JV,None,
,,,,,,practice_main,0,2,1,500,8,J,0,left,0.5120109820018115,0,0,,,,,,,,,,,,,,,,,,,,,1,,,,,,,,,,,,,,,,,,,,,,,,,,,,,,,,,,,,,,,,,,,,,,61,156442,19,Female,1,2024/02/15_16:42:54,JV,None,
,,,,,,practice_main,0,2,1,500,9,J,1,right,0.3008720859979803,0,0,,,,,,,,,,,,,,,,,,,,,1,,,,,,,,,,,,,,,,,,,,,,,,,,,,,,,,,,,,,,,,,,,,,,61,156442,19,Female,1,2024/02/15_16:42:54,JV,None,
,,,,,,practice_main,0,2,1,500,10,S,0,right,nan,0,1,,,,,,,,,,,,,,,,,,,,,1,,,,,,,,,,,,,,,,,,,,,,,,,,,,,,,,,,,,,,,,,,,,,,61,156442,19,Female,1,2024/02/15_16:42:54,JV,None,
,,,,,,practice_main,0,2,1,500,11,X,0,right,0.30530325600193464,1,0,,,,,,,,,,,,,,,,,,,,,1,,,,,,,,,,,,,,,,,,,,,,,,,,,,,,,,,,,,,,,,,,,,,,61,156442,19,Female,1,2024/02/15_16:42:54,JV,None,
,,,,,,practice_main,0,2,1,500,12,X,1,left,0.5825847800006159,1,0,,,,,,,,,,,,,,,,,,,,,1,,,,,,,,,,,,,,,,,,,,,,,,,,,,,,,,,,,,,,,,,,,,,,61,156442,19,Female,1,2024/02/15_16:42:54,JV,None,
,,,,,,practice_main,0,2,1,500,13,C,0,right,0.3724441960002878,1,0,,,,,,,,,,,,,,,,,,,,,1,,,,,,,,,,,,,,,,,,,,,,,,,,,,,,,,,,,,,,,,,,,,,,61,156442,19,Female,1,2024/02/15_16:42:54,JV,None,
,,,,,,practice_main,0,2,1,500,14,V,0,right,0.37642213700019056,1,0,,,,,,,,,,,,,,,,,,,,,1,,,,,,,,,,,,,,,,,,,,,,,,,,,,,,,,,,,,,,,,,,,,,,61,156442,19,Female,1,2024/02/15_16:42:54,JV,None,
,,,,,,practice_main,0,2,1,500,15,S,0,right,0.5442068470001686,1,0,,,,,,,,,,,,,,,,,,,,,1,,,,,,,,,,,,,,,,,,,,,,,,,,,,,,,,,,,,,,,,,,,,,,61,156442,19,Female,1,2024/02/15_16:42:54,JV,None,
,,,,,,practice_main,0,2,1,500,16,S,1,left,0.39704786599759245,1,0,,,,,,,,,,,,,,,,,,,,,1,,,,,,,,,,,,,,,,,,,,,,,,,,,,,,,,,,,,,,,,,,,,,,61,156442,19,Female,1,2024/02/15_16:42:54,JV,None,
,,,,,,practice_main,0,2,1,500,,,,,,,,0.8541666666666667,0.75,0.16666666666666666,0.8181818181818182,0.0625,0.7708333333333334,0.4190214530664283,3,2,0,1,1,9,12,4,12,0,,,,1,,,,,,,,,,,,,,,,,,,,,,,,,,,,,,,,,,,,,,,,,,,,,,61,156442,19,Female,1,2024/02/15_16:42:54,JV,None,
,,,,,240215_165530,PRACTICE,0,2,1,500,,,,,,,,,,,,,,,,,,,,,,,,,,,,1,39,2,2,cue1.png,easy,A,37,1.4621171109974966,0,674.500903062999,675.9830393320008,,,,,,,,,,,,,,,,,,,,,,,,,,,,,,,,,,,61,156442,19,Female,1,2024/02/15_16:42:54,JV,None,
,,,,,,practice_main,0,3,1,500,1,Q,0,right,0.24187680699833436,1,0,,,,,,,,,,,,,,,,,,,,,1,,,,,,,,,,,,,,,,,,,,,,,,,,,,,,,,,,,,,,,,,,,,,,61,156442,19,Female,1,2024/02/15_16:42:54,JV,None,
,,,,,,practice_main,0,3,1,500,2,V,0,right,0.3123238209991541,1,0,,,,,,,,,,,,,,,,,,,,,1,,,,,,,,,,,,,,,,,,,,,,,,,,,,,,,,,,,,,,,,,,,,,,61,156442,19,Female,1,2024/02/15_16:42:54,JV,None,
,,,,,,practice_main,0,3,1,500,3,Q,0,right,0.6073466599991661,1,0,,,,,,,,,,,,,,,,,,,,,1,,,,,,,,,,,,,,,,,,,,,,,,,,,,,,,,,,,,,,,,,,,,,,61,156442,19,Female,1,2024/02/15_16:42:54,JV,None,
,,,,,,practice_main,0,3,1,500,4,Q,1,left,0.4861858430012944,1,0,,,,,,,,,,,,,,,,,,,,,1,,,,,,,,,,,,,,,,,,,,,,,,,,,,,,,,,,,,,,,,,,,,,,61,156442,19,Female,1,2024/02/15_16:42:54,JV,None,
,,,,,,practice_main,0,3,1,500,5,J,0,right,0.36012116799975047,1,0,,,,,,,,,,,,,,,,,,,,,1,,,,,,,,,,,,,,,,,,,,,,,,,,,,,,,,,,,,,,,,,,,,,,61,156442,19,Female,1,2024/02/15_16:42:54,JV,None,
,,,,,,practice_main,0,3,1,500,6,F,0,right,0.35698968900032924,1,0,,,,,,,,,,,,,,,,,,,,,1,,,,,,,,,,,,,,,,,,,,,,,,,,,,,,,,,,,,,,,,,,,,,,61,156442,19,Female,1,2024/02/15_16:42:54,JV,None,
,,,,,,practice_main,0,3,1,500,7,F,1,right,0.37597720900157583,0,0,,,,,,,,,,,,,,,,,,,,,1,,,,,,,,,,,,,,,,,,,,,,,,,,,,,,,,,,,,,,,,,,,,,,61,156442,19,Female,1,2024/02/15_16:42:54,JV,None,
,,,,,,practice_main,0,3,1,500,8,Q,0,right,0.49019939199934015,1,0,,,,,,,,,,,,,,,,,,,,,1,,,,,,,,,,,,,,,,,,,,,,,,,,,,,,,,,,,,,,,,,,,,,,61,156442,19,Female,1,2024/02/15_16:42:54,JV,None,
,,,,,,practice_main,0,3,1,500,9,S,0,right,0.4102167269993515,1,0,,,,,,,,,,,,,,,,,,,,,1,,,,,,,,,,,,,,,,,,,,,,,,,,,,,,,,,,,,,,,,,,,,,,61,156442,19,Female,1,2024/02/15_16:42:54,JV,None,
,,,,,,practice_main,0,3,1,500,10,S,1,right,0.330254699998477,0,0,,,,,,,,,,,,,,,,,,,,,1,,,,,,,,,,,,,,,,,,,,,,,,,,,,,,,,,,,,,,,,,,,,,,61,156442,19,Female,1,2024/02/15_16:42:54,JV,None,
,,,,,,practice_main,0,3,1,500,11,C,0,right,0.41085842800021055,1,0,,,,,,,,,,,,,,,,,,,,,1,,,,,,,,,,,,,,,,,,,,,,,,,,,,,,,,,,,,,,,,,,,,,,61,156442,19,Female,1,2024/02/15_16:42:54,JV,None,
,,,,,,practice_main,0,3,1,500,12,Q,0,right,0.4902886359996046,1,0,,,,,,,,,,,,,,,,,,,,,1,,,,,,,,,,,,,,,,,,,,,,,,,,,,,,,,,,,,,,,,,,,,,,61,156442,19,Female,1,2024/02/15_16:42:54,JV,None,
,,,,,,practice_main,0,3,1,500,13,Q,1,left,0.5598348950006766,1,0,,,,,,,,,,,,,,,,,,,,,1,,,,,,,,,,,,,,,,,,,,,,,,,,,,,,,,,,,,,,,,,,,,,,61,156442,19,Female,1,2024/02/15_16:42:54,JV,None,
,,,,,,practice_main,0,3,1,500,14,X,0,right,0.4755966150005406,1,0,,,,,,,,,,,,,,,,,,,,,1,,,,,,,,,,,,,,,,,,,,,,,,,,,,,,,,,,,,,,,,,,,,,,61,156442,19,Female,1,2024/02/15_16:42:54,JV,None,
,,,,,,practice_main,0,3,1,500,15,Q,0,left,0.5633447410000372,0,0,,,,,,,,,,,,,,,,,,,,,1,,,,,,,,,,,,,,,,,,,,,,,,,,,,,,,,,,,,,,,,,,,,,,61,156442,19,Female,1,2024/02/15_16:42:54,JV,None,
,,,,,,practice_main,0,3,1,500,16,J,0,right,0.37566518200037535,1,0,,,,,,,,,,,,,,,,,,,,,1,,,,,,,,,,,,,,,,,,,,,,,,,,,,,,,,,,,,,,,,,,,,,,61,156442,19,Female,1,2024/02/15_16:42:54,JV,None,
,,,,,,practice_main,0,3,1,500,,,,,,,,0.8125,0.5,0.08333333333333333,0.9166666666666666,0.0,0.9166666666666666,0.42794253206238864,2,1,0,0,0,11,13,4,12,0,,,,1,,,,,,,,,,,,,,,,,,,,,,,,,,,,,,,,,,,,,,,,,,,,,,61,156442,19,Female,1,2024/02/15_16:42:54,JV,None,
,,,,,240215_165603,PRACTICE,0,3,1,500,,,,,,,,,,,,,,,,,,,,,,,,,,,,1,28,4,3,cue1.png,easy,A,46,0.7855440129969793,0,708.8430023110013,709.643757681999,,,,,,,,,,,,,,,,,,,,,,,,,,,,,,,,,,,61,156442,19,Female,1,2024/02/15_16:42:54,JV,None,
-1,./instructions/inst_prac_end/Slide56.png,left,77.3985393610019,732.5330873169987,809.9316266780006,,,,,,,,,,,,,,,,,,,,,,,,,,,,,,,,,1,,,,,,,,,,,,,,,,,,,,,,,,,,,,,,,,,,,,,,,,,,,,,,61,156442,19,Female,1,2024/02/15_16:42:54,JV,None,
1,./instructions/inst_test/Slide57.png,right,30.510670214996935,809.964866620001,840.4755368349979,,,,,,,,,,,,,,,,,,,,,,,,,,,,,,,,,1,,,,,,,,,,,,,,,,,,,,,,,,,,,,,,,,,,,,,,,,,,,,,,61,156442,19,Female,1,2024/02/15_16:42:54,JV,None,
,,,,,,test,1,1,1,500,1,J,0,right,0.3789778459977242,1,0,,,,,,,,,,,,,,,,,,,,,1,,,,,,,,,,,,,,,,,,,,,,,,,,,,,,,,,,,,,,,,,,,,,,61,156442,19,Female,1,2024/02/15_16:42:54,JV,None,
,,,,,,test,1,1,1,500,2,C,0,right,0.3443613720010035,1,0,,,,,,,,,,,,,,,,,,,,,1,,,,,,,,,,,,,,,,,,,,,,,,,,,,,,,,,,,,,,,,,,,,,,61,156442,19,Female,1,2024/02/15_16:42:54,JV,None,
,,,,,,test,1,1,1,500,3,V,0,right,0.3681353720021434,1,0,,,,,,,,,,,,,,,,,,,,,1,,,,,,,,,,,,,,,,,,,,,,,,,,,,,,,,,,,,,,,,,,,,,,61,156442,19,Female,1,2024/02/15_16:42:54,JV,None,
,,,,,,test,1,1,1,500,4,Q,0,right,0.36032139499729965,1,0,,,,,,,,,,,,,,,,,,,,,1,,,,,,,,,,,,,,,,,,,,,,,,,,,,,,,,,,,,,,,,,,,,,,61,156442,19,Female,1,2024/02/15_16:42:54,JV,None,
,,,,,,test,1,1,1,500,5,Q,1,left,0.41626344000178506,1,0,,,,,,,,,,,,,,,,,,,,,1,,,,,,,,,,,,,,,,,,,,,,,,,,,,,,,,,,,,,,,,,,,,,,61,156442,19,Female,1,2024/02/15_16:42:54,JV,None,
,,,,,,test,1,1,1,500,6,F,0,right,0.3779998739992152,1,0,,,,,,,,,,,,,,,,,,,,,1,,,,,,,,,,,,,,,,,,,,,,,,,,,,,,,,,,,,,,,,,,,,,,61,156442,19,Female,1,2024/02/15_16:42:54,JV,None,
,,,,,,test,1,1,1,500,7,F,1,left,0.3530520009990141,1,0,,,,,,,,,,,,,,,,,,,,,1,,,,,,,,,,,,,,,,,,,,,,,,,,,,,,,,,,,,,,,,,,,,,,61,156442,19,Female,1,2024/02/15_16:42:54,JV,None,
,,,,,,test,1,1,1,500,8,Q,0,right,0.46913089800000307,1,0,,,,,,,,,,,,,,,,,,,,,1,,,,,,,,,,,,,,,,,,,,,,,,,,,,,,,,,,,,,,,,,,,,,,61,156442,19,Female,1,2024/02/15_16:42:54,JV,None,
,,,,,,test,1,1,1,500,9,Q,1,left,0.4644544880029571,1,0,,,,,,,,,,,,,,,,,,,,,1,,,,,,,,,,,,,,,,,,,,,,,,,,,,,,,,,,,,,,,,,,,,,,61,156442,19,Female,1,2024/02/15_16:42:54,JV,None,
,,,,,,test,1,1,1,500,10,X,0,right,0.4606255750004493,1,0,,,,,,,,,,,,,,,,,,,,,1,,,,,,,,,,,,,,,,,,,,,,,,,,,,,,,,,,,,,,,,,,,,,,61,156442,19,Female,1,2024/02/15_16:42:54,JV,None,
,,,,,,test,1,1,1,500,11,F,0,right,0.48457622100249864,1,0,,,,,,,,,,,,,,,,,,,,,1,,,,,,,,,,,,,,,,,,,,,,,,,,,,,,,,,,,,,,,,,,,,,,61,156442,19,Female,1,2024/02/15_16:42:54,JV,None,
,,,,,,test,1,1,1,500,12,Q,0,right,0.6959854079977958,1,0,,,,,,,,,,,,,,,,,,,,,1,,,,,,,,,,,,,,,,,,,,,,,,,,,,,,,,,,,,,,,,,,,,,,61,156442,19,Female,1,2024/02/15_16:42:54,JV,None,
,,,,,,test,1,1,1,500,13,Q,1,left,0.5568698459974257,1,0,,,,,,,,,,,,,,,,,,,,,1,,,,,,,,,,,,,,,,,,,,,,,,,,,,,,,,,,,,,,,,,,,,,,61,156442,19,Female,1,2024/02/15_16:42:54,JV,None,
,,,,,,test,1,1,1,500,14,J,0,right,0.4071948990022065,1,0,,,,,,,,,,,,,,,,,,,,,1,,,,,,,,,,,,,,,,,,,,,,,,,,,,,,,,,,,,,,,,,,,,,,61,156442,19,Female,1,2024/02/15_16:42:54,JV,None,
,,,,,,test,1,1,1,500,15,X,0,right,0.4018458369973814,1,0,,,,,,,,,,,,,,,,,,,,,1,,,,,,,,,,,,,,,,,,,,,,,,,,,,,,,,,,,,,,,,,,,,,,61,156442,19,Female,1,2024/02/15_16:42:54,JV,None,
,,,,,,test,1,1,1,500,16,F,0,right,0.3846086520024983,1,0,,,,,,,,,,,,,,,,,,,,,1,,,,,,,,,,,,,,,,,,,,,,,,,,,,,,,,,,,,,,,,,,,,,,61,156442,19,Female,1,2024/02/15_16:42:54,JV,None,
,,,,,,Test,1,1,1,500,,,,,,,,1.0,1.0,0.0,1.0,0.0,1.0,0.43277519525008756,4,0,0,0,0,12,16,4,12,0,,,,1,,,,,,,,,,,,,,,,,,,,,,,,,,,,,,,,,,,,,,,,,,,,,,61,156442,19,Female,1,2024/02/15_16:42:54,JV,None,
,,,,,240215_165820,TEST,1,1,1,500,,,,,,,,,,,,,,,,,,,,,,,,,,,,1,1,1,1,cue1.png,easy,A,45,1.106697316001373,0,845.5355570030006,846.6597760570003,,,,,,,,,,,,,,,,,,,,,,,,,,,,,,,,,,,61,156442,19,Female,1,2024/02/15_16:42:54,JV,None,
,,,,,,test,1,2,3,500,1,Q,0,right,0.4011876479999046,1,0,,,,,,,,,,,,,,,,,,,,,1,,,,,,,,,,,,,,,,,,,,,,,,,,,,,,,,,,,,,,,,,,,,,,61,156442,19,Female,1,2024/02/15_16:42:54,JV,None,
,,,,,,test,1,2,3,500,2,Q,0,right,0.29667749000145704,1,0,,,,,,,,,,,,,,,,,,,,,1,,,,,,,,,,,,,,,,,,,,,,,,,,,,,,,,,,,,,,,,,,,,,,61,156442,19,Female,1,2024/02/15_16:42:54,JV,None,
,,,,,,test,1,2,3,500,3,J,0,right,0.2825830900001165,1,0,,,,,,,,,,,,,,,,,,,,,1,,,,,,,,,,,,,,,,,,,,,,,,,,,,,,,,,,,,,,,,,,,,,,61,156442,19,Female,1,2024/02/15_16:42:54,JV,None,
,,,,,,test,1,2,3,500,4,Q,1,left,0.3467832019996422,1,0,,,,,,,,,,,,,,,,,,,,,1,,,,,,,,,,,,,,,,,,,,,,,,,,,,,,,,,,,,,,,,,,,,,,61,156442,19,Female,1,2024/02/15_16:42:54,JV,None,
,,,,,,test,1,2,3,500,5,S,0,right,0.23949251500016544,1,0,,,,,,,,,,,,,,,,,,,,,1,,,,,,,,,,,,,,,,,,,,,,,,,,,,,,,,,,,,,,,,,,,,,,61,156442,19,Female,1,2024/02/15_16:42:54,JV,None,
,,,,,,test,1,2,3,500,6,V,0,right,0.2404123439991963,1,0,,,,,,,,,,,,,,,,,,,,,1,,,,,,,,,,,,,,,,,,,,,,,,,,,,,,,,,,,,,,,,,,,,,,61,156442,19,Female,1,2024/02/15_16:42:54,JV,None,
,,,,,,test,1,2,3,500,7,Q,1,right,0.24924467699747765,0,0,,,,,,,,,,,,,,,,,,,,,1,,,,,,,,,,,,,,,,,,,,,,,,,,,,,,,,,,,,,,,,,,,,,,61,156442,19,Female,1,2024/02/15_16:42:54,JV,None,
,,,,,,test,1,2,3,500,8,C,0,right,0.4281355160019302,1,0,,,,,,,,,,,,,,,,,,,,,1,,,,,,,,,,,,,,,,,,,,,,,,,,,,,,,,,,,,,,,,,,,,,,61,156442,19,Female,1,2024/02/15_16:42:54,JV,None,
,,,,,,test,1,2,3,500,9,J,0,right,0.4023792179978045,1,0,,,,,,,,,,,,,,,,,,,,,1,,,,,,,,,,,,,,,,,,,,,,,,,,,,,,,,,,,,,,,,,,,,,,61,156442,19,Female,1,2024/02/15_16:42:54,JV,None,
,,,,,,test,1,2,3,500,10,S,0,right,0.41127872700235457,1,0,,,,,,,,,,,,,,,,,,,,,1,,,,,,,,,,,,,,,,,,,,,,,,,,,,,,,,,,,,,,,,,,,,,,61,156442,19,Female,1,2024/02/15_16:42:54,JV,None,
,,,,,,test,1,2,3,500,11,C,1,right,nan,0,1,,,,,,,,,,,,,,,,,,,,,1,,,,,,,,,,,,,,,,,,,,,,,,,,,,,,,,,,,,,,,,,,,,,,61,156442,19,Female,1,2024/02/15_16:42:54,JV,None,
,,,,,,test,1,2,3,500,12,J,1,right,0.014959618001739727,0,0,,,,,,,,,,,,,,,,,,,,,1,,,,,,,,,,,,,,,,,,,,,,,,,,,,,,,,,,,,,,,,,,,,,,61,156442,19,Female,1,2024/02/15_16:42:54,JV,None,
,,,,,,test,1,2,3,500,13,V,0,right,0.4345067920003203,1,0,,,,,,,,,,,,,,,,,,,,,1,,,,,,,,,,,,,,,,,,,,,,,,,,,,,,,,,,,,,,,,,,,,,,61,156442,19,Female,1,2024/02/15_16:42:54,JV,None,
,,,,,,test,1,2,3,500,14,Q,0,left,0.5298247300015646,0,0,,,,,,,,,,,,,,,,,,,,,1,,,,,,,,,,,,,,,,,,,,,,,,,,,,,,,,,,,,,,,,,,,,,,61,156442,19,Female,1,2024/02/15_16:42:54,JV,None,
,,,,,,test,1,2,3,500,15,S,0,right,0.3182831140002236,1,0,,,,,,,,,,,,,,,,,,,,,1,,,,,,,,,,,,,,,,,,,,,,,,,,,,,,,,,,,,,,,,,,,,,,61,156442,19,Female,1,2024/02/15_16:42:54,JV,None,
,,,,,,test,1,2,3,500,16,V,1,right,0.5093990120003582,0,0,,,,,,,,,,,,,,,,,,,,,1,,,,,,,,,,,,,,,,,,,,,,,,,,,,,,,,,,,,,,,,,,,,,,61,156442,19,Female,1,2024/02/15_16:42:54,JV,None,
,,,,,,Test,1,2,3,500,,,,,,,,0.6636363636363636,0.2,0.09090909090909091,0.9090909090909091,0.0625,0.8465909090909091,0.34034317953361704,1,1,1,0,1,10,11,5,11,0,,,,1,,,,,,,,,,,,,,,,,,,,,,,,,,,,,,,,,,,,,,,,,,,,,,61,156442,19,Female,1,2024/02/15_16:42:54,JV,None,
,,,,,240215_165845,TEST,1,2,3,500,,,,,,,,,,,,,,,,,,,,,,,,,,,,1,2,2,2,cue2.png,hard,A,46,1.0634700029986561,0,871.0876901990014,872.1628800319995,,,,,,,,,,,,,,,,,,,,,,,,,,,,,,,,,,,61,156442,19,Female,1,2024/02/15_16:42:54,JV,None,
,,,,,,test,1,3,1,500,1,C,0,right,0.26001333900057944,1,0,,,,,,,,,,,,,,,,,,,,,1,,,,,,,,,,,,,,,,,,,,,,,,,,,,,,,,,,,,,,,,,,,,,,61,156442,19,Female,1,2024/02/15_16:42:54,JV,None,
,,,,,,test,1,3,1,500,2,C,1,right,0.3526661319992854,0,0,,,,,,,,,,,,,,,,,,,,,1,,,,,,,,,,,,,,,,,,,,,,,,,,,,,,,,,,,,,,,,,,,,,,61,156442,19,Female,1,2024/02/15_16:42:54,JV,None,
,,,,,,test,1,3,1,500,3,J,0,right,0.46073794800031465,1,0,,,,,,,,,,,,,,,,,,,,,1,,,,,,,,,,,,,,,,,,,,,,,,,,,,,,,,,,,,,,,,,,,,,,61,156442,19,Female,1,2024/02/15_16:42:54,JV,None,
,,,,,,test,1,3,1,500,4,J,1,right,nan,0,1,,,,,,,,,,,,,,,,,,,,,1,,,,,,,,,,,,,,,,,,,,,,,,,,,,,,,,,,,,,,,,,,,,,,61,156442,19,Female,1,2024/02/15_16:42:54,JV,None,
,,,,,,test,1,3,1,500,5,F,0,right,0.41002346700042835,1,0,,,,,,,,,,,,,,,,,,,,,1,,,,,,,,,,,,,,,,,,,,,,,,,,,,,,,,,,,,,,,,,,,,,,61,156442,19,Female,1,2024/02/15_16:42:54,JV,None,
,,,,,,test,1,3,1,500,6,F,1,left,0.30915382400053204,1,0,,,,,,,,,,,,,,,,,,,,,1,,,,,,,,,,,,,,,,,,,,,,,,,,,,,,,,,,,,,,,,,,,,,,61,156442,19,Female,1,2024/02/15_16:42:54,JV,None,
,,,,,,test,1,3,1,500,7,N,0,right,0.31335097000192036,1,0,,,,,,,,,,,,,,,,,,,,,1,,,,,,,,,,,,,,,,,,,,,,,,,,,,,,,,,,,,,,,,,,,,,,61,156442,19,Female,1,2024/02/15_16:42:54,JV,None,
,,,,,,test,1,3,1,500,8,Q,0,right,0.3888461909991747,1,0,,,,,,,,,,,,,,,,,,,,,1,,,,,,,,,,,,,,,,,,,,,,,,,,,,,,,,,,,,,,,,,,,,,,61,156442,19,Female,1,2024/02/15_16:42:54,JV,None,
,,,,,,test,1,3,1,500,9,J,0,right,0.30682487500234856,1,0,,,,,,,,,,,,,,,,,,,,,1,,,,,,,,,,,,,,,,,,,,,,,,,,,,,,,,,,,,,,,,,,,,,,61,156442,19,Female,1,2024/02/15_16:42:54,JV,None,
,,,,,,test,1,3,1,500,10,C,0,right,0.35313953700097045,1,0,,,,,,,,,,,,,,,,,,,,,1,,,,,,,,,,,,,,,,,,,,,,,,,,,,,,,,,,,,,,,,,,,,,,61,156442,19,Female,1,2024/02/15_16:42:54,JV,None,
,,,,,,test,1,3,1,500,11,X,0,right,0.32107319599890616,1,0,,,,,,,,,,,,,,,,,,,,,1,,,,,,,,,,,,,,,,,,,,,,,,,,,,,,,,,,,,,,,,,,,,,,61,156442,19,Female,1,2024/02/15_16:42:54,JV,None,
