Instruction,Stimulus,Key,RT,START,END,Phase,Block,TrialN,NbackLevel,ISI,LetterN,Letter,Letter_isSame,Letter_Resp,Letter_RT,Letter_Accuracy,Letter_Timeout,Trial_A_measure,Trial_HR,Trial_FAR,Trial_CDR,Trial_MSR,Trial_ACC,Trial_RT,Trial_HitsCount,Trial_FAsCount,Trial_SameNoRespCount,Trial_DiffNoRespCount,Trial_NoRespCount,Trial_CDsCount,Trial_CorrectRespCount,Trial_SameLetterCount,Trial_DiffLetterCount,Trial_InvalidLetterCount,TrialCountCali,CaliEnd_A_measure,ISI_calibrated,Run,TrialIndex,TrialNumber_total,TrialNumber_valid,CueLearning,TrialDemandLearning,CueMapping,OnlineRating,OnlineRatingRT,OnlineRatingTimeOut,CueSTART,RatingSTART,OfflineRatingTimePoint,OfflineRatingQuesIndex,CueFigure,TrialDemand,OfflineRating,OfflineRatingRT,CueStart,OfflineRatingStart,PhaseType,CueLeft,CueDemandLeft,CueRight,CueDemandRight,Choice,ChoiceDemand,TaskDemand,ChoiceRT,ChoiceTimeOut,ChoiceSTART,CueCheck,CueDemandCheck,CorrectAnswer,Answer,AnswerDemand,AnswerRT,AnswerACC,AnswerTimeOut,CheckSTART,DemandRatingQuesIndex,QuesTLX,DemandLevel,DemandRating,DemandRatingRT,QuesStart,PID,SONA,Age,Gender,Run,TIME,EXPERIMENTER,frameRate
-1,./instructions/inst_begin/Slide2.png,left,12.77328859,0.809039734,13.58232833,,,,,,,,,,,,,,,,,,,,,,,,,,,,,,,,,1,,,,,,,,,,,,,,,,,,,,,,,,,,,,,,,,,,,,,,,,,,,,,,42,143515,22,Female,1,2024/02/09_11:07:35,YZ,59.92482646
-2,./instructions/inst_begin/Slide4.png,left,8.865075468,13.69307436,22.55814982,,,,,,,,,,,,,,,,,,,,,,,,,,,,,,,,,1,,,,,,,,,,,,,,,,,,,,,,,,,,,,,,,,,,,,,,,,,,,,,,42,143515,22,Female,1,2024/02/09_11:07:35,YZ,59.92482646
-3,./instructions/inst_begin/Slide3.png,left,7.74200623,22.60834139,30.35034762,,,,,,,,,,,,,,,,,,,,,,,,,,,,,,,,,1,,,,,,,,,,,,,,,,,,,,,,,,,,,,,,,,,,,,,,,,,,,,,,42,143515,22,Female,1,2024/02/09_11:07:35,YZ,59.92482646
-1,./instructions/inst_prac_2/Slide6.png,left,23.25844705,30.52382289,53.78226994,,,,,,,,,,,,,,,,,,,,,,,,,,,,,,,,,1,,,,,,,,,,,,,,,,,,,,,,,,,,,,,,,,,,,,,,,,,,,,,,42,143515,22,Female,1,2024/02/09_11:07:35,YZ,59.92482646
-2,./instructions/inst_prac_2/Slide15.png,left,23.89754713,53.87676577,77.7743129,,,,,,,,,,,,,,,,,,,,,,,,,,,,,,,,,1,,,,,,,,,,,,,,,,,,,,,,,,,,,,,,,,,,,,,,,,,,,,,,42,143515,22,Female,1,2024/02/09_11:07:35,YZ,59.92482646
-3,./instructions/inst_prac_2/Slide14.png,left,11.10907415,77.99330042,89.10237456,,,,,,,,,,,,,,,,,,,,,,,,,,,,,,,,,1,,,,,,,,,,,,,,,,,,,,,,,,,,,,,,,,,,,,,,,,,,,,,,42,143515,22,Female,1,2024/02/09_11:07:35,YZ,59.92482646
-4,./instructions/inst_prac_2/Slide13.png,left,10.46044101,89.1539537,99.61439471,,,,,,,,,,,,,,,,,,,,,,,,,,,,,,,,,1,,,,,,,,,,,,,,,,,,,,,,,,,,,,,,,,,,,,,,,,,,,,,,42,143515,22,Female,1,2024/02/09_11:07:35,YZ,59.92482646
-5,./instructions/inst_prac_2/Slide12.png,left,3.531786105,99.73843127,103.2702174,,,,,,,,,,,,,,,,,,,,,,,,,,,,,,,,,1,,,,,,,,,,,,,,,,,,,,,,,,,,,,,,,,,,,,,,,,,,,,,,42,143515,22,Female,1,2024/02/09_11:07:35,YZ,59.92482646
-6,./instructions/inst_prac_2/Slide11.png,left,1.530433997,103.347641,104.878075,,,,,,,,,,,,,,,,,,,,,,,,,,,,,,,,,1,,,,,,,,,,,,,,,,,,,,,,,,,,,,,,,,,,,,,,,,,,,,,,42,143515,22,Female,1,2024/02/09_11:07:35,YZ,59.92482646
-7,./instructions/inst_prac_2/Slide10.png,left,5.911314341,104.9348352,110.8461496,,,,,,,,,,,,,,,,,,,,,,,,,,,,,,,,,1,,,,,,,,,,,,,,,,,,,,,,,,,,,,,,,,,,,,,,,,,,,,,,42,143515,22,Female,1,2024/02/09_11:07:35,YZ,59.92482646
-8,./instructions/inst_prac_2/Slide9.png,left,1.772759115,110.8895595,112.6623187,,,,,,,,,,,,,,,,,,,,,,,,,,,,,,,,,1,,,,,,,,,,,,,,,,,,,,,,,,,,,,,,,,,,,,,,,,,,,,,,42,143515,22,Female,1,2024/02/09_11:07:35,YZ,59.92482646
-9,./instructions/inst_prac_2/Slide8.png,left,10.92073026,112.709627,123.6303572,,,,,,,,,,,,,,,,,,,,,,,,,,,,,,,,,1,,,,,,,,,,,,,,,,,,,,,,,,,,,,,,,,,,,,,,,,,,,,,,42,143515,22,Female,1,2024/02/09_11:07:35,YZ,59.92482646
-10,./instructions/inst_prac_2/Slide7.png,left,11.0353486,123.6910057,134.7263543,,,,,,,,,,,,,,,,,,,,,,,,,,,,,,,,,1,,,,,,,,,,,,,,,,,,,,,,,,,,,,,,,,,,,,,,,,,,,,,,42,143515,22,Female,1,2024/02/09_11:07:35,YZ,59.92482646
,,,,,,practice,0,21,2,2583,1,S,0,left,2.053807201,0,0,,,,,,,,,,,,,,,,,,,,,1,,,,,,,,,,,,,,,,,,,,,,,,,,,,,,,,,,,,,,,,,,,,,,42,143515,22,Female,1,2024/02/09_11:07:35,YZ,59.92482646
,,,,,,practice,0,21,2,2583,2,V,0,right,1.083060989,1,0,,,,,,,,,,,,,,,,,,,,,1,,,,,,,,,,,,,,,,,,,,,,,,,,,,,,,,,,,,,,,,,,,,,,42,143515,22,Female,1,2024/02/09_11:07:35,YZ,59.92482646
,,,,,,practice,0,21,2,2583,3,N,0,right,1.195406757,1,0,,,,,,,,,,,,,,,,,,,,,1,,,,,,,,,,,,,,,,,,,,,,,,,,,,,,,,,,,,,,,,,,,,,,42,143515,22,Female,1,2024/02/09_11:07:35,YZ,59.92482646
,,,,,,practice,0,21,2,2583,4,V,1,left,2.573858082,1,0,,,,,,,,,,,,,,,,,,,,,1,,,,,,,,,,,,,,,,,,,,,,,,,,,,,,,,,,,,,,,,,,,,,,42,143515,22,Female,1,2024/02/09_11:07:35,YZ,59.92482646
,,,,,,practice,0,21,2,2583,5,N,1,left,1.692932737,1,0,,,,,,,,,,,,,,,,,,,,,1,,,,,,,,,,,,,,,,,,,,,,,,,,,,,,,,,,,,,,,,,,,,,,42,143515,22,Female,1,2024/02/09_11:07:35,YZ,59.92482646
,,,,,,practice,0,21,2,2583,6,S,0,right,1.557531448,1,0,,,,,,,,,,,,,,,,,,,,,1,,,,,,,,,,,,,,,,,,,,,,,,,,,,,,,,,,,,,,,,,,,,,,42,143515,22,Female,1,2024/02/09_11:07:35,YZ,59.92482646
,,,,,,practice,0,21,2,2583,,,,,,,,0.9375,1,0.25,0.75,0,0.75,1.692766202,2,1,0,0,0,3,5,2,4,0,,,,1,,,,,,,,,,,,,,,,,,,,,,,,,,,,,,,,,,,,,,,,,,,,,,42,143515,22,Female,1,2024/02/09_11:07:35,YZ,59.92482646
-1,./instructions/inst_to_cali/Slide20.png,left,9.765623236,151.9686927,161.7343159,,,,,,,,,,,,,,,,,,,,,,,,,,,,,,,,,1,,,,,,,,,,,,,,,,,,,,,,,,,,,,,,,,,,,,,,,,,,,,,,42,143515,22,Female,1,2024/02/09_11:07:35,YZ,59.92482646
,,,,,,practice,0,6,2,2583,1,Q,0,right,1.945927416,1,0,,,,,,,,,,,,,,,,,,,,,1,,,,,,,,,,,,,,,,,,,,,,,,,,,,,,,,,,,,,,,,,,,,,,42,143515,22,Female,1,2024/02/09_11:07:35,YZ,59.92482646
,,,,,,practice,0,6,2,2583,2,J,0,right,1.80790048,1,0,,,,,,,,,,,,,,,,,,,,,1,,,,,,,,,,,,,,,,,,,,,,,,,,,,,,,,,,,,,,,,,,,,,,42,143515,22,Female,1,2024/02/09_11:07:35,YZ,59.92482646
,,,,,,practice,0,6,2,2583,3,Q,1,left,0.942840685,1,0,,,,,,,,,,,,,,,,,,,,,1,,,,,,,,,,,,,,,,,,,,,,,,,,,,,,,,,,,,,,,,,,,,,,42,143515,22,Female,1,2024/02/09_11:07:35,YZ,59.92482646
,,,,,,practice,0,6,2,2583,4,N,0,right,0.956282594,1,0,,,,,,,,,,,,,,,,,,,,,1,,,,,,,,,,,,,,,,,,,,,,,,,,,,,,,,,,,,,,,,,,,,,,42,143515,22,Female,1,2024/02/09_11:07:35,YZ,59.92482646
,,,,,,practice,0,6,2,2583,5,Q,1,left,1.386211251,1,0,,,,,,,,,,,,,,,,,,,,,1,,,,,,,,,,,,,,,,,,,,,,,,,,,,,,,,,,,,,,,,,,,,,,42,143515,22,Female,1,2024/02/09_11:07:35,YZ,59.92482646
,,,,,,practice,0,6,2,2583,6,X,0,right,1.893826334,1,0,,,,,,,,,,,,,,,,,,,,,1,,,,,,,,,,,,,,,,,,,,,,,,,,,,,,,,,,,,,,,,,,,,,,42,143515,22,Female,1,2024/02/09_11:07:35,YZ,59.92482646
,,,,,,practice,0,6,2,2583,,,,,,,,1,1,0,1,0,1,1.48883146,2,0,0,0,0,4,6,2,4,0,,,,1,,,,,,,,,,,,,,,,,,,,,,,,,,,,,,,,,,,,,,,,,,,,,,42,143515,22,Female,1,2024/02/09_11:07:35,YZ,59.92482646
-1,./instructions/inst_to_cali/Slide20.png,left,8.202010395,178.0521471,186.2541575,,,,,,,,,,,,,,,,,,,,,,,,,,,,,,,,,1,,,,,,,,,,,,,,,,,,,,,,,,,,,,,,,,,,,,,,,,,,,,,,42,143515,22,Female,1,2024/02/09_11:07:35,YZ,59.92482646
,,,,,,practice,0,35,2,2583,1,F,0,right,2.132412436,1,0,,,,,,,,,,,,,,,,,,,,,1,,,,,,,,,,,,,,,,,,,,,,,,,,,,,,,,,,,,,,,,,,,,,,42,143515,22,Female,1,2024/02/09_11:07:35,YZ,59.92482646
,,,,,,practice,0,35,2,2583,2,V,0,right,0.765911923,1,0,,,,,,,,,,,,,,,,,,,,,1,,,,,,,,,,,,,,,,,,,,,,,,,,,,,,,,,,,,,,,,,,,,,,42,143515,22,Female,1,2024/02/09_11:07:35,YZ,59.92482646
,,,,,,practice,0,35,2,2583,3,F,1,left,0.855726899,1,0,,,,,,,,,,,,,,,,,,,,,1,,,,,,,,,,,,,,,,,,,,,,,,,,,,,,,,,,,,,,,,,,,,,,42,143515,22,Female,1,2024/02/09_11:07:35,YZ,59.92482646
,,,,,,practice,0,35,2,2583,4,J,0,right,0.605429244,1,0,,,,,,,,,,,,,,,,,,,,,1,,,,,,,,,,,,,,,,,,,,,,,,,,,,,,,,,,,,,,,,,,,,,,42,143515,22,Female,1,2024/02/09_11:07:35,YZ,59.92482646
,,,,,,practice,0,35,2,2583,5,C,0,right,0.617302867,1,0,,,,,,,,,,,,,,,,,,,,,1,,,,,,,,,,,,,,,,,,,,,,,,,,,,,,,,,,,,,,,,,,,,,,42,143515,22,Female,1,2024/02/09_11:07:35,YZ,59.92482646
,,,,,,practice,0,35,2,2583,6,J,1,left,0.826349015,1,0,,,,,,,,,,,,,,,,,,,,,1,,,,,,,,,,,,,,,,,,,,,,,,,,,,,,,,,,,,,,,,,,,,,,42,143515,22,Female,1,2024/02/09_11:07:35,YZ,59.92482646
,,,,,,practice,0,35,2,2583,,,,,,,,1,1,0,1,0,1,0.967188731,2,0,0,0,0,4,6,2,4,0,,,,1,,,,,,,,,,,,,,,,,,,,,,,,,,,,,,,,,,,,,,,,,,,,,,42,143515,22,Female,1,2024/02/09_11:07:35,YZ,59.92482646
-1,./instructions/inst_to_cali/Slide20.png,left,46.37724122,199.4371578,245.814399,,,,,,,,,,,,,,,,,,,,,,,,,,,,,,,,,1,,,,,,,,,,,,,,,,,,,,,,,,,,,,,,,,,,,,,,,,,,,,,,42,143515,22,Female,1,2024/02/09_11:07:35,YZ,59.92482646
,,,,,,practice,0,21,2,2583,1,S,0,right,1.572436437,1,0,,,,,,,,,,,,,,,,,,,,,1,,,,,,,,,,,,,,,,,,,,,,,,,,,,,,,,,,,,,,,,,,,,,,42,143515,22,Female,1,2024/02/09_11:07:35,YZ,59.92482646
,,,,,,practice,0,21,2,2583,2,V,0,right,0.520605114,1,0,,,,,,,,,,,,,,,,,,,,,1,,,,,,,,,,,,,,,,,,,,,,,,,,,,,,,,,,,,,,,,,,,,,,42,143515,22,Female,1,2024/02/09_11:07:35,YZ,59.92482646
,,,,,,practice,0,21,2,2583,3,N,0,right,0.85664403,1,0,,,,,,,,,,,,,,,,,,,,,1,,,,,,,,,,,,,,,,,,,,,,,,,,,,,,,,,,,,,,,,,,,,,,42,143515,22,Female,1,2024/02/09_11:07:35,YZ,59.92482646
,,,,,,practice,0,21,2,2583,4,V,1,left,1.509784951,1,0,,,,,,,,,,,,,,,,,,,,,1,,,,,,,,,,,,,,,,,,,,,,,,,,,,,,,,,,,,,,,,,,,,,,42,143515,22,Female,1,2024/02/09_11:07:35,YZ,59.92482646
,,,,,,practice,0,21,2,2583,5,N,1,left,0.918958828,1,0,,,,,,,,,,,,,,,,,,,,,1,,,,,,,,,,,,,,,,,,,,,,,,,,,,,,,,,,,,,,,,,,,,,,42,143515,22,Female,1,2024/02/09_11:07:35,YZ,59.92482646
,,,,,,practice,0,21,2,2583,6,S,0,right,1.426856281,1,0,,,,,,,,,,,,,,,,,,,,,1,,,,,,,,,,,,,,,,,,,,,,,,,,,,,,,,,,,,,,,,,,,,,,42,143515,22,Female,1,2024/02/09_11:07:35,YZ,59.92482646
,,,,,,practice,0,21,2,2583,,,,,,,,1,1,0,1,0,1,1.134214274,2,0,0,0,0,4,6,2,4,0,,,,1,,,,,,,,,,,,,,,,,,,,,,,,,,,,,,,,,,,,,,,,,,,,,,42,143515,22,Female,1,2024/02/09_11:07:35,YZ,59.92482646
-1,./instructions/inst_to_cali/Slide20.png,left,1.528183117,260.2381108,261.766294,,,,,,,,,,,,,,,,,,,,,,,,,,,,,,,,,1,,,,,,,,,,,,,,,,,,,,,,,,,,,,,,,,,,,,,,,,,,,,,,42,143515,22,Female,1,2024/02/09_11:07:35,YZ,59.92482646
,,,,,,practice,0,20,2,2583,1,S,0,right,1.052743509,1,0,,,,,,,,,,,,,,,,,,,,,1,,,,,,,,,,,,,,,,,,,,,,,,,,,,,,,,,,,,,,,,,,,,,,42,143515,22,Female,1,2024/02/09_11:07:35,YZ,59.92482646
,,,,,,practice,0,20,2,2583,2,F,0,right,0.853917914,1,0,,,,,,,,,,,,,,,,,,,,,1,,,,,,,,,,,,,,,,,,,,,,,,,,,,,,,,,,,,,,,,,,,,,,42,143515,22,Female,1,2024/02/09_11:07:35,YZ,59.92482646
,,,,,,practice,0,20,2,2583,3,S,1,left,0.775699443,1,0,,,,,,,,,,,,,,,,,,,,,1,,,,,,,,,,,,,,,,,,,,,,,,,,,,,,,,,,,,,,,,,,,,,,42,143515,22,Female,1,2024/02/09_11:07:35,YZ,59.92482646
,,,,,,practice,0,20,2,2583,4,N,0,right,0.509338221,1,0,,,,,,,,,,,,,,,,,,,,,1,,,,,,,,,,,,,,,,,,,,,,,,,,,,,,,,,,,,,,,,,,,,,,42,143515,22,Female,1,2024/02/09_11:07:35,YZ,59.92482646
,,,,,,practice,0,20,2,2583,5,S,1,left,0.718628067,1,0,,,,,,,,,,,,,,,,,,,,,1,,,,,,,,,,,,,,,,,,,,,,,,,,,,,,,,,,,,,,,,,,,,,,42,143515,22,Female,1,2024/02/09_11:07:35,YZ,59.92482646
,,,,,,practice,0,20,2,2583,6,C,0,right,1.072302835,1,0,,,,,,,,,,,,,,,,,,,,,1,,,,,,,,,,,,,,,,,,,,,,,,,,,,,,,,,,,,,,,,,,,,,,42,143515,22,Female,1,2024/02/09_11:07:35,YZ,59.92482646
,,,,,,practice,0,20,2,2583,,,,,,,,1,1,0,1,0,1,0.830438331,2,0,0,0,0,4,6,2,4,0,,,,1,,,,,,,,,,,,,,,,,,,,,,,,,,,,,,,,,,,,,,,,,,,,,,42,143515,22,Female,1,2024/02/09_11:07:35,YZ,59.92482646
-1,./instructions/inst_to_cali/Slide20.png,left,1.111964195,274.1423561,275.2543203,,,,,,,,,,,,,,,,,,,,,,,,,,,,,,,,,1,,,,,,,,,,,,,,,,,,,,,,,,,,,,,,,,,,,,,,,,,,,,,,42,143515,22,Female,1,2024/02/09_11:07:35,YZ,59.92482646
,,,,,,practice,0,12,2,2583,1,C,0,right,1.490854202,1,0,,,,,,,,,,,,,,,,,,,,,1,,,,,,,,,,,,,,,,,,,,,,,,,,,,,,,,,,,,,,,,,,,,,,42,143515,22,Female,1,2024/02/09_11:07:35,YZ,59.92482646
,,,,,,practice,0,12,2,2583,2,J,0,right,0.766831724,1,0,,,,,,,,,,,,,,,,,,,,,1,,,,,,,,,,,,,,,,,,,,,,,,,,,,,,,,,,,,,,,,,,,,,,42,143515,22,Female,1,2024/02/09_11:07:35,YZ,59.92482646
,,,,,,practice,0,12,2,2583,3,C,1,left,0.542358845,1,0,,,,,,,,,,,,,,,,,,,,,1,,,,,,,,,,,,,,,,,,,,,,,,,,,,,,,,,,,,,,,,,,,,,,42,143515,22,Female,1,2024/02/09_11:07:35,YZ,59.92482646
,,,,,,practice,0,12,2,2583,4,N,0,right,1.086336615,1,0,,,,,,,,,,,,,,,,,,,,,1,,,,,,,,,,,,,,,,,,,,,,,,,,,,,,,,,,,,,,,,,,,,,,42,143515,22,Female,1,2024/02/09_11:07:35,YZ,59.92482646
,,,,,,practice,0,12,2,2583,5,C,1,left,0.718017247,1,0,,,,,,,,,,,,,,,,,,,,,1,,,,,,,,,,,,,,,,,,,,,,,,,,,,,,,,,,,,,,,,,,,,,,42,143515,22,Female,1,2024/02/09_11:07:35,YZ,59.92482646
,,,,,,practice,0,12,2,2583,6,X,0,right,0.630461913,1,0,,,,,,,,,,,,,,,,,,,,,1,,,,,,,,,,,,,,,,,,,,,,,,,,,,,,,,,,,,,,,,,,,,,,42,143515,22,Female,1,2024/02/09_11:07:35,YZ,59.92482646
,,,,,,practice,0,12,2,2583,,,,,,,,1,1,0,1,0,1,0.872476758,2,0,0,0,0,4,6,2,4,0,,,,1,,,,,,,,,,,,,,,,,,,,,,,,,,,,,,,,,,,,,,,,,,,,,,42,143515,22,Female,1,2024/02/09_11:07:35,YZ,59.92482646
-1,./instructions/inst_to_cali/Slide20.png,left,0.928775351,287.9095842,288.8383596,,,,,,,,,,,,,,,,,,,,,,,,,,,,,,,,,1,,,,,,,,,,,,,,,,,,,,,,,,,,,,,,,,,,,,,,,,,,,,,,42,143515,22,Female,1,2024/02/09_11:07:35,YZ,59.92482646
,,,,,,practice,0,17,2,2583,1,C,0,right,0.701739383,1,0,,,,,,,,,,,,,,,,,,,,,1,,,,,,,,,,,,,,,,,,,,,,,,,,,,,,,,,,,,,,,,,,,,,,42,143515,22,Female,1,2024/02/09_11:07:35,YZ,59.92482646
,,,,,,practice,0,17,2,2583,2,N,0,right,0.470324088,1,0,,,,,,,,,,,,,,,,,,,,,1,,,,,,,,,,,,,,,,,,,,,,,,,,,,,,,,,,,,,,,,,,,,,,42,143515,22,Female,1,2024/02/09_11:07:35,YZ,59.92482646
,,,,,,practice,0,17,2,2583,3,S,0,right,0.49673287,1,0,,,,,,,,,,,,,,,,,,,,,1,,,,,,,,,,,,,,,,,,,,,,,,,,,,,,,,,,,,,,,,,,,,,,42,143515,22,Female,1,2024/02/09_11:07:35,YZ,59.92482646
,,,,,,practice,0,17,2,2583,4,X,0,right,0.562206689,1,0,,,,,,,,,,,,,,,,,,,,,1,,,,,,,,,,,,,,,,,,,,,,,,,,,,,,,,,,,,,,,,,,,,,,42,143515,22,Female,1,2024/02/09_11:07:35,YZ,59.92482646
,,,,,,practice,0,17,2,2583,5,S,1,left,0.624928011,1,0,,,,,,,,,,,,,,,,,,,,,1,,,,,,,,,,,,,,,,,,,,,,,,,,,,,,,,,,,,,,,,,,,,,,42,143515,22,Female,1,2024/02/09_11:07:35,YZ,59.92482646
,,,,,,practice,0,17,2,2583,6,X,1,left,0.80650009,1,0,,,,,,,,,,,,,,,,,,,,,1,,,,,,,,,,,,,,,,,,,,,,,,,,,,,,,,,,,,,,,,,,,,,,42,143515,22,Female,1,2024/02/09_11:07:35,YZ,59.92482646
,,,,,,practice,0,17,2,2583,,,,,,,,1,1,0,1,0,1,0.610405189,2,0,0,0,0,4,6,2,4,0,,,,1,,,,,,,,,,,,,,,,,,,,,,,,,,,,,,,,,,,,,,,,,,,,,,42,143515,22,Female,1,2024/02/09_11:07:35,YZ,59.92482646
-1,./instructions/inst_to_cali/Slide20.png,left,0.983397032,299.9588866,300.9422836,,,,,,,,,,,,,,,,,,,,,,,,,,,,,,,,,1,,,,,,,,,,,,,,,,,,,,,,,,,,,,,,,,,,,,,,,,,,,,,,42,143515,22,Female,1,2024/02/09_11:07:35,YZ,59.92482646
,,,,,,practice,0,7,2,2583,1,J,0,right,1.431698139,1,0,,,,,,,,,,,,,,,,,,,,,1,,,,,,,,,,,,,,,,,,,,,,,,,,,,,,,,,,,,,,,,,,,,,,42,143515,22,Female,1,2024/02/09_11:07:35,YZ,59.92482646
,,,,,,practice,0,7,2,2583,2,J,0,left,1.25858788,0,0,,,,,,,,,,,,,,,,,,,,,1,,,,,,,,,,,,,,,,,,,,,,,,,,,,,,,,,,,,,,,,,,,,,,42,143515,22,Female,1,2024/02/09_11:07:35,YZ,59.92482646
,,,,,,practice,0,7,2,2583,3,J,1,right,1.239840478,0,0,,,,,,,,,,,,,,,,,,,,,1,,,,,,,,,,,,,,,,,,,,,,,,,,,,,,,,,,,,,,,,,,,,,,42,143515,22,Female,1,2024/02/09_11:07:35,YZ,59.92482646
,,,,,,practice,0,7,2,2583,4,J,1,left,0.880373911,1,0,,,,,,,,,,,,,,,,,,,,,1,,,,,,,,,,,,,,,,,,,,,,,,,,,,,,,,,,,,,,,,,,,,,,42,143515,22,Female,1,2024/02/09_11:07:35,YZ,59.92482646
,,,,,,practice,0,7,2,2583,5,S,0,right,1.559151674,1,0,,,,,,,,,,,,,,,,,,,,,1,,,,,,,,,,,,,,,,,,,,,,,,,,,,,,,,,,,,,,,,,,,,,,42,143515,22,Female,1,2024/02/09_11:07:35,YZ,59.92482646
,,,,,,practice,0,7,2,2583,6,V,0,right,0.623019637,1,0,,,,,,,,,,,,,,,,,,,,,1,,,,,,,,,,,,,,,,,,,,,,,,,,,,,,,,,,,,,,,,,,,,,,42,143515,22,Female,1,2024/02/09_11:07:35,YZ,59.92482646
,,,,,,practice,0,7,2,2583,,,,,,,,0.6875,0.5,0.25,0.75,0,0.75,1.165445286,1,1,0,0,0,3,4,2,4,0,,,,1,,,,,,,,,,,,,,,,,,,,,,,,,,,,,,,,,,,,,,,,,,,,,,42,143515,22,Female,1,2024/02/09_11:07:35,YZ,59.92482646
1,./instructions/inst_redo_2/Slide18.png,right,27.68161461,316.3646485,344.0462631,,,,,,,,,,,,,,,,,,,,,,,,,,,,,,,,,1,,,,,,,,,,,,,,,,,,,,,,,,,,,,,,,,,,,,,,,,,,,,,,42,143515,22,Female,1,2024/02/09_11:07:35,YZ,59.92482646
,,,,,,practice,0,21,2,2583,1,S,0,right,0.841171825,1,0,,,,,,,,,,,,,,,,,,,,,1,,,,,,,,,,,,,,,,,,,,,,,,,,,,,,,,,,,,,,,,,,,,,,42,143515,22,Female,1,2024/02/09_11:07:35,YZ,59.92482646
,,,,,,practice,0,21,2,2583,2,V,0,right,0.580620199,1,0,,,,,,,,,,,,,,,,,,,,,1,,,,,,,,,,,,,,,,,,,,,,,,,,,,,,,,,,,,,,,,,,,,,,42,143515,22,Female,1,2024/02/09_11:07:35,YZ,59.92482646
,,,,,,practice,0,21,2,2583,3,N,0,right,0.536337428,1,0,,,,,,,,,,,,,,,,,,,,,1,,,,,,,,,,,,,,,,,,,,,,,,,,,,,,,,,,,,,,,,,,,,,,42,143515,22,Female,1,2024/02/09_11:07:35,YZ,59.92482646
,,,,,,practice,0,21,2,2583,4,V,1,left,0.678828004,1,0,,,,,,,,,,,,,,,,,,,,,1,,,,,,,,,,,,,,,,,,,,,,,,,,,,,,,,,,,,,,,,,,,,,,42,143515,22,Female,1,2024/02/09_11:07:35,YZ,59.92482646
,,,,,,practice,0,21,2,2583,5,N,1,left,0.911735239,1,0,,,,,,,,,,,,,,,,,,,,,1,,,,,,,,,,,,,,,,,,,,,,,,,,,,,,,,,,,,,,,,,,,,,,42,143515,22,Female,1,2024/02/09_11:07:35,YZ,59.92482646
,,,,,,practice,0,21,2,2583,6,S,0,right,0.658907446,1,0,,,,,,,,,,,,,,,,,,,,,1,,,,,,,,,,,,,,,,,,,,,,,,,,,,,,,,,,,,,,,,,,,,,,42,143515,22,Female,1,2024/02/09_11:07:35,YZ,59.92482646
,,,,,,practice,0,21,2,2583,,,,,,,,1,1,0,1,0,1,0.70126669,2,0,0,0,0,4,6,2,4,0,,,,1,,,,,,,,,,,,,,,,,,,,,,,,,,,,,,,,,,,,,,,,,,,,,,42,143515,22,Female,1,2024/02/09_11:07:35,YZ,59.92482646
-1,./instructions/inst_to_cali/Slide20.png,left,3.615501472,355.7907992,359.4063007,,,,,,,,,,,,,,,,,,,,,,,,,,,,,,,,,1,,,,,,,,,,,,,,,,,,,,,,,,,,,,,,,,,,,,,,,,,,,,,,42,143515,22,Female,1,2024/02/09_11:07:35,YZ,59.92482646
,,,,,,practice,0,9,2,2583,1,C,0,right,0.773889837,1,0,,,,,,,,,,,,,,,,,,,,,1,,,,,,,,,,,,,,,,,,,,,,,,,,,,,,,,,,,,,,,,,,,,,,42,143515,22,Female,1,2024/02/09_11:07:35,YZ,59.92482646
,,,,,,practice,0,9,2,2583,2,F,0,right,0.836728833,1,0,,,,,,,,,,,,,,,,,,,,,1,,,,,,,,,,,,,,,,,,,,,,,,,,,,,,,,,,,,,,,,,,,,,,42,143515,22,Female,1,2024/02/09_11:07:35,YZ,59.92482646
,,,,,,practice,0,9,2,2583,3,C,1,left,0.878108576,1,0,,,,,,,,,,,,,,,,,,,,,1,,,,,,,,,,,,,,,,,,,,,,,,,,,,,,,,,,,,,,,,,,,,,,42,143515,22,Female,1,2024/02/09_11:07:35,YZ,59.92482646
,,,,,,practice,0,9,2,2583,4,Q,0,right,0.667625721,1,0,,,,,,,,,,,,,,,,,,,,,1,,,,,,,,,,,,,,,,,,,,,,,,,,,,,,,,,,,,,,,,,,,,,,42,143515,22,Female,1,2024/02/09_11:07:35,YZ,59.92482646
,,,,,,practice,0,9,2,2583,5,N,0,right,0.969031176,1,0,,,,,,,,,,,,,,,,,,,,,1,,,,,,,,,,,,,,,,,,,,,,,,,,,,,,,,,,,,,,,,,,,,,,42,143515,22,Female,1,2024/02/09_11:07:35,YZ,59.92482646
,,,,,,practice,0,9,2,2583,6,Q,1,left,0.763385881,1,0,,,,,,,,,,,,,,,,,,,,,1,,,,,,,,,,,,,,,,,,,,,,,,,,,,,,,,,,,,,,,,,,,,,,42,143515,22,Female,1,2024/02/09_11:07:35,YZ,59.92482646
,,,,,,practice,0,9,2,2583,,,,,,,,1,1,0,1,0,1,0.814795004,2,0,0,0,0,4,6,2,4,0,,,,1,,,,,,,,,,,,,,,,,,,,,,,,,,,,,,,,,,,,,,,,,,,,,,42,143515,22,Female,1,2024/02/09_11:07:35,YZ,59.92482646
-1,./instructions/inst_to_cali/Slide20.png,left,1.014428873,371.879579,372.8940079,,,,,,,,,,,,,,,,,,,,,,,,,,,,,,,,,1,,,,,,,,,,,,,,,,,,,,,,,,,,,,,,,,,,,,,,,,,,,,,,42,143515,22,Female,1,2024/02/09_11:07:35,YZ,59.92482646
,,,,,,practice,0,19,2,2583,1,C,0,right,0.690550589,1,0,,,,,,,,,,,,,,,,,,,,,1,,,,,,,,,,,,,,,,,,,,,,,,,,,,,,,,,,,,,,,,,,,,,,42,143515,22,Female,1,2024/02/09_11:07:35,YZ,59.92482646
,,,,,,practice,0,19,2,2583,2,N,0,right,0.344923695,1,0,,,,,,,,,,,,,,,,,,,,,1,,,,,,,,,,,,,,,,,,,,,,,,,,,,,,,,,,,,,,,,,,,,,,42,143515,22,Female,1,2024/02/09_11:07:35,YZ,59.92482646
,,,,,,practice,0,19,2,2583,3,C,1,left,0.427296217,1,0,,,,,,,,,,,,,,,,,,,,,1,,,,,,,,,,,,,,,,,,,,,,,,,,,,,,,,,,,,,,,,,,,,,,42,143515,22,Female,1,2024/02/09_11:07:35,YZ,59.92482646
,,,,,,practice,0,19,2,2583,4,N,1,left,0.515799932,1,0,,,,,,,,,,,,,,,,,,,,,1,,,,,,,,,,,,,,,,,,,,,,,,,,,,,,,,,,,,,,,,,,,,,,42,143515,22,Female,1,2024/02/09_11:07:35,YZ,59.92482646
,,,,,,practice,0,19,2,2583,5,S,0,right,0.469902119,1,0,,,,,,,,,,,,,,,,,,,,,1,,,,,,,,,,,,,,,,,,,,,,,,,,,,,,,,,,,,,,,,,,,,,,42,143515,22,Female,1,2024/02/09_11:07:35,YZ,59.92482646
,,,,,,practice,0,19,2,2583,6,Q,0,right,0.593130937,1,0,,,,,,,,,,,,,,,,,,,,,1,,,,,,,,,,,,,,,,,,,,,,,,,,,,,,,,,,,,,,,,,,,,,,42,143515,22,Female,1,2024/02/09_11:07:35,YZ,59.92482646
,,,,,,practice,0,19,2,2583,,,,,,,,1,1,0,1,0,1,0.506933915,2,0,0,0,0,4,6,2,4,0,,,,1,,,,,,,,,,,,,,,,,,,,,,,,,,,,,,,,,,,,,,,,,,,,,,42,143515,22,Female,1,2024/02/09_11:07:35,YZ,59.92482646
-1,./instructions/inst_to_cali/Slide20.png,left,0.83140525,383.3827859,384.2141911,,,,,,,,,,,,,,,,,,,,,,,,,,,,,,,,,1,,,,,,,,,,,,,,,,,,,,,,,,,,,,,,,,,,,,,,,,,,,,,,42,143515,22,Female,1,2024/02/09_11:07:35,YZ,59.92482646
,,,,,,practice,0,8,2,2583,1,X,0,right,0.628146633,1,0,,,,,,,,,,,,,,,,,,,,,1,,,,,,,,,,,,,,,,,,,,,,,,,,,,,,,,,,,,,,,,,,,,,,42,143515,22,Female,1,2024/02/09_11:07:35,YZ,59.92482646
,,,,,,practice,0,8,2,2583,2,C,0,right,0.583875646,1,0,,,,,,,,,,,,,,,,,,,,,1,,,,,,,,,,,,,,,,,,,,,,,,,,,,,,,,,,,,,,,,,,,,,,42,143515,22,Female,1,2024/02/09_11:07:35,YZ,59.92482646
,,,,,,practice,0,8,2,2583,3,X,1,left,0.583725025,1,0,,,,,,,,,,,,,,,,,,,,,1,,,,,,,,,,,,,,,,,,,,,,,,,,,,,,,,,,,,,,,,,,,,,,42,143515,22,Female,1,2024/02/09_11:07:35,YZ,59.92482646
,,,,,,practice,0,8,2,2583,4,C,1,left,0.469385445,1,0,,,,,,,,,,,,,,,,,,,,,1,,,,,,,,,,,,,,,,,,,,,,,,,,,,,,,,,,,,,,,,,,,,,,42,143515,22,Female,1,2024/02/09_11:07:35,YZ,59.92482646
,,,,,,practice,0,8,2,2583,5,Q,0,right,0.471440267,1,0,,,,,,,,,,,,,,,,,,,,,1,,,,,,,,,,,,,,,,,,,,,,,,,,,,,,,,,,,,,,,,,,,,,,42,143515,22,Female,1,2024/02/09_11:07:35,YZ,59.92482646
,,,,,,practice,0,8,2,2583,6,V,0,right,0.454623788,1,0,,,,,,,,,,,,,,,,,,,,,1,,,,,,,,,,,,,,,,,,,,,,,,,,,,,,,,,,,,,,,,,,,,,,42,143515,22,Female,1,2024/02/09_11:07:35,YZ,59.92482646
,,,,,,practice,0,8,2,2583,,,,,,,,1,1,0,1,0,1,0.531866134,2,0,0,0,0,4,6,2,4,0,,,,1,,,,,,,,,,,,,,,,,,,,,,,,,,,,,,,,,,,,,,,,,,,,,,42,143515,22,Female,1,2024/02/09_11:07:35,YZ,59.92482646
-1,./instructions/inst_to_cali/Slide20.png,left,0.730345942,394.8919797,395.6223257,,,,,,,,,,,,,,,,,,,,,,,,,,,,,,,,,1,,,,,,,,,,,,,,,,,,,,,,,,,,,,,,,,,,,,,,,,,,,,,,42,143515,22,Female,1,2024/02/09_11:07:35,YZ,59.92482646
,,,,,,practice,0,22,2,2583,1,J,0,right,0.592747959,1,0,,,,,,,,,,,,,,,,,,,,,1,,,,,,,,,,,,,,,,,,,,,,,,,,,,,,,,,,,,,,,,,,,,,,42,143515,22,Female,1,2024/02/09_11:07:35,YZ,59.92482646
,,,,,,practice,0,22,2,2583,2,Q,0,right,0.610283088,1,0,,,,,,,,,,,,,,,,,,,,,1,,,,,,,,,,,,,,,,,,,,,,,,,,,,,,,,,,,,,,,,,,,,,,42,143515,22,Female,1,2024/02/09_11:07:35,YZ,59.92482646
,,,,,,practice,0,22,2,2583,3,J,1,left,0.567353511,1,0,,,,,,,,,,,,,,,,,,,,,1,,,,,,,,,,,,,,,,,,,,,,,,,,,,,,,,,,,,,,,,,,,,,,42,143515,22,Female,1,2024/02/09_11:07:35,YZ,59.92482646
,,,,,,practice,0,22,2,2583,4,X,0,right,0.524461892,1,0,,,,,,,,,,,,,,,,,,,,,1,,,,,,,,,,,,,,,,,,,,,,,,,,,,,,,,,,,,,,,,,,,,,,42,143515,22,Female,1,2024/02/09_11:07:35,YZ,59.92482646
,,,,,,practice,0,22,2,2583,5,C,0,right,0.642326905,1,0,,,,,,,,,,,,,,,,,,,,,1,,,,,,,,,,,,,,,,,,,,,,,,,,,,,,,,,,,,,,,,,,,,,,42,143515,22,Female,1,2024/02/09_11:07:35,YZ,59.92482646
,,,,,,practice,0,22,2,2583,6,X,1,left,0.664408604,1,0,,,,,,,,,,,,,,,,,,,,,1,,,,,,,,,,,,,,,,,,,,,,,,,,,,,,,,,,,,,,,,,,,,,,42,143515,22,Female,1,2024/02/09_11:07:35,YZ,59.92482646
,,,,,,practice,0,22,2,2583,,,,,,,,1,1,0,1,0,1,0.60026366,2,0,0,0,0,4,6,2,4,0,,,,1,,,,,,,,,,,,,,,,,,,,,,,,,,,,,,,,,,,,,,,,,,,,,,42,143515,22,Female,1,2024/02/09_11:07:35,YZ,59.92482646
-1,./instructions/inst_to_cali/Slide20.png,left,0.935996862,406.6222005,407.5581974,,,,,,,,,,,,,,,,,,,,,,,,,,,,,,,,,1,,,,,,,,,,,,,,,,,,,,,,,,,,,,,,,,,,,,,,,,,,,,,,42,143515,22,Female,1,2024/02/09_11:07:35,YZ,59.92482646
,,,,,,practice,0,1,2,2583,1,Q,0,right,0.542349726,1,0,,,,,,,,,,,,,,,,,,,,,1,,,,,,,,,,,,,,,,,,,,,,,,,,,,,,,,,,,,,,,,,,,,,,42,143515,22,Female,1,2024/02/09_11:07:35,YZ,59.92482646
,,,,,,practice,0,1,2,2583,2,S,0,right,0.567696245,1,0,,,,,,,,,,,,,,,,,,,,,1,,,,,,,,,,,,,,,,,,,,,,,,,,,,,,,,,,,,,,,,,,,,,,42,143515,22,Female,1,2024/02/09_11:07:35,YZ,59.92482646
,,,,,,practice,0,1,2,2583,3,X,0,right,0.374112418,1,0,,,,,,,,,,,,,,,,,,,,,1,,,,,,,,,,,,,,,,,,,,,,,,,,,,,,,,,,,,,,,,,,,,,,42,143515,22,Female,1,2024/02/09_11:07:35,YZ,59.92482646
,,,,,,practice,0,1,2,2583,4,S,1,left,0.450208702,1,0,,,,,,,,,,,,,,,,,,,,,1,,,,,,,,,,,,,,,,,,,,,,,,,,,,,,,,,,,,,,,,,,,,,,42,143515,22,Female,1,2024/02/09_11:07:35,YZ,59.92482646
,,,,,,practice,0,1,2,2583,5,C,0,right,0.405499901,1,0,,,,,,,,,,,,,,,,,,,,,1,,,,,,,,,,,,,,,,,,,,,,,,,,,,,,,,,,,,,,,,,,,,,,42,143515,22,Female,1,2024/02/09_11:07:35,YZ,59.92482646
,,,,,,practice,0,1,2,2583,6,S,1,left,0.490434425,1,0,,,,,,,,,,,,,,,,,,,,,1,,,,,,,,,,,,,,,,,,,,,,,,,,,,,,,,,,,,,,,,,,,,,,42,143515,22,Female,1,2024/02/09_11:07:35,YZ,59.92482646
,,,,,,practice,0,1,2,2583,,,,,,,,1,1,0,1,0,1,0.471716903,2,0,0,0,0,4,6,2,4,0,,,,1,,,,,,,,,,,,,,,,,,,,,,,,,,,,,,,,,,,,,,,,,,,,,,42,143515,22,Female,1,2024/02/09_11:07:35,YZ,59.92482646
-1,./instructions/inst_to_cali/Slide20.png,left,0.789640236,417.9605665,418.7502068,,,,,,,,,,,,,,,,,,,,,,,,,,,,,,,,,1,,,,,,,,,,,,,,,,,,,,,,,,,,,,,,,,,,,,,,,,,,,,,,42,143515,22,Female,1,2024/02/09_11:07:35,YZ,59.92482646
,,,,,,practice,0,29,2,2583,1,F,0,right,0.297910373,1,0,,,,,,,,,,,,,,,,,,,,,1,,,,,,,,,,,,,,,,,,,,,,,,,,,,,,,,,,,,,,,,,,,,,,42,143515,22,Female,1,2024/02/09_11:07:35,YZ,59.92482646
,,,,,,practice,0,29,2,2583,2,J,0,right,0.35194378,1,0,,,,,,,,,,,,,,,,,,,,,1,,,,,,,,,,,,,,,,,,,,,,,,,,,,,,,,,,,,,,,,,,,,,,42,143515,22,Female,1,2024/02/09_11:07:35,YZ,59.92482646
,,,,,,practice,0,29,2,2583,3,N,0,right,0.400200367,1,0,,,,,,,,,,,,,,,,,,,,,1,,,,,,,,,,,,,,,,,,,,,,,,,,,,,,,,,,,,,,,,,,,,,,42,143515,22,Female,1,2024/02/09_11:07:35,YZ,59.92482646
,,,,,,practice,0,29,2,2583,4,J,1,left,0.341080307,1,0,,,,,,,,,,,,,,,,,,,,,1,,,,,,,,,,,,,,,,,,,,,,,,,,,,,,,,,,,,,,,,,,,,,,42,143515,22,Female,1,2024/02/09_11:07:35,YZ,59.92482646
,,,,,,practice,0,29,2,2583,5,F,0,right,0.474073777,1,0,,,,,,,,,,,,,,,,,,,,,1,,,,,,,,,,,,,,,,,,,,,,,,,,,,,,,,,,,,,,,,,,,,,,42,143515,22,Female,1,2024/02/09_11:07:35,YZ,59.92482646
,,,,,,practice,0,29,2,2583,6,J,1,left,0.524446009,1,0,,,,,,,,,,,,,,,,,,,,,1,,,,,,,,,,,,,,,,,,,,,,,,,,,,,,,,,,,,,,,,,,,,,,42,143515,22,Female,1,2024/02/09_11:07:35,YZ,59.92482646
,,,,,,practice,0,29,2,2583,,,,,,,,1,1,0,1,0,1,0.398275769,2,0,0,0,0,4,6,2,4,0,,,,1,,,,,,,,,,,,,,,,,,,,,,,,,,,,,,,,,,,,,,,,,,,,,,42,143515,22,Female,1,2024/02/09_11:07:35,YZ,59.92482646
-1,./instructions/inst_to_cali/Slide20.png,left,0.839260457,428.6149164,429.4541768,,,,,,,,,,,,,,,,,,,,,,,,,,,,,,,,,1,,,,,,,,,,,,,,,,,,,,,,,,,,,,,,,,,,,,,,,,,,,,,,42,143515,22,Female,1,2024/02/09_11:07:35,YZ,59.92482646
,,,,,,practice,0,7,2,2583,1,J,0,right,0.764955887,1,0,,,,,,,,,,,,,,,,,,,,,1,,,,,,,,,,,,,,,,,,,,,,,,,,,,,,,,,,,,,,,,,,,,,,42,143515,22,Female,1,2024/02/09_11:07:35,YZ,59.92482646
,,,,,,practice,0,7,2,2583,2,J,0,right,0.947220532,1,0,,,,,,,,,,,,,,,,,,,,,1,,,,,,,,,,,,,,,,,,,,,,,,,,,,,,,,,,,,,,,,,,,,,,42,143515,22,Female,1,2024/02/09_11:07:35,YZ,59.92482646
,,,,,,practice,0,7,2,2583,3,J,1,left,0.538087056,1,0,,,,,,,,,,,,,,,,,,,,,1,,,,,,,,,,,,,,,,,,,,,,,,,,,,,,,,,,,,,,,,,,,,,,42,143515,22,Female,1,2024/02/09_11:07:35,YZ,59.92482646
,,,,,,practice,0,7,2,2583,4,J,1,right,0.44728952,0,0,,,,,,,,,,,,,,,,,,,,,1,,,,,,,,,,,,,,,,,,,,,,,,,,,,,,,,,,,,,,,,,,,,,,42,143515,22,Female,1,2024/02/09_11:07:35,YZ,59.92482646
,,,,,,practice,0,7,2,2583,5,S,0,right,1.277102377,1,0,,,,,,,,,,,,,,,,,,,,,1,,,,,,,,,,,,,,,,,,,,,,,,,,,,,,,,,,,,,,,,,,,,,,42,143515,22,Female,1,2024/02/09_11:07:35,YZ,59.92482646
,,,,,,practice,0,7,2,2583,6,V,0,right,0.773950614,1,0,,,,,,,,,,,,,,,,,,,,,1,,,,,,,,,,,,,,,,,,,,,,,,,,,,,,,,,,,,,,,,,,,,,,42,143515,22,Female,1,2024/02/09_11:07:35,YZ,59.92482646
,,,,,,practice,0,7,2,2583,,,,,,,,0.875,0.5,0,1,0,1,0.791434331,1,0,0,0,0,4,5,2,4,0,,,,1,,,,,,,,,,,,,,,,,,,,,,,,,,,,,,,,,,,,,,,,,,,,,,42,143515,22,Female,1,2024/02/09_11:07:35,YZ,59.92482646
1,./instructions/inst_to_cali/Slide20.png,right,0.671011509,442.1272806,442.7982921,,,,,,,,,,,,,,,,,,,,,,,,,,,,,,,,,1,,,,,,,,,,,,,,,,,,,,,,,,,,,,,,,,,,,,,,,,,,,,,,42,143515,22,Female,1,2024/02/09_11:07:35,YZ,59.92482646
-1,./instructions/inst_cali/Slide22.png,left,61.80372381,442.8822798,504.6860036,,,,,,,,,,,,,,,,,,,,,,,,,,,,,,,,,1,,,,,,,,,,,,,,,,,,,,,,,,,,,,,,,,,,,,,,,,,,,,,,42,143515,22,Female,1,2024/02/09_11:07:35,YZ,59.92482646
,,,,,,calibration,0,16,2,583,1,S,0,right,0.611640892,1,0,,,,,,,,,,,,,,,,,,,,,1,,,,,,,,,,,,,,,,,,,,,,,,,,,,,,,,,,,,,,,,,,,,,,42,143515,22,Female,1,2024/02/09_11:07:35,YZ,59.92482646
,,,,,,calibration,0,16,2,583,2,N,0,right,0.596219263,1,0,,,,,,,,,,,,,,,,,,,,,1,,,,,,,,,,,,,,,,,,,,,,,,,,,,,,,,,,,,,,,,,,,,,,42,143515,22,Female,1,2024/02/09_11:07:35,YZ,59.92482646
,,,,,,calibration,0,16,2,583,3,C,0,right,0.466135925,1,0,,,,,,,,,,,,,,,,,,,,,1,,,,,,,,,,,,,,,,,,,,,,,,,,,,,,,,,,,,,,,,,,,,,,42,143515,22,Female,1,2024/02/09_11:07:35,YZ,59.92482646
,,,,,,calibration,0,16,2,583,4,N,1,left,0.431575166,1,0,,,,,,,,,,,,,,,,,,,,,1,,,,,,,,,,,,,,,,,,,,,,,,,,,,,,,,,,,,,,,,,,,,,,42,143515,22,Female,1,2024/02/09_11:07:35,YZ,59.92482646
,,,,,,calibration,0,16,2,583,5,V,0,right,0.388349078,1,0,,,,,,,,,,,,,,,,,,,,,1,,,,,,,,,,,,,,,,,,,,,,,,,,,,,,,,,,,,,,,,,,,,,,42,143515,22,Female,1,2024/02/09_11:07:35,YZ,59.92482646
,,,,,,calibration,0,16,2,583,6,X,0,right,0.461448955,1,0,,,,,,,,,,,,,,,,,,,,,1,,,,,,,,,,,,,,,,,,,,,,,,,,,,,,,,,,,,,,,,,,,,,,42,143515,22,Female,1,2024/02/09_11:07:35,YZ,59.92482646
,,,,,,calibration,0,16,2,583,7,C,0,right,0.693239851,1,0,,,,,,,,,,,,,,,,,,,,,1,,,,,,,,,,,,,,,,,,,,,,,,,,,,,,,,,,,,,,,,,,,,,,42,143515,22,Female,1,2024/02/09_11:07:35,YZ,59.92482646
,,,,,,calibration,0,16,2,583,8,S,0,right,0.513985658,1,0,,,,,,,,,,,,,,,,,,,,,1,,,,,,,,,,,,,,,,,,,,,,,,,,,,,,,,,,,,,,,,,,,,,,42,143515,22,Female,1,2024/02/09_11:07:35,YZ,59.92482646
,,,,,,calibration,0,16,2,583,9,Q,0,right,0.405822334,1,0,,,,,,,,,,,,,,,,,,,,,1,,,,,,,,,,,,,,,,,,,,,,,,,,,,,,,,,,,,,,,,,,,,,,42,143515,22,Female,1,2024/02/09_11:07:35,YZ,59.92482646
,,,,,,calibration,0,16,2,583,10,S,1,left,0.402326653,1,0,,,,,,,,,,,,,,,,,,,,,1,,,,,,,,,,,,,,,,,,,,,,,,,,,,,,,,,,,,,,,,,,,,,,42,143515,22,Female,1,2024/02/09_11:07:35,YZ,59.92482646
,,,,,,calibration,0,16,2,583,11,F,0,right,0.309125525,1,0,,,,,,,,,,,,,,,,,,,,,1,,,,,,,,,,,,,,,,,,,,,,,,,,,,,,,,,,,,,,,,,,,,,,42,143515,22,Female,1,2024/02/09_11:07:35,YZ,59.92482646
,,,,,,calibration,0,16,2,583,12,S,1,left,0.480578655,1,0,,,,,,,,,,,,,,,,,,,,,1,,,,,,,,,,,,,,,,,,,,,,,,,,,,,,,,,,,,,,,,,,,,,,42,143515,22,Female,1,2024/02/09_11:07:35,YZ,59.92482646
,,,,,,calibration,0,16,2,583,13,X,0,right,0.295350549,1,0,,,,,,,,,,,,,,,,,,,,,1,,,,,,,,,,,,,,,,,,,,,,,,,,,,,,,,,,,,,,,,,,,,,,42,143515,22,Female,1,2024/02/09_11:07:35,YZ,59.92482646
,,,,,,calibration,0,16,2,583,14,V,0,right,0.49451258,1,0,,,,,,,,,,,,,,,,,,,,,1,,,,,,,,,,,,,,,,,,,,,,,,,,,,,,,,,,,,,,,,,,,,,,42,143515,22,Female,1,2024/02/09_11:07:35,YZ,59.92482646
,,,,,,calibration,0,16,2,583,15,X,1,right,nan,0,1,,,,,,,,,,,,,,,,,,,,,1,,,,,,,,,,,,,,,,,,,,,,,,,,,,,,,,,,,,,,,,,,,,,,42,143515,22,Female,1,2024/02/09_11:07:35,YZ,59.92482646
,,,,,,calibration,0,16,2,583,,,,,,,,0.9375,0.75,0,1,0.066666667,0.933333333,0.467879363,3,0,1,0,1,11,14,4,11,0,,,,1,,,,,,,,,,,,,,,,,,,,,,,,,,,,,,,,,,,,,,,,,,,,,,42,143515,22,Female,1,2024/02/09_11:07:35,YZ,59.92482646
,,,,,,Calibration,0,,2,583,,,,,,,,,,,,,,,,,,,,,,,,,1,,,1,,,,,,,,,,,,,,,,,,,,,,,,,,,,,,,,,,,,,,,,,,,,,,42,143515,22,Female,1,2024/02/09_11:07:35,YZ,59.92482646
,,,,,,calibration,0,20,2,500,1,Q,0,right,0.496800361,1,0,,,,,,,,,,,,,,,,,,,,,1,,,,,,,,,,,,,,,,,,,,,,,,,,,,,,,,,,,,,,,,,,,,,,42,143515,22,Female,1,2024/02/09_11:07:35,YZ,59.92482646
,,,,,,calibration,0,20,2,500,2,V,0,right,0.48737257,1,0,,,,,,,,,,,,,,,,,,,,,1,,,,,,,,,,,,,,,,,,,,,,,,,,,,,,,,,,,,,,,,,,,,,,42,143515,22,Female,1,2024/02/09_11:07:35,YZ,59.92482646
,,,,,,calibration,0,20,2,500,3,S,0,right,0.558942155,1,0,,,,,,,,,,,,,,,,,,,,,1,,,,,,,,,,,,,,,,,,,,,,,,,,,,,,,,,,,,,,,,,,,,,,42,143515,22,Female,1,2024/02/09_11:07:35,YZ,59.92482646
,,,,,,calibration,0,20,2,500,4,F,0,right,0.544886661,1,0,,,,,,,,,,,,,,,,,,,,,1,,,,,,,,,,,,,,,,,,,,,,,,,,,,,,,,,,,,,,,,,,,,,,42,143515,22,Female,1,2024/02/09_11:07:35,YZ,59.92482646
,,,,,,calibration,0,20,2,500,5,X,0,right,0.860190539,1,0,,,,,,,,,,,,,,,,,,,,,1,,,,,,,,,,,,,,,,,,,,,,,,,,,,,,,,,,,,,,,,,,,,,,42,143515,22,Female,1,2024/02/09_11:07:35,YZ,59.92482646
,,,,,,calibration,0,20,2,500,6,F,1,left,0.513513603,1,0,,,,,,,,,,,,,,,,,,,,,1,,,,,,,,,,,,,,,,,,,,,,,,,,,,,,,,,,,,,,,,,,,,,,42,143515,22,Female,1,2024/02/09_11:07:35,YZ,59.92482646
,,,,,,calibration,0,20,2,500,7,C,0,right,0.269393628,1,0,,,,,,,,,,,,,,,,,,,,,1,,,,,,,,,,,,,,,,,,,,,,,,,,,,,,,,,,,,,,,,,,,,,,42,143515,22,Female,1,2024/02/09_11:07:35,YZ,59.92482646
,,,,,,calibration,0,20,2,500,8,V,0,right,0.422128824,1,0,,,,,,,,,,,,,,,,,,,,,1,,,,,,,,,,,,,,,,,,,,,,,,,,,,,,,,,,,,,,,,,,,,,,42,143515,22,Female,1,2024/02/09_11:07:35,YZ,59.92482646
,,,,,,calibration,0,20,2,500,9,C,1,left,0.658767522,1,0,,,,,,,,,,,,,,,,,,,,,1,,,,,,,,,,,,,,,,,,,,,,,,,,,,,,,,,,,,,,,,,,,,,,42,143515,22,Female,1,2024/02/09_11:07:35,YZ,59.92482646
,,,,,,calibration,0,20,2,500,10,V,1,right,0.357448349,0,0,,,,,,,,,,,,,,,,,,,,,1,,,,,,,,,,,,,,,,,,,,,,,,,,,,,,,,,,,,,,,,,,,,,,42,143515,22,Female,1,2024/02/09_11:07:35,YZ,59.92482646
,,,,,,calibration,0,20,2,500,11,N,0,left,0.379913703,0,0,,,,,,,,,,,,,,,,,,,,,1,,,,,,,,,,,,,,,,,,,,,,,,,,,,,,,,,,,,,,,,,,,,,,42,143515,22,Female,1,2024/02/09_11:07:35,YZ,59.92482646
,,,,,,calibration,0,20,2,500,12,V,1,right,0.726727942,0,0,,,,,,,,,,,,,,,,,,,,,1,,,,,,,,,,,,,,,,,,,,,,,,,,,,,,,,,,,,,,,,,,,,,,42,143515,22,Female,1,2024/02/09_11:07:35,YZ,59.92482646
,,,,,,calibration,0,20,2,500,13,C,0,right,0.499324432,1,0,,,,,,,,,,,,,,,,,,,,,1,,,,,,,,,,,,,,,,,,,,,,,,,,,,,,,,,,,,,,,,,,,,,,42,143515,22,Female,1,2024/02/09_11:07:35,YZ,59.92482646
,,,,,,calibration,0,20,2,500,14,S,0,left,0.397615596,0,0,,,,,,,,,,,,,,,,,,,,,1,,,,,,,,,,,,,,,,,,,,,,,,,,,,,,,,,,,,,,,,,,,,,,42,143515,22,Female,1,2024/02/09_11:07:35,YZ,59.92482646
,,,,,,calibration,0,20,2,500,15,J,0,right,0.524133225,1,0,,,,,,,,,,,,,,,,,,,,,1,,,,,,,,,,,,,,,,,,,,,,,,,,,,,,,,,,,,,,,,,,,,,,42,143515,22,Female,1,2024/02/09_11:07:35,YZ,59.92482646
,,,,,,calibration,0,20,2,500,16,C,0,left,0.716207009,0,0,,,,,,,,,,,,,,,,,,,,,1,,,,,,,,,,,,,,,,,,,,,,,,,,,,,,,,,,,,,,,,,,,,,,42,143515,22,Female,1,2024/02/09_11:07:35,YZ,59.92482646
,,,,,,calibration,0,20,2,500,,,,,,,,0.6875,0.5,0.25,0.75,0,0.75,0.525835382,2,3,0,0,0,9,11,4,12,0,,,,1,,,,,,,,,,,,,,,,,,,,,,,,,,,,,,,,,,,,,,,,,,,,,,42,143515,22,Female,1,2024/02/09_11:07:35,YZ,59.92482646
,,,,,,Calibration,0,,2,500,,,,,,,,,,,,,,,,,,,,,,,,,2,,,1,,,,,,,,,,,,,,,,,,,,,,,,,,,,,,,,,,,,,,,,,,,,,,42,143515,22,Female,1,2024/02/09_11:07:35,YZ,59.92482646
,,,,,,calibration,0,31,2,583,1,C,0,right,0.381294385,1,0,,,,,,,,,,,,,,,,,,,,,1,,,,,,,,,,,,,,,,,,,,,,,,,,,,,,,,,,,,,,,,,,,,,,42,143515,22,Female,1,2024/02/09_11:07:35,YZ,59.92482646
,,,,,,calibration,0,31,2,583,2,C,0,right,1.707273064,1,0,,,,,,,,,,,,,,,,,,,,,1,,,,,,,,,,,,,,,,,,,,,,,,,,,,,,,,,,,,,,,,,,,,,,42,143515,22,Female,1,2024/02/09_11:07:35,YZ,59.92482646
,,,,,,calibration,0,31,2,583,3,C,1,right,0.308903404,0,0,,,,,,,,,,,,,,,,,,,,,1,,,,,,,,,,,,,,,,,,,,,,,,,,,,,,,,,,,,,,,,,,,,,,42,143515,22,Female,1,2024/02/09_11:07:35,YZ,59.92482646
,,,,,,calibration,0,31,2,583,4,C,1,left,0.559584138,1,0,,,,,,,,,,,,,,,,,,,,,1,,,,,,,,,,,,,,,,,,,,,,,,,,,,,,,,,,,,,,,,,,,,,,42,143515,22,Female,1,2024/02/09_11:07:35,YZ,59.92482646
,,,,,,calibration,0,31,2,583,5,N,0,right,0.221046815,1,0,,,,,,,,,,,,,,,,,,,,,1,,,,,,,,,,,,,,,,,,,,,,,,,,,,,,,,,,,,,,,,,,,,,,42,143515,22,Female,1,2024/02/09_11:07:35,YZ,59.92482646
,,,,,,calibration,0,31,2,583,6,Q,0,right,0.437970232,1,0,,,,,,,,,,,,,,,,,,,,,1,,,,,,,,,,,,,,,,,,,,,,,,,,,,,,,,,,,,,,,,,,,,,,42,143515,22,Female,1,2024/02/09_11:07:35,YZ,59.92482646
,,,,,,calibration,0,31,2,583,7,S,0,right,0.454025008,1,0,,,,,,,,,,,,,,,,,,,,,1,,,,,,,,,,,,,,,,,,,,,,,,,,,,,,,,,,,,,,,,,,,,,,42,143515,22,Female,1,2024/02/09_11:07:35,YZ,59.92482646
,,,,,,calibration,0,31,2,583,8,V,0,right,0.513693979,1,0,,,,,,,,,,,,,,,,,,,,,1,,,,,,,,,,,,,,,,,,,,,,,,,,,,,,,,,,,,,,,,,,,,,,42,143515,22,Female,1,2024/02/09_11:07:35,YZ,59.92482646
,,,,,,calibration,0,31,2,583,9,F,0,left,0.434753771,0,0,,,,,,,,,,,,,,,,,,,,,1,,,,,,,,,,,,,,,,,,,,,,,,,,,,,,,,,,,,,,,,,,,,,,42,143515,22,Female,1,2024/02/09_11:07:35,YZ,59.92482646
,,,,,,calibration,0,31,2,583,10,X,0,right,0.398086886,1,0,,,,,,,,,,,,,,,,,,,,,1,,,,,,,,,,,,,,,,,,,,,,,,,,,,,,,,,,,,,,,,,,,,,,42,143515,22,Female,1,2024/02/09_11:07:35,YZ,59.92482646
,,,,,,calibration,0,31,2,583,11,F,1,right,0.357631056,0,0,,,,,,,,,,,,,,,,,,,,,1,,,,,,,,,,,,,,,,,,,,,,,,,,,,,,,,,,,,,,,,,,,,,,42,143515,22,Female,1,2024/02/09_11:07:35,YZ,59.92482646
,,,,,,calibration,0,31,2,583,12,X,1,right,0.412404132,0,0,,,,,,,,,,,,,,,,,,,,,1,,,,,,,,,,,,,,,,,,,,,,,,,,,,,,,,,,,,,,,,,,,,,,42,143515,22,Female,1,2024/02/09_11:07:35,YZ,59.92482646
,,,,,,calibration,0,31,2,583,13,Q,0,left,0.240707318,0,0,,,,,,,,,,,,,,,,,,,,,1,,,,,,,,,,,,,,,,,,,,,,,,,,,,,,,,,,,,,,,,,,,,,,42,143515,22,Female,1,2024/02/09_11:07:35,YZ,59.92482646
,,,,,,calibration,0,31,2,583,14,F,0,right,0.35205181,1,0,,,,,,,,,,,,,,,,,,,,,1,,,,,,,,,,,,,,,,,,,,,,,,,,,,,,,,,,,,,,,,,,,,,,42,143515,22,Female,1,2024/02/09_11:07:35,YZ,59.92482646
,,,,,,calibration,0,31,2,583,15,X,0,right,0.344795671,1,0,,,,,,,,,,,,,,,,,,,,,1,,,,,,,,,,,,,,,,,,,,,,,,,,,,,,,,,,,,,,,,,,,,,,42,143515,22,Female,1,2024/02/09_11:07:35,YZ,59.92482646
,,,,,,calibration,0,31,2,583,,,,,,,,0.585227273,0.25,0.181818182,0.818181818,0,0.818181818,0.474948111,1,2,0,0,0,9,10,4,11,0,,,,1,,,,,,,,,,,,,,,,,,,,,,,,,,,,,,,,,,,,,,,,,,,,,,42,143515,22,Female,1,2024/02/09_11:07:35,YZ,59.92482646
,,,,,,Calibration,0,,2,583,,,,,,,,,,,,,,,,,,,,,,,,,3,,,1,,,,,,,,,,,,,,,,,,,,,,,,,,,,,,,,,,,,,,,,,,,,,,42,143515,22,Female,1,2024/02/09_11:07:35,YZ,59.92482646
,,,,,,calibration,0,27,2,679,1,J,0,right,0.36729736,1,0,,,,,,,,,,,,,,,,,,,,,1,,,,,,,,,,,,,,,,,,,,,,,,,,,,,,,,,,,,,,,,,,,,,,42,143515,22,Female,1,2024/02/09_11:07:35,YZ,59.92482646
,,,,,,calibration,0,27,2,679,2,N,0,right,0.477845908,1,0,,,,,,,,,,,,,,,,,,,,,1,,,,,,,,,,,,,,,,,,,,,,,,,,,,,,,,,,,,,,,,,,,,,,42,143515,22,Female,1,2024/02/09_11:07:35,YZ,59.92482646
,,,,,,calibration,0,27,2,679,3,V,0,right,0.447070169,1,0,,,,,,,,,,,,,,,,,,,,,1,,,,,,,,,,,,,,,,,,,,,,,,,,,,,,,,,,,,,,,,,,,,,,42,143515,22,Female,1,2024/02/09_11:07:35,YZ,59.92482646
,,,,,,calibration,0,27,2,679,4,Q,0,right,0.485359363,1,0,,,,,,,,,,,,,,,,,,,,,1,,,,,,,,,,,,,,,,,,,,,,,,,,,,,,,,,,,,,,,,,,,,,,42,143515,22,Female,1,2024/02/09_11:07:35,YZ,59.92482646
,,,,,,calibration,0,27,2,679,5,V,1,left,0.510472516,1,0,,,,,,,,,,,,,,,,,,,,,1,,,,,,,,,,,,,,,,,,,,,,,,,,,,,,,,,,,,,,,,,,,,,,42,143515,22,Female,1,2024/02/09_11:07:35,YZ,59.92482646
,,,,,,calibration,0,27,2,679,6,J,0,right,0.260868905,1,0,,,,,,,,,,,,,,,,,,,,,1,,,,,,,,,,,,,,,,,,,,,,,,,,,,,,,,,,,,,,,,,,,,,,42,143515,22,Female,1,2024/02/09_11:07:35,YZ,59.92482646
,,,,,,calibration,0,27,2,679,7,N,0,right,0.342772323,1,0,,,,,,,,,,,,,,,,,,,,,1,,,,,,,,,,,,,,,,,,,,,,,,,,,,,,,,,,,,,,,,,,,,,,42,143515,22,Female,1,2024/02/09_11:07:35,YZ,59.92482646
,,,,,,calibration,0,27,2,679,8,J,1,right,0.493947125,0,0,,,,,,,,,,,,,,,,,,,,,1,,,,,,,,,,,,,,,,,,,,,,,,,,,,,,,,,,,,,,,,,,,,,,42,143515,22,Female,1,2024/02/09_11:07:35,YZ,59.92482646
,,,,,,calibration,0,27,2,679,9,Q,0,left,0.055352865,0,0,,,,,,,,,,,,,,,,,,,,,1,,,,,,,,,,,,,,,,,,,,,,,,,,,,,,,,,,,,,,,,,,,,,,42,143515,22,Female,1,2024/02/09_11:07:35,YZ,59.92482646
,,,,,,calibration,0,27,2,679,10,V,0,right,0,1,0,,,,,,,,,,,,,,,,,,,,,1,,,,,,,,,,,,,,,,,,,,,,,,,,,,,,,,,,,,,,,,,,,,,,42,143515,22,Female,1,2024/02/09_11:07:35,YZ,59.92482646
,,,,,,calibration,0,27,2,679,11,Q,1,right,0.000544817,0,0,,,,,,,,,,,,,,,,,,,,,1,,,,,,,,,,,,,,,,,,,,,,,,,,,,,,,,,,,,,,,,,,,,,,42,143515,22,Female,1,2024/02/09_11:07:35,YZ,59.92482646
,,,,,,calibration,0,27,2,679,12,J,0,right,0.128708982,1,0,,,,,,,,,,,,,,,,,,,,,1,,,,,,,,,,,,,,,,,,,,,,,,,,,,,,,,,,,,,,,,,,,,,,42,143515,22,Female,1,2024/02/09_11:07:35,YZ,59.92482646
,,,,,,calibration,0,27,2,679,13,Q,1,left,0.298123727,1,0,,,,,,,,,,,,,,,,,,,,,1,,,,,,,,,,,,,,,,,,,,,,,,,,,,,,,,,,,,,,,,,,,,,,42,143515,22,Female,1,2024/02/09_11:07:35,YZ,59.92482646
,,,,,,calibration,0,27,2,679,14,X,0,right,0.10047378,1,0,,,,,,,,,,,,,,,,,,,,,1,,,,,,,,,,,,,,,,,,,,,,,,,,,,,,,,,,,,,,,,,,,,,,42,143515,22,Female,1,2024/02/09_11:07:35,YZ,59.92482646
,,,,,,calibration,0,27,2,679,,,,,,,,0.8,0.5,0.1,0.9,0,0.9,0.283488417,2,1,0,0,0,9,11,4,10,0,,,,1,,,,,,,,,,,,,,,,,,,,,,,,,,,,,,,,,,,,,,,,,,,,,,42,143515,22,Female,1,2024/02/09_11:07:35,YZ,59.92482646
,,,,,,Calibration,0,,2,679,,,,,,,,,,,,,,,,,,,,,,,,,4,,,1,,,,,,,,,,,,,,,,,,,,,,,,,,,,,,,,,,,,,,,,,,,,,,42,143515,22,Female,1,2024/02/09_11:07:35,YZ,59.92482646
,,,,,,calibration,0,20,2,679,1,F,0,right,0.374712646,1,0,,,,,,,,,,,,,,,,,,,,,1,,,,,,,,,,,,,,,,,,,,,,,,,,,,,,,,,,,,,,,,,,,,,,42,143515,22,Female,1,2024/02/09_11:07:35,YZ,59.92482646
,,,,,,calibration,0,20,2,679,2,C,0,right,0.573922436,1,0,,,,,,,,,,,,,,,,,,,,,1,,,,,,,,,,,,,,,,,,,,,,,,,,,,,,,,,,,,,,,,,,,,,,42,143515,22,Female,1,2024/02/09_11:07:35,YZ,59.92482646
,,,,,,calibration,0,20,2,679,3,N,0,right,0.296783207,1,0,,,,,,,,,,,,,,,,,,,,,1,,,,,,,,,,,,,,,,,,,,,,,,,,,,,,,,,,,,,,,,,,,,,,42,143515,22,Female,1,2024/02/09_11:07:35,YZ,59.92482646
,,,,,,calibration,0,20,2,679,4,C,1,left,0.450000543,1,0,,,,,,,,,,,,,,,,,,,,,1,,,,,,,,,,,,,,,,,,,,,,,,,,,,,,,,,,,,,,,,,,,,,,42,143515,22,Female,1,2024/02/09_11:07:35,YZ,59.92482646
,,,,,,calibration,0,20,2,679,5,S,0,right,0.294115195,1,0,,,,,,,,,,,,,,,,,,,,,1,,,,,,,,,,,,,,,,,,,,,,,,,,,,,,,,,,,,,,,,,,,,,,42,143515,22,Female,1,2024/02/09_11:07:35,YZ,59.92482646
,,,,,,calibration,0,20,2,679,6,C,1,right,0.37863678,0,0,,,,,,,,,,,,,,,,,,,,,1,,,,,,,,,,,,,,,,,,,,,,,,,,,,,,,,,,,,,,,,,,,,,,42,143515,22,Female,1,2024/02/09_11:07:35,YZ,59.92482646
,,,,,,calibration,0,20,2,679,7,N,0,left,0.341322348,0,0,,,,,,,,,,,,,,,,,,,,,1,,,,,,,,,,,,,,,,,,,,,,,,,,,,,,,,,,,,,,,,,,,,,,42,143515,22,Female,1,2024/02/09_11:07:35,YZ,59.92482646
,,,,,,calibration,0,20,2,679,8,C,1,right,0.213229668,0,0,,,,,,,,,,,,,,,,,,,,,1,,,,,,,,,,,,,,,,,,,,,,,,,,,,,,,,,,,,,,,,,,,,,,42,143515,22,Female,1,2024/02/09_11:07:35,YZ,59.92482646
,,,,,,calibration,0,20,2,679,9,Q,0,right,0.28366878,1,0,,,,,,,,,,,,,,,,,,,,,1,,,,,,,,,,,,,,,,,,,,,,,,,,,,,,,,,,,,,,,,,,,,,,42,143515,22,Female,1,2024/02/09_11:07:35,YZ,59.92482646
,,,,,,calibration,0,20,2,679,10,F,0,right,0.341646412,1,0,,,,,,,,,,,,,,,,,,,,,1,,,,,,,,,,,,,,,,,,,,,,,,,,,,,,,,,,,,,,,,,,,,,,42,143515,22,Female,1,2024/02/09_11:07:35,YZ,59.92482646
,,,,,,calibration,0,20,2,679,11,Q,1,right,0.290339781,0,0,,,,,,,,,,,,,,,,,,,,,1,,,,,,,,,,,,,,,,,,,,,,,,,,,,,,,,,,,,,,,,,,,,,,42,143515,22,Female,1,2024/02/09_11:07:35,YZ,59.92482646
,,,,,,calibration,0,20,2,679,12,C,0,left,0.22290612,0,0,,,,,,,,,,,,,,,,,,,,,1,,,,,,,,,,,,,,,,,,,,,,,,,,,,,,,,,,,,,,,,,,,,,,42,143515,22,Female,1,2024/02/09_11:07:35,YZ,59.92482646
,,,,,,calibration,0,20,2,679,13,V,0,left,0,0,0,,,,,,,,,,,,,,,,,,,,,1,,,,,,,,,,,,,,,,,,,,,,,,,,,,,,,,,,,,,,,,,,,,,,42,143515,22,Female,1,2024/02/09_11:07:35,YZ,59.92482646
,,,,,,calibration,0,20,2,679,14,J,0,right,0.545819431,1,0,,,,,,,,,,,,,,,,,,,,,1,,,,,,,,,,,,,,,,,,,,,,,,,,,,,,,,,,,,,,,,,,,,,,42,143515,22,Female,1,2024/02/09_11:07:35,YZ,59.92482646
,,,,,,calibration,0,20,2,679,,,,,,,,0.029166667,0.25,0.3,0.7,0,0.7,0.329078811,1,3,0,0,0,7,8,4,10,0,,,,1,,,,,,,,,,,,,,,,,,,,,,,,,,,,,,,,,,,,,,,,,,,,,,42,143515,22,Female,1,2024/02/09_11:07:35,YZ,59.92482646
,,,,,,Calibration,0,,2,679,,,,,,,,,,,,,,,,,,,,,,,,,5,,,1,,,,,,,,,,,,,,,,,,,,,,,,,,,,,,,,,,,,,,,,,,,,,,42,143515,22,Female,1,2024/02/09_11:07:35,YZ,59.92482646
,,,,,,calibration,0,13,2,788,1,S,0,right,0.330684227,1,0,,,,,,,,,,,,,,,,,,,,,1,,,,,,,,,,,,,,,,,,,,,,,,,,,,,,,,,,,,,,,,,,,,,,42,143515,22,Female,1,2024/02/09_11:07:35,YZ,59.92482646
,,,,,,calibration,0,13,2,788,2,S,0,right,0.44804901,1,0,,,,,,,,,,,,,,,,,,,,,1,,,,,,,,,,,,,,,,,,,,,,,,,,,,,,,,,,,,,,,,,,,,,,42,143515,22,Female,1,2024/02/09_11:07:35,YZ,59.92482646
,,,,,,calibration,0,13,2,788,3,C,0,right,0.662426184,1,0,,,,,,,,,,,,,,,,,,,,,1,,,,,,,,,,,,,,,,,,,,,,,,,,,,,,,,,,,,,,,,,,,,,,42,143515,22,Female,1,2024/02/09_11:07:35,YZ,59.92482646
,,,,,,calibration,0,13,2,788,4,Q,0,right,0.499278714,1,0,,,,,,,,,,,,,,,,,,,,,1,,,,,,,,,,,,,,,,,,,,,,,,,,,,,,,,,,,,,,,,,,,,,,42,143515,22,Female,1,2024/02/09_11:07:35,YZ,59.92482646
,,,,,,calibration,0,13,2,788,5,C,1,left,0.316517932,1,0,,,,,,,,,,,,,,,,,,,,,1,,,,,,,,,,,,,,,,,,,,,,,,,,,,,,,,,,,,,,,,,,,,,,42,143515,22,Female,1,2024/02/09_11:07:35,YZ,59.92482646
,,,,,,calibration,0,13,2,788,6,Q,1,right,0.252280355,0,0,,,,,,,,,,,,,,,,,,,,,1,,,,,,,,,,,,,,,,,,,,,,,,,,,,,,,,,,,,,,,,,,,,,,42,143515,22,Female,1,2024/02/09_11:07:35,YZ,59.92482646
,,,,,,calibration,0,13,2,788,7,J,0,left,0.247316042,0,0,,,,,,,,,,,,,,,,,,,,,1,,,,,,,,,,,,,,,,,,,,,,,,,,,,,,,,,,,,,,,,,,,,,,42,143515,22,Female,1,2024/02/09_11:07:35,YZ,59.92482646
,,,,,,calibration,0,13,2,788,8,S,0,right,0.247316776,1,0,,,,,,,,,,,,,,,,,,,,,1,,,,,,,,,,,,,,,,,,,,,,,,,,,,,,,,,,,,,,,,,,,,,,42,143515,22,Female,1,2024/02/09_11:07:35,YZ,59.92482646
,,,,,,calibration,0,13,2,788,9,X,0,right,0.326188722,1,0,,,,,,,,,,,,,,,,,,,,,1,,,,,,,,,,,,,,,,,,,,,,,,,,,,,,,,,,,,,,,,,,,,,,42,143515,22,Female,1,2024/02/09_11:07:35,YZ,59.92482646
,,,,,,calibration,0,13,2,788,10,F,0,right,0.303028196,1,0,,,,,,,,,,,,,,,,,,,,,1,,,,,,,,,,,,,,,,,,,,,,,,,,,,,,,,,,,,,,,,,,,,,,42,143515,22,Female,1,2024/02/09_11:07:35,YZ,59.92482646
,,,,,,calibration,0,13,2,788,11,N,0,right,0.349634256,1,0,,,,,,,,,,,,,,,,,,,,,1,,,,,,,,,,,,,,,,,,,,,,,,,,,,,,,,,,,,,,,,,,,,,,42,143515,22,Female,1,2024/02/09_11:07:35,YZ,59.92482646
,,,,,,calibration,0,13,2,788,12,F,1,right,0.420985466,0,0,,,,,,,,,,,,,,,,,,,,,1,,,,,,,,,,,,,,,,,,,,,,,,,,,,,,,,,,,,,,,,,,,,,,42,143515,22,Female,1,2024/02/09_11:07:35,YZ,59.92482646
,,,,,,calibration,0,13,2,788,13,N,1,right,0.406007268,0,0,,,,,,,,,,,,,,,,,,,,,1,,,,,,,,,,,,,,,,,,,,,,,,,,,,,,,,,,,,,,,,,,,,,,42,143515,22,Female,1,2024/02/09_11:07:35,YZ,59.92482646
,,,,,,calibration,0,13,2,788,,,,,,,,0.673611111,0.25,0.111111111,0.888888889,0,0.888888889,0.369977934,1,1,0,0,0,8,9,4,9,0,,,,1,,,,,,,,,,,,,,,,,,,,,,,,,,,,,,,,,,,,,,,,,,,,,,42,143515,22,Female,1,2024/02/09_11:07:35,YZ,59.92482646
,,,,,,Calibration,0,,2,788,,,,,,,,,,,,,,,,,,,,,,,,,6,,,1,,,,,,,,,,,,,,,,,,,,,,,,,,,,,,,,,,,,,,,,,,,,,,42,143515,22,Female,1,2024/02/09_11:07:35,YZ,59.92482646
,,,,,,calibration,0,33,2,917,1,N,0,right,0.296066346,1,0,,,,,,,,,,,,,,,,,,,,,1,,,,,,,,,,,,,,,,,,,,,,,,,,,,,,,,,,,,,,,,,,,,,,42,143515,22,Female,1,2024/02/09_11:07:35,YZ,59.92482646
,,,,,,calibration,0,33,2,917,2,N,0,right,0.577804024,1,0,,,,,,,,,,,,,,,,,,,,,1,,,,,,,,,,,,,,,,,,,,,,,,,,,,,,,,,,,,,,,,,,,,,,42,143515,22,Female,1,2024/02/09_11:07:35,YZ,59.92482646
,,,,,,calibration,0,33,2,917,3,X,0,right,0.611924956,1,0,,,,,,,,,,,,,,,,,,,,,1,,,,,,,,,,,,,,,,,,,,,,,,,,,,,,,,,,,,,,,,,,,,,,42,143515,22,Female,1,2024/02/09_11:07:35,YZ,59.92482646
,,,,,,calibration,0,33,2,917,4,J,0,right,0.513747795,1,0,,,,,,,,,,,,,,,,,,,,,1,,,,,,,,,,,,,,,,,,,,,,,,,,,,,,,,,,,,,,,,,,,,,,42,143515,22,Female,1,2024/02/09_11:07:35,YZ,59.92482646
,,,,,,calibration,0,33,2,917,5,N,0,right,0.764477959,1,0,,,,,,,,,,,,,,,,,,,,,1,,,,,,,,,,,,,,,,,,,,,,,,,,,,,,,,,,,,,,,,,,,,,,42,143515,22,Female,1,2024/02/09_11:07:35,YZ,59.92482646
,,,,,,calibration,0,33,2,917,6,F,0,right,0.351525274,1,0,,,,,,,,,,,,,,,,,,,,,1,,,,,,,,,,,,,,,,,,,,,,,,,,,,,,,,,,,,,,,,,,,,,,42,143515,22,Female,1,2024/02/09_11:07:35,YZ,59.92482646
,,,,,,calibration,0,33,2,917,7,N,1,right,0.380961925,0,0,,,,,,,,,,,,,,,,,,,,,1,,,,,,,,,,,,,,,,,,,,,,,,,,,,,,,,,,,,,,,,,,,,,,42,143515,22,Female,1,2024/02/09_11:07:35,YZ,59.92482646
,,,,,,calibration,0,33,2,917,8,F,1,left,0.538059401,1,0,,,,,,,,,,,,,,,,,,,,,1,,,,,,,,,,,,,,,,,,,,,,,,,,,,,,,,,,,,,,,,,,,,,,42,143515,22,Female,1,2024/02/09_11:07:35,YZ,59.92482646
,,,,,,calibration,0,33,2,917,9,Q,0,right,0.251224275,1,0,,,,,,,,,,,,,,,,,,,,,1,,,,,,,,,,,,,,,,,,,,,,,,,,,,,,,,,,,,,,,,,,,,,,42,143515,22,Female,1,2024/02/09_11:07:35,YZ,59.92482646
,,,,,,calibration,0,33,2,917,10,N,0,right,0.252518224,1,0,,,,,,,,,,,,,,,,,,,,,1,,,,,,,,,,,,,,,,,,,,,,,,,,,,,,,,,,,,,,,,,,,,,,42,143515,22,Female,1,2024/02/09_11:07:35,YZ,59.92482646
,,,,,,calibration,0,33,2,917,11,Q,1,right,0.324193274,0,0,,,,,,,,,,,,,,,,,,,,,1,,,,,,,,,,,,,,,,,,,,,,,,,,,,,,,,,,,,,,,,,,,,,,42,143515,22,Female,1,2024/02/09_11:07:35,YZ,59.92482646
,,,,,,calibration,0,33,2,917,12,S,0,left,0,0,0,,,,,,,,,,,,,,,,,,,,,1,,,,,,,,,,,,,,,,,,,,,,,,,,,,,,,,,,,,,,,,,,,,,,42,143515,22,Female,1,2024/02/09_11:07:35,YZ,59.92482646
,,,,,,calibration,0,33,2,917,,,,,,,,0.722222222,0.333333333,0.111111111,0.888888889,0,0.888888889,0.405208621,1,1,0,0,0,8,9,3,9,0,,,,1,,,,,,,,,,,,,,,,,,,,,,,,,,,,,,,,,,,,,,,,,,,,,,42,143515,22,Female,1,2024/02/09_11:07:35,YZ,59.92482646
,,,,,,Calibration,0,,2,917,,,,,,,,,,,,,,,,,,,,,,,,,7,,,1,,,,,,,,,,,,,,,,,,,,,,,,,,,,,,,,,,,,,,,,,,,,,,42,143515,22,Female,1,2024/02/09_11:07:35,YZ,59.92482646
,,,,,,calibration,0,4,2,1068,1,S,0,right,0.311138888,1,0,,,,,,,,,,,,,,,,,,,,,1,,,,,,,,,,,,,,,,,,,,,,,,,,,,,,,,,,,,,,,,,,,,,,42,143515,22,Female,1,2024/02/09_11:07:35,YZ,59.92482646
,,,,,,calibration,0,4,2,1068,2,V,0,right,0.328444164,1,0,,,,,,,,,,,,,,,,,,,,,1,,,,,,,,,,,,,,,,,,,,,,,,,,,,,,,,,,,,,,,,,,,,,,42,143515,22,Female,1,2024/02/09_11:07:35,YZ,59.92482646
,,,,,,calibration,0,4,2,1068,3,S,1,left,0.290857595,1,0,,,,,,,,,,,,,,,,,,,,,1,,,,,,,,,,,,,,,,,,,,,,,,,,,,,,,,,,,,,,,,,,,,,,42,143515,22,Female,1,2024/02/09_11:07:35,YZ,59.92482646
,,,,,,calibration,0,4,2,1068,4,F,0,right,0.298217594,1,0,,,,,,,,,,,,,,,,,,,,,1,,,,,,,,,,,,,,,,,,,,,,,,,,,,,,,,,,,,,,,,,,,,,,42,143515,22,Female,1,2024/02/09_11:07:35,YZ,59.92482646
,,,,,,calibration,0,4,2,1068,5,J,0,right,0.317724371,1,0,,,,,,,,,,,,,,,,,,,,,1,,,,,,,,,,,,,,,,,,,,,,,,,,,,,,,,,,,,,,,,,,,,,,42,143515,22,Female,1,2024/02/09_11:07:35,YZ,59.92482646
,,,,,,calibration,0,4,2,1068,6,C,0,right,0.357149239,1,0,,,,,,,,,,,,,,,,,,,,,1,,,,,,,,,,,,,,,,,,,,,,,,,,,,,,,,,,,,,,,,,,,,,,42,143515,22,Female,1,2024/02/09_11:07:35,YZ,59.92482646
,,,,,,calibration,0,4,2,1068,7,S,0,right,0.595478401,1,0,,,,,,,,,,,,,,,,,,,,,1,,,,,,,,,,,,,,,,,,,,,,,,,,,,,,,,,,,,,,,,,,,,,,42,143515,22,Female,1,2024/02/09_11:07:35,YZ,59.92482646
,,,,,,calibration,0,4,2,1068,8,C,1,right,0.308774035,0,0,,,,,,,,,,,,,,,,,,,,,1,,,,,,,,,,,,,,,,,,,,,,,,,,,,,,,,,,,,,,,,,,,,,,42,143515,22,Female,1,2024/02/09_11:07:35,YZ,59.92482646
,,,,,,calibration,0,4,2,1068,9,S,1,left,0.347737165,1,0,,,,,,,,,,,,,,,,,,,,,1,,,,,,,,,,,,,,,,,,,,,,,,,,,,,,,,,,,,,,,,,,,,,,42,143515,22,Female,1,2024/02/09_11:07:35,YZ,59.92482646
,,,,,,calibration,0,4,2,1068,10,F,0,right,0.230316143,1,0,,,,,,,,,,,,,,,,,,,,,1,,,,,,,,,,,,,,,,,,,,,,,,,,,,,,,,,,,,,,,,,,,,,,42,143515,22,Female,1,2024/02/09_11:07:35,YZ,59.92482646
,,,,,,calibration,0,4,2,1068,11,V,0,right,0.306616214,1,0,,,,,,,,,,,,,,,,,,,,,1,,,,,,,,,,,,,,,,,,,,,,,,,,,,,,,,,,,,,,,,,,,,,,42,143515,22,Female,1,2024/02/09_11:07:35,YZ,59.92482646
,,,,,,calibration,0,4,2,1068,,,,,,,,0.916666667,0.666666667,0,1,0,1,0.335677619,2,0,0,0,0,8,10,3,8,0,,,,1,,,,,,,,,,,,,,,,,,,,,,,,,,,,,,,,,,,,,,,,,,,,,,42,143515,22,Female,1,2024/02/09_11:07:35,YZ,59.92482646
,,,,,,Calibration,0,,2,1068,,,,,,,,,,,,,,,,,,,,,,,,,8,,,1,,,,,,,,,,,,,,,,,,,,,,,,,,,,,,,,,,,,,,,,,,,,,,42,143515,22,Female,1,2024/02/09_11:07:35,YZ,59.92482646
,,,,,,calibration,0,34,2,917,1,Q,0,right,0.297833798,1,0,,,,,,,,,,,,,,,,,,,,,1,,,,,,,,,,,,,,,,,,,,,,,,,,,,,,,,,,,,,,,,,,,,,,42,143515,22,Female,1,2024/02/09_11:07:35,YZ,59.92482646
,,,,,,calibration,0,34,2,917,2,F,0,right,0.374943698,1,0,,,,,,,,,,,,,,,,,,,,,1,,,,,,,,,,,,,,,,,,,,,,,,,,,,,,,,,,,,,,,,,,,,,,42,143515,22,Female,1,2024/02/09_11:07:35,YZ,59.92482646
,,,,,,calibration,0,34,2,917,3,C,0,right,0.445158024,1,0,,,,,,,,,,,,,,,,,,,,,1,,,,,,,,,,,,,,,,,,,,,,,,,,,,,,,,,,,,,,,,,,,,,,42,143515,22,Female,1,2024/02/09_11:07:35,YZ,59.92482646
,,,,,,calibration,0,34,2,917,4,Q,0,right,0.660987397,1,0,,,,,,,,,,,,,,,,,,,,,1,,,,,,,,,,,,,,,,,,,,,,,,,,,,,,,,,,,,,,,,,,,,,,42,143515,22,Female,1,2024/02/09_11:07:35,YZ,59.92482646
,,,,,,calibration,0,34,2,917,5,C,1,right,0.575970608,0,0,,,,,,,,,,,,,,,,,,,,,1,,,,,,,,,,,,,,,,,,,,,,,,,,,,,,,,,,,,,,,,,,,,,,42,143515,22,Female,1,2024/02/09_11:07:35,YZ,59.92482646
,,,,,,calibration,0,34,2,917,6,J,0,left,0.444155835,0,0,,,,,,,,,,,,,,,,,,,,,1,,,,,,,,,,,,,,,,,,,,,,,,,,,,,,,,,,,,,,,,,,,,,,42,143515,22,Female,1,2024/02/09_11:07:35,YZ,59.92482646
,,,,,,calibration,0,34,2,917,7,S,0,right,0.319050383,1,0,,,,,,,,,,,,,,,,,,,,,1,,,,,,,,,,,,,,,,,,,,,,,,,,,,,,,,,,,,,,,,,,,,,,42,143515,22,Female,1,2024/02/09_11:07:35,YZ,59.92482646
,,,,,,calibration,0,34,2,917,8,J,1,right,0.346291898,0,0,,,,,,,,,,,,,,,,,,,,,1,,,,,,,,,,,,,,,,,,,,,,,,,,,,,,,,,,,,,,,,,,,,,,42,143515,22,Female,1,2024/02/09_11:07:35,YZ,59.92482646
,,,,,,calibration,0,34,2,917,9,V,0,right,0.280787357,1,0,,,,,,,,,,,,,,,,,,,,,1,,,,,,,,,,,,,,,,,,,,,,,,,,,,,,,,,,,,,,,,,,,,,,42,143515,22,Female,1,2024/02/09_11:07:35,YZ,59.92482646
,,,,,,calibration,0,34,2,917,10,J,1,left,0.244943498,1,0,,,,,,,,,,,,,,,,,,,,,1,,,,,,,,,,,,,,,,,,,,,,,,,,,,,,,,,,,,,,,,,,,,,,42,143515,22,Female,1,2024/02/09_11:07:35,YZ,59.92482646
,,,,,,calibration,0,34,2,917,11,C,0,right,0.295241396,1,0,,,,,,,,,,,,,,,,,,,,,1,,,,,,,,,,,,,,,,,,,,,,,,,,,,,,,,,,,,,,,,,,,,,,42,143515,22,Female,1,2024/02/09_11:07:35,YZ,59.92482646
,,,,,,calibration,0,34,2,917,12,Q,0,right,0.365461086,1,0,,,,,,,,,,,,,,,,,,,,,1,,,,,,,,,,,,,,,,,,,,,,,,,,,,,,,,,,,,,,,,,,,,,,42,143515,22,Female,1,2024/02/09_11:07:35,YZ,59.92482646
,,,,,,calibration,0,34,2,917,,,,,,,,0.722222222,0.333333333,0.111111111,0.888888889,0,0.888888889,0.387568748,1,1,0,0,0,8,9,3,9,0,,,,1,,,,,,,,,,,,,,,,,,,,,,,,,,,,,,,,,,,,,,,,,,,,,,42,143515,22,Female,1,2024/02/09_11:07:35,YZ,59.92482646
,,,,,,Calibration,0,,2,917,,,,,,,,,,,,,,,,,,,,,,,,,9,,,1,,,,,,,,,,,,,,,,,,,,,,,,,,,,,,,,,,,,,,,,,,,,,,42,143515,22,Female,1,2024/02/09_11:07:35,YZ,59.92482646
,,,,,,calibration,0,4,2,1068,1,S,0,right,0.271644102,1,0,,,,,,,,,,,,,,,,,,,,,1,,,,,,,,,,,,,,,,,,,,,,,,,,,,,,,,,,,,,,,,,,,,,,42,143515,22,Female,1,2024/02/09_11:07:35,YZ,59.92482646
,,,,,,calibration,0,4,2,1068,2,V,0,right,0.335427352,1,0,,,,,,,,,,,,,,,,,,,,,1,,,,,,,,,,,,,,,,,,,,,,,,,,,,,,,,,,,,,,,,,,,,,,42,143515,22,Female,1,2024/02/09_11:07:35,YZ,59.92482646
,,,,,,calibration,0,4,2,1068,3,S,1,left,0.309287866,1,0,,,,,,,,,,,,,,,,,,,,,1,,,,,,,,,,,,,,,,,,,,,,,,,,,,,,,,,,,,,,,,,,,,,,42,143515,22,Female,1,2024/02/09_11:07:35,YZ,59.92482646
,,,,,,calibration,0,4,2,1068,4,F,0,right,0.234180157,1,0,,,,,,,,,,,,,,,,,,,,,1,,,,,,,,,,,,,,,,,,,,,,,,,,,,,,,,,,,,,,,,,,,,,,42,143515,22,Female,1,2024/02/09_11:07:35,YZ,59.92482646
,,,,,,calibration,0,4,2,1068,5,J,0,right,0.301416713,1,0,,,,,,,,,,,,,,,,,,,,,1,,,,,,,,,,,,,,,,,,,,,,,,,,,,,,,,,,,,,,,,,,,,,,42,143515,22,Female,1,2024/02/09_11:07:35,YZ,59.92482646
,,,,,,calibration,0,4,2,1068,6,C,0,right,0.389263827,1,0,,,,,,,,,,,,,,,,,,,,,1,,,,,,,,,,,,,,,,,,,,,,,,,,,,,,,,,,,,,,,,,,,,,,42,143515,22,Female,1,2024/02/09_11:07:35,YZ,59.92482646
,,,,,,calibration,0,4,2,1068,7,S,0,right,0.631786168,1,0,,,,,,,,,,,,,,,,,,,,,1,,,,,,,,,,,,,,,,,,,,,,,,,,,,,,,,,,,,,,,,,,,,,,42,143515,22,Female,1,2024/02/09_11:07:35,YZ,59.92482646
,,,,,,calibration,0,4,2,1068,8,C,1,right,0.317889074,0,0,,,,,,,,,,,,,,,,,,,,,1,,,,,,,,,,,,,,,,,,,,,,,,,,,,,,,,,,,,,,,,,,,,,,42,143515,22,Female,1,2024/02/09_11:07:35,YZ,59.92482646
,,,,,,calibration,0,4,2,1068,9,S,1,left,0.452674808,1,0,,,,,,,,,,,,,,,,,,,,,1,,,,,,,,,,,,,,,,,,,,,,,,,,,,,,,,,,,,,,,,,,,,,,42,143515,22,Female,1,2024/02/09_11:07:35,YZ,59.92482646
,,,,,,calibration,0,4,2,1068,10,F,0,right,0.213322223,1,0,,,,,,,,,,,,,,,,,,,,,1,,,,,,,,,,,,,,,,,,,,,,,,,,,,,,,,,,,,,,,,,,,,,,42,143515,22,Female,1,2024/02/09_11:07:35,YZ,59.92482646
,,,,,,calibration,0,4,2,1068,11,V,0,right,0.279972196,1,0,,,,,,,,,,,,,,,,,,,,,1,,,,,,,,,,,,,,,,,,,,,,,,,,,,,,,,,,,,,,,,,,,,,,42,143515,22,Female,1,2024/02/09_11:07:35,YZ,59.92482646
,,,,,,calibration,0,4,2,1068,,,,,,,,0.916666667,0.666666667,0,1,0,1,0.339714953,2,0,0,0,0,8,10,3,8,0,,,,1,,,,,,,,,,,,,,,,,,,,,,,,,,,,,,,,,,,,,,,,,,,,,,42,143515,22,Female,1,2024/02/09_11:07:35,YZ,59.92482646
,,,,,,Calibration,0,,2,1068,,,,,,,,,,,,,,,,,,,,,,,,,10,,,1,,,,,,,,,,,,,,,,,,,,,,,,,,,,,,,,,,,,,,,,,,,,,,42,143515,22,Female,1,2024/02/09_11:07:35,YZ,59.92482646
,,,,,,calibration,0,31,2,917,1,S,0,right,0.288788599,1,0,,,,,,,,,,,,,,,,,,,,,1,,,,,,,,,,,,,,,,,,,,,,,,,,,,,,,,,,,,,,,,,,,,,,42,143515,22,Female,1,2024/02/09_11:07:35,YZ,59.92482646
,,,,,,calibration,0,31,2,917,2,Q,0,right,0.42819434,1,0,,,,,,,,,,,,,,,,,,,,,1,,,,,,,,,,,,,,,,,,,,,,,,,,,,,,,,,,,,,,,,,,,,,,42,143515,22,Female,1,2024/02/09_11:07:35,YZ,59.92482646
,,,,,,calibration,0,31,2,917,3,F,0,right,0.418307705,1,0,,,,,,,,,,,,,,,,,,,,,1,,,,,,,,,,,,,,,,,,,,,,,,,,,,,,,,,,,,,,,,,,,,,,42,143515,22,Female,1,2024/02/09_11:07:35,YZ,59.92482646
,,,,,,calibration,0,31,2,917,4,N,0,right,0.485530552,1,0,,,,,,,,,,,,,,,,,,,,,1,,,,,,,,,,,,,,,,,,,,,,,,,,,,,,,,,,,,,,,,,,,,,,42,143515,22,Female,1,2024/02/09_11:07:35,YZ,59.92482646
,,,,,,calibration,0,31,2,917,5,F,1,left,0.493207008,1,0,,,,,,,,,,,,,,,,,,,,,1,,,,,,,,,,,,,,,,,,,,,,,,,,,,,,,,,,,,,,,,,,,,,,42,143515,22,Female,1,2024/02/09_11:07:35,YZ,59.92482646
,,,,,,calibration,0,31,2,917,6,N,1,right,0.242220716,0,0,,,,,,,,,,,,,,,,,,,,,1,,,,,,,,,,,,,,,,,,,,,,,,,,,,,,,,,,,,,,,,,,,,,,42,143515,22,Female,1,2024/02/09_11:07:35,YZ,59.92482646
,,,,,,calibration,0,31,2,917,7,X,0,right,0.33813719,1,0,,,,,,,,,,,,,,,,,,,,,1,,,,,,,,,,,,,,,,,,,,,,,,,,,,,,,,,,,,,,,,,,,,,,42,143515,22,Female,1,2024/02/09_11:07:35,YZ,59.92482646
,,,,,,calibration,0,31,2,917,8,V,0,right,0.513509964,1,0,,,,,,,,,,,,,,,,,,,,,1,,,,,,,,,,,,,,,,,,,,,,,,,,,,,,,,,,,,,,,,,,,,,,42,143515,22,Female,1,2024/02/09_11:07:35,YZ,59.92482646
,,,,,,calibration,0,31,2,917,9,X,1,left,0.382479619,1,0,,,,,,,,,,,,,,,,,,,,,1,,,,,,,,,,,,,,,,,,,,,,,,,,,,,,,,,,,,,,,,,,,,,,42,143515,22,Female,1,2024/02/09_11:07:35,YZ,59.92482646
,,,,,,calibration,0,31,2,917,10,S,0,right,0.254446333,1,0,,,,,,,,,,,,,,,,,,,,,1,,,,,,,,,,,,,,,,,,,,,,,,,,,,,,,,,,,,,,,,,,,,,,42,143515,22,Female,1,2024/02/09_11:07:35,YZ,59.92482646
,,,,,,calibration,0,31,2,917,11,C,0,right,0.294483944,1,0,,,,,,,,,,,,,,,,,,,,,1,,,,,,,,,,,,,,,,,,,,,,,,,,,,,,,,,,,,,,,,,,,,,,42,143515,22,Female,1,2024/02/09_11:07:35,YZ,59.92482646
,,,,,,calibration,0,31,2,917,12,S,1,left,0.528684681,1,0,,,,,,,,,,,,,,,,,,,,,1,,,,,,,,,,,,,,,,,,,,,,,,,,,,,,,,,,,,,,,,,,,,,,42,143515,22,Female,1,2024/02/09_11:07:35,YZ,59.92482646
,,,,,,calibration,0,31,2,917,,,,,,,,0.9375,0.75,0,1,0,1,0.388999221,3,0,0,0,0,8,11,4,8,0,,,,1,,,,,,,,,,,,,,,,,,,,,,,,,,,,,,,,,,,,,,,,,,,,,,42,143515,22,Female,1,2024/02/09_11:07:35,YZ,59.92482646
,,,,,,Calibration,0,,2,917,,,,,,,,,,,,,,,,,,,,,,,,,11,,,1,,,,,,,,,,,,,,,,,,,,,,,,,,,,,,,,,,,,,,,,,,,,,,42,143515,22,Female,1,2024/02/09_11:07:35,YZ,59.92482646
,,,,,,calibration,0,32,2,788,1,N,0,right,0.318155175,1,0,,,,,,,,,,,,,,,,,,,,,1,,,,,,,,,,,,,,,,,,,,,,,,,,,,,,,,,,,,,,,,,,,,,,42,143515,22,Female,1,2024/02/09_11:07:35,YZ,59.92482646
,,,,,,calibration,0,32,2,788,2,J,0,right,0.291876876,1,0,,,,,,,,,,,,,,,,,,,,,1,,,,,,,,,,,,,,,,,,,,,,,,,,,,,,,,,,,,,,,,,,,,,,42,143515,22,Female,1,2024/02/09_11:07:35,YZ,59.92482646
,,,,,,calibration,0,32,2,788,3,N,1,left,0.38333547,1,0,,,,,,,,,,,,,,,,,,,,,1,,,,,,,,,,,,,,,,,,,,,,,,,,,,,,,,,,,,,,,,,,,,,,42,143515,22,Female,1,2024/02/09_11:07:35,YZ,59.92482646
,,,,,,calibration,0,32,2,788,4,Q,0,right,0.244820482,1,0,,,,,,,,,,,,,,,,,,,,,1,,,,,,,,,,,,,,,,,,,,,,,,,,,,,,,,,,,,,,,,,,,,,,42,143515,22,Female,1,2024/02/09_11:07:35,YZ,59.92482646
,,,,,,calibration,0,32,2,788,5,N,1,right,0.426751987,0,0,,,,,,,,,,,,,,,,,,,,,1,,,,,,,,,,,,,,,,,,,,,,,,,,,,,,,,,,,,,,,,,,,,,,42,143515,22,Female,1,2024/02/09_11:07:35,YZ,59.92482646
,,,,,,calibration,0,32,2,788,6,Q,1,left,0.281612008,1,0,,,,,,,,,,,,,,,,,,,,,1,,,,,,,,,,,,,,,,,,,,,,,,,,,,,,,,,,,,,,,,,,,,,,42,143515,22,Female,1,2024/02/09_11:07:35,YZ,59.92482646
,,,,,,calibration,0,32,2,788,7,J,0,right,0.309059499,1,0,,,,,,,,,,,,,,,,,,,,,1,,,,,,,,,,,,,,,,,,,,,,,,,,,,,,,,,,,,,,,,,,,,,,42,143515,22,Female,1,2024/02/09_11:07:35,YZ,59.92482646
,,,,,,calibration,0,32,2,788,8,F,0,right,0.355004146,1,0,,,,,,,,,,,,,,,,,,,,,1,,,,,,,,,,,,,,,,,,,,,,,,,,,,,,,,,,,,,,,,,,,,,,42,143515,22,Female,1,2024/02/09_11:07:35,YZ,59.92482646
,,,,,,calibration,0,32,2,788,9,S,0,right,0.413582052,1,0,,,,,,,,,,,,,,,,,,,,,1,,,,,,,,,,,,,,,,,,,,,,,,,,,,,,,,,,,,,,,,,,,,,,42,143515,22,Female,1,2024/02/09_11:07:35,YZ,59.92482646
,,,,,,calibration,0,32,2,788,10,F,1,left,0.304565343,1,0,,,,,,,,,,,,,,,,,,,,,1,,,,,,,,,,,,,,,,,,,,,,,,,,,,,,,,,,,,,,,,,,,,,,42,143515,22,Female,1,2024/02/09_11:07:35,YZ,59.92482646
,,,,,,calibration,0,32,2,788,11,V,0,right,0.222128282,1,0,,,,,,,,,,,,,,,,,,,,,1,,,,,,,,,,,,,,,,,,,,,,,,,,,,,,,,,,,,,,,,,,,,,,42,143515,22,Female,1,2024/02/09_11:07:35,YZ,59.92482646
,,,,,,calibration,0,32,2,788,12,J,0,right,0.510876765,1,0,,,,,,,,,,,,,,,,,,,,,1,,,,,,,,,,,,,,,,,,,,,,,,,,,,,,,,,,,,,,,,,,,,,,42,143515,22,Female,1,2024/02/09_11:07:35,YZ,59.92482646
,,,,,,calibration,0,32,2,788,13,C,0,right,0.564431901,1,0,,,,,,,,,,,,,,,,,,,,,1,,,,,,,,,,,,,,,,,,,,,,,,,,,,,,,,,,,,,,,,,,,,,,42,143515,22,Female,1,2024/02/09_11:07:35,YZ,59.92482646
,,,,,,calibration,0,32,2,788,,,,,,,,0.9375,0.75,0,1,0,1,0.355861537,3,0,0,0,0,9,12,4,9,0,,,,1,,,,,,,,,,,,,,,,,,,,,,,,,,,,,,,,,,,,,,,,,,,,,,42,143515,22,Female,1,2024/02/09_11:07:35,YZ,59.92482646
,,,,,,Calibration,0,,2,788,,,,,,,,,,,,,,,,,,,,,,,,,12,,,1,,,,,,,,,,,,,,,,,,,,,,,,,,,,,,,,,,,,,,,,,,,,,,42,143515,22,Female,1,2024/02/09_11:07:35,YZ,59.92482646
,,,,,,calibration,0,23,2,679,1,J,0,right,0.290524076,1,0,,,,,,,,,,,,,,,,,,,,,1,,,,,,,,,,,,,,,,,,,,,,,,,,,,,,,,,,,,,,,,,,,,,,42,143515,22,Female,1,2024/02/09_11:07:35,YZ,59.92482646
,,,,,,calibration,0,23,2,679,2,S,0,right,0.349189821,1,0,,,,,,,,,,,,,,,,,,,,,1,,,,,,,,,,,,,,,,,,,,,,,,,,,,,,,,,,,,,,,,,,,,,,42,143515,22,Female,1,2024/02/09_11:07:35,YZ,59.92482646
,,,,,,calibration,0,23,2,679,3,F,0,right,0.426041173,1,0,,,,,,,,,,,,,,,,,,,,,1,,,,,,,,,,,,,,,,,,,,,,,,,,,,,,,,,,,,,,,,,,,,,,42,143515,22,Female,1,2024/02/09_11:07:35,YZ,59.92482646
,,,,,,calibration,0,23,2,679,4,S,1,left,0.246029116,1,0,,,,,,,,,,,,,,,,,,,,,1,,,,,,,,,,,,,,,,,,,,,,,,,,,,,,,,,,,,,,,,,,,,,,42,143515,22,Female,1,2024/02/09_11:07:35,YZ,59.92482646
,,,,,,calibration,0,23,2,679,5,Q,0,right,0.2222997,1,0,,,,,,,,,,,,,,,,,,,,,1,,,,,,,,,,,,,,,,,,,,,,,,,,,,,,,,,,,,,,,,,,,,,,42,143515,22,Female,1,2024/02/09_11:07:35,YZ,59.92482646
,,,,,,calibration,0,23,2,679,6,C,0,right,0.30241736,1,0,,,,,,,,,,,,,,,,,,,,,1,,,,,,,,,,,,,,,,,,,,,,,,,,,,,,,,,,,,,,,,,,,,,,42,143515,22,Female,1,2024/02/09_11:07:35,YZ,59.92482646
,,,,,,calibration,0,23,2,679,7,S,0,right,0.389790829,1,0,,,,,,,,,,,,,,,,,,,,,1,,,,,,,,,,,,,,,,,,,,,,,,,,,,,,,,,,,,,,,,,,,,,,42,143515,22,Female,1,2024/02/09_11:07:35,YZ,59.92482646
,,,,,,calibration,0,23,2,679,8,X,0,right,0.513407226,1,0,,,,,,,,,,,,,,,,,,,,,1,,,,,,,,,,,,,,,,,,,,,,,,,,,,,,,,,,,,,,,,,,,,,,42,143515,22,Female,1,2024/02/09_11:07:35,YZ,59.92482646
,,,,,,calibration,0,23,2,679,9,S,1,right,0.371695479,0,0,,,,,,,,,,,,,,,,,,,,,1,,,,,,,,,,,,,,,,,,,,,,,,,,,,,,,,,,,,,,,,,,,,,,42,143515,22,Female,1,2024/02/09_11:07:35,YZ,59.92482646
,,,,,,calibration,0,23,2,679,10,C,0,left,0.431458008,0,0,,,,,,,,,,,,,,,,,,,,,1,,,,,,,,,,,,,,,,,,,,,,,,,,,,,,,,,,,,,,,,,,,,,,42,143515,22,Female,1,2024/02/09_11:07:35,YZ,59.92482646
,,,,,,calibration,0,23,2,679,11,N,0,right,0.229008313,1,0,,,,,,,,,,,,,,,,,,,,,1,,,,,,,,,,,,,,,,,,,,,,,,,,,,,,,,,,,,,,,,,,,,,,42,143515,22,Female,1,2024/02/09_11:07:35,YZ,59.92482646
,,,,,,calibration,0,23,2,679,12,C,1,right,0.259832722,0,0,,,,,,,,,,,,,,,,,,,,,1,,,,,,,,,,,,,,,,,,,,,,,,,,,,,,,,,,,,,,,,,,,,,,42,143515,22,Female,1,2024/02/09_11:07:35,YZ,59.92482646
,,,,,,calibration,0,23,2,679,13,S,0,right,0.369924673,1,0,,,,,,,,,,,,,,,,,,,,,1,,,,,,,,,,,,,,,,,,,,,,,,,,,,,,,,,,,,,,,,,,,,,,42,143515,22,Female,1,2024/02/09_11:07:35,YZ,59.92482646
,,,,,,calibration,0,23,2,679,14,C,1,left,0.293781141,1,0,,,,,,,,,,,,,,,,,,,,,1,,,,,,,,,,,,,,,,,,,,,,,,,,,,,,,,,,,,,,,,,,,,,,42,143515,22,Female,1,2024/02/09_11:07:35,YZ,59.92482646
,,,,,,calibration,0,23,2,679,,,,,,,,0.8,0.5,0.1,0.9,0,0.9,0.335385688,2,1,0,0,0,9,11,4,10,0,,,,1,,,,,,,,,,,,,,,,,,,,,,,,,,,,,,,,,,,,,,,,,,,,,,42,143515,22,Female,1,2024/02/09_11:07:35,YZ,59.92482646
,,,,,,Calibration,0,,2,679,,,,,,,,,,,,,,,,,,,,,,,,,13,,,1,,,,,,,,,,,,,,,,,,,,,,,,,,,,,,,,,,,,,,,,,,,,,,42,143515,22,Female,1,2024/02/09_11:07:35,YZ,59.92482646
,,,,,,calibration,0,20,2,679,1,F,0,right,0.276377291,1,0,,,,,,,,,,,,,,,,,,,,,1,,,,,,,,,,,,,,,,,,,,,,,,,,,,,,,,,,,,,,,,,,,,,,42,143515,22,Female,1,2024/02/09_11:07:35,YZ,59.92482646
,,,,,,calibration,0,20,2,679,2,C,0,right,0.266285074,1,0,,,,,,,,,,,,,,,,,,,,,1,,,,,,,,,,,,,,,,,,,,,,,,,,,,,,,,,,,,,,,,,,,,,,42,143515,22,Female,1,2024/02/09_11:07:35,YZ,59.92482646
,,,,,,calibration,0,20,2,679,3,N,0,right,0.357559305,1,0,,,,,,,,,,,,,,,,,,,,,1,,,,,,,,,,,,,,,,,,,,,,,,,,,,,,,,,,,,,,,,,,,,,,42,143515,22,Female,1,2024/02/09_11:07:35,YZ,59.92482646
,,,,,,calibration,0,20,2,679,4,C,1,left,0.24819978,1,0,,,,,,,,,,,,,,,,,,,,,1,,,,,,,,,,,,,,,,,,,,,,,,,,,,,,,,,,,,,,,,,,,,,,42,143515,22,Female,1,2024/02/09_11:07:35,YZ,59.92482646
,,,,,,calibration,0,20,2,679,5,S,0,right,0.180593545,1,0,,,,,,,,,,,,,,,,,,,,,1,,,,,,,,,,,,,,,,,,,,,,,,,,,,,,,,,,,,,,,,,,,,,,42,143515,22,Female,1,2024/02/09_11:07:35,YZ,59.92482646
,,,,,,calibration,0,20,2,679,6,C,1,right,0.249719032,0,0,,,,,,,,,,,,,,,,,,,,,1,,,,,,,,,,,,,,,,,,,,,,,,,,,,,,,,,,,,,,,,,,,,,,42,143515,22,Female,1,2024/02/09_11:07:35,YZ,59.92482646
,,,,,,calibration,0,20,2,679,7,N,0,right,0.34980851,1,0,,,,,,,,,,,,,,,,,,,,,1,,,,,,,,,,,,,,,,,,,,,,,,,,,,,,,,,,,,,,,,,,,,,,42,143515,22,Female,1,2024/02/09_11:07:35,YZ,59.92482646
,,,,,,calibration,0,20,2,679,8,C,1,left,0.28489973,1,0,,,,,,,,,,,,,,,,,,,,,1,,,,,,,,,,,,,,,,,,,,,,,,,,,,,,,,,,,,,,,,,,,,,,42,143515,22,Female,1,2024/02/09_11:07:35,YZ,59.92482646
,,,,,,calibration,0,20,2,679,9,Q,0,right,0.167859929,1,0,,,,,,,,,,,,,,,,,,,,,1,,,,,,,,,,,,,,,,,,,,,,,,,,,,,,,,,,,,,,,,,,,,,,42,143515,22,Female,1,2024/02/09_11:07:35,YZ,59.92482646
,,,,,,calibration,0,20,2,679,10,F,0,right,0.266155453,1,0,,,,,,,,,,,,,,,,,,,,,1,,,,,,,,,,,,,,,,,,,,,,,,,,,,,,,,,,,,,,,,,,,,,,42,143515,22,Female,1,2024/02/09_11:07:35,YZ,59.92482646
,,,,,,calibration,0,20,2,679,11,Q,1,right,0.27067903,0,0,,,,,,,,,,,,,,,,,,,,,1,,,,,,,,,,,,,,,,,,,,,,,,,,,,,,,,,,,,,,,,,,,,,,42,143515,22,Female,1,2024/02/09_11:07:35,YZ,59.92482646
,,,,,,calibration,0,20,2,679,12,C,0,right,0.349972159,1,0,,,,,,,,,,,,,,,,,,,,,1,,,,,,,,,,,,,,,,,,,,,,,,,,,,,,,,,,,,,,,,,,,,,,42,143515,22,Female,1,2024/02/09_11:07:35,YZ,59.92482646
,,,,,,calibration,0,20,2,679,13,V,0,left,0.206664764,0,0,,,,,,,,,,,,,,,,,,,,,1,,,,,,,,,,,,,,,,,,,,,,,,,,,,,,,,,,,,,,,,,,,,,,42,143515,22,Female,1,2024/02/09_11:07:35,YZ,59.92482646
,,,,,,calibration,0,20,2,679,14,J,0,right,0.24460016,1,0,,,,,,,,,,,,,,,,,,,,,1,,,,,,,,,,,,,,,,,,,,,,,,,,,,,,,,,,,,,,,,,,,,,,42,143515,22,Female,1,2024/02/09_11:07:35,YZ,59.92482646
,,,,,,calibration,0,20,2,679,,,,,,,,0.8,0.5,0.1,0.9,0,0.9,0.265669554,2,1,0,0,0,9,11,4,10,0,,,,1,,,,,,,,,,,,,,,,,,,,,,,,,,,,,,,,,,,,,,,,,,,,,,42,143515,22,Female,1,2024/02/09_11:07:35,YZ,59.92482646
,,,,,,Calibration,0,,2,679,,,,,,,,,,,,,,,,,,,,,,,,,14,,,1,,,,,,,,,,,,,,,,,,,,,,,,,,,,,,,,,,,,,,,,,,,,,,42,143515,22,Female,1,2024/02/09_11:07:35,YZ,59.92482646
,,,,,,calibration,0,10,2,679,1,C,0,right,0.284613432,1,0,,,,,,,,,,,,,,,,,,,,,1,,,,,,,,,,,,,,,,,,,,,,,,,,,,,,,,,,,,,,,,,,,,,,42,143515,22,Female,1,2024/02/09_11:07:35,YZ,59.92482646
,,,,,,calibration,0,10,2,679,2,Q,0,right,0.276939332,1,0,,,,,,,,,,,,,,,,,,,,,1,,,,,,,,,,,,,,,,,,,,,,,,,,,,,,,,,,,,,,,,,,,,,,42,143515,22,Female,1,2024/02/09_11:07:35,YZ,59.92482646
,,,,,,calibration,0,10,2,679,3,V,0,right,0.438654029,1,0,,,,,,,,,,,,,,,,,,,,,1,,,,,,,,,,,,,,,,,,,,,,,,,,,,,,,,,,,,,,,,,,,,,,42,143515,22,Female,1,2024/02/09_11:07:35,YZ,59.92482646
,,,,,,calibration,0,10,2,679,4,N,0,right,0.463643502,1,0,,,,,,,,,,,,,,,,,,,,,1,,,,,,,,,,,,,,,,,,,,,,,,,,,,,,,,,,,,,,,,,,,,,,42,143515,22,Female,1,2024/02/09_11:07:35,YZ,59.92482646
,,,,,,calibration,0,10,2,679,5,C,0,left,0.390959792,0,0,,,,,,,,,,,,,,,,,,,,,1,,,,,,,,,,,,,,,,,,,,,,,,,,,,,,,,,,,,,,,,,,,,,,42,143515,22,Female,1,2024/02/09_11:07:35,YZ,59.92482646
,,,,,,calibration,0,10,2,679,6,N,1,right,0.189575516,0,0,,,,,,,,,,,,,,,,,,,,,1,,,,,,,,,,,,,,,,,,,,,,,,,,,,,,,,,,,,,,,,,,,,,,42,143515,22,Female,1,2024/02/09_11:07:35,YZ,59.92482646
,,,,,,calibration,0,10,2,679,7,F,0,right,0.31043104,1,0,,,,,,,,,,,,,,,,,,,,,1,,,,,,,,,,,,,,,,,,,,,,,,,,,,,,,,,,,,,,,,,,,,,,42,143515,22,Female,1,2024/02/09_11:07:35,YZ,59.92482646
,,,,,,calibration,0,10,2,679,8,N,1,right,0.227047197,0,0,,,,,,,,,,,,,,,,,,,,,1,,,,,,,,,,,,,,,,,,,,,,,,,,,,,,,,,,,,,,,,,,,,,,42,143515,22,Female,1,2024/02/09_11:07:35,YZ,59.92482646
,,,,,,calibration,0,10,2,679,9,C,0,left,0.392150096,0,0,,,,,,,,,,,,,,,,,,,,,1,,,,,,,,,,,,,,,,,,,,,,,,,,,,,,,,,,,,,,,,,,,,,,42,143515,22,Female,1,2024/02/09_11:07:35,YZ,59.92482646
,,,,,,calibration,0,10,2,679,10,F,0,right,0.230143266,1,0,,,,,,,,,,,,,,,,,,,,,1,,,,,,,,,,,,,,,,,,,,,,,,,,,,,,,,,,,,,,,,,,,,,,42,143515,22,Female,1,2024/02/09_11:07:35,YZ,59.92482646
,,,,,,calibration,0,10,2,679,11,C,1,right,0.270533406,0,0,,,,,,,,,,,,,,,,,,,,,1,,,,,,,,,,,,,,,,,,,,,,,,,,,,,,,,,,,,,,,,,,,,,,42,143515,22,Female,1,2024/02/09_11:07:35,YZ,59.92482646
,,,,,,calibration,0,10,2,679,12,F,1,right,0.626483705,0,0,,,,,,,,,,,,,,,,,,,,,1,,,,,,,,,,,,,,,,,,,,,,,,,,,,,,,,,,,,,,,,,,,,,,42,143515,22,Female,1,2024/02/09_11:07:35,YZ,59.92482646
,,,,,,calibration,0,10,2,679,13,X,0,right,0.422899025,1,0,,,,,,,,,,,,,,,,,,,,,1,,,,,,,,,,,,,,,,,,,,,,,,,,,,,,,,,,,,,,,,,,,,,,42,143515,22,Female,1,2024/02/09_11:07:35,YZ,59.92482646
,,,,,,calibration,0,10,2,679,14,J,0,left,0,0,0,,,,,,,,,,,,,,,,,,,,,1,,,,,,,,,,,,,,,,,,,,,,,,,,,,,,,,,,,,,,,,,,,,,,42,143515,22,Female,1,2024/02/09_11:07:35,YZ,59.92482646
,,,,,,calibration,0,10,2,679,,,,,,,,0.175,0,0.3,0.7,0,0.7,0.323148096,0,3,0,0,0,7,7,4,10,0,,,,1,,,,,,,,,,,,,,,,,,,,,,,,,,,,,,,,,,,,,,,,,,,,,,42,143515,22,Female,1,2024/02/09_11:07:35,YZ,59.92482646
,,,,,,Calibration,0,,2,679,,,,,,,,,,,,,,,,,,,,,,,,,15,,,1,,,,,,,,,,,,,,,,,,,,,,,,,,,,,,,,,,,,,,,,,,,,,,42,143515,22,Female,1,2024/02/09_11:07:35,YZ,59.92482646
,,,,,,calibration,0,15,2,788,1,F,0,right,0.272961048,1,0,,,,,,,,,,,,,,,,,,,,,1,,,,,,,,,,,,,,,,,,,,,,,,,,,,,,,,,,,,,,,,,,,,,,42,143515,22,Female,1,2024/02/09_11:07:35,YZ,59.92482646
,,,,,,calibration,0,15,2,788,2,C,0,right,0.238124582,1,0,,,,,,,,,,,,,,,,,,,,,1,,,,,,,,,,,,,,,,,,,,,,,,,,,,,,,,,,,,,,,,,,,,,,42,143515,22,Female,1,2024/02/09_11:07:35,YZ,59.92482646
,,,,,,calibration,0,15,2,788,3,X,0,right,0.418800302,1,0,,,,,,,,,,,,,,,,,,,,,1,,,,,,,,,,,,,,,,,,,,,,,,,,,,,,,,,,,,,,,,,,,,,,42,143515,22,Female,1,2024/02/09_11:07:35,YZ,59.92482646
,,,,,,calibration,0,15,2,788,4,C,1,left,0.25659209,1,0,,,,,,,,,,,,,,,,,,,,,1,,,,,,,,,,,,,,,,,,,,,,,,,,,,,,,,,,,,,,,,,,,,,,42,143515,22,Female,1,2024/02/09_11:07:35,YZ,59.92482646
,,,,,,calibration,0,15,2,788,5,S,0,right,0.216777815,1,0,,,,,,,,,,,,,,,,,,,,,1,,,,,,,,,,,,,,,,,,,,,,,,,,,,,,,,,,,,,,,,,,,,,,42,143515,22,Female,1,2024/02/09_11:07:35,YZ,59.92482646
,,,,,,calibration,0,15,2,788,6,V,0,right,0.272196009,1,0,,,,,,,,,,,,,,,,,,,,,1,,,,,,,,,,,,,,,,,,,,,,,,,,,,,,,,,,,,,,,,,,,,,,42,143515,22,Female,1,2024/02/09_11:07:35,YZ,59.92482646
,,,,,,calibration,0,15,2,788,7,Q,0,right,0.438781286,1,0,,,,,,,,,,,,,,,,,,,,,1,,,,,,,,,,,,,,,,,,,,,,,,,,,,,,,,,,,,,,,,,,,,,,42,143515,22,Female,1,2024/02/09_11:07:35,YZ,59.92482646
,,,,,,calibration,0,15,2,788,8,N,0,right,0.375734025,1,0,,,,,,,,,,,,,,,,,,,,,1,,,,,,,,,,,,,,,,,,,,,,,,,,,,,,,,,,,,,,,,,,,,,,42,143515,22,Female,1,2024/02/09_11:07:35,YZ,59.92482646
,,,,,,calibration,0,15,2,788,9,Q,1,left,0.346371718,1,0,,,,,,,,,,,,,,,,,,,,,1,,,,,,,,,,,,,,,,,,,,,,,,,,,,,,,,,,,,,,,,,,,,,,42,143515,22,Female,1,2024/02/09_11:07:35,YZ,59.92482646
,,,,,,calibration,0,15,2,788,10,N,1,right,0.215155771,0,0,,,,,,,,,,,,,,,,,,,,,1,,,,,,,,,,,,,,,,,,,,,,,,,,,,,,,,,,,,,,,,,,,,,,42,143515,22,Female,1,2024/02/09_11:07:35,YZ,59.92482646
,,,,,,calibration,0,15,2,788,11,J,0,right,0.30745708,1,0,,,,,,,,,,,,,,,,,,,,,1,,,,,,,,,,,,,,,,,,,,,,,,,,,,,,,,,,,,,,,,,,,,,,42,143515,22,Female,1,2024/02/09_11:07:35,YZ,59.92482646
,,,,,,calibration,0,15,2,788,12,N,1,left,0.34272637,1,0,,,,,,,,,,,,,,,,,,,,,1,,,,,,,,,,,,,,,,,,,,,,,,,,,,,,,,,,,,,,,,,,,,,,42,143515,22,Female,1,2024/02/09_11:07:35,YZ,59.92482646
,,,,,,calibration,0,15,2,788,13,X,0,right,0.249493792,1,0,,,,,,,,,,,,,,,,,,,,,1,,,,,,,,,,,,,,,,,,,,,,,,,,,,,,,,,,,,,,,,,,,,,,42,143515,22,Female,1,2024/02/09_11:07:35,YZ,59.92482646
,,,,,,calibration,0,15,2,788,,,,,,,,0.9375,0.75,0,1,0,1,0.303936299,3,0,0,0,0,9,12,4,9,0,,,,1,,,,,,,,,,,,,,,,,,,,,,,,,,,,,,,,,,,,,,,,,,,,,,42,143515,22,Female,1,2024/02/09_11:07:35,YZ,59.92482646
,,,,,,Calibration,0,,2,788,,,,,,,,,,,,,,,,,,,,,,,,,16,,,1,,,,,,,,,,,,,,,,,,,,,,,,,,,,,,,,,,,,,,,,,,,,,,42,143515,22,Female,1,2024/02/09_11:07:35,YZ,59.92482646
,,,,,,CALIBRATION,0,,,,,,,,,,,,,,,,,,,,,,,,,,,,16,0.9375,788,1,,,,,,,,,,,,,,,,,,,,,,,,,,,,,,,,,,,,,,,,,,,,,,42,143515,22,Female,1,2024/02/09_11:07:35,YZ,59.92482646
-1,./instructions/inst_prac_1/Slide24.png,left,31.06691428,740.9793404,772.0462547,,,,,,,,,,,,,,,,,,,,,,,,,,,,,,,,,1,,,,,,,,,,,,,,,,,,,,,,,,,,,,,,,,,,,,,,,,,,,,,,42,143515,22,Female,1,2024/02/09_11:07:35,YZ,59.92482646
-2,./instructions/inst_prac_1/Slide30.png,left,2.586619417,772.1794564,774.7660758,,,,,,,,,,,,,,,,,,,,,,,,,,,,,,,,,1,,,,,,,,,,,,,,,,,,,,,,,,,,,,,,,,,,,,,,,,,,,,,,42,143515,22,Female,1,2024/02/09_11:07:35,YZ,59.92482646
-3,./instructions/inst_prac_1/Slide29.png,left,1.953524409,774.8368891,776.7904135,,,,,,,,,,,,,,,,,,,,,,,,,,,,,,,,,1,,,,,,,,,,,,,,,,,,,,,,,,,,,,,,,,,,,,,,,,,,,,,,42,143515,22,Female,1,2024/02/09_11:07:35,YZ,59.92482646
-4,./instructions/inst_prac_1/Slide28.png,left,1.294832133,776.8475033,778.1423355,,,,,,,,,,,,,,,,,,,,,,,,,,,,,,,,,1,,,,,,,,,,,,,,,,,,,,,,,,,,,,,,,,,,,,,,,,,,,,,,42,143515,22,Female,1,2024/02/09_11:07:35,YZ,59.92482646
-5,./instructions/inst_prac_1/Slide27.png,left,0.948622725,778.2176258,779.1662486,,,,,,,,,,,,,,,,,,,,,,,,,,,,,,,,,1,,,,,,,,,,,,,,,,,,,,,,,,,,,,,,,,,,,,,,,,,,,,,,42,143515,22,Female,1,2024/02/09_11:07:35,YZ,59.92482646
-6,./instructions/inst_prac_1/Slide26.png,left,0.814459414,779.2237305,780.03819,,,,,,,,,,,,,,,,,,,,,,,,,,,,,,,,,1,,,,,,,,,,,,,,,,,,,,,,,,,,,,,,,,,,,,,,,,,,,,,,42,143515,22,Female,1,2024/02/09_11:07:35,YZ,59.92482646
-7,./instructions/inst_prac_1/Slide25.png,left,1.107252337,780.0911085,781.1983609,,,,,,,,,,,,,,,,,,,,,,,,,,,,,,,,,1,,,,,,,,,,,,,,,,,,,,,,,,,,,,,,,,,,,,,,,,,,,,,,42,143515,22,Female,1,2024/02/09_11:07:35,YZ,59.92482646
,,,,,,practice,0,20,1,1250,1,V,0,right,2.604143336,1,0,,,,,,,,,,,,,,,,,,,,,1,,,,,,,,,,,,,,,,,,,,,,,,,,,,,,,,,,,,,,,,,,,,,,42,143515,22,Female,1,2024/02/09_11:07:35,YZ,59.92482646
,,,,,,practice,0,20,1,1250,2,N,0,right,1.445375134,1,0,,,,,,,,,,,,,,,,,,,,,1,,,,,,,,,,,,,,,,,,,,,,,,,,,,,,,,,,,,,,,,,,,,,,42,143515,22,Female,1,2024/02/09_11:07:35,YZ,59.92482646
,,,,,,practice,0,20,1,1250,3,S,0,right,0.67101245,1,0,,,,,,,,,,,,,,,,,,,,,1,,,,,,,,,,,,,,,,,,,,,,,,,,,,,,,,,,,,,,,,,,,,,,42,143515,22,Female,1,2024/02/09_11:07:35,YZ,59.92482646
,,,,,,practice,0,20,1,1250,4,V,0,right,0.817699721,1,0,,,,,,,,,,,,,,,,,,,,,1,,,,,,,,,,,,,,,,,,,,,,,,,,,,,,,,,,,,,,,,,,,,,,42,143515,22,Female,1,2024/02/09_11:07:35,YZ,59.92482646
,,,,,,practice,0,20,1,1250,5,V,1,left,0.444544817,1,0,,,,,,,,,,,,,,,,,,,,,1,,,,,,,,,,,,,,,,,,,,,,,,,,,,,,,,,,,,,,,,,,,,,,42,143515,22,Female,1,2024/02/09_11:07:35,YZ,59.92482646
,,,,,,practice,0,20,1,1250,6,S,0,right,0.642597744,1,0,,,,,,,,,,,,,,,,,,,,,1,,,,,,,,,,,,,,,,,,,,,,,,,,,,,,,,,,,,,,,,,,,,,,42,143515,22,Female,1,2024/02/09_11:07:35,YZ,59.92482646
,,,,,,practice,0,20,1,1250,7,S,1,left,0.783338836,1,0,,,,,,,,,,,,,,,,,,,,,1,,,,,,,,,,,,,,,,,,,,,,,,,,,,,,,,,,,,,,,,,,,,,,42,143515,22,Female,1,2024/02/09_11:07:35,YZ,59.92482646
,,,,,,practice,0,20,1,1250,8,V,0,right,1.36356928,1,0,,,,,,,,,,,,,,,,,,,,,1,,,,,,,,,,,,,,,,,,,,,,,,,,,,,,,,,,,,,,,,,,,,,,42,143515,22,Female,1,2024/02/09_11:07:35,YZ,59.92482646
,,,,,,practice,0,20,1,1250,9,X,0,right,0.543373734,1,0,,,,,,,,,,,,,,,,,,,,,1,,,,,,,,,,,,,,,,,,,,,,,,,,,,,,,,,,,,,,,,,,,,,,42,143515,22,Female,1,2024/02/09_11:07:35,YZ,59.92482646
,,,,,,practice,0,20,1,1250,10,X,1,left,0.622318798,1,0,,,,,,,,,,,,,,,,,,,,,1,,,,,,,,,,,,,,,,,,,,,,,,,,,,,,,,,,,,,,,,,,,,,,42,143515,22,Female,1,2024/02/09_11:07:35,YZ,59.92482646
,,,,,,practice,0,20,1,1250,,,,,,,,1,1,0,1,0,1,0.993797385,3,0,0,0,0,7,10,3,7,0,,,,1,,,,,,,,,,,,,,,,,,,,,,,,,,,,,,,,,,,,,,,,,,,,,,42,143515,22,Female,1,2024/02/09_11:07:35,YZ,59.92482646
-1,./instructions/inst_prac_1_next/Slide35.png,left,3.495563934,801.8068407,805.3024046,,,,,,,,,,,,,,,,,,,,,,,,,,,,,,,,,1,,,,,,,,,,,,,,,,,,,,,,,,,,,,,,,,,,,,,,,,,,,,,,42,143515,22,Female,1,2024/02/09_11:07:35,YZ,59.92482646
,,,,,,practice,0,25,1,788,1,S,0,right,0.851157371,1,0,,,,,,,,,,,,,,,,,,,,,1,,,,,,,,,,,,,,,,,,,,,,,,,,,,,,,,,,,,,,,,,,,,,,42,143515,22,Female,1,2024/02/09_11:07:35,YZ,59.92482646
,,,,,,practice,0,25,1,788,2,V,0,right,0.597840885,1,0,,,,,,,,,,,,,,,,,,,,,1,,,,,,,,,,,,,,,,,,,,,,,,,,,,,,,,,,,,,,,,,,,,,,42,143515,22,Female,1,2024/02/09_11:07:35,YZ,59.92482646
,,,,,,practice,0,25,1,788,3,V,1,left,0.341873794,1,0,,,,,,,,,,,,,,,,,,,,,1,,,,,,,,,,,,,,,,,,,,,,,,,,,,,,,,,,,,,,,,,,,,,,42,143515,22,Female,1,2024/02/09_11:07:35,YZ,59.92482646
,,,,,,practice,0,25,1,788,4,Q,0,right,0.297068601,1,0,,,,,,,,,,,,,,,,,,,,,1,,,,,,,,,,,,,,,,,,,,,,,,,,,,,,,,,,,,,,,,,,,,,,42,143515,22,Female,1,2024/02/09_11:07:35,YZ,59.92482646
,,,,,,practice,0,25,1,788,5,S,0,right,0.413413013,1,0,,,,,,,,,,,,,,,,,,,,,1,,,,,,,,,,,,,,,,,,,,,,,,,,,,,,,,,,,,,,,,,,,,,,42,143515,22,Female,1,2024/02/09_11:07:35,YZ,59.92482646
,,,,,,practice,0,25,1,788,6,X,0,right,0.41684827,1,0,,,,,,,,,,,,,,,,,,,,,1,,,,,,,,,,,,,,,,,,,,,,,,,,,,,,,,,,,,,,,,,,,,,,42,143515,22,Female,1,2024/02/09_11:07:35,YZ,59.92482646
,,,,,,practice,0,25,1,788,7,V,0,right,0.757617773,1,0,,,,,,,,,,,,,,,,,,,,,1,,,,,,,,,,,,,,,,,,,,,,,,,,,,,,,,,,,,,,,,,,,,,,42,143515,22,Female,1,2024/02/09_11:07:35,YZ,59.92482646
,,,,,,practice,0,25,1,788,8,V,1,left,0.467463009,1,0,,,,,,,,,,,,,,,,,,,,,1,,,,,,,,,,,,,,,,,,,,,,,,,,,,,,,,,,,,,,,,,,,,,,42,143515,22,Female,1,2024/02/09_11:07:35,YZ,59.92482646
,,,,,,practice,0,25,1,788,9,J,0,right,1.00631091,1,0,,,,,,,,,,,,,,,,,,,,,1,,,,,,,,,,,,,,,,,,,,,,,,,,,,,,,,,,,,,,,,,,,,,,42,143515,22,Female,1,2024/02/09_11:07:35,YZ,59.92482646
,,,,,,practice,0,25,1,788,10,J,1,left,0.579838988,1,0,,,,,,,,,,,,,,,,,,,,,1,,,,,,,,,,,,,,,,,,,,,,,,,,,,,,,,,,,,,,,,,,,,,,42,143515,22,Female,1,2024/02/09_11:07:35,YZ,59.92482646
,,,,,,practice,0,25,1,788,11,S,0,right,0.911052168,1,0,,,,,,,,,,,,,,,,,,,,,1,,,,,,,,,,,,,,,,,,,,,,,,,,,,,,,,,,,,,,,,,,,,,,42,143515,22,Female,1,2024/02/09_11:07:35,YZ,59.92482646
,,,,,,practice,0,25,1,788,12,S,1,left,0.533101918,1,0,,,,,,,,,,,,,,,,,,,,,1,,,,,,,,,,,,,,,,,,,,,,,,,,,,,,,,,,,,,,,,,,,,,,42,143515,22,Female,1,2024/02/09_11:07:35,YZ,59.92482646
,,,,,,practice,0,25,1,788,13,C,0,right,0.878743324,1,0,,,,,,,,,,,,,,,,,,,,,1,,,,,,,,,,,,,,,,,,,,,,,,,,,,,,,,,,,,,,,,,,,,,,42,143515,22,Female,1,2024/02/09_11:07:35,YZ,59.92482646
,,,,,,practice,0,25,1,788,,,,,,,,1,1,0,1,0,1,0.619410002,4,0,0,0,0,9,13,4,9,0,,,,1,,,,,,,,,,,,,,,,,,,,,,,,,,,,,,,,,,,,,,,,,,,,,,42,143515,22,Female,1,2024/02/09_11:07:35,YZ,59.92482646
-1,./instructions/inst_prac_1_next/Slide35.png,left,0.815045111,828.1752667,828.9903118,,,,,,,,,,,,,,,,,,,,,,,,,,,,,,,,,1,,,,,,,,,,,,,,,,,,,,,,,,,,,,,,,,,,,,,,,,,,,,,,42,143515,22,Female,1,2024/02/09_11:07:35,YZ,59.92482646
,,,,,,practice,0,31,1,788,1,J,0,right,0.578762286,1,0,,,,,,,,,,,,,,,,,,,,,1,,,,,,,,,,,,,,,,,,,,,,,,,,,,,,,,,,,,,,,,,,,,,,42,143515,22,Female,1,2024/02/09_11:07:35,YZ,59.92482646
,,,,,,practice,0,31,1,788,2,V,0,right,0.358874524,1,0,,,,,,,,,,,,,,,,,,,,,1,,,,,,,,,,,,,,,,,,,,,,,,,,,,,,,,,,,,,,,,,,,,,,42,143515,22,Female,1,2024/02/09_11:07:35,YZ,59.92482646
,,,,,,practice,0,31,1,788,3,F,0,right,0.494975385,1,0,,,,,,,,,,,,,,,,,,,,,1,,,,,,,,,,,,,,,,,,,,,,,,,,,,,,,,,,,,,,,,,,,,,,42,143515,22,Female,1,2024/02/09_11:07:35,YZ,59.92482646
,,,,,,practice,0,31,1,788,4,F,1,left,0.48805137,1,0,,,,,,,,,,,,,,,,,,,,,1,,,,,,,,,,,,,,,,,,,,,,,,,,,,,,,,,,,,,,,,,,,,,,42,143515,22,Female,1,2024/02/09_11:07:35,YZ,59.92482646
,,,,,,practice,0,31,1,788,5,V,0,right,0.89181211,1,0,,,,,,,,,,,,,,,,,,,,,1,,,,,,,,,,,,,,,,,,,,,,,,,,,,,,,,,,,,,,,,,,,,,,42,143515,22,Female,1,2024/02/09_11:07:35,YZ,59.92482646
,,,,,,practice,0,31,1,788,6,J,0,right,0.478204093,1,0,,,,,,,,,,,,,,,,,,,,,1,,,,,,,,,,,,,,,,,,,,,,,,,,,,,,,,,,,,,,,,,,,,,,42,143515,22,Female,1,2024/02/09_11:07:35,YZ,59.92482646
,,,,,,practice,0,31,1,788,7,S,0,right,0.47967472,1,0,,,,,,,,,,,,,,,,,,,,,1,,,,,,,,,,,,,,,,,,,,,,,,,,,,,,,,,,,,,,,,,,,,,,42,143515,22,Female,1,2024/02/09_11:07:35,YZ,59.92482646
,,,,,,practice,0,31,1,788,8,C,0,right,0.649314226,1,0,,,,,,,,,,,,,,,,,,,,,1,,,,,,,,,,,,,,,,,,,,,,,,,,,,,,,,,,,,,,,,,,,,,,42,143515,22,Female,1,2024/02/09_11:07:35,YZ,59.92482646
,,,,,,practice,0,31,1,788,9,C,1,left,0.583207508,1,0,,,,,,,,,,,,,,,,,,,,,1,,,,,,,,,,,,,,,,,,,,,,,,,,,,,,,,,,,,,,,,,,,,,,42,143515,22,Female,1,2024/02/09_11:07:35,YZ,59.92482646
,,,,,,practice,0,31,1,788,10,F,0,right,0.47742258,1,0,,,,,,,,,,,,,,,,,,,,,1,,,,,,,,,,,,,,,,,,,,,,,,,,,,,,,,,,,,,,,,,,,,,,42,143515,22,Female,1,2024/02/09_11:07:35,YZ,59.92482646
,,,,,,practice,0,31,1,788,11,F,1,left,0.388424002,1,0,,,,,,,,,,,,,,,,,,,,,1,,,,,,,,,,,,,,,,,,,,,,,,,,,,,,,,,,,,,,,,,,,,,,42,143515,22,Female,1,2024/02/09_11:07:35,YZ,59.92482646
,,,,,,practice,0,31,1,788,12,J,0,right,0.433751524,1,0,,,,,,,,,,,,,,,,,,,,,1,,,,,,,,,,,,,,,,,,,,,,,,,,,,,,,,,,,,,,,,,,,,,,42,143515,22,Female,1,2024/02/09_11:07:35,YZ,59.92482646
,,,,,,practice,0,31,1,788,13,J,1,right,0.467127258,0,0,,,,,,,,,,,,,,,,,,,,,1,,,,,,,,,,,,,,,,,,,,,,,,,,,,,,,,,,,,,,,,,,,,,,42,143515,22,Female,1,2024/02/09_11:07:35,YZ,59.92482646
,,,,,,practice,0,31,1,788,,,,,,,,0.9375,0.75,0,1,0,1,0.520738584,3,0,0,0,0,9,12,4,9,0,,,,1,,,,,,,,,,,,,,,,,,,,,,,,,,,,,,,,,,,,,,,,,,,,,,42,143515,22,Female,1,2024/02/09_11:07:35,YZ,59.92482646
-1,./instructions/inst_prac_1_next/Slide35.png,left,0.815264024,851.1590313,851.9742953,,,,,,,,,,,,,,,,,,,,,,,,,,,,,,,,,1,,,,,,,,,,,,,,,,,,,,,,,,,,,,,,,,,,,,,,,,,,,,,,42,143515,22,Female,1,2024/02/09_11:07:35,YZ,59.92482646
,,,,,,practice,0,8,1,788,1,Q,0,right,0.675082558,1,0,,,,,,,,,,,,,,,,,,,,,1,,,,,,,,,,,,,,,,,,,,,,,,,,,,,,,,,,,,,,,,,,,,,,42,143515,22,Female,1,2024/02/09_11:07:35,YZ,59.92482646
,,,,,,practice,0,8,1,788,2,C,0,right,0.816337936,1,0,,,,,,,,,,,,,,,,,,,,,1,,,,,,,,,,,,,,,,,,,,,,,,,,,,,,,,,,,,,,,,,,,,,,42,143515,22,Female,1,2024/02/09_11:07:35,YZ,59.92482646
,,,,,,practice,0,8,1,788,3,C,1,left,0.548068204,1,0,,,,,,,,,,,,,,,,,,,,,1,,,,,,,,,,,,,,,,,,,,,,,,,,,,,,,,,,,,,,,,,,,,,,42,143515,22,Female,1,2024/02/09_11:07:35,YZ,59.92482646
,,,,,,practice,0,8,1,788,4,N,0,right,0.574289871,1,0,,,,,,,,,,,,,,,,,,,,,1,,,,,,,,,,,,,,,,,,,,,,,,,,,,,,,,,,,,,,,,,,,,,,42,143515,22,Female,1,2024/02/09_11:07:35,YZ,59.92482646
,,,,,,practice,0,8,1,788,5,N,1,left,0.621701125,1,0,,,,,,,,,,,,,,,,,,,,,1,,,,,,,,,,,,,,,,,,,,,,,,,,,,,,,,,,,,,,,,,,,,,,42,143515,22,Female,1,2024/02/09_11:07:35,YZ,59.92482646
,,,,,,practice,0,8,1,788,6,S,0,right,1.119150952,1,0,,,,,,,,,,,,,,,,,,,,,1,,,,,,,,,,,,,,,,,,,,,,,,,,,,,,,,,,,,,,,,,,,,,,42,143515,22,Female,1,2024/02/09_11:07:35,YZ,59.92482646
,,,,,,practice,0,8,1,788,7,S,1,left,0.533480666,1,0,,,,,,,,,,,,,,,,,,,,,1,,,,,,,,,,,,,,,,,,,,,,,,,,,,,,,,,,,,,,,,,,,,,,42,143515,22,Female,1,2024/02/09_11:07:35,YZ,59.92482646
,,,,,,practice,0,8,1,788,8,Q,0,right,0.670535996,1,0,,,,,,,,,,,,,,,,,,,,,1,,,,,,,,,,,,,,,,,,,,,,,,,,,,,,,,,,,,,,,,,,,,,,42,143515,22,Female,1,2024/02/09_11:07:35,YZ,59.92482646
,,,,,,practice,0,8,1,788,9,X,0,right,0.520246277,1,0,,,,,,,,,,,,,,,,,,,,,1,,,,,,,,,,,,,,,,,,,,,,,,,,,,,,,,,,,,,,,,,,,,,,42,143515,22,Female,1,2024/02/09_11:07:35,YZ,59.92482646
,,,,,,practice,0,8,1,788,10,J,0,right,0.566555657,1,0,,,,,,,,,,,,,,,,,,,,,1,,,,,,,,,,,,,,,,,,,,,,,,,,,,,,,,,,,,,,,,,,,,,,42,143515,22,Female,1,2024/02/09_11:07:35,YZ,59.92482646
,,,,,,practice,0,8,1,788,11,V,0,right,0.589933436,1,0,,,,,,,,,,,,,,,,,,,,,1,,,,,,,,,,,,,,,,,,,,,,,,,,,,,,,,,,,,,,,,,,,,,,42,143515,22,Female,1,2024/02/09_11:07:35,YZ,59.92482646
,,,,,,practice,0,8,1,788,12,C,0,right,0.447965815,1,0,,,,,,,,,,,,,,,,,,,,,1,,,,,,,,,,,,,,,,,,,,,,,,,,,,,,,,,,,,,,,,,,,,,,42,143515,22,Female,1,2024/02/09_11:07:35,YZ,59.92482646
,,,,,,practice,0,8,1,788,13,C,1,left,0.55014669,1,0,,,,,,,,,,,,,,,,,,,,,1,,,,,,,,,,,,,,,,,,,,,,,,,,,,,,,,,,,,,,,,,,,,,,42,143515,22,Female,1,2024/02/09_11:07:35,YZ,59.92482646
,,,,,,practice,0,8,1,788,,,,,,,,1,1,0,1,0,1,0.633345783,4,0,0,0,0,9,13,4,9,0,,,,1,,,,,,,,,,,,,,,,,,,,,,,,,,,,,,,,,,,,,,,,,,,,,,42,143515,22,Female,1,2024/02/09_11:07:35,YZ,59.92482646
-1,./instructions/inst_prac_1_next/Slide35.png,left,0.941949901,875.1682918,876.1102417,,,,,,,,,,,,,,,,,,,,,,,,,,,,,,,,,1,,,,,,,,,,,,,,,,,,,,,,,,,,,,,,,,,,,,,,,,,,,,,,42,143515,22,Female,1,2024/02/09_11:07:35,YZ,59.92482646
,,,,,,practice,0,16,1,788,1,N,0,right,0.732111296,1,0,,,,,,,,,,,,,,,,,,,,,1,,,,,,,,,,,,,,,,,,,,,,,,,,,,,,,,,,,,,,,,,,,,,,42,143515,22,Female,1,2024/02/09_11:07:35,YZ,59.92482646
,,,,,,practice,0,16,1,788,2,X,0,right,0.545261283,1,0,,,,,,,,,,,,,,,,,,,,,1,,,,,,,,,,,,,,,,,,,,,,,,,,,,,,,,,,,,,,,,,,,,,,42,143515,22,Female,1,2024/02/09_11:07:35,YZ,59.92482646
,,,,,,practice,0,16,1,788,3,C,0,right,0.441918362,1,0,,,,,,,,,,,,,,,,,,,,,1,,,,,,,,,,,,,,,,,,,,,,,,,,,,,,,,,,,,,,,,,,,,,,42,143515,22,Female,1,2024/02/09_11:07:35,YZ,59.92482646
,,,,,,practice,0,16,1,788,4,C,1,left,0.620416963,1,0,,,,,,,,,,,,,,,,,,,,,1,,,,,,,,,,,,,,,,,,,,,,,,,,,,,,,,,,,,,,,,,,,,,,42,143515,22,Female,1,2024/02/09_11:07:35,YZ,59.92482646
,,,,,,practice,0,16,1,788,5,N,0,right,0.50372719,1,0,,,,,,,,,,,,,,,,,,,,,1,,,,,,,,,,,,,,,,,,,,,,,,,,,,,,,,,,,,,,,,,,,,,,42,143515,22,Female,1,2024/02/09_11:07:35,YZ,59.92482646
,,,,,,practice,0,16,1,788,6,N,1,left,0.392929009,1,0,,,,,,,,,,,,,,,,,,,,,1,,,,,,,,,,,,,,,,,,,,,,,,,,,,,,,,,,,,,,,,,,,,,,42,143515,22,Female,1,2024/02/09_11:07:35,YZ,59.92482646
,,,,,,practice,0,16,1,788,7,Q,0,right,0.342251407,1,0,,,,,,,,,,,,,,,,,,,,,1,,,,,,,,,,,,,,,,,,,,,,,,,,,,,,,,,,,,,,,,,,,,,,42,143515,22,Female,1,2024/02/09_11:07:35,YZ,59.92482646
,,,,,,practice,0,16,1,788,8,Q,1,left,0.894745003,1,0,,,,,,,,,,,,,,,,,,,,,1,,,,,,,,,,,,,,,,,,,,,,,,,,,,,,,,,,,,,,,,,,,,,,42,143515,22,Female,1,2024/02/09_11:07:35,YZ,59.92482646
,,,,,,practice,0,16,1,788,9,V,0,right,0.66810266,1,0,,,,,,,,,,,,,,,,,,,,,1,,,,,,,,,,,,,,,,,,,,,,,,,,,,,,,,,,,,,,,,,,,,,,42,143515,22,Female,1,2024/02/09_11:07:35,YZ,59.92482646
,,,,,,practice,0,16,1,788,10,C,0,right,0.456523605,1,0,,,,,,,,,,,,,,,,,,,,,1,,,,,,,,,,,,,,,,,,,,,,,,,,,,,,,,,,,,,,,,,,,,,,42,143515,22,Female,1,2024/02/09_11:07:35,YZ,59.92482646
,,,,,,practice,0,16,1,788,11,N,0,right,0.504165607,1,0,,,,,,,,,,,,,,,,,,,,,1,,,,,,,,,,,,,,,,,,,,,,,,,,,,,,,,,,,,,,,,,,,,,,42,143515,22,Female,1,2024/02/09_11:07:35,YZ,59.92482646
,,,,,,practice,0,16,1,788,12,N,1,left,0.554358936,1,0,,,,,,,,,,,,,,,,,,,,,1,,,,,,,,,,,,,,,,,,,,,,,,,,,,,,,,,,,,,,,,,,,,,,42,143515,22,Female,1,2024/02/09_11:07:35,YZ,59.92482646
,,,,,,practice,0,16,1,788,13,C,0,right,0.599305891,1,0,,,,,,,,,,,,,,,,,,,,,1,,,,,,,,,,,,,,,,,,,,,,,,,,,,,,,,,,,,,,,,,,,,,,42,143515,22,Female,1,2024/02/09_11:07:35,YZ,59.92482646
,,,,,,practice,0,16,1,788,,,,,,,,1,1,0,1,0,1,0.558139786,4,0,0,0,0,9,13,4,9,0,,,,1,,,,,,,,,,,,,,,,,,,,,,,,,,,,,,,,,,,,,,,,,,,,,,42,143515,22,Female,1,2024/02/09_11:07:35,YZ,59.92482646
1,./instructions/inst_prac_1_next/Slide35.png,right,2.509007293,898.2011326,900.7101399,,,,,,,,,,,,,,,,,,,,,,,,,,,,,,,,,1,,,,,,,,,,,,,,,,,,,,,,,,,,,,,,,,,,,,,,,,,,,,,,42,143515,22,Female,1,2024/02/09_11:07:35,YZ,59.92482646
,,,,,,practice,0,28,1,788,1,J,0,right,1.133852013,1,0,,,,,,,,,,,,,,,,,,,,,1,,,,,,,,,,,,,,,,,,,,,,,,,,,,,,,,,,,,,,,,,,,,,,42,143515,22,Female,1,2024/02/09_11:07:35,YZ,59.92482646
,,,,,,practice,0,28,1,788,2,J,1,left,0.620971354,1,0,,,,,,,,,,,,,,,,,,,,,1,,,,,,,,,,,,,,,,,,,,,,,,,,,,,,,,,,,,,,,,,,,,,,42,143515,22,Female,1,2024/02/09_11:07:35,YZ,59.92482646
,,,,,,practice,0,28,1,788,3,N,0,right,0.57846555,1,0,,,,,,,,,,,,,,,,,,,,,1,,,,,,,,,,,,,,,,,,,,,,,,,,,,,,,,,,,,,,,,,,,,,,42,143515,22,Female,1,2024/02/09_11:07:35,YZ,59.92482646
,,,,,,practice,0,28,1,788,4,Q,0,right,0.42142792,1,0,,,,,,,,,,,,,,,,,,,,,1,,,,,,,,,,,,,,,,,,,,,,,,,,,,,,,,,,,,,,,,,,,,,,42,143515,22,Female,1,2024/02/09_11:07:35,YZ,59.92482646
,,,,,,practice,0,28,1,788,5,Q,1,left,0.557105021,1,0,,,,,,,,,,,,,,,,,,,,,1,,,,,,,,,,,,,,,,,,,,,,,,,,,,,,,,,,,,,,,,,,,,,,42,143515,22,Female,1,2024/02/09_11:07:35,YZ,59.92482646
,,,,,,practice,0,28,1,788,6,F,0,right,0.405608009,1,0,,,,,,,,,,,,,,,,,,,,,1,,,,,,,,,,,,,,,,,,,,,,,,,,,,,,,,,,,,,,,,,,,,,,42,143515,22,Female,1,2024/02/09_11:07:35,YZ,59.92482646
,,,,,,practice,0,28,1,788,7,C,0,right,0.581082306,1,0,,,,,,,,,,,,,,,,,,,,,1,,,,,,,,,,,,,,,,,,,,,,,,,,,,,,,,,,,,,,,,,,,,,,42,143515,22,Female,1,2024/02/09_11:07:35,YZ,59.92482646
,,,,,,practice,0,28,1,788,8,C,1,left,0.48931467,1,0,,,,,,,,,,,,,,,,,,,,,1,,,,,,,,,,,,,,,,,,,,,,,,,,,,,,,,,,,,,,,,,,,,,,42,143515,22,Female,1,2024/02/09_11:07:35,YZ,59.92482646
,,,,,,practice,0,28,1,788,9,S,0,right,0.423770893,1,0,,,,,,,,,,,,,,,,,,,,,1,,,,,,,,,,,,,,,,,,,,,,,,,,,,,,,,,,,,,,,,,,,,,,42,143515,22,Female,1,2024/02/09_11:07:35,YZ,59.92482646
,,,,,,practice,0,28,1,788,10,F,0,right,0.523349595,1,0,,,,,,,,,,,,,,,,,,,,,1,,,,,,,,,,,,,,,,,,,,,,,,,,,,,,,,,,,,,,,,,,,,,,42,143515,22,Female,1,2024/02/09_11:07:35,YZ,59.92482646
,,,,,,practice,0,28,1,788,11,S,0,right,0.826143893,1,0,,,,,,,,,,,,,,,,,,,,,1,,,,,,,,,,,,,,,,,,,,,,,,,,,,,,,,,,,,,,,,,,,,,,42,143515,22,Female,1,2024/02/09_11:07:35,YZ,59.92482646
,,,,,,practice,0,28,1,788,12,V,0,right,0.554208765,1,0,,,,,,,,,,,,,,,,,,,,,1,,,,,,,,,,,,,,,,,,,,,,,,,,,,,,,,,,,,,,,,,,,,,,42,143515,22,Female,1,2024/02/09_11:07:35,YZ,59.92482646
,,,,,,practice,0,28,1,788,13,V,1,left,0.886103206,1,0,,,,,,,,,,,,,,,,,,,,,1,,,,,,,,,,,,,,,,,,,,,,,,,,,,,,,,,,,,,,,,,,,,,,42,143515,22,Female,1,2024/02/09_11:07:35,YZ,59.92482646
,,,,,,practice,0,28,1,788,,,,,,,,1,1,0,1,0,1,0.615492553,4,0,0,0,0,9,13,4,9,0,,,,1,,,,,,,,,,,,,,,,,,,,,,,,,,,,,,,,,,,,,,,,,,,,,,42,143515,22,Female,1,2024/02/09_11:07:35,YZ,59.92482646
,,,,,,practice,0,1,1,788,1,N,0,right,0.427903941,1,0,,,,,,,,,,,,,,,,,,,,,1,,,,,,,,,,,,,,,,,,,,,,,,,,,,,,,,,,,,,,,,,,,,,,42,143515,22,Female,1,2024/02/09_11:07:35,YZ,59.92482646
,,,,,,practice,0,1,1,788,2,Q,0,right,0.371915119,1,0,,,,,,,,,,,,,,,,,,,,,1,,,,,,,,,,,,,,,,,,,,,,,,,,,,,,,,,,,,,,,,,,,,,,42,143515,22,Female,1,2024/02/09_11:07:35,YZ,59.92482646
,,,,,,practice,0,1,1,788,3,C,0,right,0.39030127,1,0,,,,,,,,,,,,,,,,,,,,,1,,,,,,,,,,,,,,,,,,,,,,,,,,,,,,,,,,,,,,,,,,,,,,42,143515,22,Female,1,2024/02/09_11:07:35,YZ,59.92482646
,,,,,,practice,0,1,1,788,4,Q,0,right,0.60817264,1,0,,,,,,,,,,,,,,,,,,,,,1,,,,,,,,,,,,,,,,,,,,,,,,,,,,,,,,,,,,,,,,,,,,,,42,143515,22,Female,1,2024/02/09_11:07:35,YZ,59.92482646
,,,,,,practice,0,1,1,788,5,Q,1,left,0.513841777,1,0,,,,,,,,,,,,,,,,,,,,,1,,,,,,,,,,,,,,,,,,,,,,,,,,,,,,,,,,,,,,,,,,,,,,42,143515,22,Female,1,2024/02/09_11:07:35,YZ,59.92482646
,,,,,,practice,0,1,1,788,6,C,0,right,0.370115465,1,0,,,,,,,,,,,,,,,,,,,,,1,,,,,,,,,,,,,,,,,,,,,,,,,,,,,,,,,,,,,,,,,,,,,,42,143515,22,Female,1,2024/02/09_11:07:35,YZ,59.92482646
,,,,,,practice,0,1,1,788,7,C,1,left,0.507760468,1,0,,,,,,,,,,,,,,,,,,,,,1,,,,,,,,,,,,,,,,,,,,,,,,,,,,,,,,,,,,,,,,,,,,,,42,143515,22,Female,1,2024/02/09_11:07:35,YZ,59.92482646
,,,,,,practice,0,1,1,788,8,J,0,right,0.362454041,1,0,,,,,,,,,,,,,,,,,,,,,1,,,,,,,,,,,,,,,,,,,,,,,,,,,,,,,,,,,,,,,,,,,,,,42,143515,22,Female,1,2024/02/09_11:07:35,YZ,59.92482646
,,,,,,practice,0,1,1,788,9,J,1,left,0.503559328,1,0,,,,,,,,,,,,,,,,,,,,,1,,,,,,,,,,,,,,,,,,,,,,,,,,,,,,,,,,,,,,,,,,,,,,42,143515,22,Female,1,2024/02/09_11:07:35,YZ,59.92482646
,,,,,,practice,0,1,1,788,10,X,0,right,0.465552474,1,0,,,,,,,,,,,,,,,,,,,,,1,,,,,,,,,,,,,,,,,,,,,,,,,,,,,,,,,,,,,,,,,,,,,,42,143515,22,Female,1,2024/02/09_11:07:35,YZ,59.92482646
,,,,,,practice,0,1,1,788,11,V,0,right,0.564653898,1,0,,,,,,,,,,,,,,,,,,,,,1,,,,,,,,,,,,,,,,,,,,,,,,,,,,,,,,,,,,,,,,,,,,,,42,143515,22,Female,1,2024/02/09_11:07:35,YZ,59.92482646
,,,,,,practice,0,1,1,788,12,V,1,left,0.522323324,1,0,,,,,,,,,,,,,,,,,,,,,1,,,,,,,,,,,,,,,,,,,,,,,,,,,,,,,,,,,,,,,,,,,,,,42,143515,22,Female,1,2024/02/09_11:07:35,YZ,59.92482646
,,,,,,practice,0,1,1,788,13,C,0,right,0.39439939,1,0,,,,,,,,,,,,,,,,,,,,,1,,,,,,,,,,,,,,,,,,,,,,,,,,,,,,,,,,,,,,,,,,,,,,42,143515,22,Female,1,2024/02/09_11:07:35,YZ,59.92482646
,,,,,,practice,0,1,1,788,,,,,,,,1,1,0,1,0,1,0.461765626,4,0,0,0,0,9,13,4,9,0,,,,1,,,,,,,,,,,,,,,,,,,,,,,,,,,,,,,,,,,,,,,,,,,,,,42,143515,22,Female,1,2024/02/09_11:07:35,YZ,59.92482646
-1,./instructions/inst_prac_3/Slide37.png,left,9.955778314,932.6024437,942.558222,,,,,,,,,,,,,,,,,,,,,,,,,,,,,,,,,1,,,,,,,,,,,,,,,,,,,,,,,,,,,,,,,,,,,,,,,,,,,,,,42,143515,22,Female,1,2024/02/09_11:07:35,YZ,59.92482646
-2,./instructions/inst_prac_3/Slide44.png,left,4.690456494,942.619772,947.3102285,,,,,,,,,,,,,,,,,,,,,,,,,,,,,,,,,1,,,,,,,,,,,,,,,,,,,,,,,,,,,,,,,,,,,,,,,,,,,,,,42,143515,22,Female,1,2024/02/09_11:07:35,YZ,59.92482646
-3,./instructions/inst_prac_3/Slide43.png,left,14.3077946,947.3623865,961.6701811,,,,,,,,,,,,,,,,,,,,,,,,,,,,,,,,,1,,,,,,,,,,,,,,,,,,,,,,,,,,,,,,,,,,,,,,,,,,,,,,42,143515,22,Female,1,2024/02/09_11:07:35,YZ,59.92482646
-4,./instructions/inst_prac_3/Slide42.png,left,3.715774067,961.7304839,965.446258,,,,,,,,,,,,,,,,,,,,,,,,,,,,,,,,,1,,,,,,,,,,,,,,,,,,,,,,,,,,,,,,,,,,,,,,,,,,,,,,42,143515,22,Female,1,2024/02/09_11:07:35,YZ,59.92482646
-5,./instructions/inst_prac_3/Slide41.png,left,1.996920487,965.9453585,967.942279,,,,,,,,,,,,,,,,,,,,,,,,,,,,,,,,,1,,,,,,,,,,,,,,,,,,,,,,,,,,,,,,,,,,,,,,,,,,,,,,42,143515,22,Female,1,2024/02/09_11:07:35,YZ,59.92482646
-6,./instructions/inst_prac_3/Slide40.png,left,2.378212455,968.0519979,970.4302103,,,,,,,,,,,,,,,,,,,,,,,,,,,,,,,,,1,,,,,,,,,,,,,,,,,,,,,,,,,,,,,,,,,,,,,,,,,,,,,,42,143515,22,Female,1,2024/02/09_11:07:35,YZ,59.92482646
-7,./instructions/inst_prac_3/Slide39.png,left,1.070356839,970.4878194,971.5581762,,,,,,,,,,,,,,,,,,,,,,,,,,,,,,,,,1,,,,,,,,,,,,,,,,,,,,,,,,,,,,,,,,,,,,,,,,,,,,,,42,143515,22,Female,1,2024/02/09_11:07:35,YZ,59.92482646
-8,./instructions/inst_prac_3/Slide38.png,left,0.896896219,971.6452426,972.5421388,,,,,,,,,,,,,,,,,,,,,,,,,,,,,,,,,1,,,,,,,,,,,,,,,,,,,,,,,,,,,,,,,,,,,,,,,,,,,,,,42,143515,22,Female,1,2024/02/09_11:07:35,YZ,59.92482646
,,,,,,practice,0,28,3,788,1,C,0,right,0.930589518,1,0,,,,,,,,,,,,,,,,,,,,,1,,,,,,,,,,,,,,,,,,,,,,,,,,,,,,,,,,,,,,,,,,,,,,42,143515,22,Female,1,2024/02/09_11:07:35,YZ,59.92482646
,,,,,,practice,0,28,3,788,2,J,0,right,0.726025542,1,0,,,,,,,,,,,,,,,,,,,,,1,,,,,,,,,,,,,,,,,,,,,,,,,,,,,,,,,,,,,,,,,,,,,,42,143515,22,Female,1,2024/02/09_11:07:35,YZ,59.92482646
,,,,,,practice,0,28,3,788,3,C,0,right,0.816636782,1,0,,,,,,,,,,,,,,,,,,,,,1,,,,,,,,,,,,,,,,,,,,,,,,,,,,,,,,,,,,,,,,,,,,,,42,143515,22,Female,1,2024/02/09_11:07:35,YZ,59.92482646
,,,,,,practice,0,28,3,788,4,C,1,left,1.044430628,1,0,,,,,,,,,,,,,,,,,,,,,1,,,,,,,,,,,,,,,,,,,,,,,,,,,,,,,,,,,,,,,,,,,,,,42,143515,22,Female,1,2024/02/09_11:07:35,YZ,59.92482646
,,,,,,practice,0,28,3,788,5,S,0,right,1.934610844,1,0,,,,,,,,,,,,,,,,,,,,,1,,,,,,,,,,,,,,,,,,,,,,,,,,,,,,,,,,,,,,,,,,,,,,42,143515,22,Female,1,2024/02/09_11:07:35,YZ,59.92482646
,,,,,,practice,0,28,3,788,6,C,1,left,1.283157641,1,0,,,,,,,,,,,,,,,,,,,,,1,,,,,,,,,,,,,,,,,,,,,,,,,,,,,,,,,,,,,,,,,,,,,,42,143515,22,Female,1,2024/02/09_11:07:35,YZ,59.92482646
,,,,,,practice,0,28,3,788,7,S,0,right,1.184111779,1,0,,,,,,,,,,,,,,,,,,,,,1,,,,,,,,,,,,,,,,,,,,,,,,,,,,,,,,,,,,,,,,,,,,,,42,143515,22,Female,1,2024/02/09_11:07:35,YZ,59.92482646
,,,,,,practice,0,28,3,788,8,X,0,right,0.688247804,1,0,,,,,,,,,,,,,,,,,,,,,1,,,,,,,,,,,,,,,,,,,,,,,,,,,,,,,,,,,,,,,,,,,,,,42,143515,22,Female,1,2024/02/09_11:07:35,YZ,59.92482646
,,,,,,practice,0,28,3,788,9,C,1,left,0.845072691,1,0,,,,,,,,,,,,,,,,,,,,,1,,,,,,,,,,,,,,,,,,,,,,,,,,,,,,,,,,,,,,,,,,,,,,42,143515,22,Female,1,2024/02/09_11:07:35,YZ,59.92482646
,,,,,,practice,0,28,3,788,10,F,0,right,0.947682446,1,0,,,,,,,,,,,,,,,,,,,,,1,,,,,,,,,,,,,,,,,,,,,,,,,,,,,,,,,,,,,,,,,,,,,,42,143515,22,Female,1,2024/02/09_11:07:35,YZ,59.92482646
,,,,,,practice,0,28,3,788,11,N,0,right,0.573176859,1,0,,,,,,,,,,,,,,,,,,,,,1,,,,,,,,,,,,,,,,,,,,,,,,,,,,,,,,,,,,,,,,,,,,,,42,143515,22,Female,1,2024/02/09_11:07:35,YZ,59.92482646
,,,,,,practice,0,28,3,788,12,C,1,left,0.56851407,1,0,,,,,,,,,,,,,,,,,,,,,1,,,,,,,,,,,,,,,,,,,,,,,,,,,,,,,,,,,,,,,,,,,,,,42,143515,22,Female,1,2024/02/09_11:07:35,YZ,59.92482646
,,,,,,practice,0,28,3,788,13,V,0,right,0.689068348,1,0,,,,,,,,,,,,,,,,,,,,,1,,,,,,,,,,,,,,,,,,,,,,,,,,,,,,,,,,,,,,,,,,,,,,42,143515,22,Female,1,2024/02/09_11:07:35,YZ,59.92482646
,,,,,,practice,0,28,3,788,,,,,,,,1,1,0,1,0,1,0.94087115,4,0,0,0,0,9,13,4,9,0,,,,1,,,,,,,,,,,,,,,,,,,,,,,,,,,,,,,,,,,,,,,,,,,,,,42,143515,22,Female,1,2024/02/09_11:07:35,YZ,59.92482646
-1,./instructions/inst_prac_3_next/Slide49.png,left,1.553827314,998.580443,1000.13427,,,,,,,,,,,,,,,,,,,,,,,,,,,,,,,,,1,,,,,,,,,,,,,,,,,,,,,,,,,,,,,,,,,,,,,,,,,,,,,,42,143515,22,Female,1,2024/02/09_11:07:35,YZ,59.92482646
,,,,,,practice,0,7,3,788,1,X,0,right,0.684237987,1,0,,,,,,,,,,,,,,,,,,,,,1,,,,,,,,,,,,,,,,,,,,,,,,,,,,,,,,,,,,,,,,,,,,,,42,143515,22,Female,1,2024/02/09_11:07:35,YZ,59.92482646
,,,,,,practice,0,7,3,788,2,N,0,right,0.310195175,1,0,,,,,,,,,,,,,,,,,,,,,1,,,,,,,,,,,,,,,,,,,,,,,,,,,,,,,,,,,,,,,,,,,,,,42,143515,22,Female,1,2024/02/09_11:07:35,YZ,59.92482646
,,,,,,practice,0,7,3,788,3,X,0,right,0.963188499,1,0,,,,,,,,,,,,,,,,,,,,,1,,,,,,,,,,,,,,,,,,,,,,,,,,,,,,,,,,,,,,,,,,,,,,42,143515,22,Female,1,2024/02/09_11:07:35,YZ,59.92482646
,,,,,,practice,0,7,3,788,4,C,0,right,0.748421935,1,0,,,,,,,,,,,,,,,,,,,,,1,,,,,,,,,,,,,,,,,,,,,,,,,,,,,,,,,,,,,,,,,,,,,,42,143515,22,Female,1,2024/02/09_11:07:35,YZ,59.92482646
,,,,,,practice,0,7,3,788,5,S,0,right,0.514788257,1,0,,,,,,,,,,,,,,,,,,,,,1,,,,,,,,,,,,,,,,,,,,,,,,,,,,,,,,,,,,,,,,,,,,,,42,143515,22,Female,1,2024/02/09_11:07:35,YZ,59.92482646
,,,,,,practice,0,7,3,788,6,S,0,right,0.874906313,1,0,,,,,,,,,,,,,,,,,,,,,1,,,,,,,,,,,,,,,,,,,,,,,,,,,,,,,,,,,,,,,,,,,,,,42,143515,22,Female,1,2024/02/09_11:07:35,YZ,59.92482646
,,,,,,practice,0,7,3,788,7,C,1,left,0.523353131,1,0,,,,,,,,,,,,,,,,,,,,,1,,,,,,,,,,,,,,,,,,,,,,,,,,,,,,,,,,,,,,,,,,,,,,42,143515,22,Female,1,2024/02/09_11:07:35,YZ,59.92482646
,,,,,,practice,0,7,3,788,8,Q,0,right,0.494575512,1,0,,,,,,,,,,,,,,,,,,,,,1,,,,,,,,,,,,,,,,,,,,,,,,,,,,,,,,,,,,,,,,,,,,,,42,143515,22,Female,1,2024/02/09_11:07:35,YZ,59.92482646
,,,,,,practice,0,7,3,788,9,S,1,left,0.609511467,1,0,,,,,,,,,,,,,,,,,,,,,1,,,,,,,,,,,,,,,,,,,,,,,,,,,,,,,,,,,,,,,,,,,,,,42,143515,22,Female,1,2024/02/09_11:07:35,YZ,59.92482646
,,,,,,practice,0,7,3,788,10,Q,0,right,0.656433223,1,0,,,,,,,,,,,,,,,,,,,,,1,,,,,,,,,,,,,,,,,,,,,,,,,,,,,,,,,,,,,,,,,,,,,,42,143515,22,Female,1,2024/02/09_11:07:35,YZ,59.92482646
,,,,,,practice,0,7,3,788,11,Q,1,left,0.512567834,1,0,,,,,,,,,,,,,,,,,,,,,1,,,,,,,,,,,,,,,,,,,,,,,,,,,,,,,,,,,,,,,,,,,,,,42,143515,22,Female,1,2024/02/09_11:07:35,YZ,59.92482646
,,,,,,practice,0,7,3,788,12,V,0,right,0.51384108,1,0,,,,,,,,,,,,,,,,,,,,,1,,,,,,,,,,,,,,,,,,,,,,,,,,,,,,,,,,,,,,,,,,,,,,42,143515,22,Female,1,2024/02/09_11:07:35,YZ,59.92482646
,,,,,,practice,0,7,3,788,13,Q,1,left,0.664769022,1,0,,,,,,,,,,,,,,,,,,,,,1,,,,,,,,,,,,,,,,,,,,,,,,,,,,,,,,,,,,,,,,,,,,,,42,143515,22,Female,1,2024/02/09_11:07:35,YZ,59.92482646
,,,,,,practice,0,7,3,788,,,,,,,,1,1,0,1,0,1,0.620829957,4,0,0,0,0,9,13,4,9,0,,,,1,,,,,,,,,,,,,,,,,,,,,,,,,,,,,,,,,,,,,,,,,,,,,,42,143515,22,Female,1,2024/02/09_11:07:35,YZ,59.92482646
-1,./instructions/inst_prac_3_next/Slide49.png,left,0.804889013,1023.001254,1023.806143,,,,,,,,,,,,,,,,,,,,,,,,,,,,,,,,,1,,,,,,,,,,,,,,,,,,,,,,,,,,,,,,,,,,,,,,,,,,,,,,42,143515,22,Female,1,2024/02/09_11:07:35,YZ,59.92482646
,,,,,,practice,0,9,3,788,1,N,0,right,0.579193076,1,0,,,,,,,,,,,,,,,,,,,,,1,,,,,,,,,,,,,,,,,,,,,,,,,,,,,,,,,,,,,,,,,,,,,,42,143515,22,Female,1,2024/02/09_11:07:35,YZ,59.92482646
