Instruction,Stimulus,Key,RT,START,END,Phase,Block,TrialN,NbackLevel,ISI,LetterN,Letter,Letter_isSame,Letter_Resp,Letter_RT,Letter_Accuracy,Letter_Timeout,Trial_A_measure,Trial_HR,Trial_FAR,Trial_CDR,Trial_MSR,Trial_ACC,Trial_RT,Trial_HitsCount,Trial_FAsCount,Trial_SameNoRespCount,Trial_DiffNoRespCount,Trial_NoRespCount,Trial_CDsCount,Trial_CorrectRespCount,Trial_SameLetterCount,Trial_DiffLetterCount,Trial_InvalidLetterCount,TrialCountCali,CaliEnd_A_measure,ISI_calibrated,Run,TrialIndex,TrialNumber_total,TrialNumber_valid,CueLearning,TrialDemandLearning,CueMapping,OnlineRating,OnlineRatingRT,OnlineRatingTimeOut,CueSTART,RatingSTART,OfflineRatingTimePoint,OfflineRatingQuesIndex,CueFigure,TrialDemand,OfflineRating,OfflineRatingRT,CueStart,OfflineRatingStart,PhaseType,CueLeft,CueDemandLeft,CueRight,CueDemandRight,Choice,ChoiceDemand,TaskDemand,ChoiceRT,ChoiceTimeOut,ChoiceSTART,CueCheck,CueDemandCheck,CorrectAnswer,Answer,AnswerDemand,AnswerRT,AnswerACC,AnswerTimeOut,CheckSTART,DemandRatingQuesIndex,QuesTLX,DemandLevel,DemandRating,DemandRatingRT,QuesStart,PID,SONA,Age,Gender,Run,TIME,EXPERIMENTER,frameRate,
1,./instructions/inst_begin/Slide2.png,right,20.623281028994825,0.12038197999936529,20.74366300899419,,,,,,,,,,,,,,,,,,,,,,,,,,,,,,,,,1,,,,,,,,,,,,,,,,,,,,,,,,,,,,,,,,,,,,,,,,,,,,,,80,152152,23,Female,1,2024/02/27_10:59:33,YZ,None,
2,./instructions/inst_begin/Slide3.png,right,9.321365515992511,20.782179926987737,30.10354544298025,,,,,,,,,,,,,,,,,,,,,,,,,,,,,,,,,1,,,,,,,,,,,,,,,,,,,,,,,,,,,,,,,,,,,,,,,,,,,,,,80,152152,23,Female,1,2024/02/27_10:59:33,YZ,None,
3,./instructions/inst_begin/Slide4.png,right,5.997159747988917,30.138454597996315,36.13561434598523,,,,,,,,,,,,,,,,,,,,,,,,,,,,,,,,,1,,,,,,,,,,,,,,,,,,,,,,,,,,,,,,,,,,,,,,,,,,,,,,80,152152,23,Female,1,2024/02/27_10:59:33,YZ,None,
1,./instructions/inst_prac_2/Slide6.png,right,17.688056404993404,36.17546819499694,53.86352459999034,,,,,,,,,,,,,,,,,,,,,,,,,,,,,,,,,1,,,,,,,,,,,,,,,,,,,,,,,,,,,,,,,,,,,,,,,,,,,,,,80,152152,23,Female,1,2024/02/27_10:59:33,YZ,None,
2,./instructions/inst_prac_2/Slide7.png,right,8.14971103699645,53.897969034005655,62.047680071002105,,,,,,,,,,,,,,,,,,,,,,,,,,,,,,,,,1,,,,,,,,,,,,,,,,,,,,,,,,,,,,,,,,,,,,,,,,,,,,,,80,152152,23,Female,1,2024/02/27_10:59:33,YZ,None,
3,./instructions/inst_prac_2/Slide8.png,right,5.9747836670139804,62.08087082798011,68.05565449499409,,,,,,,,,,,,,,,,,,,,,,,,,,,,,,,,,1,,,,,,,,,,,,,,,,,,,,,,,,,,,,,,,,,,,,,,,,,,,,,,80,152152,23,Female,1,2024/02/27_10:59:33,YZ,None,
4,./instructions/inst_prac_2/Slide9.png,right,5.544664090994047,68.08700565900654,73.63166975000058,,,,,,,,,,,,,,,,,,,,,,,,,,,,,,,,,1,,,,,,,,,,,,,,,,,,,,,,,,,,,,,,,,,,,,,,,,,,,,,,80,152152,23,Female,1,2024/02/27_10:59:33,YZ,None,
5,./instructions/inst_prac_2/Slide10.png,right,2.158047553006327,73.66558842599625,75.82363597900257,,,,,,,,,,,,,,,,,,,,,,,,,,,,,,,,,1,,,,,,,,,,,,,,,,,,,,,,,,,,,,,,,,,,,,,,,,,,,,,,80,152152,23,Female,1,2024/02/27_10:59:33,YZ,None,
6,./instructions/inst_prac_2/Slide11.png,right,1.9421201169898268,75.85756264900556,77.79968276599539,,,,,,,,,,,,,,,,,,,,,,,,,,,,,,,,,1,,,,,,,,,,,,,,,,,,,,,,,,,,,,,,,,,,,,,,,,,,,,,,80,152152,23,Female,1,2024/02/27_10:59:33,YZ,None,
7,./instructions/inst_prac_2/Slide12.png,right,1.5735658990161028,77.83416377098183,79.40772966999793,,,,,,,,,,,,,,,,,,,,,,,,,,,,,,,,,1,,,,,,,,,,,,,,,,,,,,,,,,,,,,,,,,,,,,,,,,,,,,,,80,152152,23,Female,1,2024/02/27_10:59:33,YZ,None,
8,./instructions/inst_prac_2/Slide13.png,right,1.3097795709909406,79.44175255700247,80.75153212799341,,,,,,,,,,,,,,,,,,,,,,,,,,,,,,,,,1,,,,,,,,,,,,,,,,,,,,,,,,,,,,,,,,,,,,,,,,,,,,,,80,152152,23,Female,1,2024/02/27_10:59:33,YZ,None,
7,./instructions/inst_prac_2/Slide14.png,left,2.422306867025327,80.78549636297976,83.20780323000508,,,,,,,,,,,,,,,,,,,,,,,,,,,,,,,,,1,,,,,,,,,,,,,,,,,,,,,,,,,,,,,,,,,,,,,,,,,,,,,,80,152152,23,Female,1,2024/02/27_10:59:33,YZ,None,
8,./instructions/inst_prac_2/Slide13.png,right,4.453621903987369,83.24191397399409,87.69553587798146,,,,,,,,,,,,,,,,,,,,,,,,,,,,,,,,,1,,,,,,,,,,,,,,,,,,,,,,,,,,,,,,,,,,,,,,,,,,,,,,80,152152,23,Female,1,2024/02/27_10:59:33,YZ,None,
9,./instructions/inst_prac_2/Slide14.png,right,9.669290093996096,87.73023235300207,97.39952244699816,,,,,,,,,,,,,,,,,,,,,,,,,,,,,,,,,1,,,,,,,,,,,,,,,,,,,,,,,,,,,,,,,,,,,,,,,,,,,,,,80,152152,23,Female,1,2024/02/27_10:59:33,YZ,None,
8,./instructions/inst_prac_2/Slide15.png,left,1.8462160719791427,97.43348474300001,99.27970081497915,,,,,,,,,,,,,,,,,,,,,,,,,,,,,,,,,1,,,,,,,,,,,,,,,,,,,,,,,,,,,,,,,,,,,,,,,,,,,,,,80,152152,23,Female,1,2024/02/27_10:59:33,YZ,None,
9,./instructions/inst_prac_2/Slide14.png,right,0.7486056839989033,99.30698069298523,100.05558637698414,,,,,,,,,,,,,,,,,,,,,,,,,,,,,,,,,1,,,,,,,,,,,,,,,,,,,,,,,,,,,,,,,,,,,,,,,,,,,,,,80,152152,23,Female,1,2024/02/27_10:59:33,YZ,None,
10,./instructions/inst_prac_2/Slide15.png,right,13.582113237003796,100.08949888098869,113.67161211799248,,,,,,,,,,,,,,,,,,,,,,,,,,,,,,,,,1,,,,,,,,,,,,,,,,,,,,,,,,,,,,,,,,,,,,,,,,,,,,,,80,152152,23,Female,1,2024/02/27_10:59:33,YZ,None,
,,,,,,practice,0,23,2,2583,1,S,0,right,2.4574030759977177,1,0,,,,,,,,,,,,,,,,,,,,,1,,,,,,,,,,,,,,,,,,,,,,,,,,,,,,,,,,,,,,,,,,,,,,80,152152,23,Female,1,2024/02/27_10:59:33,YZ,None,
,,,,,,practice,0,23,2,2583,2,J,0,right,0.8913664439751301,1,0,,,,,,,,,,,,,,,,,,,,,1,,,,,,,,,,,,,,,,,,,,,,,,,,,,,,,,,,,,,,,,,,,,,,80,152152,23,Female,1,2024/02/27_10:59:33,YZ,None,
,,,,,,practice,0,23,2,2583,3,S,1,left,0.9922543409920763,1,0,,,,,,,,,,,,,,,,,,,,,1,,,,,,,,,,,,,,,,,,,,,,,,,,,,,,,,,,,,,,,,,,,,,,80,152152,23,Female,1,2024/02/27_10:59:33,YZ,None,
,,,,,,practice,0,23,2,2583,4,X,0,right,0.9864124490122776,1,0,,,,,,,,,,,,,,,,,,,,,1,,,,,,,,,,,,,,,,,,,,,,,,,,,,,,,,,,,,,,,,,,,,,,80,152152,23,Female,1,2024/02/27_10:59:33,YZ,None,
,,,,,,practice,0,23,2,2583,5,Q,0,right,0.9582467599830125,1,0,,,,,,,,,,,,,,,,,,,,,1,,,,,,,,,,,,,,,,,,,,,,,,,,,,,,,,,,,,,,,,,,,,,,80,152152,23,Female,1,2024/02/27_10:59:33,YZ,None,
,,,,,,practice,0,23,2,2583,6,X,1,left,1.136768052005209,1,0,,,,,,,,,,,,,,,,,,,,,1,,,,,,,,,,,,,,,,,,,,,,,,,,,,,,,,,,,,,,,,,,,,,,80,152152,23,Female,1,2024/02/27_10:59:33,YZ,None,
,,,,,,practice,0,23,2,2583,,,,,,,,1.0,1.0,0.0,1.0,0.0,1.0,1.2370751869942371,2,0,0,0,0,4,6,2,4,0,,,,1,,,,,,,,,,,,,,,,,,,,,,,,,,,,,,,,,,,,,,,,,,,,,,80,152152,23,Female,1,2024/02/27_10:59:33,YZ,None,
1,./instructions/inst_to_cali/Slide20.png,right,4.160408638010267,127.43913628498558,131.59954492299585,,,,,,,,,,,,,,,,,,,,,,,,,,,,,,,,,1,,,,,,,,,,,,,,,,,,,,,,,,,,,,,,,,,,,,,,,,,,,,,,80,152152,23,Female,1,2024/02/27_10:59:33,YZ,None,
1,./instructions/inst_cali/Slide22.png,right,7.085813201003475,131.64208015598706,138.72789335699053,,,,,,,,,,,,,,,,,,,,,,,,,,,,,,,,,1,,,,,,,,,,,,,,,,,,,,,,,,,,,,,,,,,,,,,,,,,,,,,,80,152152,23,Female,1,2024/02/27_10:59:33,YZ,None,
,,,,,,calibration,0,23,2,583,1,X,0,right,0.3085567490197718,1,0,,,,,,,,,,,,,,,,,,,,,1,,,,,,,,,,,,,,,,,,,,,,,,,,,,,,,,,,,,,,,,,,,,,,80,152152,23,Female,1,2024/02/27_10:59:33,YZ,None,
,,,,,,calibration,0,23,2,583,2,Q,0,right,0.34067750300164334,1,0,,,,,,,,,,,,,,,,,,,,,1,,,,,,,,,,,,,,,,,,,,,,,,,,,,,,,,,,,,,,,,,,,,,,80,152152,23,Female,1,2024/02/27_10:59:33,YZ,None,
,,,,,,calibration,0,23,2,583,3,S,0,right,0.448700811015442,1,0,,,,,,,,,,,,,,,,,,,,,1,,,,,,,,,,,,,,,,,,,,,,,,,,,,,,,,,,,,,,,,,,,,,,80,152152,23,Female,1,2024/02/27_10:59:33,YZ,None,
,,,,,,calibration,0,23,2,583,4,F,0,right,0.5675454569864087,1,0,,,,,,,,,,,,,,,,,,,,,1,,,,,,,,,,,,,,,,,,,,,,,,,,,,,,,,,,,,,,,,,,,,,,80,152152,23,Female,1,2024/02/27_10:59:33,YZ,None,
,,,,,,calibration,0,23,2,583,5,Q,0,right,0.3801560419960879,1,0,,,,,,,,,,,,,,,,,,,,,1,,,,,,,,,,,,,,,,,,,,,,,,,,,,,,,,,,,,,,,,,,,,,,80,152152,23,Female,1,2024/02/27_10:59:33,YZ,None,
,,,,,,calibration,0,23,2,583,6,S,0,right,0.5778032579983119,1,0,,,,,,,,,,,,,,,,,,,,,1,,,,,,,,,,,,,,,,,,,,,,,,,,,,,,,,,,,,,,,,,,,,,,80,152152,23,Female,1,2024/02/27_10:59:33,YZ,None,
,,,,,,calibration,0,23,2,583,7,Q,1,right,0.2535496090131346,0,0,,,,,,,,,,,,,,,,,,,,,1,,,,,,,,,,,,,,,,,,,,,,,,,,,,,,,,,,,,,,,,,,,,,,80,152152,23,Female,1,2024/02/27_10:59:33,YZ,None,
,,,,,,calibration,0,23,2,583,8,S,1,left,0.624464481981704,1,0,,,,,,,,,,,,,,,,,,,,,1,,,,,,,,,,,,,,,,,,,,,,,,,,,,,,,,,,,,,,,,,,,,,,80,152152,23,Female,1,2024/02/27_10:59:33,YZ,None,
,,,,,,calibration,0,23,2,583,9,C,0,right,0.23690082799294032,1,0,,,,,,,,,,,,,,,,,,,,,1,,,,,,,,,,,,,,,,,,,,,,,,,,,,,,,,,,,,,,,,,,,,,,80,152152,23,Female,1,2024/02/27_10:59:33,YZ,None,
,,,,,,calibration,0,23,2,583,10,N,0,left,0.23613330398802646,0,0,,,,,,,,,,,,,,,,,,,,,1,,,,,,,,,,,,,,,,,,,,,,,,,,,,,,,,,,,,,,,,,,,,,,80,152152,23,Female,1,2024/02/27_10:59:33,YZ,None,
,,,,,,calibration,0,23,2,583,11,J,0,right,0.1433555280091241,1,0,,,,,,,,,,,,,,,,,,,,,1,,,,,,,,,,,,,,,,,,,,,,,,,,,,,,,,,,,,,,,,,,,,,,80,152152,23,Female,1,2024/02/27_10:59:33,YZ,None,
,,,,,,calibration,0,23,2,583,12,C,0,right,0.20940615300787613,1,0,,,,,,,,,,,,,,,,,,,,,1,,,,,,,,,,,,,,,,,,,,,,,,,,,,,,,,,,,,,,,,,,,,,,80,152152,23,Female,1,2024/02/27_10:59:33,YZ,None,
,,,,,,calibration,0,23,2,583,13,J,1,right,0.2742139269830659,0,0,,,,,,,,,,,,,,,,,,,,,1,,,,,,,,,,,,,,,,,,,,,,,,,,,,,,,,,,,,,,,,,,,,,,80,152152,23,Female,1,2024/02/27_10:59:33,YZ,None,
,,,,,,calibration,0,23,2,583,14,C,1,right,0.34561762801604345,0,0,,,,,,,,,,,,,,,,,,,,,1,,,,,,,,,,,,,,,,,,,,,,,,,,,,,,,,,,,,,,,,,,,,,,80,152152,23,Female,1,2024/02/27_10:59:33,YZ,None,
,,,,,,calibration,0,23,2,583,15,X,0,right,0.6552614420070313,1,0,,,,,,,,,,,,,,,,,,,,,1,,,,,,,,,,,,,,,,,,,,,,,,,,,,,,,,,,,,,,,,,,,,,,80,152152,23,Female,1,2024/02/27_10:59:33,YZ,None,
,,,,,,calibration,0,23,2,583,,,,,,,,0.6988636363636364,0.25,0.09090909090909091,0.9090909090909091,0.0,0.9090909090909091,0.3734895147344408,1,1,0,0,0,10,11,4,11,0,,,,1,,,,,,,,,,,,,,,,,,,,,,,,,,,,,,,,,,,,,,,,,,,,,,80,152152,23,Female,1,2024/02/27_10:59:33,YZ,None,
,,,,,,Calibration,0,,2,583,,,,,,,,,,,,,,,,,,,,,,,,,1,,,1,,,,,,,,,,,,,,,,,,,,,,,,,,,,,,,,,,,,,,,,,,,,,,80,152152,23,Female,1,2024/02/27_10:59:33,YZ,None,
,,,,,,calibration,0,29,2,679,1,N,0,right,0.39447555199149065,1,0,,,,,,,,,,,,,,,,,,,,,1,,,,,,,,,,,,,,,,,,,,,,,,,,,,,,,,,,,,,,,,,,,,,,80,152152,23,Female,1,2024/02/27_10:59:33,YZ,None,
,,,,,,calibration,0,29,2,679,2,S,0,right,0.24997344400617294,1,0,,,,,,,,,,,,,,,,,,,,,1,,,,,,,,,,,,,,,,,,,,,,,,,,,,,,,,,,,,,,,,,,,,,,80,152152,23,Female,1,2024/02/27_10:59:33,YZ,None,
,,,,,,calibration,0,29,2,679,3,J,0,right,0.2798920210043434,1,0,,,,,,,,,,,,,,,,,,,,,1,,,,,,,,,,,,,,,,,,,,,,,,,,,,,,,,,,,,,,,,,,,,,,80,152152,23,Female,1,2024/02/27_10:59:33,YZ,None,
,,,,,,calibration,0,29,2,679,4,S,1,left,0.4262959539773874,1,0,,,,,,,,,,,,,,,,,,,,,1,,,,,,,,,,,,,,,,,,,,,,,,,,,,,,,,,,,,,,,,,,,,,,80,152152,23,Female,1,2024/02/27_10:59:33,YZ,None,
,,,,,,calibration,0,29,2,679,5,J,1,right,0.2468185920151882,0,0,,,,,,,,,,,,,,,,,,,,,1,,,,,,,,,,,,,,,,,,,,,,,,,,,,,,,,,,,,,,,,,,,,,,80,152152,23,Female,1,2024/02/27_10:59:33,YZ,None,
,,,,,,calibration,0,29,2,679,6,N,0,right,0.44460544901085086,1,0,,,,,,,,,,,,,,,,,,,,,1,,,,,,,,,,,,,,,,,,,,,,,,,,,,,,,,,,,,,,,,,,,,,,80,152152,23,Female,1,2024/02/27_10:59:33,YZ,None,
,,,,,,calibration,0,29,2,679,7,X,0,right,0.32459861401002854,1,0,,,,,,,,,,,,,,,,,,,,,1,,,,,,,,,,,,,,,,,,,,,,,,,,,,,,,,,,,,,,,,,,,,,,80,152152,23,Female,1,2024/02/27_10:59:33,YZ,None,
,,,,,,calibration,0,29,2,679,8,S,0,right,0.25748482599738054,1,0,,,,,,,,,,,,,,,,,,,,,1,,,,,,,,,,,,,,,,,,,,,,,,,,,,,,,,,,,,,,,,,,,,,,80,152152,23,Female,1,2024/02/27_10:59:33,YZ,None,
,,,,,,calibration,0,29,2,679,9,Q,0,right,0.37395035999361426,1,0,,,,,,,,,,,,,,,,,,,,,1,,,,,,,,,,,,,,,,,,,,,,,,,,,,,,,,,,,,,,,,,,,,,,80,152152,23,Female,1,2024/02/27_10:59:33,YZ,None,
,,,,,,calibration,0,29,2,679,10,N,0,right,0.4727065340266563,1,0,,,,,,,,,,,,,,,,,,,,,1,,,,,,,,,,,,,,,,,,,,,,,,,,,,,,,,,,,,,,,,,,,,,,80,152152,23,Female,1,2024/02/27_10:59:33,YZ,None,
,,,,,,calibration,0,29,2,679,11,C,0,right,0.6956753609993029,1,0,,,,,,,,,,,,,,,,,,,,,1,,,,,,,,,,,,,,,,,,,,,,,,,,,,,,,,,,,,,,,,,,,,,,80,152152,23,Female,1,2024/02/27_10:59:33,YZ,None,
,,,,,,calibration,0,29,2,679,12,Q,0,right,0.5711255429778248,1,0,,,,,,,,,,,,,,,,,,,,,1,,,,,,,,,,,,,,,,,,,,,,,,,,,,,,,,,,,,,,,,,,,,,,80,152152,23,Female,1,2024/02/27_10:59:33,YZ,None,
,,,,,,calibration,0,29,2,679,13,C,1,right,0.6437472109973896,0,0,,,,,,,,,,,,,,,,,,,,,1,,,,,,,,,,,,,,,,,,,,,,,,,,,,,,,,,,,,,,,,,,,,,,80,152152,23,Female,1,2024/02/27_10:59:33,YZ,None,
,,,,,,calibration,0,29,2,679,14,Q,1,right,0.583161510003265,0,0,,,,,,,,,,,,,,,,,,,,,1,,,,,,,,,,,,,,,,,,,,,,,,,,,,,,,,,,,,,,,,,,,,,,80,152152,23,Female,1,2024/02/27_10:59:33,YZ,None,
,,,,,,calibration,0,29,2,679,,,,,,,,0.8125,0.25,0.0,1.0,0.0,1.0,0.42603649792934967,1,0,0,0,0,10,11,4,10,0,,,,1,,,,,,,,,,,,,,,,,,,,,,,,,,,,,,,,,,,,,,,,,,,,,,80,152152,23,Female,1,2024/02/27_10:59:33,YZ,None,
,,,,,,Calibration,0,,2,679,,,,,,,,,,,,,,,,,,,,,,,,,2,,,1,,,,,,,,,,,,,,,,,,,,,,,,,,,,,,,,,,,,,,,,,,,,,,80,152152,23,Female,1,2024/02/27_10:59:33,YZ,None,
,,,,,,calibration,0,29,2,679,1,N,0,right,0.3629663100000471,1,0,,,,,,,,,,,,,,,,,,,,,1,,,,,,,,,,,,,,,,,,,,,,,,,,,,,,,,,,,,,,,,,,,,,,80,152152,23,Female,1,2024/02/27_10:59:33,YZ,None,
,,,,,,calibration,0,29,2,679,2,S,0,right,0.20510386198293418,1,0,,,,,,,,,,,,,,,,,,,,,1,,,,,,,,,,,,,,,,,,,,,,,,,,,,,,,,,,,,,,,,,,,,,,80,152152,23,Female,1,2024/02/27_10:59:33,YZ,None,
,,,,,,calibration,0,29,2,679,3,J,0,right,0.3683970409911126,1,0,,,,,,,,,,,,,,,,,,,,,1,,,,,,,,,,,,,,,,,,,,,,,,,,,,,,,,,,,,,,,,,,,,,,80,152152,23,Female,1,2024/02/27_10:59:33,YZ,None,
,,,,,,calibration,0,29,2,679,4,S,1,right,0.5104641730140429,0,0,,,,,,,,,,,,,,,,,,,,,1,,,,,,,,,,,,,,,,,,,,,,,,,,,,,,,,,,,,,,,,,,,,,,80,152152,23,Female,1,2024/02/27_10:59:33,YZ,None,
,,,,,,calibration,0,29,2,679,5,J,1,right,0.317193977010902,0,0,,,,,,,,,,,,,,,,,,,,,1,,,,,,,,,,,,,,,,,,,,,,,,,,,,,,,,,,,,,,,,,,,,,,80,152152,23,Female,1,2024/02/27_10:59:33,YZ,None,
,,,,,,calibration,0,29,2,679,6,N,0,right,0.40487931299139746,1,0,,,,,,,,,,,,,,,,,,,,,1,,,,,,,,,,,,,,,,,,,,,,,,,,,,,,,,,,,,,,,,,,,,,,80,152152,23,Female,1,2024/02/27_10:59:33,YZ,None,
,,,,,,calibration,0,29,2,679,7,X,0,right,0.2886482150061056,1,0,,,,,,,,,,,,,,,,,,,,,1,,,,,,,,,,,,,,,,,,,,,,,,,,,,,,,,,,,,,,,,,,,,,,80,152152,23,Female,1,2024/02/27_10:59:33,YZ,None,
,,,,,,calibration,0,29,2,679,8,S,0,right,0.32833651499822736,1,0,,,,,,,,,,,,,,,,,,,,,1,,,,,,,,,,,,,,,,,,,,,,,,,,,,,,,,,,,,,,,,,,,,,,80,152152,23,Female,1,2024/02/27_10:59:33,YZ,None,
,,,,,,calibration,0,29,2,679,9,Q,0,right,0.6260465229861438,1,0,,,,,,,,,,,,,,,,,,,,,1,,,,,,,,,,,,,,,,,,,,,,,,,,,,,,,,,,,,,,,,,,,,,,80,152152,23,Female,1,2024/02/27_10:59:33,YZ,None,
,,,,,,calibration,0,29,2,679,10,N,0,right,0.5360289380187169,1,0,,,,,,,,,,,,,,,,,,,,,1,,,,,,,,,,,,,,,,,,,,,,,,,,,,,,,,,,,,,,,,,,,,,,80,152152,23,Female,1,2024/02/27_10:59:33,YZ,None,
,,,,,,calibration,0,29,2,679,11,C,0,right,0.6023134429997299,1,0,,,,,,,,,,,,,,,,,,,,,1,,,,,,,,,,,,,,,,,,,,,,,,,,,,,,,,,,,,,,,,,,,,,,80,152152,23,Female,1,2024/02/27_10:59:33,YZ,None,
,,,,,,calibration,0,29,2,679,12,Q,0,left,0.8468988219974563,0,0,,,,,,,,,,,,,,,,,,,,,1,,,,,,,,,,,,,,,,,,,,,,,,,,,,,,,,,,,,,,,,,,,,,,80,152152,23,Female,1,2024/02/27_10:59:33,YZ,None,
,,,,,,calibration,0,29,2,679,13,C,1,right,0.6586272040149197,0,0,,,,,,,,,,,,,,,,,,,,,1,,,,,,,,,,,,,,,,,,,,,,,,,,,,,,,,,,,,,,,,,,,,,,80,152152,23,Female,1,2024/02/27_10:59:33,YZ,None,
,,,,,,calibration,0,29,2,679,14,Q,1,left,0.6592240750032943,1,0,,,,,,,,,,,,,,,,,,,,,1,,,,,,,,,,,,,,,,,,,,,,,,,,,,,,,,,,,,,,,,,,,,,,80,152152,23,Female,1,2024/02/27_10:59:33,YZ,None,
,,,,,,calibration,0,29,2,679,,,,,,,,0.6875,0.25,0.1,0.9,0.0,0.9,0.47965202935821644,1,1,0,0,0,9,10,4,10,0,,,,1,,,,,,,,,,,,,,,,,,,,,,,,,,,,,,,,,,,,,,,,,,,,,,80,152152,23,Female,1,2024/02/27_10:59:33,YZ,None,
,,,,,,Calibration,0,,2,679,,,,,,,,,,,,,,,,,,,,,,,,,3,,,1,,,,,,,,,,,,,,,,,,,,,,,,,,,,,,,,,,,,,,,,,,,,,,80,152152,23,Female,1,2024/02/27_10:59:33,YZ,None,
,,,,,,calibration,0,24,2,788,1,N,0,right,0.22505614400142804,1,0,,,,,,,,,,,,,,,,,,,,,1,,,,,,,,,,,,,,,,,,,,,,,,,,,,,,,,,,,,,,,,,,,,,,80,152152,23,Female,1,2024/02/27_10:59:33,YZ,None,
,,,,,,calibration,0,24,2,788,2,J,0,right,0.22448999600601383,1,0,,,,,,,,,,,,,,,,,,,,,1,,,,,,,,,,,,,,,,,,,,,,,,,,,,,,,,,,,,,,,,,,,,,,80,152152,23,Female,1,2024/02/27_10:59:33,YZ,None,
,,,,,,calibration,0,24,2,788,3,S,0,right,0.3279726119944826,1,0,,,,,,,,,,,,,,,,,,,,,1,,,,,,,,,,,,,,,,,,,,,,,,,,,,,,,,,,,,,,,,,,,,,,80,152152,23,Female,1,2024/02/27_10:59:33,YZ,None,
,,,,,,calibration,0,24,2,788,4,N,0,left,0.5732530079840217,0,0,,,,,,,,,,,,,,,,,,,,,1,,,,,,,,,,,,,,,,,,,,,,,,,,,,,,,,,,,,,,,,,,,,,,80,152152,23,Female,1,2024/02/27_10:59:33,YZ,None,
,,,,,,calibration,0,24,2,788,5,J,0,right,0.23666309102554806,1,0,,,,,,,,,,,,,,,,,,,,,1,,,,,,,,,,,,,,,,,,,,,,,,,,,,,,,,,,,,,,,,,,,,,,80,152152,23,Female,1,2024/02/27_10:59:33,YZ,None,
,,,,,,calibration,0,24,2,788,6,N,1,right,0.2894562470028177,0,0,,,,,,,,,,,,,,,,,,,,,1,,,,,,,,,,,,,,,,,,,,,,,,,,,,,,,,,,,,,,,,,,,,,,80,152152,23,Female,1,2024/02/27_10:59:33,YZ,None,
,,,,,,calibration,0,24,2,788,7,C,0,right,0.6009618779935408,1,0,,,,,,,,,,,,,,,,,,,,,1,,,,,,,,,,,,,,,,,,,,,,,,,,,,,,,,,,,,,,,,,,,,,,80,152152,23,Female,1,2024/02/27_10:59:33,YZ,None,
,,,,,,calibration,0,24,2,788,8,N,1,left,0.4724186370149255,1,0,,,,,,,,,,,,,,,,,,,,,1,,,,,,,,,,,,,,,,,,,,,,,,,,,,,,,,,,,,,,,,,,,,,,80,152152,23,Female,1,2024/02/27_10:59:33,YZ,None,
,,,,,,calibration,0,24,2,788,9,X,0,right,0.2971401129907463,1,0,,,,,,,,,,,,,,,,,,,,,1,,,,,,,,,,,,,,,,,,,,,,,,,,,,,,,,,,,,,,,,,,,,,,80,152152,23,Female,1,2024/02/27_10:59:33,YZ,None,
,,,,,,calibration,0,24,2,788,10,J,0,right,0.6060852709924802,1,0,,,,,,,,,,,,,,,,,,,,,1,,,,,,,,,,,,,,,,,,,,,,,,,,,,,,,,,,,,,,,,,,,,,,80,152152,23,Female,1,2024/02/27_10:59:33,YZ,None,
,,,,,,calibration,0,24,2,788,11,C,0,right,0.679604393983027,1,0,,,,,,,,,,,,,,,,,,,,,1,,,,,,,,,,,,,,,,,,,,,,,,,,,,,,,,,,,,,,,,,,,,,,80,152152,23,Female,1,2024/02/27_10:59:33,YZ,None,
,,,,,,calibration,0,24,2,788,12,J,1,right,0.448113706021104,0,0,,,,,,,,,,,,,,,,,,,,,1,,,,,,,,,,,,,,,,,,,,,,,,,,,,,,,,,,,,,,,,,,,,,,80,152152,23,Female,1,2024/02/27_10:59:33,YZ,None,
,,,,,,calibration,0,24,2,788,13,C,1,left,0.6060980169859249,1,0,,,,,,,,,,,,,,,,,,,,,1,,,,,,,,,,,,,,,,,,,,,,,,,,,,,,,,,,,,,,,,,,,,,,80,152152,23,Female,1,2024/02/27_10:59:33,YZ,None,
,,,,,,calibration,0,24,2,788,,,,,,,,0.7916666666666666,0.5,0.1111111111111111,0.8888888888888888,0.0,0.8888888888888888,0.4297933164612354,2,1,0,0,0,8,10,4,9,0,,,,1,,,,,,,,,,,,,,,,,,,,,,,,,,,,,,,,,,,,,,,,,,,,,,80,152152,23,Female,1,2024/02/27_10:59:33,YZ,None,
,,,,,,Calibration,0,,2,788,,,,,,,,,,,,,,,,,,,,,,,,,4,,,1,,,,,,,,,,,,,,,,,,,,,,,,,,,,,,,,,,,,,,,,,,,,,,80,152152,23,Female,1,2024/02/27_10:59:33,YZ,None,
,,,,,,calibration,0,9,2,788,1,S,0,right,0.25800398297724314,1,0,,,,,,,,,,,,,,,,,,,,,1,,,,,,,,,,,,,,,,,,,,,,,,,,,,,,,,,,,,,,,,,,,,,,80,152152,23,Female,1,2024/02/27_10:59:33,YZ,None,
,,,,,,calibration,0,9,2,788,2,X,0,right,0.28189383598510176,1,0,,,,,,,,,,,,,,,,,,,,,1,,,,,,,,,,,,,,,,,,,,,,,,,,,,,,,,,,,,,,,,,,,,,,80,152152,23,Female,1,2024/02/27_10:59:33,YZ,None,
,,,,,,calibration,0,9,2,788,3,F,0,right,0.5171310539881233,1,0,,,,,,,,,,,,,,,,,,,,,1,,,,,,,,,,,,,,,,,,,,,,,,,,,,,,,,,,,,,,,,,,,,,,80,152152,23,Female,1,2024/02/27_10:59:33,YZ,None,
,,,,,,calibration,0,9,2,788,4,X,1,right,1.0061981489998288,0,0,,,,,,,,,,,,,,,,,,,,,1,,,,,,,,,,,,,,,,,,,,,,,,,,,,,,,,,,,,,,,,,,,,,,80,152152,23,Female,1,2024/02/27_10:59:33,YZ,None,
,,,,,,calibration,0,9,2,788,5,F,1,left,0.7726236350135878,1,0,,,,,,,,,,,,,,,,,,,,,1,,,,,,,,,,,,,,,,,,,,,,,,,,,,,,,,,,,,,,,,,,,,,,80,152152,23,Female,1,2024/02/27_10:59:33,YZ,None,
,,,,,,calibration,0,9,2,788,6,V,0,right,0.3479027939902153,1,0,,,,,,,,,,,,,,,,,,,,,1,,,,,,,,,,,,,,,,,,,,,,,,,,,,,,,,,,,,,,,,,,,,,,80,152152,23,Female,1,2024/02/27_10:59:33,YZ,None,
,,,,,,calibration,0,9,2,788,7,F,1,left,0.6334071230085101,1,0,,,,,,,,,,,,,,,,,,,,,1,,,,,,,,,,,,,,,,,,,,,,,,,,,,,,,,,,,,,,,,,,,,,,80,152152,23,Female,1,2024/02/27_10:59:33,YZ,None,
,,,,,,calibration,0,9,2,788,8,V,1,right,0.2878243759914767,0,0,,,,,,,,,,,,,,,,,,,,,1,,,,,,,,,,,,,,,,,,,,,,,,,,,,,,,,,,,,,,,,,,,,,,80,152152,23,Female,1,2024/02/27_10:59:33,YZ,None,
,,,,,,calibration,0,9,2,788,9,Q,0,right,0.431948295008624,1,0,,,,,,,,,,,,,,,,,,,,,1,,,,,,,,,,,,,,,,,,,,,,,,,,,,,,,,,,,,,,,,,,,,,,80,152152,23,Female,1,2024/02/27_10:59:33,YZ,None,
,,,,,,calibration,0,9,2,788,10,J,0,left,0.4831624150101561,0,0,,,,,,,,,,,,,,,,,,,,,1,,,,,,,,,,,,,,,,,,,,,,,,,,,,,,,,,,,,,,,,,,,,,,80,152152,23,Female,1,2024/02/27_10:59:33,YZ,None,
,,,,,,calibration,0,9,2,788,11,X,0,right,0.47205645198118873,1,0,,,,,,,,,,,,,,,,,,,,,1,,,,,,,,,,,,,,,,,,,,,,,,,,,,,,,,,,,,,,,,,,,,,,80,152152,23,Female,1,2024/02/27_10:59:33,YZ,None,
,,,,,,calibration,0,9,2,788,12,Q,0,right,0.3673102970060427,1,0,,,,,,,,,,,,,,,,,,,,,1,,,,,,,,,,,,,,,,,,,,,,,,,,,,,,,,,,,,,,,,,,,,,,80,152152,23,Female,1,2024/02/27_10:59:33,YZ,None,
,,,,,,calibration,0,9,2,788,13,V,0,left,0.5327126209740527,0,0,,,,,,,,,,,,,,,,,,,,,1,,,,,,,,,,,,,,,,,,,,,,,,,,,,,,,,,,,,,,,,,,,,,,80,152152,23,Female,1,2024/02/27_10:59:33,YZ,None,
,,,,,,calibration,0,9,2,788,,,,,,,,0.7083333333333333,0.5,0.2222222222222222,0.7777777777777778,0.0,0.7777777777777778,0.49170577153339623,2,2,0,0,0,7,9,4,9,0,,,,1,,,,,,,,,,,,,,,,,,,,,,,,,,,,,,,,,,,,,,,,,,,,,,80,152152,23,Female,1,2024/02/27_10:59:33,YZ,None,
,,,,,,Calibration,0,,2,788,,,,,,,,,,,,,,,,,,,,,,,,,5,,,1,,,,,,,,,,,,,,,,,,,,,,,,,,,,,,,,,,,,,,,,,,,,,,80,152152,23,Female,1,2024/02/27_10:59:33,YZ,None,
,,,,,,calibration,0,20,2,917,1,V,0,right,0.08134874299867079,1,0,,,,,,,,,,,,,,,,,,,,,1,,,,,,,,,,,,,,,,,,,,,,,,,,,,,,,,,,,,,,,,,,,,,,80,152152,23,Female,1,2024/02/27_10:59:33,YZ,None,
,,,,,,calibration,0,20,2,917,2,S,0,right,0.15701251701102592,1,0,,,,,,,,,,,,,,,,,,,,,1,,,,,,,,,,,,,,,,,,,,,,,,,,,,,,,,,,,,,,,,,,,,,,80,152152,23,Female,1,2024/02/27_10:59:33,YZ,None,
,,,,,,calibration,0,20,2,917,3,V,1,left,0.6938473539776169,1,0,,,,,,,,,,,,,,,,,,,,,1,,,,,,,,,,,,,,,,,,,,,,,,,,,,,,,,,,,,,,,,,,,,,,80,152152,23,Female,1,2024/02/27_10:59:33,YZ,None,
,,,,,,calibration,0,20,2,917,4,X,0,right,0.6283608069934417,1,0,,,,,,,,,,,,,,,,,,,,,1,,,,,,,,,,,,,,,,,,,,,,,,,,,,,,,,,,,,,,,,,,,,,,80,152152,23,Female,1,2024/02/27_10:59:33,YZ,None,
,,,,,,calibration,0,20,2,917,5,F,0,right,0.47349534899694845,1,0,,,,,,,,,,,,,,,,,,,,,1,,,,,,,,,,,,,,,,,,,,,,,,,,,,,,,,,,,,,,,,,,,,,,80,152152,23,Female,1,2024/02/27_10:59:33,YZ,None,
,,,,,,calibration,0,20,2,917,6,J,0,right,0.58156940099434,1,0,,,,,,,,,,,,,,,,,,,,,1,,,,,,,,,,,,,,,,,,,,,,,,,,,,,,,,,,,,,,,,,,,,,,80,152152,23,Female,1,2024/02/27_10:59:33,YZ,None,
,,,,,,calibration,0,20,2,917,7,V,0,left,0.6915123240032699,0,0,,,,,,,,,,,,,,,,,,,,,1,,,,,,,,,,,,,,,,,,,,,,,,,,,,,,,,,,,,,,,,,,,,,,80,152152,23,Female,1,2024/02/27_10:59:33,YZ,None,
,,,,,,calibration,0,20,2,917,8,N,0,right,0.4998931830050424,1,0,,,,,,,,,,,,,,,,,,,,,1,,,,,,,,,,,,,,,,,,,,,,,,,,,,,,,,,,,,,,,,,,,,,,80,152152,23,Female,1,2024/02/27_10:59:33,YZ,None,
,,,,,,calibration,0,20,2,917,9,F,0,left,0.7942220219993033,0,0,,,,,,,,,,,,,,,,,,,,,1,,,,,,,,,,,,,,,,,,,,,,,,,,,,,,,,,,,,,,,,,,,,,,80,152152,23,Female,1,2024/02/27_10:59:33,YZ,None,
,,,,,,calibration,0,20,2,917,10,N,1,right,0.3246516400249675,0,0,,,,,,,,,,,,,,,,,,,,,1,,,,,,,,,,,,,,,,,,,,,,,,,,,,,,,,,,,,,,,,,,,,,,80,152152,23,Female,1,2024/02/27_10:59:33,YZ,None,
,,,,,,calibration,0,20,2,917,11,F,1,left,0.6390452479827218,1,0,,,,,,,,,,,,,,,,,,,,,1,,,,,,,,,,,,,,,,,,,,,,,,,,,,,,,,,,,,,,,,,,,,,,80,152152,23,Female,1,2024/02/27_10:59:33,YZ,None,
,,,,,,calibration,0,20,2,917,12,V,0,right,0.5704088160127867,1,0,,,,,,,,,,,,,,,,,,,,,1,,,,,,,,,,,,,,,,,,,,,,,,,,,,,,,,,,,,,,,,,,,,,,80,152152,23,Female,1,2024/02/27_10:59:33,YZ,None,
,,,,,,calibration,0,20,2,917,,,,,,,,0.7870370370370371,0.6666666666666666,0.2222222222222222,0.7777777777777778,0.0,0.7777777777777778,0.5112806170000113,2,2,0,0,0,7,9,3,9,0,,,,1,,,,,,,,,,,,,,,,,,,,,,,,,,,,,,,,,,,,,,,,,,,,,,80,152152,23,Female,1,2024/02/27_10:59:33,YZ,None,
,,,,,,Calibration,0,,2,917,,,,,,,,,,,,,,,,,,,,,,,,,6,,,1,,,,,,,,,,,,,,,,,,,,,,,,,,,,,,,,,,,,,,,,,,,,,,80,152152,23,Female,1,2024/02/27_10:59:33,YZ,None,
,,,,,,calibration,0,12,2,917,1,S,0,right,0.27685767100774683,1,0,,,,,,,,,,,,,,,,,,,,,1,,,,,,,,,,,,,,,,,,,,,,,,,,,,,,,,,,,,,,,,,,,,,,80,152152,23,Female,1,2024/02/27_10:59:33,YZ,None,
,,,,,,calibration,0,12,2,917,2,Q,0,right,0.35658832601620816,1,0,,,,,,,,,,,,,,,,,,,,,1,,,,,,,,,,,,,,,,,,,,,,,,,,,,,,,,,,,,,,,,,,,,,,80,152152,23,Female,1,2024/02/27_10:59:33,YZ,None,
,,,,,,calibration,0,12,2,917,3,V,0,right,0.5659271650074515,1,0,,,,,,,,,,,,,,,,,,,,,1,,,,,,,,,,,,,,,,,,,,,,,,,,,,,,,,,,,,,,,,,,,,,,80,152152,23,Female,1,2024/02/27_10:59:33,YZ,None,
,,,,,,calibration,0,12,2,917,4,N,0,right,0.69078632700257,1,0,,,,,,,,,,,,,,,,,,,,,1,,,,,,,,,,,,,,,,,,,,,,,,,,,,,,,,,,,,,,,,,,,,,,80,152152,23,Female,1,2024/02/27_10:59:33,YZ,None,
,,,,,,calibration,0,12,2,917,5,F,0,right,0.6564081539981999,1,0,,,,,,,,,,,,,,,,,,,,,1,,,,,,,,,,,,,,,,,,,,,,,,,,,,,,,,,,,,,,,,,,,,,,80,152152,23,Female,1,2024/02/27_10:59:33,YZ,None,
,,,,,,calibration,0,12,2,917,6,N,1,left,0.5390727230114862,1,0,,,,,,,,,,,,,,,,,,,,,1,,,,,,,,,,,,,,,,,,,,,,,,,,,,,,,,,,,,,,,,,,,,,,80,152152,23,Female,1,2024/02/27_10:59:33,YZ,None,
,,,,,,calibration,0,12,2,917,7,F,1,right,0.3367886340129189,0,0,,,,,,,,,,,,,,,,,,,,,1,,,,,,,,,,,,,,,,,,,,,,,,,,,,,,,,,,,,,,,,,,,,,,80,152152,23,Female,1,2024/02/27_10:59:33,YZ,None,
,,,,,,calibration,0,12,2,917,8,J,0,right,0.6067509029817302,1,0,,,,,,,,,,,,,,,,,,,,,1,,,,,,,,,,,,,,,,,,,,,,,,,,,,,,,,,,,,,,,,,,,,,,80,152152,23,Female,1,2024/02/27_10:59:33,YZ,None,
,,,,,,calibration,0,12,2,917,9,F,1,left,0.5585897139972076,1,0,,,,,,,,,,,,,,,,,,,,,1,,,,,,,,,,,,,,,,,,,,,,,,,,,,,,,,,,,,,,,,,,,,,,80,152152,23,Female,1,2024/02/27_10:59:33,YZ,None,
,,,,,,calibration,0,12,2,917,10,X,0,right,0.31913676401018165,1,0,,,,,,,,,,,,,,,,,,,,,1,,,,,,,,,,,,,,,,,,,,,,,,,,,,,,,,,,,,,,,,,,,,,,80,152152,23,Female,1,2024/02/27_10:59:33,YZ,None,
,,,,,,calibration,0,12,2,917,11,Q,0,right,0.36058240200509317,1,0,,,,,,,,,,,,,,,,,,,,,1,,,,,,,,,,,,,,,,,,,,,,,,,,,,,,,,,,,,,,,,,,,,,,80,152152,23,Female,1,2024/02/27_10:59:33,YZ,None,
,,,,,,calibration,0,12,2,917,12,F,0,left,0.4098480130196549,0,0,,,,,,,,,,,,,,,,,,,,,1,,,,,,,,,,,,,,,,,,,,,,,,,,,,,,,,,,,,,,,,,,,,,,80,152152,23,Female,1,2024/02/27_10:59:33,YZ,None,
,,,,,,calibration,0,12,2,917,,,,,,,,0.8518518518518517,0.6666666666666666,0.1111111111111111,0.8888888888888888,0.0,0.8888888888888888,0.4731113996725374,2,1,0,0,0,8,10,3,9,0,,,,1,,,,,,,,,,,,,,,,,,,,,,,,,,,,,,,,,,,,,,,,,,,,,,80,152152,23,Female,1,2024/02/27_10:59:33,YZ,None,
,,,,,,Calibration,0,,2,917,,,,,,,,,,,,,,,,,,,,,,,,,7,,,1,,,,,,,,,,,,,,,,,,,,,,,,,,,,,,,,,,,,,,,,,,,,,,80,152152,23,Female,1,2024/02/27_10:59:33,YZ,None,
,,,,,,calibration,0,8,2,788,1,J,0,right,0.47282797598745674,1,0,,,,,,,,,,,,,,,,,,,,,1,,,,,,,,,,,,,,,,,,,,,,,,,,,,,,,,,,,,,,,,,,,,,,80,152152,23,Female,1,2024/02/27_10:59:33,YZ,None,
,,,,,,calibration,0,8,2,788,2,C,0,right,0.23259282001527026,1,0,,,,,,,,,,,,,,,,,,,,,1,,,,,,,,,,,,,,,,,,,,,,,,,,,,,,,,,,,,,,,,,,,,,,80,152152,23,Female,1,2024/02/27_10:59:33,YZ,None,
,,,,,,calibration,0,8,2,788,3,N,0,right,0.42059018200961873,1,0,,,,,,,,,,,,,,,,,,,,,1,,,,,,,,,,,,,,,,,,,,,,,,,,,,,,,,,,,,,,,,,,,,,,80,152152,23,Female,1,2024/02/27_10:59:33,YZ,None,
,,,,,,calibration,0,8,2,788,4,C,1,right,0.392377932992531,0,0,,,,,,,,,,,,,,,,,,,,,1,,,,,,,,,,,,,,,,,,,,,,,,,,,,,,,,,,,,,,,,,,,,,,80,152152,23,Female,1,2024/02/27_10:59:33,YZ,None,
,,,,,,calibration,0,8,2,788,5,N,1,left,0.6090457289828919,1,0,,,,,,,,,,,,,,,,,,,,,1,,,,,,,,,,,,,,,,,,,,,,,,,,,,,,,,,,,,,,,,,,,,,,80,152152,23,Female,1,2024/02/27_10:59:33,YZ,None,
,,,,,,calibration,0,8,2,788,6,S,0,right,0.4031198970042169,1,0,,,,,,,,,,,,,,,,,,,,,1,,,,,,,,,,,,,,,,,,,,,,,,,,,,,,,,,,,,,,,,,,,,,,80,152152,23,Female,1,2024/02/27_10:59:33,YZ,None,
,,,,,,calibration,0,8,2,788,7,N,1,left,0.52450161401066,1,0,,,,,,,,,,,,,,,,,,,,,1,,,,,,,,,,,,,,,,,,,,,,,,,,,,,,,,,,,,,,,,,,,,,,80,152152,23,Female,1,2024/02/27_10:59:33,YZ,None,
,,,,,,calibration,0,8,2,788,8,V,0,right,0.39143754402175546,1,0,,,,,,,,,,,,,,,,,,,,,1,,,,,,,,,,,,,,,,,,,,,,,,,,,,,,,,,,,,,,,,,,,,,,80,152152,23,Female,1,2024/02/27_10:59:33,YZ,None,
,,,,,,calibration,0,8,2,788,9,F,0,left,0.5985158400144428,0,0,,,,,,,,,,,,,,,,,,,,,1,,,,,,,,,,,,,,,,,,,,,,,,,,,,,,,,,,,,,,,,,,,,,,80,152152,23,Female,1,2024/02/27_10:59:33,YZ,None,
,,,,,,calibration,0,8,2,788,10,J,0,right,1.0484597489994485,1,0,,,,,,,,,,,,,,,,,,,,,1,,,,,,,,,,,,,,,,,,,,,,,,,,,,,,,,,,,,,,,,,,,,,,80,152152,23,Female,1,2024/02/27_10:59:33,YZ,None,
,,,,,,calibration,0,8,2,788,11,F,1,right,0.9081016420095693,0,0,,,,,,,,,,,,,,,,,,,,,1,,,,,,,,,,,,,,,,,,,,,,,,,,,,,,,,,,,,,,,,,,,,,,80,152152,23,Female,1,2024/02/27_10:59:33,YZ,None,
,,,,,,calibration,0,8,2,788,12,V,0,right,0.9056318100192584,1,0,,,,,,,,,,,,,,,,,,,,,1,,,,,,,,,,,,,,,,,,,,,,,,,,,,,,,,,,,,,,,,,,,,,,80,152152,23,Female,1,2024/02/27_10:59:33,YZ,None,
,,,,,,calibration,0,8,2,788,13,C,0,right,0.6870724549808074,1,0,,,,,,,,,,,,,,,,,,,,,1,,,,,,,,,,,,,,,,,,,,,,,,,,,,,,,,,,,,,,,,,,,,,,80,152152,23,Female,1,2024/02/27_10:59:33,YZ,None,
,,,,,,calibration,0,8,2,788,,,,,,,,0.7916666666666666,0.5,0.1111111111111111,0.8888888888888888,0.0,0.8888888888888888,0.5841750146959944,2,1,0,0,0,8,10,4,9,0,,,,1,,,,,,,,,,,,,,,,,,,,,,,,,,,,,,,,,,,,,,,,,,,,,,80,152152,23,Female,1,2024/02/27_10:59:33,YZ,None,
,,,,,,Calibration,0,,2,788,,,,,,,,,,,,,,,,,,,,,,,,,8,,,1,,,,,,,,,,,,,,,,,,,,,,,,,,,,,,,,,,,,,,,,,,,,,,80,152152,23,Female,1,2024/02/27_10:59:33,YZ,None,
,,,,,,calibration,0,32,2,788,1,N,0,right,0.12327888098661788,1,0,,,,,,,,,,,,,,,,,,,,,1,,,,,,,,,,,,,,,,,,,,,,,,,,,,,,,,,,,,,,,,,,,,,,80,152152,23,Female,1,2024/02/27_10:59:33,YZ,None,
,,,,,,calibration,0,32,2,788,2,J,0,right,0.22340800298843533,1,0,,,,,,,,,,,,,,,,,,,,,1,,,,,,,,,,,,,,,,,,,,,,,,,,,,,,,,,,,,,,,,,,,,,,80,152152,23,Female,1,2024/02/27_10:59:33,YZ,None,
,,,,,,calibration,0,32,2,788,3,N,1,right,0.3123703930177726,0,0,,,,,,,,,,,,,,,,,,,,,1,,,,,,,,,,,,,,,,,,,,,,,,,,,,,,,,,,,,,,,,,,,,,,80,152152,23,Female,1,2024/02/27_10:59:33,YZ,None,
,,,,,,calibration,0,32,2,788,4,Q,0,right,0.460200386994984,1,0,,,,,,,,,,,,,,,,,,,,,1,,,,,,,,,,,,,,,,,,,,,,,,,,,,,,,,,,,,,,,,,,,,,,80,152152,23,Female,1,2024/02/27_10:59:33,YZ,None,
,,,,,,calibration,0,32,2,788,5,N,1,left,0.5591072349925525,1,0,,,,,,,,,,,,,,,,,,,,,1,,,,,,,,,,,,,,,,,,,,,,,,,,,,,,,,,,,,,,,,,,,,,,80,152152,23,Female,1,2024/02/27_10:59:33,YZ,None,
,,,,,,calibration,0,32,2,788,6,Q,1,right,0.3233379339799285,0,0,,,,,,,,,,,,,,,,,,,,,1,,,,,,,,,,,,,,,,,,,,,,,,,,,,,,,,,,,,,,,,,,,,,,80,152152,23,Female,1,2024/02/27_10:59:33,YZ,None,
,,,,,,calibration,0,32,2,788,7,J,0,right,0.5235635799763259,1,0,,,,,,,,,,,,,,,,,,,,,1,,,,,,,,,,,,,,,,,,,,,,,,,,,,,,,,,,,,,,,,,,,,,,80,152152,23,Female,1,2024/02/27_10:59:33,YZ,None,
,,,,,,calibration,0,32,2,788,8,F,0,right,0.5123210180026945,1,0,,,,,,,,,,,,,,,,,,,,,1,,,,,,,,,,,,,,,,,,,,,,,,,,,,,,,,,,,,,,,,,,,,,,80,152152,23,Female,1,2024/02/27_10:59:33,YZ,None,
,,,,,,calibration,0,32,2,788,9,S,0,right,0.44901906899758615,1,0,,,,,,,,,,,,,,,,,,,,,1,,,,,,,,,,,,,,,,,,,,,,,,,,,,,,,,,,,,,,,,,,,,,,80,152152,23,Female,1,2024/02/27_10:59:33,YZ,None,
,,,,,,calibration,0,32,2,788,10,F,1,right,0.48221715199179016,0,0,,,,,,,,,,,,,,,,,,,,,1,,,,,,,,,,,,,,,,,,,,,,,,,,,,,,,,,,,,,,,,,,,,,,80,152152,23,Female,1,2024/02/27_10:59:33,YZ,None,
,,,,,,calibration,0,32,2,788,11,V,0,right,0.4698505479900632,1,0,,,,,,,,,,,,,,,,,,,,,1,,,,,,,,,,,,,,,,,,,,,,,,,,,,,,,,,,,,,,,,,,,,,,80,152152,23,Female,1,2024/02/27_10:59:33,YZ,None,
,,,,,,calibration,0,32,2,788,12,J,0,right,0.45260552898980677,1,0,,,,,,,,,,,,,,,,,,,,,1,,,,,,,,,,,,,,,,,,,,,,,,,,,,,,,,,,,,,,,,,,,,,,80,152152,23,Female,1,2024/02/27_10:59:33,YZ,None,
,,,,,,calibration,0,32,2,788,13,C,0,right,0.5589891860145144,1,0,,,,,,,,,,,,,,,,,,,,,1,,,,,,,,,,,,,,,,,,,,,,,,,,,,,,,,,,,,,,,,,,,,,,80,152152,23,Female,1,2024/02/27_10:59:33,YZ,None,
,,,,,,calibration,0,32,2,788,,,,,,,,0.8125,0.25,0.0,1.0,0.0,1.0,0.41925145499408245,1,0,0,0,0,9,10,4,9,0,,,,1,,,,,,,,,,,,,,,,,,,,,,,,,,,,,,,,,,,,,,,,,,,,,,80,152152,23,Female,1,2024/02/27_10:59:33,YZ,None,
,,,,,,Calibration,0,,2,788,,,,,,,,,,,,,,,,,,,,,,,,,9,,,1,,,,,,,,,,,,,,,,,,,,,,,,,,,,,,,,,,,,,,,,,,,,,,80,152152,23,Female,1,2024/02/27_10:59:33,YZ,None,
,,,,,,calibration,0,30,2,788,1,Q,0,right,0.27977227699011564,1,0,,,,,,,,,,,,,,,,,,,,,1,,,,,,,,,,,,,,,,,,,,,,,,,,,,,,,,,,,,,,,,,,,,,,80,152152,23,Female,1,2024/02/27_10:59:33,YZ,None,
,,,,,,calibration,0,30,2,788,2,S,0,right,0.4925798269978259,1,0,,,,,,,,,,,,,,,,,,,,,1,,,,,,,,,,,,,,,,,,,,,,,,,,,,,,,,,,,,,,,,,,,,,,80,152152,23,Female,1,2024/02/27_10:59:33,YZ,None,
,,,,,,calibration,0,30,2,788,3,F,0,right,0.40173740999307483,1,0,,,,,,,,,,,,,,,,,,,,,1,,,,,,,,,,,,,,,,,,,,,,,,,,,,,,,,,,,,,,,,,,,,,,80,152152,23,Female,1,2024/02/27_10:59:33,YZ,None,
,,,,,,calibration,0,30,2,788,4,S,1,right,0.3437382920237724,0,0,,,,,,,,,,,,,,,,,,,,,1,,,,,,,,,,,,,,,,,,,,,,,,,,,,,,,,,,,,,,,,,,,,,,80,152152,23,Female,1,2024/02/27_10:59:33,YZ,None,
,,,,,,calibration,0,30,2,788,5,J,0,right,0.4333195549843367,1,0,,,,,,,,,,,,,,,,,,,,,1,,,,,,,,,,,,,,,,,,,,,,,,,,,,,,,,,,,,,,,,,,,,,,80,152152,23,Female,1,2024/02/27_10:59:33,YZ,None,
,,,,,,calibration,0,30,2,788,6,S,1,left,0.4924081320059486,1,0,,,,,,,,,,,,,,,,,,,,,1,,,,,,,,,,,,,,,,,,,,,,,,,,,,,,,,,,,,,,,,,,,,,,80,152152,23,Female,1,2024/02/27_10:59:33,YZ,None,
,,,,,,calibration,0,30,2,788,7,V,0,right,0.25767868000548333,1,0,,,,,,,,,,,,,,,,,,,,,1,,,,,,,,,,,,,,,,,,,,,,,,,,,,,,,,,,,,,,,,,,,,,,80,152152,23,Female,1,2024/02/27_10:59:33,YZ,None,
,,,,,,calibration,0,30,2,788,8,S,1,left,0.46745607699267566,1,0,,,,,,,,,,,,,,,,,,,,,1,,,,,,,,,,,,,,,,,,,,,,,,,,,,,,,,,,,,,,,,,,,,,,80,152152,23,Female,1,2024/02/27_10:59:33,YZ,None,
,,,,,,calibration,0,30,2,788,9,J,0,right,0.2484619279857725,1,0,,,,,,,,,,,,,,,,,,,,,1,,,,,,,,,,,,,,,,,,,,,,,,,,,,,,,,,,,,,,,,,,,,,,80,152152,23,Female,1,2024/02/27_10:59:33,YZ,None,
,,,,,,calibration,0,30,2,788,10,F,0,left,0.3630597990122624,0,0,,,,,,,,,,,,,,,,,,,,,1,,,,,,,,,,,,,,,,,,,,,,,,,,,,,,,,,,,,,,,,,,,,,,80,152152,23,Female,1,2024/02/27_10:59:33,YZ,None,
,,,,,,calibration,0,30,2,788,11,J,1,right,0.29640568199101835,0,0,,,,,,,,,,,,,,,,,,,,,1,,,,,,,,,,,,,,,,,,,,,,,,,,,,,,,,,,,,,,,,,,,,,,80,152152,23,Female,1,2024/02/27_10:59:33,YZ,None,
,,,,,,calibration,0,30,2,788,12,Q,0,right,0.2762693959812168,1,0,,,,,,,,,,,,,,,,,,,,,1,,,,,,,,,,,,,,,,,,,,,,,,,,,,,,,,,,,,,,,,,,,,,,80,152152,23,Female,1,2024/02/27_10:59:33,YZ,None,
,,,,,,calibration,0,30,2,788,13,F,0,left,0.6907461350201629,0,0,,,,,,,,,,,,,,,,,,,,,1,,,,,,,,,,,,,,,,,,,,,,,,,,,,,,,,,,,,,,,,,,,,,,80,152152,23,Female,1,2024/02/27_10:59:33,YZ,None,
,,,,,,calibration,0,30,2,788,,,,,,,,0.7083333333333333,0.5,0.2222222222222222,0.7777777777777778,0.0,0.7777777777777778,0.3879717838448974,2,2,0,0,0,7,9,4,9,0,,,,1,,,,,,,,,,,,,,,,,,,,,,,,,,,,,,,,,,,,,,,,,,,,,,80,152152,23,Female,1,2024/02/27_10:59:33,YZ,None,
,,,,,,Calibration,0,,2,788,,,,,,,,,,,,,,,,,,,,,,,,,10,,,1,,,,,,,,,,,,,,,,,,,,,,,,,,,,,,,,,,,,,,,,,,,,,,80,152152,23,Female,1,2024/02/27_10:59:33,YZ,None,
,,,,,,calibration,0,2,2,917,1,N,0,right,0.28022314398549497,1,0,,,,,,,,,,,,,,,,,,,,,1,,,,,,,,,,,,,,,,,,,,,,,,,,,,,,,,,,,,,,,,,,,,,,80,152152,23,Female,1,2024/02/27_10:59:33,YZ,None,
,,,,,,calibration,0,2,2,917,2,N,0,right,0.4011815449921414,1,0,,,,,,,,,,,,,,,,,,,,,1,,,,,,,,,,,,,,,,,,,,,,,,,,,,,,,,,,,,,,,,,,,,,,80,152152,23,Female,1,2024/02/27_10:59:33,YZ,None,
,,,,,,calibration,0,2,2,917,3,C,0,right,0.464553452009568,1,0,,,,,,,,,,,,,,,,,,,,,1,,,,,,,,,,,,,,,,,,,,,,,,,,,,,,,,,,,,,,,,,,,,,,80,152152,23,Female,1,2024/02/27_10:59:33,YZ,None,
,,,,,,calibration,0,2,2,917,4,N,1,left,0.6917411189933773,1,0,,,,,,,,,,,,,,,,,,,,,1,,,,,,,,,,,,,,,,,,,,,,,,,,,,,,,,,,,,,,,,,,,,,,80,152152,23,Female,1,2024/02/27_10:59:33,YZ,None,
,,,,,,calibration,0,2,2,917,5,X,0,right,0.5120623779948801,1,0,,,,,,,,,,,,,,,,,,,,,1,,,,,,,,,,,,,,,,,,,,,,,,,,,,,,,,,,,,,,,,,,,,,,80,152152,23,Female,1,2024/02/27_10:59:33,YZ,None,
,,,,,,calibration,0,2,2,917,6,N,1,left,0.5747441040002741,1,0,,,,,,,,,,,,,,,,,,,,,1,,,,,,,,,,,,,,,,,,,,,,,,,,,,,,,,,,,,,,,,,,,,,,80,152152,23,Female,1,2024/02/27_10:59:33,YZ,None,
,,,,,,calibration,0,2,2,917,7,Q,1,right,0.4636481149937026,0,0,,,,,,,,,,,,,,,,,,,,,1,,,,,,,,,,,,,,,,,,,,,,,,,,,,,,,,,,,,,,,,,,,,,,80,152152,23,Female,1,2024/02/27_10:59:33,YZ,None,
,,,,,,calibration,0,2,2,917,8,X,0,right,0.5121350320114288,1,0,,,,,,,,,,,,,,,,,,,,,1,,,,,,,,,,,,,,,,,,,,,,,,,,,,,,,,,,,,,,,,,,,,,,80,152152,23,Female,1,2024/02/27_10:59:33,YZ,None,
,,,,,,calibration,0,2,2,917,9,Q,1,left,0.7154270060127601,1,0,,,,,,,,,,,,,,,,,,,,,1,,,,,,,,,,,,,,,,,,,,,,,,,,,,,,,,,,,,,,,,,,,,,,80,152152,23,Female,1,2024/02/27_10:59:33,YZ,None,
,,,,,,calibration,0,2,2,917,10,J,0,right,0.4944061190180946,1,0,,,,,,,,,,,,,,,,,,,,,1,,,,,,,,,,,,,,,,,,,,,,,,,,,,,,,,,,,,,,,,,,,,,,80,152152,23,Female,1,2024/02/27_10:59:33,YZ,None,
,,,,,,calibration,0,2,2,917,11,V,0,right,0.5320474530162755,1,0,,,,,,,,,,,,,,,,,,,,,1,,,,,,,,,,,,,,,,,,,,,,,,,,,,,,,,,,,,,,,,,,,,,,80,152152,23,Female,1,2024/02/27_10:59:33,YZ,None,
,,,,,,calibration,0,2,2,917,12,C,0,left,0.6138593800133094,0,0,,,,,,,,,,,,,,,,,,,,,1,,,,,,,,,,,,,,,,,,,,,,,,,,,,,,,,,,,,,,,,,,,,,,80,152152,23,Female,1,2024/02/27_10:59:33,YZ,None,
,,,,,,calibration,0,2,2,917,,,,,,,,0.875,0.75,0.125,0.875,0.0,0.875,0.5213357372534423,3,1,0,0,0,7,10,4,8,0,,,,1,,,,,,,,,,,,,,,,,,,,,,,,,,,,,,,,,,,,,,,,,,,,,,80,152152,23,Female,1,2024/02/27_10:59:33,YZ,None,
,,,,,,Calibration,0,,2,917,,,,,,,,,,,,,,,,,,,,,,,,,11,,,1,,,,,,,,,,,,,,,,,,,,,,,,,,,,,,,,,,,,,,,,,,,,,,80,152152,23,Female,1,2024/02/27_10:59:33,YZ,None,
,,,,,,calibration,0,11,2,788,1,F,0,right,0.13561884200316854,1,0,,,,,,,,,,,,,,,,,,,,,1,,,,,,,,,,,,,,,,,,,,,,,,,,,,,,,,,,,,,,,,,,,,,,80,152152,23,Female,1,2024/02/27_10:59:33,YZ,None,
,,,,,,calibration,0,11,2,788,2,F,0,right,0.2842307789833285,1,0,,,,,,,,,,,,,,,,,,,,,1,,,,,,,,,,,,,,,,,,,,,,,,,,,,,,,,,,,,,,,,,,,,,,80,152152,23,Female,1,2024/02/27_10:59:33,YZ,None,
,,,,,,calibration,0,11,2,788,3,N,0,right,0.5123687250015792,1,0,,,,,,,,,,,,,,,,,,,,,1,,,,,,,,,,,,,,,,,,,,,,,,,,,,,,,,,,,,,,,,,,,,,,80,152152,23,Female,1,2024/02/27_10:59:33,YZ,None,
,,,,,,calibration,0,11,2,788,4,Q,0,right,0.5122383850102779,1,0,,,,,,,,,,,,,,,,,,,,,1,,,,,,,,,,,,,,,,,,,,,,,,,,,,,,,,,,,,,,,,,,,,,,80,152152,23,Female,1,2024/02/27_10:59:33,YZ,None,
,,,,,,calibration,0,11,2,788,5,N,1,left,0.6256111139955465,1,0,,,,,,,,,,,,,,,,,,,,,1,,,,,,,,,,,,,,,,,,,,,,,,,,,,,,,,,,,,,,,,,,,,,,80,152152,23,Female,1,2024/02/27_10:59:33,YZ,None,
,,,,,,calibration,0,11,2,788,6,Q,1,right,0.4667961460072547,0,0,,,,,,,,,,,,,,,,,,,,,1,,,,,,,,,,,,,,,,,,,,,,,,,,,,,,,,,,,,,,,,,,,,,,80,152152,23,Female,1,2024/02/27_10:59:33,YZ,None,
,,,,,,calibration,0,11,2,788,7,J,0,right,0.43315519799944013,1,0,,,,,,,,,,,,,,,,,,,,,1,,,,,,,,,,,,,,,,,,,,,,,,,,,,,,,,,,,,,,,,,,,,,,80,152152,23,Female,1,2024/02/27_10:59:33,YZ,None,
,,,,,,calibration,0,11,2,788,8,N,0,left,0.5351153810042888,0,0,,,,,,,,,,,,,,,,,,,,,1,,,,,,,,,,,,,,,,,,,,,,,,,,,,,,,,,,,,,,,,,,,,,,80,152152,23,Female,1,2024/02/27_10:59:33,YZ,None,
,,,,,,calibration,0,11,2,788,9,Q,0,right,0.3643028700025752,1,0,,,,,,,,,,,,,,,,,,,,,1,,,,,,,,,,,,,,,,,,,,,,,,,,,,,,,,,,,,,,,,,,,,,,80,152152,23,Female,1,2024/02/27_10:59:33,YZ,None,
,,,,,,calibration,0,11,2,788,10,N,1,right,0.5187069970124867,0,0,,,,,,,,,,,,,,,,,,,,,1,,,,,,,,,,,,,,,,,,,,,,,,,,,,,,,,,,,,,,,,,,,,,,80,152152,23,Female,1,2024/02/27_10:59:33,YZ,None,
,,,,,,calibration,0,11,2,788,11,X,0,right,0.523899955995148,1,0,,,,,,,,,,,,,,,,,,,,,1,,,,,,,,,,,,,,,,,,,,,,,,,,,,,,,,,,,,,,,,,,,,,,80,152152,23,Female,1,2024/02/27_10:59:33,YZ,None,
,,,,,,calibration,0,11,2,788,12,N,1,right,0.5723698119982146,0,0,,,,,,,,,,,,,,,,,,,,,1,,,,,,,,,,,,,,,,,,,,,,,,,,,,,,,,,,,,,,,,,,,,,,80,152152,23,Female,1,2024/02/27_10:59:33,YZ,None,
,,,,,,calibration,0,11,2,788,13,V,0,right,0.5463635310006794,1,0,,,,,,,,,,,,,,,,,,,,,1,,,,,,,,,,,,,,,,,,,,,,,,,,,,,,,,,,,,,,,,,,,,,,80,152152,23,Female,1,2024/02/27_10:59:33,YZ,None,
,,,,,,calibration,0,11,2,788,,,,,,,,0.6736111111111112,0.25,0.1111111111111111,0.8888888888888888,0.0,0.8888888888888888,0.4639059796933837,1,1,0,0,0,8,9,4,9,0,,,,1,,,,,,,,,,,,,,,,,,,,,,,,,,,,,,,,,,,,,,,,,,,,,,80,152152,23,Female,1,2024/02/27_10:59:33,YZ,None,
,,,,,,Calibration,0,,2,788,,,,,,,,,,,,,,,,,,,,,,,,,12,,,1,,,,,,,,,,,,,,,,,,,,,,,,,,,,,,,,,,,,,,,,,,,,,,80,152152,23,Female,1,2024/02/27_10:59:33,YZ,None,
,,,,,,calibration,0,1,2,917,1,F,0,right,0.36144879600033164,1,0,,,,,,,,,,,,,,,,,,,,,1,,,,,,,,,,,,,,,,,,,,,,,,,,,,,,,,,,,,,,,,,,,,,,80,152152,23,Female,1,2024/02/27_10:59:33,YZ,None,
,,,,,,calibration,0,1,2,917,2,J,0,right,0.25669191000633873,1,0,,,,,,,,,,,,,,,,,,,,,1,,,,,,,,,,,,,,,,,,,,,,,,,,,,,,,,,,,,,,,,,,,,,,80,152152,23,Female,1,2024/02/27_10:59:33,YZ,None,
,,,,,,calibration,0,1,2,917,3,F,1,right,0.3414934359898325,0,0,,,,,,,,,,,,,,,,,,,,,1,,,,,,,,,,,,,,,,,,,,,,,,,,,,,,,,,,,,,,,,,,,,,,80,152152,23,Female,1,2024/02/27_10:59:33,YZ,None,
,,,,,,calibration,0,1,2,917,4,N,0,right,0.47246984601952136,1,0,,,,,,,,,,,,,,,,,,,,,1,,,,,,,,,,,,,,,,,,,,,,,,,,,,,,,,,,,,,,,,,,,,,,80,152152,23,Female,1,2024/02/27_10:59:33,YZ,None,
,,,,,,calibration,0,1,2,917,5,F,1,right,0.7616835040098522,0,0,,,,,,,,,,,,,,,,,,,,,1,,,,,,,,,,,,,,,,,,,,,,,,,,,,,,,,,,,,,,,,,,,,,,80,152152,23,Female,1,2024/02/27_10:59:33,YZ,None,
,,,,,,calibration,0,1,2,917,6,S,0,right,0.5197619349928573,1,0,,,,,,,,,,,,,,,,,,,,,1,,,,,,,,,,,,,,,,,,,,,,,,,,,,,,,,,,,,,,,,,,,,,,80,152152,23,Female,1,2024/02/27_10:59:33,YZ,None,
,,,,,,calibration,0,1,2,917,7,F,1,right,0.5589209900062997,0,0,,,,,,,,,,,,,,,,,,,,,1,,,,,,,,,,,,,,,,,,,,,,,,,,,,,,,,,,,,,,,,,,,,,,80,152152,23,Female,1,2024/02/27_10:59:33,YZ,None,
,,,,,,calibration,0,1,2,917,8,X,0,right,0.596279969002353,1,0,,,,,,,,,,,,,,,,,,,,,1,,,,,,,,,,,,,,,,,,,,,,,,,,,,,,,,,,,,,,,,,,,,,,80,152152,23,Female,1,2024/02/27_10:59:33,YZ,None,
,,,,,,calibration,0,1,2,917,9,Q,0,right,0.5243197980162222,1,0,,,,,,,,,,,,,,,,,,,,,1,,,,,,,,,,,,,,,,,,,,,,,,,,,,,,,,,,,,,,,,,,,,,,80,152152,23,Female,1,2024/02/27_10:59:33,YZ,None,
,,,,,,calibration,0,1,2,917,10,C,0,right,0.5899118800007273,1,0,,,,,,,,,,,,,,,,,,,,,1,,,,,,,,,,,,,,,,,,,,,,,,,,,,,,,,,,,,,,,,,,,,,,80,152152,23,Female,1,2024/02/27_10:59:33,YZ,None,
,,,,,,calibration,0,1,2,917,11,F,0,left,0.6611010619963054,0,0,,,,,,,,,,,,,,,,,,,,,1,,,,,,,,,,,,,,,,,,,,,,,,,,,,,,,,,,,,,,,,,,,,,,80,152152,23,Female,1,2024/02/27_10:59:33,YZ,None,
,,,,,,calibration,0,1,2,917,12,J,0,right,0.434136785013834,1,0,,,,,,,,,,,,,,,,,,,,,1,,,,,,,,,,,,,,,,,,,,,,,,,,,,,,,,,,,,,,,,,,,,,,80,152152,23,Female,1,2024/02/27_10:59:33,YZ,None,
,,,,,,calibration,0,1,2,917,,,,,,,,0.2222222222222222,0.0,0.1111111111111111,0.8888888888888888,0.0,0.8888888888888888,0.5065183259212063,0,1,0,0,0,8,8,3,9,0,,,,1,,,,,,,,,,,,,,,,,,,,,,,,,,,,,,,,,,,,,,,,,,,,,,80,152152,23,Female,1,2024/02/27_10:59:33,YZ,None,
,,,,,,Calibration,0,,2,917,,,,,,,,,,,,,,,,,,,,,,,,,13,,,1,,,,,,,,,,,,,,,,,,,,,,,,,,,,,,,,,,,,,,,,,,,,,,80,152152,23,Female,1,2024/02/27_10:59:33,YZ,None,
,,,,,,calibration,0,36,2,1068,1,Q,0,right,0.379952212999342,1,0,,,,,,,,,,,,,,,,,,,,,1,,,,,,,,,,,,,,,,,,,,,,,,,,,,,,,,,,,,,,,,,,,,,,80,152152,23,Female,1,2024/02/27_10:59:33,YZ,None,
,,,,,,calibration,0,36,2,1068,2,J,0,right,0.40304633099003695,1,0,,,,,,,,,,,,,,,,,,,,,1,,,,,,,,,,,,,,,,,,,,,,,,,,,,,,,,,,,,,,,,,,,,,,80,152152,23,Female,1,2024/02/27_10:59:33,YZ,None,
,,,,,,calibration,0,36,2,1068,3,C,0,right,0.46557675799704157,1,0,,,,,,,,,,,,,,,,,,,,,1,,,,,,,,,,,,,,,,,,,,,,,,,,,,,,,,,,,,,,,,,,,,,,80,152152,23,Female,1,2024/02/27_10:59:33,YZ,None,
,,,,,,calibration,0,36,2,1068,4,J,1,left,0.49029306398006156,1,0,,,,,,,,,,,,,,,,,,,,,1,,,,,,,,,,,,,,,,,,,,,,,,,,,,,,,,,,,,,,,,,,,,,,80,152152,23,Female,1,2024/02/27_10:59:33,YZ,None,
,,,,,,calibration,0,36,2,1068,5,Q,0,right,0.587507566990098,1,0,,,,,,,,,,,,,,,,,,,,,1,,,,,,,,,,,,,,,,,,,,,,,,,,,,,,,,,,,,,,,,,,,,,,80,152152,23,Female,1,2024/02/27_10:59:33,YZ,None,
,,,,,,calibration,0,36,2,1068,6,N,0,right,0.622002692980459,1,0,,,,,,,,,,,,,,,,,,,,,1,,,,,,,,,,,,,,,,,,,,,,,,,,,,,,,,,,,,,,,,,,,,,,80,152152,23,Female,1,2024/02/27_10:59:33,YZ,None,
,,,,,,calibration,0,36,2,1068,7,C,0,right,0.9620993940043263,1,0,,,,,,,,,,,,,,,,,,,,,1,,,,,,,,,,,,,,,,,,,,,,,,,,,,,,,,,,,,,,,,,,,,,,80,152152,23,Female,1,2024/02/27_10:59:33,YZ,None,
,,,,,,calibration,0,36,2,1068,8,N,1,left,0.8151737320004031,1,0,,,,,,,,,,,,,,,,,,,,,1,,,,,,,,,,,,,,,,,,,,,,,,,,,,,,,,,,,,,,,,,,,,,,80,152152,23,Female,1,2024/02/27_10:59:33,YZ,None,
,,,,,,calibration,0,36,2,1068,9,V,0,right,0.5575741890061181,1,0,,,,,,,,,,,,,,,,,,,,,1,,,,,,,,,,,,,,,,,,,,,,,,,,,,,,,,,,,,,,,,,,,,,,80,152152,23,Female,1,2024/02/27_10:59:33,YZ,None,
,,,,,,calibration,0,36,2,1068,10,N,1,right,0.8613358429865912,0,0,,,,,,,,,,,,,,,,,,,,,1,,,,,,,,,,,,,,,,,,,,,,,,,,,,,,,,,,,,,,,,,,,,,,80,152152,23,Female,1,2024/02/27_10:59:33,YZ,None,
,,,,,,calibration,0,36,2,1068,11,S,0,right,0.5738495559780858,1,0,,,,,,,,,,,,,,,,,,,,,1,,,,,,,,,,,,,,,,,,,,,,,,,,,,,,,,,,,,,,,,,,,,,,80,152152,23,Female,1,2024/02/27_10:59:33,YZ,None,
,,,,,,calibration,0,36,2,1068,,,,,,,,0.9166666666666666,0.6666666666666666,0.0,1.0,0.0,1.0,0.6107646672647785,2,0,0,0,0,8,10,3,8,0,,,,1,,,,,,,,,,,,,,,,,,,,,,,,,,,,,,,,,,,,,,,,,,,,,,80,152152,23,Female,1,2024/02/27_10:59:33,YZ,None,
,,,,,,Calibration,0,,2,1068,,,,,,,,,,,,,,,,,,,,,,,,,14,,,1,,,,,,,,,,,,,,,,,,,,,,,,,,,,,,,,,,,,,,,,,,,,,,80,152152,23,Female,1,2024/02/27_10:59:33,YZ,None,
,,,,,,calibration,0,21,2,917,1,J,0,right,0.3126233179937117,1,0,,,,,,,,,,,,,,,,,,,,,1,,,,,,,,,,,,,,,,,,,,,,,,,,,,,,,,,,,,,,,,,,,,,,80,152152,23,Female,1,2024/02/27_10:59:33,YZ,None,
,,,,,,calibration,0,21,2,917,2,V,0,right,0.4772151799988933,1,0,,,,,,,,,,,,,,,,,,,,,1,,,,,,,,,,,,,,,,,,,,,,,,,,,,,,,,,,,,,,,,,,,,,,80,152152,23,Female,1,2024/02/27_10:59:33,YZ,None,
,,,,,,calibration,0,21,2,917,3,X,0,right,0.4283318590023555,1,0,,,,,,,,,,,,,,,,,,,,,1,,,,,,,,,,,,,,,,,,,,,,,,,,,,,,,,,,,,,,,,,,,,,,80,152152,23,Female,1,2024/02/27_10:59:33,YZ,None,
,,,,,,calibration,0,21,2,917,4,V,1,left,0.6815265309996903,1,0,,,,,,,,,,,,,,,,,,,,,1,,,,,,,,,,,,,,,,,,,,,,,,,,,,,,,,,,,,,,,,,,,,,,80,152152,23,Female,1,2024/02/27_10:59:33,YZ,None,
,,,,,,calibration,0,21,2,917,5,Q,0,right,0.3951533910003491,1,0,,,,,,,,,,,,,,,,,,,,,1,,,,,,,,,,,,,,,,,,,,,,,,,,,,,,,,,,,,,,,,,,,,,,80,152152,23,Female,1,2024/02/27_10:59:33,YZ,None,
,,,,,,calibration,0,21,2,917,6,V,1,left,0.623433972010389,1,0,,,,,,,,,,,,,,,,,,,,,1,,,,,,,,,,,,,,,,,,,,,,,,,,,,,,,,,,,,,,,,,,,,,,80,152152,23,Female,1,2024/02/27_10:59:33,YZ,None,
,,,,,,calibration,0,21,2,917,7,C,0,right,0.4851913230086211,1,0,,,,,,,,,,,,,,,,,,,,,1,,,,,,,,,,,,,,,,,,,,,,,,,,,,,,,,,,,,,,,,,,,,,,80,152152,23,Female,1,2024/02/27_10:59:33,YZ,None,
,,,,,,calibration,0,21,2,917,8,S,0,right,0.5121966419974342,1,0,,,,,,,,,,,,,,,,,,,,,1,,,,,,,,,,,,,,,,,,,,,,,,,,,,,,,,,,,,,,,,,,,,,,80,152152,23,Female,1,2024/02/27_10:59:33,YZ,None,
,,,,,,calibration,0,21,2,917,9,V,0,left,0.7086139209859539,0,0,,,,,,,,,,,,,,,,,,,,,1,,,,,,,,,,,,,,,,,,,,,,,,,,,,,,,,,,,,,,,,,,,,,,80,152152,23,Female,1,2024/02/27_10:59:33,YZ,None,
,,,,,,calibration,0,21,2,917,10,X,0,right,0.6726098519866355,1,0,,,,,,,,,,,,,,,,,,,,,1,,,,,,,,,,,,,,,,,,,,,,,,,,,,,,,,,,,,,,,,,,,,,,80,152152,23,Female,1,2024/02/27_10:59:33,YZ,None,
,,,,,,calibration,0,21,2,917,11,V,1,left,0.7122590850049164,1,0,,,,,,,,,,,,,,,,,,,,,1,,,,,,,,,,,,,,,,,,,,,,,,,,,,,,,,,,,,,,,,,,,,,,80,152152,23,Female,1,2024/02/27_10:59:33,YZ,None,
,,,,,,calibration,0,21,2,917,12,Q,0,right,0.5314828520058654,1,0,,,,,,,,,,,,,,,,,,,,,1,,,,,,,,,,,,,,,,,,,,,,,,,,,,,,,,,,,,,,,,,,,,,,80,152152,23,Female,1,2024/02/27_10:59:33,YZ,None,
,,,,,,calibration,0,21,2,917,,,,,,,,0.9722222222222222,1.0,0.1111111111111111,0.8888888888888888,0.0,0.8888888888888888,0.545053160499568,3,1,0,0,0,8,11,3,9,0,,,,1,,,,,,,,,,,,,,,,,,,,,,,,,,,,,,,,,,,,,,,,,,,,,,80,152152,23,Female,1,2024/02/27_10:59:33,YZ,None,
,,,,,,Calibration,0,,2,917,,,,,,,,,,,,,,,,,,,,,,,,,15,,,1,,,,,,,,,,,,,,,,,,,,,,,,,,,,,,,,,,,,,,,,,,,,,,80,152152,23,Female,1,2024/02/27_10:59:33,YZ,None,
,,,,,,CALIBRATION,0,,,,,,,,,,,,,,,,,,,,,,,,,,,,15,0.9722222222222222,917,1,,,,,,,,,,,,,,,,,,,,,,,,,,,,,,,,,,,,,,,,,,,,,,80,152152,23,Female,1,2024/02/27_10:59:33,YZ,None,
-1,./instructions/inst_prac_1/Slide24.png,left,2.1450653909996618,371.99040862798574,374.1354740189854,,,,,,,,,,,,,,,,,,,,,,,,,,,,,,,,,1,,,,,,,,,,,,,,,,,,,,,,,,,,,,,,,,,,,,,,,,,,,,,,80,152152,23,Female,1,2024/02/27_10:59:33,YZ,None,
-2,./instructions/inst_prac_1/Slide30.png,left,0.20029774200520478,374.16376535900054,374.36406310100574,,,,,,,,,,,,,,,,,,,,,,,,,,,,,,,,,1,,,,,,,,,,,,,,,,,,,,,,,,,,,,,,,,,,,,,,,,,,,,,,80,152152,23,Female,1,2024/02/27_10:59:33,YZ,None,
-3,./instructions/inst_prac_1/Slide29.png,left,0.20045289699919522,374.3909162149939,374.5913691119931,,,,,,,,,,,,,,,,,,,,,,,,,,,,,,,,,1,,,,,,,,,,,,,,,,,,,,,,,,,,,,,,,,,,,,,,,,,,,,,,80,152152,23,Female,1,2024/02/27_10:59:33,YZ,None,
-4,./instructions/inst_prac_1/Slide28.png,left,2.0618833850021474,374.6180109989946,376.6798943839967,,,,,,,,,,,,,,,,,,,,,,,,,,,,,,,,,1,,,,,,,,,,,,,,,,,,,,,,,,,,,,,,,,,,,,,,,,,,,,,,80,152152,23,Female,1,2024/02/27_10:59:33,YZ,None,
-5,./instructions/inst_prac_1/Slide27.png,left,0.5170112109917682,376.70666961499956,377.2236808259913,,,,,,,,,,,,,,,,,,,,,,,,,,,,,,,,,1,,,,,,,,,,,,,,,,,,,,,,,,,,,,,,,,,,,,,,,,,,,,,,80,152152,23,Female,1,2024/02/27_10:59:33,YZ,None,
-6,./instructions/inst_prac_1/Slide26.png,left,0.5010062680230476,377.25078330998076,377.7517895780038,,,,,,,,,,,,,,,,,,,,,,,,,,,,,,,,,1,,,,,,,,,,,,,,,,,,,,,,,,,,,,,,,,,,,,,,,,,,,,,,80,152152,23,Female,1,2024/02/27_10:59:33,YZ,None,
-7,./instructions/inst_prac_1/Slide25.png,left,1.0378628799808212,377.7857856070041,378.8236484869849,,,,,,,,,,,,,,,,,,,,,,,,,,,,,,,,,1,,,,,,,,,,,,,,,,,,,,,,,,,,,,,,,,,,,,,,,,,,,,,,80,152152,23,Female,1,2024/02/27_10:59:33,YZ,None,
,,,,,,practice,0,18,1,1250,1,X,0,left,7.0899962179828435,0,0,,,,,,,,,,,,,,,,,,,,,1,,,,,,,,,,,,,,,,,,,,,,,,,,,,,,,,,,,,,,,,,,,,,,80,152152,23,Female,1,2024/02/27_10:59:33,YZ,None,
,,,,,,practice,0,18,1,1250,2,X,1,left,2.0028510990086943,1,0,,,,,,,,,,,,,,,,,,,,,1,,,,,,,,,,,,,,,,,,,,,,,,,,,,,,,,,,,,,,,,,,,,,,80,152152,23,Female,1,2024/02/27_10:59:33,YZ,None,
,,,,,,practice,0,18,1,1250,3,F,0,right,1.1300987869908568,1,0,,,,,,,,,,,,,,,,,,,,,1,,,,,,,,,,,,,,,,,,,,,,,,,,,,,,,,,,,,,,,,,,,,,,80,152152,23,Female,1,2024/02/27_10:59:33,YZ,None,
,,,,,,practice,0,18,1,1250,4,N,0,right,0.9456577870005276,1,0,,,,,,,,,,,,,,,,,,,,,1,,,,,,,,,,,,,,,,,,,,,,,,,,,,,,,,,,,,,,,,,,,,,,80,152152,23,Female,1,2024/02/27_10:59:33,YZ,None,
,,,,,,practice,0,18,1,1250,5,F,0,right,0.8286883840046357,1,0,,,,,,,,,,,,,,,,,,,,,1,,,,,,,,,,,,,,,,,,,,,,,,,,,,,,,,,,,,,,,,,,,,,,80,152152,23,Female,1,2024/02/27_10:59:33,YZ,None,
,,,,,,practice,0,18,1,1250,6,Q,0,right,0.7573079410067294,1,0,,,,,,,,,,,,,,,,,,,,,1,,,,,,,,,,,,,,,,,,,,,,,,,,,,,,,,,,,,,,,,,,,,,,80,152152,23,Female,1,2024/02/27_10:59:33,YZ,None,
,,,,,,practice,0,18,1,1250,7,Q,1,left,0.708676612994168,1,0,,,,,,,,,,,,,,,,,,,,,1,,,,,,,,,,,,,,,,,,,,,,,,,,,,,,,,,,,,,,,,,,,,,,80,152152,23,Female,1,2024/02/27_10:59:33,YZ,None,
,,,,,,practice,0,18,1,1250,8,V,0,right,0.7656252640008461,1,0,,,,,,,,,,,,,,,,,,,,,1,,,,,,,,,,,,,,,,,,,,,,,,,,,,,,,,,,,,,,,,,,,,,,80,152152,23,Female,1,2024/02/27_10:59:33,YZ,None,
,,,,,,practice,0,18,1,1250,9,F,0,right,0.5501942299888469,1,0,,,,,,,,,,,,,,,,,,,,,1,,,,,,,,,,,,,,,,,,,,,,,,,,,,,,,,,,,,,,,,,,,,,,80,152152,23,Female,1,2024/02/27_10:59:33,YZ,None,
,,,,,,practice,0,18,1,1250,10,F,1,left,0.6165936600009445,1,0,,,,,,,,,,,,,,,,,,,,,1,,,,,,,,,,,,,,,,,,,,,,,,,,,,,,,,,,,,,,,,,,,,,,80,152152,23,Female,1,2024/02/27_10:59:33,YZ,None,
,,,,,,practice,0,18,1,1250,,,,,,,,0.9642857142857143,1.0,0.14285714285714285,0.8571428571428571,0.0,0.8571428571428572,1.5395689982979093,3,1,0,0,0,6,9,3,7,0,,,,1,,,,,,,,,,,,,,,,,,,,,,,,,,,,,,,,,,,,,,,,,,,,,,80,152152,23,Female,1,2024/02/27_10:59:33,YZ,None,
1,./instructions/inst_prac_1_next/Slide35.png,right,1.31028027299908,405.26534425799036,406.57562453098944,,,,,,,,,,,,,,,,,,,,,,,,,,,,,,,,,1,,,,,,,,,,,,,,,,,,,,,,,,,,,,,,,,,,,,,,,,,,,,,,80,152152,23,Female,1,2024/02/27_10:59:33,YZ,None,
,,,,,,practice,0,32,1,917,1,N,0,right,0.8470871770114172,1,0,,,,,,,,,,,,,,,,,,,,,1,,,,,,,,,,,,,,,,,,,,,,,,,,,,,,,,,,,,,,,,,,,,,,80,152152,23,Female,1,2024/02/27_10:59:33,YZ,None,
,,,,,,practice,0,32,1,917,2,N,1,left,0.4897196450037882,1,0,,,,,,,,,,,,,,,,,,,,,1,,,,,,,,,,,,,,,,,,,,,,,,,,,,,,,,,,,,,,,,,,,,,,80,152152,23,Female,1,2024/02/27_10:59:33,YZ,None,
,,,,,,practice,0,32,1,917,3,X,0,right,0.36459285402088426,1,0,,,,,,,,,,,,,,,,,,,,,1,,,,,,,,,,,,,,,,,,,,,,,,,,,,,,,,,,,,,,,,,,,,,,80,152152,23,Female,1,2024/02/27_10:59:33,YZ,None,
,,,,,,practice,0,32,1,917,4,F,0,right,0.44022609799867496,1,0,,,,,,,,,,,,,,,,,,,,,1,,,,,,,,,,,,,,,,,,,,,,,,,,,,,,,,,,,,,,,,,,,,,,80,152152,23,Female,1,2024/02/27_10:59:33,YZ,None,
,,,,,,practice,0,32,1,917,5,Q,0,right,0.4961716039979365,1,0,,,,,,,,,,,,,,,,,,,,,1,,,,,,,,,,,,,,,,,,,,,,,,,,,,,,,,,,,,,,,,,,,,,,80,152152,23,Female,1,2024/02/27_10:59:33,YZ,None,
,,,,,,practice,0,32,1,917,6,F,0,right,0.7940208239888307,1,0,,,,,,,,,,,,,,,,,,,,,1,,,,,,,,,,,,,,,,,,,,,,,,,,,,,,,,,,,,,,,,,,,,,,80,152152,23,Female,1,2024/02/27_10:59:33,YZ,None,
,,,,,,practice,0,32,1,917,7,F,1,left,0.6688551219995134,1,0,,,,,,,,,,,,,,,,,,,,,1,,,,,,,,,,,,,,,,,,,,,,,,,,,,,,,,,,,,,,,,,,,,,,80,152152,23,Female,1,2024/02/27_10:59:33,YZ,None,
,,,,,,practice,0,32,1,917,8,Q,0,right,0.4647045230085496,1,0,,,,,,,,,,,,,,,,,,,,,1,,,,,,,,,,,,,,,,,,,,,,,,,,,,,,,,,,,,,,,,,,,,,,80,152152,23,Female,1,2024/02/27_10:59:33,YZ,None,
,,,,,,practice,0,32,1,917,9,N,0,right,0.4963222540100105,1,0,,,,,,,,,,,,,,,,,,,,,1,,,,,,,,,,,,,,,,,,,,,,,,,,,,,,,,,,,,,,,,,,,,,,80,152152,23,Female,1,2024/02/27_10:59:33,YZ,None,
,,,,,,practice,0,32,1,917,10,V,0,left,0.46575068999663927,0,0,,,,,,,,,,,,,,,,,,,,,1,,,,,,,,,,,,,,,,,,,,,,,,,,,,,,,,,,,,,,,,,,,,,,80,152152,23,Female,1,2024/02/27_10:59:33,YZ,None,
,,,,,,practice,0,32,1,917,11,F,0,right,0.5211404000001494,1,0,,,,,,,,,,,,,,,,,,,,,1,,,,,,,,,,,,,,,,,,,,,,,,,,,,,,,,,,,,,,,,,,,,,,80,152152,23,Female,1,2024/02/27_10:59:33,YZ,None,
,,,,,,practice,0,32,1,917,12,F,1,left,0.604733500018483,1,0,,,,,,,,,,,,,,,,,,,,,1,,,,,,,,,,,,,,,,,,,,,,,,,,,,,,,,,,,,,,,,,,,,,,80,152152,23,Female,1,2024/02/27_10:59:33,YZ,None,
,,,,,,practice,0,32,1,917,,,,,,,,0.9722222222222222,1.0,0.1111111111111111,0.8888888888888888,0.0,0.8888888888888888,0.5544437242545731,3,1,0,0,0,8,11,3,9,0,,,,1,,,,,,,,,,,,,,,,,,,,,,,,,,,,,,,,,,,,,,,,,,,,,,80,152152,23,Female,1,2024/02/27_10:59:33,YZ,None,
,,,,,,practice,0,1,1,917,1,V,0,right,0.334988449991215,1,0,,,,,,,,,,,,,,,,,,,,,1,,,,,,,,,,,,,,,,,,,,,,,,,,,,,,,,,,,,,,,,,,,,,,80,152152,23,Female,1,2024/02/27_10:59:33,YZ,None,
,,,,,,practice,0,1,1,917,2,V,1,left,0.4179295680078212,1,0,,,,,,,,,,,,,,,,,,,,,1,,,,,,,,,,,,,,,,,,,,,,,,,,,,,,,,,,,,,,,,,,,,,,80,152152,23,Female,1,2024/02/27_10:59:33,YZ,None,
,,,,,,practice,0,1,1,917,3,F,0,right,0.47448918799636886,1,0,,,,,,,,,,,,,,,,,,,,,1,,,,,,,,,,,,,,,,,,,,,,,,,,,,,,,,,,,,,,,,,,,,,,80,152152,23,Female,1,2024/02/27_10:59:33,YZ,None,
,,,,,,practice,0,1,1,917,4,V,0,right,0.36952979798661545,1,0,,,,,,,,,,,,,,,,,,,,,1,,,,,,,,,,,,,,,,,,,,,,,,,,,,,,,,,,,,,,,,,,,,,,80,152152,23,Female,1,2024/02/27_10:59:33,YZ,None,
,,,,,,practice,0,1,1,917,5,X,0,right,0.5446000569791067,1,0,,,,,,,,,,,,,,,,,,,,,1,,,,,,,,,,,,,,,,,,,,,,,,,,,,,,,,,,,,,,,,,,,,,,80,152152,23,Female,1,2024/02/27_10:59:33,YZ,None,
,,,,,,practice,0,1,1,917,6,X,1,left,0.4810468210198451,1,0,,,,,,,,,,,,,,,,,,,,,1,,,,,,,,,,,,,,,,,,,,,,,,,,,,,,,,,,,,,,,,,,,,,,80,152152,23,Female,1,2024/02/27_10:59:33,YZ,None,
,,,,,,practice,0,1,1,917,7,N,0,right,0.36192621098598465,1,0,,,,,,,,,,,,,,,,,,,,,1,,,,,,,,,,,,,,,,,,,,,,,,,,,,,,,,,,,,,,,,,,,,,,80,152152,23,Female,1,2024/02/27_10:59:33,YZ,None,
,,,,,,practice,0,1,1,917,8,N,1,left,0.6876192950003315,1,0,,,,,,,,,,,,,,,,,,,,,1,,,,,,,,,,,,,,,,,,,,,,,,,,,,,,,,,,,,,,,,,,,,,,80,152152,23,Female,1,2024/02/27_10:59:33,YZ,None,
,,,,,,practice,0,1,1,917,9,V,0,right,0.4566786039795261,1,0,,,,,,,,,,,,,,,,,,,,,1,,,,,,,,,,,,,,,,,,,,,,,,,,,,,,,,,,,,,,,,,,,,,,80,152152,23,Female,1,2024/02/27_10:59:33,YZ,None,
,,,,,,practice,0,1,1,917,10,S,0,right,0.5531674199737608,1,0,,,,,,,,,,,,,,,,,,,,,1,,,,,,,,,,,,,,,,,,,,,,,,,,,,,,,,,,,,,,,,,,,,,,80,152152,23,Female,1,2024/02/27_10:59:33,YZ,None,
,,,,,,practice,0,1,1,917,11,N,0,left,0.5091183430049568,0,0,,,,,,,,,,,,,,,,,,,,,1,,,,,,,,,,,,,,,,,,,,,,,,,,,,,,,,,,,,,,,,,,,,,,80,152152,23,Female,1,2024/02/27_10:59:33,YZ,None,
,,,,,,practice,0,1,1,917,12,X,0,right,0.6360523480107076,1,0,,,,,,,,,,,,,,,,,,,,,1,,,,,,,,,,,,,,,,,,,,,,,,,,,,,,,,,,,,,,,,,,,,,,80,152152,23,Female,1,2024/02/27_10:59:33,YZ,None,
,,,,,,practice,0,1,1,917,,,,,,,,0.9722222222222222,1.0,0.1111111111111111,0.8888888888888888,0.0,0.8888888888888888,0.48559550857802,3,1,0,0,0,8,11,3,9,0,,,,1,,,,,,,,,,,,,,,,,,,,,,,,,,,,,,,,,,,,,,,,,,,,,,80,152152,23,Female,1,2024/02/27_10:59:33,YZ,None,
1,./instructions/inst_prac_3/Slide37.png,right,1.7504359640006442,435.75325927100494,437.5036952350056,,,,,,,,,,,,,,,,,,,,,,,,,,,,,,,,,1,,,,,,,,,,,,,,,,,,,,,,,,,,,,,,,,,,,,,,,,,,,,,,80,152152,23,Female,1,2024/02/27_10:59:33,YZ,None,
2,./instructions/inst_prac_3/Slide38.png,right,3.2058966550102923,437.5378096969798,440.7437063519901,,,,,,,,,,,,,,,,,,,,,,,,,,,,,,,,,1,,,,,,,,,,,,,,,,,,,,,,,,,,,,,,,,,,,,,,,,,,,,,,80,152152,23,Female,1,2024/02/27_10:59:33,YZ,None,
3,./instructions/inst_prac_3/Slide39.png,right,0.9738243829924613,440.7778846040019,441.75170898699434,,,,,,,,,,,,,,,,,,,,,,,,,,,,,,,,,1,,,,,,,,,,,,,,,,,,,,,,,,,,,,,,,,,,,,,,,,,,,,,,80,152152,23,Female,1,2024/02/27_10:59:33,YZ,None,
4,./instructions/inst_prac_3/Slide40.png,right,0.5660898920032196,441.7855197809986,442.3516096730018,,,,,,,,,,,,,,,,,,,,,,,,,,,,,,,,,1,,,,,,,,,,,,,,,,,,,,,,,,,,,,,,,,,,,,,,,,,,,,,,80,152152,23,Female,1,2024/02/27_10:59:33,YZ,None,
5,./instructions/inst_prac_3/Slide41.png,right,1.206312522990629,442.3853829569998,443.59169547999045,,,,,,,,,,,,,,,,,,,,,,,,,,,,,,,,,1,,,,,,,,,,,,,,,,,,,,,,,,,,,,,,,,,,,,,,,,,,,,,,80,152152,23,Female,1,2024/02/27_10:59:33,YZ,None,
6,./instructions/inst_prac_3/Slide42.png,right,0.8224880790221505,443.62513994198525,444.4476280210074,,,,,,,,,,,,,,,,,,,,,,,,,,,,,,,,,1,,,,,,,,,,,,,,,,,,,,,,,,,,,,,,,,,,,,,,,,,,,,,,80,152152,23,Female,1,2024/02/27_10:59:33,YZ,None,
7,./instructions/inst_prac_3/Slide43.png,right,1.1180801689915825,444.48159635899356,445.59967652798514,,,,,,,,,,,,,,,,,,,,,,,,,,,,,,,,,1,,,,,,,,,,,,,,,,,,,,,,,,,,,,,,,,,,,,,,,,,,,,,,80,152152,23,Female,1,2024/02/27_10:59:33,YZ,None,
8,./instructions/inst_prac_3/Slide44.png,right,0.8942065500013996,445.63359851698624,446.52780506698764,,,,,,,,,,,,,,,,,,,,,,,,,,,,,,,,,1,,,,,,,,,,,,,,,,,,,,,,,,,,,,,,,,,,,,,,,,,,,,,,80,152152,23,Female,1,2024/02/27_10:59:33,YZ,None,
,,,,,,practice,0,19,3,788,1,C,0,right,2.043708509998396,1,0,,,,,,,,,,,,,,,,,,,,,1,,,,,,,,,,,,,,,,,,,,,,,,,,,,,,,,,,,,,,,,,,,,,,80,152152,23,Female,1,2024/02/27_10:59:33,YZ,None,
,,,,,,practice,0,19,3,788,2,F,0,right,0.0286967960128095,1,0,,,,,,,,,,,,,,,,,,,,,1,,,,,,,,,,,,,,,,,,,,,,,,,,,,,,,,,,,,,,,,,,,,,,80,152152,23,Female,1,2024/02/27_10:59:33,YZ,None,
,,,,,,practice,0,19,3,788,3,Q,0,right,0.2703149559965823,1,0,,,,,,,,,,,,,,,,,,,,,1,,,,,,,,,,,,,,,,,,,,,,,,,,,,,,,,,,,,,,,,,,,,,,80,152152,23,Female,1,2024/02/27_10:59:33,YZ,None,
,,,,,,practice,0,19,3,788,4,C,1,left,1.2536677589814644,1,0,,,,,,,,,,,,,,,,,,,,,1,,,,,,,,,,,,,,,,,,,,,,,,,,,,,,,,,,,,,,,,,,,,,,80,152152,23,Female,1,2024/02/27_10:59:33,YZ,None,
,,,,,,practice,0,19,3,788,5,Q,0,right,0.7550264750025235,1,0,,,,,,,,,,,,,,,,,,,,,1,,,,,,,,,,,,,,,,,,,,,,,,,,,,,,,,,,,,,,,,,,,,,,80,152152,23,Female,1,2024/02/27_10:59:33,YZ,None,
,,,,,,practice,0,19,3,788,6,J,0,right,0.6374283829936758,1,0,,,,,,,,,,,,,,,,,,,,,1,,,,,,,,,,,,,,,,,,,,,,,,,,,,,,,,,,,,,,,,,,,,,,80,152152,23,Female,1,2024/02/27_10:59:33,YZ,None,
,,,,,,practice,0,19,3,788,7,X,0,right,0.8042699499928858,1,0,,,,,,,,,,,,,,,,,,,,,1,,,,,,,,,,,,,,,,,,,,,,,,,,,,,,,,,,,,,,,,,,,,,,80,152152,23,Female,1,2024/02/27_10:59:33,YZ,None,
,,,,,,practice,0,19,3,788,8,Q,1,left,0.6450572059839033,1,0,,,,,,,,,,,,,,,,,,,,,1,,,,,,,,,,,,,,,,,,,,,,,,,,,,,,,,,,,,,,,,,,,,,,80,152152,23,Female,1,2024/02/27_10:59:33,YZ,None,
,,,,,,practice,0,19,3,788,9,J,1,left,0.8129366929933894,1,0,,,,,,,,,,,,,,,,,,,,,1,,,,,,,,,,,,,,,,,,,,,,,,,,,,,,,,,,,,,,,,,,,,,,80,152152,23,Female,1,2024/02/27_10:59:33,YZ,None,
,,,,,,practice,0,19,3,788,10,N,0,right,1.069441347004613,1,0,,,,,,,,,,,,,,,,,,,,,1,,,,,,,,,,,,,,,,,,,,,,,,,,,,,,,,,,,,,,,,,,,,,,80,152152,23,Female,1,2024/02/27_10:59:33,YZ,None,
,,,,,,practice,0,19,3,788,11,S,0,right,0.8693104659905657,1,0,,,,,,,,,,,,,,,,,,,,,1,,,,,,,,,,,,,,,,,,,,,,,,,,,,,,,,,,,,,,,,,,,,,,80,152152,23,Female,1,2024/02/27_10:59:33,YZ,None,
,,,,,,practice,0,19,3,788,12,J,1,left,0.6755927920166869,1,0,,,,,,,,,,,,,,,,,,,,,1,,,,,,,,,,,,,,,,,,,,,,,,,,,,,,,,,,,,,,,,,,,,,,80,152152,23,Female,1,2024/02/27_10:59:33,YZ,None,
,,,,,,practice,0,19,3,788,13,S,0,right,0.857592324988218,1,0,,,,,,,,,,,,,,,,,,,,,1,,,,,,,,,,,,,,,,,,,,,,,,,,,,,,,,,,,,,,,,,,,,,,80,152152,23,Female,1,2024/02/27_10:59:33,YZ,None,
,,,,,,practice,0,19,3,788,,,,,,,,1.0,1.0,0.0,1.0,0.0,1.0,0.8248495121504396,4,0,0,0,0,9,13,4,9,0,,,,1,,,,,,,,,,,,,,,,,,,,,,,,,,,,,,,,,,,,,,,,,,,,,,80,152152,23,Female,1,2024/02/27_10:59:33,YZ,None,
1,./instructions/inst_prac_3_next/Slide49.png,right,1.9321618029789533,470.9394504420052,472.87161224498414,,,,,,,,,,,,,,,,,,,,,,,,,,,,,,,,,1,,,,,,,,,,,,,,,,,,,,,,,,,,,,,,,,,,,,,,,,,,,,,,80,152152,23,Female,1,2024/02/27_10:59:33,YZ,None,
,,,,,,practice,0,1,3,917,1,S,0,right,0.5993654899939429,1,0,,,,,,,,,,,,,,,,,,,,,1,,,,,,,,,,,,,,,,,,,,,,,,,,,,,,,,,,,,,,,,,,,,,,80,152152,23,Female,1,2024/02/27_10:59:33,YZ,None,
,,,,,,practice,0,1,3,917,2,F,0,right,0.2418981340015307,1,0,,,,,,,,,,,,,,,,,,,,,1,,,,,,,,,,,,,,,,,,,,,,,,,,,,,,,,,,,,,,,,,,,,,,80,152152,23,Female,1,2024/02/27_10:59:33,YZ,None,
,,,,,,practice,0,1,3,917,3,F,0,right,0.48086419102037326,1,0,,,,,,,,,,,,,,,,,,,,,1,,,,,,,,,,,,,,,,,,,,,,,,,,,,,,,,,,,,,,,,,,,,,,80,152152,23,Female,1,2024/02/27_10:59:33,YZ,None,
,,,,,,practice,0,1,3,917,4,Q,0,right,0.43236351100495085,1,0,,,,,,,,,,,,,,,,,,,,,1,,,,,,,,,,,,,,,,,,,,,,,,,,,,,,,,,,,,,,,,,,,,,,80,152152,23,Female,1,2024/02/27_10:59:33,YZ,None,
,,,,,,practice,0,1,3,917,5,Q,0,right,1.3054286330007017,1,0,,,,,,,,,,,,,,,,,,,,,1,,,,,,,,,,,,,,,,,,,,,,,,,,,,,,,,,,,,,,,,,,,,,,80,152152,23,Female,1,2024/02/27_10:59:33,YZ,None,
,,,,,,practice,0,1,3,917,6,F,1,left,0.5401544240012299,1,0,,,,,,,,,,,,,,,,,,,,,1,,,,,,,,,,,,,,,,,,,,,,,,,,,,,,,,,,,,,,,,,,,,,,80,152152,23,Female,1,2024/02/27_10:59:33,YZ,None,
,,,,,,practice,0,1,3,917,7,X,0,right,0.4689758280001115,1,0,,,,,,,,,,,,,,,,,,,,,1,,,,,,,,,,,,,,,,,,,,,,,,,,,,,,,,,,,,,,,,,,,,,,80,152152,23,Female,1,2024/02/27_10:59:33,YZ,None,
,,,,,,practice,0,1,3,917,8,V,0,right,0.4477426719968207,1,0,,,,,,,,,,,,,,,,,,,,,1,,,,,,,,,,,,,,,,,,,,,,,,,,,,,,,,,,,,,,,,,,,,,,80,152152,23,Female,1,2024/02/27_10:59:33,YZ,None,
,,,,,,practice,0,1,3,917,9,Q,0,left,0.6850094839755911,0,0,,,,,,,,,,,,,,,,,,,,,1,,,,,,,,,,,,,,,,,,,,,,,,,,,,,,,,,,,,,,,,,,,,,,80,152152,23,Female,1,2024/02/27_10:59:33,YZ,None,
,,,,,,practice,0,1,3,917,10,J,0,right,0.5523318969935644,1,0,,,,,,,,,,,,,,,,,,,,,1,,,,,,,,,,,,,,,,,,,,,,,,,,,,,,,,,,,,,,,,,,,,,,80,152152,23,Female,1,2024/02/27_10:59:33,YZ,None,
,,,,,,practice,0,1,3,917,11,V,1,right,0.5009209380077664,0,0,,,,,,,,,,,,,,,,,,,,,1,,,,,,,,,,,,,,,,,,,,,,,,,,,,,,,,,,,,,,,,,,,,,,80,152152,23,Female,1,2024/02/27_10:59:33,YZ,None,
,,,,,,practice,0,1,3,917,12,Q,1,left,1.160255305992905,1,0,,,,,,,,,,,,,,,,,,,,,1,,,,,,,,,,,,,,,,,,,,,,,,,,,,,,,,,,,,,,,,,,,,,,80,152152,23,Female,1,2024/02/27_10:59:33,YZ,None,
,,,,,,practice,0,1,3,917,,,,,,,,0.8518518518518517,0.6666666666666666,0.1111111111111111,0.8888888888888888,0.0,0.8888888888888888,0.6179425423324574,2,1,0,0,0,8,10,3,9,0,,,,1,,,,,,,,,,,,,,,,,,,,,,,,,,,,,,,,,,,,,,,,,,,,,,80,152152,23,Female,1,2024/02/27_10:59:33,YZ,None,
,,,,,,practice,0,10,3,917,1,Q,0,right,0.7326158750220202,1,0,,,,,,,,,,,,,,,,,,,,,1,,,,,,,,,,,,,,,,,,,,,,,,,,,,,,,,,,,,,,,,,,,,,,80,152152,23,Female,1,2024/02/27_10:59:33,YZ,None,
,,,,,,practice,0,10,3,917,2,F,0,right,0.22857084998395294,1,0,,,,,,,,,,,,,,,,,,,,,1,,,,,,,,,,,,,,,,,,,,,,,,,,,,,,,,,,,,,,,,,,,,,,80,152152,23,Female,1,2024/02/27_10:59:33,YZ,None,
,,,,,,practice,0,10,3,917,3,C,0,right,0.2736828440101817,1,0,,,,,,,,,,,,,,,,,,,,,1,,,,,,,,,,,,,,,,,,,,,,,,,,,,,,,,,,,,,,,,,,,,,,80,152152,23,Female,1,2024/02/27_10:59:33,YZ,None,
,,,,,,practice,0,10,3,917,4,Q,1,right,0.9310180660104379,0,0,,,,,,,,,,,,,,,,,,,,,1,,,,,,,,,,,,,,,,,,,,,,,,,,,,,,,,,,,,,,,,,,,,,,80,152152,23,Female,1,2024/02/27_10:59:33,YZ,None,
,,,,,,practice,0,10,3,917,5,X,0,right,0.41670016301213764,1,0,,,,,,,,,,,,,,,,,,,,,1,,,,,,,,,,,,,,,,,,,,,,,,,,,,,,,,,,,,,,,,,,,,,,80,152152,23,Female,1,2024/02/27_10:59:33,YZ,None,
,,,,,,practice,0,10,3,917,6,C,1,right,0.740496821992565,0,0,,,,,,,,,,,,,,,,,,,,,1,,,,,,,,,,,,,,,,,,,,,,,,,,,,,,,,,,,,,,,,,,,,,,80,152152,23,Female,1,2024/02/27_10:59:33,YZ,None,
,,,,,,practice,0,10,3,917,7,J,0,right,0.5539326120051555,1,0,,,,,,,,,,,,,,,,,,,,,1,,,,,,,,,,,,,,,,,,,,,,,,,,,,,,,,,,,,,,,,,,,,,,80,152152,23,Female,1,2024/02/27_10:59:33,YZ,None,
,,,,,,practice,0,10,3,917,8,C,0,left,0.6324889429961331,0,0,,,,,,,,,,,,,,,,,,,,,1,,,,,,,,,,,,,,,,,,,,,,,,,,,,,,,,,,,,,,,,,,,,,,80,152152,23,Female,1,2024/02/27_10:59:33,YZ,None,
,,,,,,practice,0,10,3,917,9,S,0,right,0.29865482097375207,1,0,,,,,,,,,,,,,,,,,,,,,1,,,,,,,,,,,,,,,,,,,,,,,,,,,,,,,,,,,,,,,,,,,,,,80,152152,23,Female,1,2024/02/27_10:59:33,YZ,None,
,,,,,,practice,0,10,3,917,10,J,1,right,0.35188614900107495,0,0,,,,,,,,,,,,,,,,,,,,,1,,,,,,,,,,,,,,,,,,,,,,,,,,,,,,,,,,,,,,,,,,,,,,80,152152,23,Female,1,2024/02/27_10:59:33,YZ,None,
,,,,,,practice,0,10,3,917,11,S,0,right,0.46494540901039727,1,0,,,,,,,,,,,,,,,,,,,,,1,,,,,,,,,,,,,,,,,,,,,,,,,,,,,,,,,,,,,,,,,,,,,,80,152152,23,Female,1,2024/02/27_10:59:33,YZ,None,
,,,,,,practice,0,10,3,917,12,C,0,right,0.5662769440095872,1,0,,,,,,,,,,,,,,,,,,,,,1,,,,,,,,,,,,,,,,,,,,,,,,,,,,,,,,,,,,,,,,,,,,,,80,152152,23,Female,1,2024/02/27_10:59:33,YZ,None,
,,,,,,practice,0,10,3,917,,,,,,,,0.2222222222222222,0.0,0.1111111111111111,0.8888888888888888,0.0,0.8888888888888888,0.5159391248356163,0,1,0,0,0,8,8,3,9,0,,,,1,,,,,,,,,,,,,,,,,,,,,,,,,,,,,,,,,,,,,,,,,,,,,,80,152152,23,Female,1,2024/02/27_10:59:33,YZ,None,
1,./instructions/inst_redo_3/Slide47.png,right,8.478728029993363,501.66493620700203,510.1436642369954,,,,,,,,,,,,,,,,,,,,,,,,,,,,,,,,,1,,,,,,,,,,,,,,,,,,,,,,,,,,,,,,,,,,,,,,,,,,,,,,80,152152,23,Female,1,2024/02/27_10:59:33,YZ,None,
,,,,,,practice,0,1,3,917,1,S,0,right,1.8359307379869279,1,0,,,,,,,,,,,,,,,,,,,,,1,,,,,,,,,,,,,,,,,,,,,,,,,,,,,,,,,,,,,,,,,,,,,,80,152152,23,Female,1,2024/02/27_10:59:33,YZ,None,
,,,,,,practice,0,1,3,917,2,F,0,right,0.6736129549972247,1,0,,,,,,,,,,,,,,,,,,,,,1,,,,,,,,,,,,,,,,,,,,,,,,,,,,,,,,,,,,,,,,,,,,,,80,152152,23,Female,1,2024/02/27_10:59:33,YZ,None,
,,,,,,practice,0,1,3,917,3,F,0,right,0.8985379520163406,1,0,,,,,,,,,,,,,,,,,,,,,1,,,,,,,,,,,,,,,,,,,,,,,,,,,,,,,,,,,,,,,,,,,,,,80,152152,23,Female,1,2024/02/27_10:59:33,YZ,None,
,,,,,,practice,0,1,3,917,4,Q,0,right,1.1679471519892104,1,0,,,,,,,,,,,,,,,,,,,,,1,,,,,,,,,,,,,,,,,,,,,,,,,,,,,,,,,,,,,,,,,,,,,,80,152152,23,Female,1,2024/02/27_10:59:33,YZ,None,
,,,,,,practice,0,1,3,917,5,Q,0,right,1.0014051070029382,1,0,,,,,,,,,,,,,,,,,,,,,1,,,,,,,,,,,,,,,,,,,,,,,,,,,,,,,,,,,,,,,,,,,,,,80,152152,23,Female,1,2024/02/27_10:59:33,YZ,None,
,,,,,,practice,0,1,3,917,6,F,1,left,0.9165875189937651,1,0,,,,,,,,,,,,,,,,,,,,,1,,,,,,,,,,,,,,,,,,,,,,,,,,,,,,,,,,,,,,,,,,,,,,80,152152,23,Female,1,2024/02/27_10:59:33,YZ,None,
,,,,,,practice,0,1,3,917,7,X,0,right,0.6972905629954766,1,0,,,,,,,,,,,,,,,,,,,,,1,,,,,,,,,,,,,,,,,,,,,,,,,,,,,,,,,,,,,,,,,,,,,,80,152152,23,Female,1,2024/02/27_10:59:33,YZ,None,
,,,,,,practice,0,1,3,917,8,V,0,right,1.2485892600088846,1,0,,,,,,,,,,,,,,,,,,,,,1,,,,,,,,,,,,,,,,,,,,,,,,,,,,,,,,,,,,,,,,,,,,,,80,152152,23,Female,1,2024/02/27_10:59:33,YZ,None,
,,,,,,practice,0,1,3,917,9,Q,0,right,1.3324368030007463,1,0,,,,,,,,,,,,,,,,,,,,,1,,,,,,,,,,,,,,,,,,,,,,,,,,,,,,,,,,,,,,,,,,,,,,80,152152,23,Female,1,2024/02/27_10:59:33,YZ,None,
,,,,,,practice,0,1,3,917,10,J,0,right,1.4323999350017402,1,0,,,,,,,,,,,,,,,,,,,,,1,,,,,,,,,,,,,,,,,,,,,,,,,,,,,,,,,,,,,,,,,,,,,,80,152152,23,Female,1,2024/02/27_10:59:33,YZ,None,
,,,,,,practice,0,1,3,917,11,V,1,right,1.3090000679949299,0,0,,,,,,,,,,,,,,,,,,,,,1,,,,,,,,,,,,,,,,,,,,,,,,,,,,,,,,,,,,,,,,,,,,,,80,152152,23,Female,1,2024/02/27_10:59:33,YZ,None,
,,,,,,practice,0,1,3,917,12,Q,1,left,0.7531880830065347,1,0,,,,,,,,,,,,,,,,,,,,,1,,,,,,,,,,,,,,,,,,,,,,,,,,,,,,,,,,,,,,,,,,,,,,80,152152,23,Female,1,2024/02/27_10:59:33,YZ,None,
,,,,,,practice,0,1,3,917,,,,,,,,0.9166666666666666,0.6666666666666666,0.0,1.0,0.0,1.0,1.1055771779162267,2,0,0,0,0,9,11,3,9,0,,,,1,,,,,,,,,,,,,,,,,,,,,,,,,,,,,,,,,,,,,,,,,,,,,,80,152152,23,Female,1,2024/02/27_10:59:33,YZ,None,
1,./instructions/inst_prac_main/Slide51.png,right,1.9278562620165758,532.2876886559825,534.2155449179991,,,,,,,,,,,,,,,,,,,,,,,,,,,,,,,,,1,,,,,,,,,,,,,,,,,,,,,,,,,,,,,,,,,,,,,,,,,,,,,,80,152152,23,Female,1,2024/02/27_10:59:33,YZ,None,
2,./instructions/inst_prac_main/Slide52.png,right,7.622185969987186,534.2494009780057,541.8715869479929,,,,,,,,,,,,,,,,,,,,,,,,,,,,,,,,,1,,,,,,,,,,,,,,,,,,,,,,,,,,,,,,,,,,,,,,,,,,,,,,80,152152,23,Female,1,2024/02/27_10:59:33,YZ,None,
3,./instructions/inst_prac_main/Slide53.png,right,2.4373013110016473,541.9065541949822,544.3438555059838,,,,,,,,,,,,,,,,,,,,,,,,,,,,,,,,,1,,,,,,,,,,,,,,,,,,,,,,,,,,,,,,,,,,,,,,,,,,,,,,80,152152,23,Female,1,2024/02/27_10:59:33,YZ,None,
4,./instructions/inst_prac_main/Slide54.png,right,11.349545370991109,544.3780918970006,555.7276372679917,,,,,,,,,,,,,,,,,,,,,,,,,,,,,,,,,1,,,,,,,,,,,,,,,,,,,,,,,,,,,,,,,,,,,,,,,,,,,,,,80,152152,23,Female,1,2024/02/27_10:59:33,YZ,None,
,,,,,,practice_main,0,1,3,917,1,S,0,right,0.8923867410048842,1,0,,,,,,,,,,,,,,,,,,,,,1,,,,,,,,,,,,,,,,,,,,,,,,,,,,,,,,,,,,,,,,,,,,,,80,152152,23,Female,1,2024/02/27_10:59:33,YZ,None,
,,,,,,practice_main,0,1,3,917,2,F,0,right,0.3622136549965944,1,0,,,,,,,,,,,,,,,,,,,,,1,,,,,,,,,,,,,,,,,,,,,,,,,,,,,,,,,,,,,,,,,,,,,,80,152152,23,Female,1,2024/02/27_10:59:33,YZ,None,
,,,,,,practice_main,0,1,3,917,3,F,0,right,0.48254687298322096,1,0,,,,,,,,,,,,,,,,,,,,,1,,,,,,,,,,,,,,,,,,,,,,,,,,,,,,,,,,,,,,,,,,,,,,80,152152,23,Female,1,2024/02/27_10:59:33,YZ,None,
,,,,,,practice_main,0,1,3,917,4,Q,0,right,0.6427966530027334,1,0,,,,,,,,,,,,,,,,,,,,,1,,,,,,,,,,,,,,,,,,,,,,,,,,,,,,,,,,,,,,,,,,,,,,80,152152,23,Female,1,2024/02/27_10:59:33,YZ,None,
,,,,,,practice_main,0,1,3,917,5,Q,0,right,0.5457401490129996,1,0,,,,,,,,,,,,,,,,,,,,,1,,,,,,,,,,,,,,,,,,,,,,,,,,,,,,,,,,,,,,,,,,,,,,80,152152,23,Female,1,2024/02/27_10:59:33,YZ,None,
,,,,,,practice_main,0,1,3,917,6,F,1,left,0.5822595430072397,1,0,,,,,,,,,,,,,,,,,,,,,1,,,,,,,,,,,,,,,,,,,,,,,,,,,,,,,,,,,,,,,,,,,,,,80,152152,23,Female,1,2024/02/27_10:59:33,YZ,None,
,,,,,,practice_main,0,1,3,917,7,X,0,right,0.31946936101303436,1,0,,,,,,,,,,,,,,,,,,,,,1,,,,,,,,,,,,,,,,,,,,,,,,,,,,,,,,,,,,,,,,,,,,,,80,152152,23,Female,1,2024/02/27_10:59:33,YZ,None,
,,,,,,practice_main,0,1,3,917,8,V,0,right,0.38395515401498415,1,0,,,,,,,,,,,,,,,,,,,,,1,,,,,,,,,,,,,,,,,,,,,,,,,,,,,,,,,,,,,,,,,,,,,,80,152152,23,Female,1,2024/02/27_10:59:33,YZ,None,
,,,,,,practice_main,0,1,3,917,9,Q,0,left,0.7900520139955916,0,0,,,,,,,,,,,,,,,,,,,,,1,,,,,,,,,,,,,,,,,,,,,,,,,,,,,,,,,,,,,,,,,,,,,,80,152152,23,Female,1,2024/02/27_10:59:33,YZ,None,
,,,,,,practice_main,0,1,3,917,10,J,0,right,0.37924333798582666,1,0,,,,,,,,,,,,,,,,,,,,,1,,,,,,,,,,,,,,,,,,,,,,,,,,,,,,,,,,,,,,,,,,,,,,80,152152,23,Female,1,2024/02/27_10:59:33,YZ,None,
,,,,,,practice_main,0,1,3,917,11,V,1,right,0.40805942798033357,0,0,,,,,,,,,,,,,,,,,,,,,1,,,,,,,,,,,,,,,,,,,,,,,,,,,,,,,,,,,,,,,,,,,,,,80,152152,23,Female,1,2024/02/27_10:59:33,YZ,None,
,,,,,,practice_main,0,1,3,917,12,Q,1,left,0.5785758550046012,1,0,,,,,,,,,,,,,,,,,,,,,1,,,,,,,,,,,,,,,,,,,,,,,,,,,,,,,,,,,,,,,,,,,,,,80,152152,23,Female,1,2024/02/27_10:59:33,YZ,None,
,,,,,,practice_main,0,1,3,917,,,,,,,,0.8518518518518517,0.6666666666666666,0.1111111111111111,0.8888888888888888,0.0,0.8888888888888888,0.5306082303335037,2,1,0,0,0,8,10,3,9,0,,,,1,,,,,,,,,,,,,,,,,,,,,,,,,,,,,,,,,,,,,,,,,,,,,,80,152152,23,Female,1,2024/02/27_10:59:33,YZ,None,
,,,,,240227_111117,PRACTICE,0,1,3,917,,,,,,,,,,,,,,,,,,,,,,,,,,,,1,22,1,1,cue1.png,hard,B,57,2.281794430979062,0,558.7959509569919,561.1055998759985,,,,,,,,,,,,,,,,,,,,,,,,,,,,,,,,,,,80,152152,23,Female,1,2024/02/27_10:59:33,YZ,None,
,,,,,,practice_main,0,2,3,917,1,X,0,right,0.48108136499649845,1,0,,,,,,,,,,,,,,,,,,,,,1,,,,,,,,,,,,,,,,,,,,,,,,,,,,,,,,,,,,,,,,,,,,,,80,152152,23,Female,1,2024/02/27_10:59:33,YZ,None,
,,,,,,practice_main,0,2,3,917,2,X,0,right,0.7737358800077345,1,0,,,,,,,,,,,,,,,,,,,,,1,,,,,,,,,,,,,,,,,,,,,,,,,,,,,,,,,,,,,,,,,,,,,,80,152152,23,Female,1,2024/02/27_10:59:33,YZ,None,
,,,,,,practice_main,0,2,3,917,3,F,0,right,0.35568796398001723,1,0,,,,,,,,,,,,,,,,,,,,,1,,,,,,,,,,,,,,,,,,,,,,,,,,,,,,,,,,,,,,,,,,,,,,80,152152,23,Female,1,2024/02/27_10:59:33,YZ,None,
,,,,,,practice_main,0,2,3,917,4,J,0,right,0.53704001501319,1,0,,,,,,,,,,,,,,,,,,,,,1,,,,,,,,,,,,,,,,,,,,,,,,,,,,,,,,,,,,,,,,,,,,,,80,152152,23,Female,1,2024/02/27_10:59:33,YZ,None,
,,,,,,practice_main,0,2,3,917,5,F,0,right,0.43709232099354267,1,0,,,,,,,,,,,,,,,,,,,,,1,,,,,,,,,,,,,,,,,,,,,,,,,,,,,,,,,,,,,,,,,,,,,,80,152152,23,Female,1,2024/02/27_10:59:33,YZ,None,
,,,,,,practice_main,0,2,3,917,6,J,0,right,0.726830906001851,1,0,,,,,,,,,,,,,,,,,,,,,1,,,,,,,,,,,,,,,,,,,,,,,,,,,,,,,,,,,,,,,,,,,,,,80,152152,23,Female,1,2024/02/27_10:59:33,YZ,None,
,,,,,,practice_main,0,2,3,917,7,C,0,right,0.5606667649990413,1,0,,,,,,,,,,,,,,,,,,,,,1,,,,,,,,,,,,,,,,,,,,,,,,,,,,,,,,,,,,,,,,,,,,,,80,152152,23,Female,1,2024/02/27_10:59:33,YZ,None,
,,,,,,practice_main,0,2,3,917,8,F,1,left,0.42424616898642853,1,0,,,,,,,,,,,,,,,,,,,,,1,,,,,,,,,,,,,,,,,,,,,,,,,,,,,,,,,,,,,,,,,,,,,,80,152152,23,Female,1,2024/02/27_10:59:33,YZ,None,
,,,,,,practice_main,0,2,3,917,9,X,0,right,0.35996173101011664,1,0,,,,,,,,,,,,,,,,,,,,,1,,,,,,,,,,,,,,,,,,,,,,,,,,,,,,,,,,,,,,,,,,,,,,80,152152,23,Female,1,2024/02/27_10:59:33,YZ,None,
,,,,,,practice_main,0,2,3,917,10,X,0,right,0.9601571029925253,1,0,,,,,,,,,,,,,,,,,,,,,1,,,,,,,,,,,,,,,,,,,,,,,,,,,,,,,,,,,,,,,,,,,,,,80,152152,23,Female,1,2024/02/27_10:59:33,YZ,None,
,,,,,,practice_main,0,2,3,917,11,F,1,left,0.8524033660069108,1,0,,,,,,,,,,,,,,,,,,,,,1,,,,,,,,,,,,,,,,,,,,,,,,,,,,,,,,,,,,,,,,,,,,,,80,152152,23,Female,1,2024/02/27_10:59:33,YZ,None,
,,,,,,practice_main,0,2,3,917,12,X,1,right,0.7082316669984721,0,0,,,,,,,,,,,,,,,,,,,,,1,,,,,,,,,,,,,,,,,,,,,,,,,,,,,,,,,,,,,,,,,,,,,,80,152152,23,Female,1,2024/02/27_10:59:33,YZ,None,
,,,,,,practice_main,0,2,3,917,,,,,,,,0.9166666666666666,0.6666666666666666,0.0,1.0,0.0,1.0,0.5980946043321941,2,0,0,0,0,9,11,3,9,0,,,,1,,,,,,,,,,,,,,,,,,,,,,,,,,,,,,,,,,,,,,,,,,,,,,80,152152,23,Female,1,2024/02/27_10:59:33,YZ,None,
,,,,,240227_111142,PRACTICE,0,2,3,917,,,,,,,,,,,,,,,,,,,,,,,,,,,,1,2,2,2,cue1.png,hard,B,55,2.25489544699667,0,582.9200140239845,585.1899546110071,,,,,,,,,,,,,,,,,,,,,,,,,,,,,,,,,,,80,152152,23,Female,1,2024/02/27_10:59:33,YZ,None,
,,,,,,practice_main,0,3,3,917,1,Q,0,right,0.5121360899938736,1,0,,,,,,,,,,,,,,,,,,,,,1,,,,,,,,,,,,,,,,,,,,,,,,,,,,,,,,,,,,,,,,,,,,,,80,152152,23,Female,1,2024/02/27_10:59:33,YZ,None,
,,,,,,practice_main,0,3,3,917,2,V,0,right,0.37184951998642646,1,0,,,,,,,,,,,,,,,,,,,,,1,,,,,,,,,,,,,,,,,,,,,,,,,,,,,,,,,,,,,,,,,,,,,,80,152152,23,Female,1,2024/02/27_10:59:33,YZ,None,
,,,,,,practice_main,0,3,3,917,3,F,0,right,0.40895830298541114,1,0,,,,,,,,,,,,,,,,,,,,,1,,,,,,,,,,,,,,,,,,,,,,,,,,,,,,,,,,,,,,,,,,,,,,80,152152,23,Female,1,2024/02/27_10:59:33,YZ,None,
,,,,,,practice_main,0,3,3,917,4,F,0,right,0.6754981620179024,1,0,,,,,,,,,,,,,,,,,,,,,1,,,,,,,,,,,,,,,,,,,,,,,,,,,,,,,,,,,,,,,,,,,,,,80,152152,23,Female,1,2024/02/27_10:59:33,YZ,None,
,,,,,,practice_main,0,3,3,917,5,V,1,right,0.4424373699876014,0,0,,,,,,,,,,,,,,,,,,,,,1,,,,,,,,,,,,,,,,,,,,,,,,,,,,,,,,,,,,,,,,,,,,,,80,152152,23,Female,1,2024/02/27_10:59:33,YZ,None,
,,,,,,practice_main,0,3,3,917,6,F,1,left,0.48201441299170256,1,0,,,,,,,,,,,,,,,,,,,,,1,,,,,,,,,,,,,,,,,,,,,,,,,,,,,,,,,,,,,,,,,,,,,,80,152152,23,Female,1,2024/02/27_10:59:33,YZ,None,
,,,,,,practice_main,0,3,3,917,7,Q,0,right,0.3606112780107651,1,0,,,,,,,,,,,,,,,,,,,,,1,,,,,,,,,,,,,,,,,,,,,,,,,,,,,,,,,,,,,,,,,,,,,,80,152152,23,Female,1,2024/02/27_10:59:33,YZ,None,
,,,,,,practice_main,0,3,3,917,8,F,0,right,0.6419559820205905,1,0,,,,,,,,,,,,,,,,,,,,,1,,,,,,,,,,,,,,,,,,,,,,,,,,,,,,,,,,,,,,,,,,,,,,80,152152,23,Female,1,2024/02/27_10:59:33,YZ,None,
,,,,,,practice_main,0,3,3,917,9,V,0,right,0.5743843140080571,1,0,,,,,,,,,,,,,,,,,,,,,1,,,,,,,,,,,,,,,,,,,,,,,,,,,,,,,,,,,,,,,,,,,,,,80,152152,23,Female,1,2024/02/27_10:59:33,YZ,None,
,,,,,,practice_main,0,3,3,917,10,C,0,right,0.7886699869995937,1,0,,,,,,,,,,,,,,,,,,,,,1,,,,,,,,,,,,,,,,,,,,,,,,,,,,,,,,,,,,,,,,,,,,,,80,152152,23,Female,1,2024/02/27_10:59:33,YZ,None,
,,,,,,practice_main,0,3,3,917,11,C,0,right,0.6451784009987023,1,0,,,,,,,,,,,,,,,,,,,,,1,,,,,,,,,,,,,,,,,,,,,,,,,,,,,,,,,,,,,,,,,,,,,,80,152152,23,Female,1,2024/02/27_10:59:33,YZ,None,
,,,,,,practice_main,0,3,3,917,12,V,1,right,0.5491694680240471,0,0,,,,,,,,,,,,,,,,,,,,,1,,,,,,,,,,,,,,,,,,,,,,,,,,,,,,,,,,,,,,,,,,,,,,80,152152,23,Female,1,2024/02/27_10:59:33,YZ,None,
,,,,,,practice_main,0,3,3,917,,,,,,,,0.8333333333333334,0.3333333333333333,0.0,1.0,0.0,1.0,0.5377386073353895,1,0,0,0,0,9,10,3,9,0,,,,1,,,,,,,,,,,,,,,,,,,,,,,,,,,,,,,,,,,,,,,,,,,,,,80,152152,23,Female,1,2024/02/27_10:59:33,YZ,None,
,,,,,240227_111205,PRACTICE,0,3,3,917,,,,,,,,,,,,,,,,,,,,,,,,,,,,1,7,3,3,cue1.png,hard,B,56,1.444940711982781,0,607.8049635769858,609.2706168949953,,,,,,,,,,,,,,,,,,,,,,,,,,,,,,,,,,,80,152152,23,Female,1,2024/02/27_10:59:33,YZ,None,
1,./instructions/inst_prac_end/Slide56.png,right,2.0681558639917057,629.6834543709992,631.751610234991,,,,,,,,,,,,,,,,,,,,,,,,,,,,,,,,,1,,,,,,,,,,,,,,,,,,,,,,,,,,,,,,,,,,,,,,,,,,,,,,80,152152,23,Female,1,2024/02/27_10:59:33,YZ,None,
1,./instructions/inst_test/Slide57.png,right,31.569824744015932,631.7898702079838,663.3596949519997,,,,,,,,,,,,,,,,,,,,,,,,,,,,,,,,,1,,,,,,,,,,,,,,,,,,,,,,,,,,,,,,,,,,,,,,,,,,,,,,80,152152,23,Female,1,2024/02/27_10:59:33,YZ,None,
,,,,,,test,1,1,1,917,1,N,0,right,0.4802459210040979,1,0,,,,,,,,,,,,,,,,,,,,,1,,,,,,,,,,,,,,,,,,,,,,,,,,,,,,,,,,,,,,,,,,,,,,80,152152,23,Female,1,2024/02/27_10:59:33,YZ,None,
,,,,,,test,1,1,1,917,2,V,0,right,0.39190875602071173,1,0,,,,,,,,,,,,,,,,,,,,,1,,,,,,,,,,,,,,,,,,,,,,,,,,,,,,,,,,,,,,,,,,,,,,80,152152,23,Female,1,2024/02/27_10:59:33,YZ,None,
,,,,,,test,1,1,1,917,3,V,1,left,0.5423012599931099,1,0,,,,,,,,,,,,,,,,,,,,,1,,,,,,,,,,,,,,,,,,,,,,,,,,,,,,,,,,,,,,,,,,,,,,80,152152,23,Female,1,2024/02/27_10:59:33,YZ,None,
,,,,,,test,1,1,1,917,4,F,0,right,0.3927635400032159,1,0,,,,,,,,,,,,,,,,,,,,,1,,,,,,,,,,,,,,,,,,,,,,,,,,,,,,,,,,,,,,,,,,,,,,80,152152,23,Female,1,2024/02/27_10:59:33,YZ,None,
,,,,,,test,1,1,1,917,5,Q,0,right,0.3869308659923263,1,0,,,,,,,,,,,,,,,,,,,,,1,,,,,,,,,,,,,,,,,,,,,,,,,,,,,,,,,,,,,,,,,,,,,,80,152152,23,Female,1,2024/02/27_10:59:33,YZ,None,
,,,,,,test,1,1,1,917,6,N,0,right,0.46629332497832365,1,0,,,,,,,,,,,,,,,,,,,,,1,,,,,,,,,,,,,,,,,,,,,,,,,,,,,,,,,,,,,,,,,,,,,,80,152152,23,Female,1,2024/02/27_10:59:33,YZ,None,
,,,,,,test,1,1,1,917,7,C,0,right,0.48424530899501406,1,0,,,,,,,,,,,,,,,,,,,,,1,,,,,,,,,,,,,,,,,,,,,,,,,,,,,,,,,,,,,,,,,,,,,,80,152152,23,Female,1,2024/02/27_10:59:33,YZ,None,
,,,,,,test,1,1,1,917,8,C,1,left,0.46564010297879577,1,0,,,,,,,,,,,,,,,,,,,,,1,,,,,,,,,,,,,,,,,,,,,,,,,,,,,,,,,,,,,,,,,,,,,,80,152152,23,Female,1,2024/02/27_10:59:33,YZ,None,
,,,,,,test,1,1,1,917,9,F,0,right,0.4258506999758538,1,0,,,,,,,,,,,,,,,,,,,,,1,,,,,,,,,,,,,,,,,,,,,,,,,,,,,,,,,,,,,,,,,,,,,,80,152152,23,Female,1,2024/02/27_10:59:33,YZ,None,
,,,,,,test,1,1,1,917,10,N,0,right,0.5335622720012907,1,0,,,,,,,,,,,,,,,,,,,,,1,,,,,,,,,,,,,,,,,,,,,,,,,,,,,,,,,,,,,,,,,,,,,,80,152152,23,Female,1,2024/02/27_10:59:33,YZ,None,
,,,,,,test,1,1,1,917,11,Q,0,right,0.5122354699997231,1,0,,,,,,,,,,,,,,,,,,,,,1,,,,,,,,,,,,,,,,,,,,,,,,,,,,,,,,,,,,,,,,,,,,,,80,152152,23,Female,1,2024/02/27_10:59:33,YZ,None,
,,,,,,test,1,1,1,917,12,Q,1,left,0.6415950219961815,1,0,,,,,,,,,,,,,,,,,,,,,1,,,,,,,,,,,,,,,,,,,,,,,,,,,,,,,,,,,,,,,,,,,,,,80,152152,23,Female,1,2024/02/27_10:59:33,YZ,None,
,,,,,,Test,1,1,1,917,,,,,,,,1.0,1.0,0.0,1.0,0.0,1.0,0.47696437866155367,3,0,0,0,0,9,12,3,9,0,,,,1,,,,,,,,,,,,,,,,,,,,,,,,,,,,,,,,,,,,,,,,,,,,,,80,152152,23,Female,1,2024/02/27_10:59:33,YZ,None,
,,,,,240227_111313,TEST,1,1,1,917,,,,,,,,,,,,,,,,,,,,,,,,,,,,1,1,2,1,cue2.png,easy,B,46,1.5618828409933485,0,676.4731934809824,678.0542448530032,,,,,,,,,,,,,,,,,,,,,,,,,,,,,,,,,,,80,152152,23,Female,1,2024/02/27_10:59:33,YZ,None,
,,,,,,test,1,2,3,917,1,X,0,right,0.6745067370065954,1,0,,,,,,,,,,,,,,,,,,,,,1,,,,,,,,,,,,,,,,,,,,,,,,,,,,,,,,,,,,,,,,,,,,,,80,152152,23,Female,1,2024/02/27_10:59:33,YZ,None,
,,,,,,test,1,2,3,917,2,X,0,right,0.6078277589986101,1,0,,,,,,,,,,,,,,,,,,,,,1,,,,,,,,,,,,,,,,,,,,,,,,,,,,,,,,,,,,,,,,,,,,,,80,152152,23,Female,1,2024/02/27_10:59:33,YZ,None,
,,,,,,test,1,2,3,917,3,F,0,right,0.359202705003554,1,0,,,,,,,,,,,,,,,,,,,,,1,,,,,,,,,,,,,,,,,,,,,,,,,,,,,,,,,,,,,,,,,,,,,,80,152152,23,Female,1,2024/02/27_10:59:33,YZ,None,
,,,,,,test,1,2,3,917,4,J,0,right,0.40228689002105966,1,0,,,,,,,,,,,,,,,,,,,,,1,,,,,,,,,,,,,,,,,,,,,,,,,,,,,,,,,,,,,,,,,,,,,,80,152152,23,Female,1,2024/02/27_10:59:33,YZ,None,
,,,,,,test,1,2,3,917,5,F,0,right,0.46653859099023975,1,0,,,,,,,,,,,,,,,,,,,,,1,,,,,,,,,,,,,,,,,,,,,,,,,,,,,,,,,,,,,,,,,,,,,,80,152152,23,Female,1,2024/02/27_10:59:33,YZ,None,
,,,,,,test,1,2,3,917,6,J,0,right,0.7709842000040226,1,0,,,,,,,,,,,,,,,,,,,,,1,,,,,,,,,,,,,,,,,,,,,,,,,,,,,,,,,,,,,,,,,,,,,,80,152152,23,Female,1,2024/02/27_10:59:33,YZ,None,
,,,,,,test,1,2,3,917,7,C,0,right,0.4199764319928363,1,0,,,,,,,,,,,,,,,,,,,,,1,,,,,,,,,,,,,,,,,,,,,,,,,,,,,,,,,,,,,,,,,,,,,,80,152152,23,Female,1,2024/02/27_10:59:33,YZ,None,
,,,,,,test,1,2,3,917,8,F,1,left,0.8097896420222241,1,0,,,,,,,,,,,,,,,,,,,,,1,,,,,,,,,,,,,,,,,,,,,,,,,,,,,,,,,,,,,,,,,,,,,,80,152152,23,Female,1,2024/02/27_10:59:33,YZ,None,
,,,,,,test,1,2,3,917,9,X,0,right,0.3251969020057004,1,0,,,,,,,,,,,,,,,,,,,,,1,,,,,,,,,,,,,,,,,,,,,,,,,,,,,,,,,,,,,,,,,,,,,,80,152152,23,Female,1,2024/02/27_10:59:33,YZ,None,
,,,,,,test,1,2,3,917,10,X,0,right,0.5978718789992854,1,0,,,,,,,,,,,,,,,,,,,,,1,,,,,,,,,,,,,,,,,,,,,,,,,,,,,,,,,,,,,,,,,,,,,,80,152152,23,Female,1,2024/02/27_10:59:33,YZ,None,
,,,,,,test,1,2,3,917,11,F,1,left,0.7999254649912473,1,0,,,,,,,,,,,,,,,,,,,,,1,,,,,,,,,,,,,,,,,,,,,,,,,,,,,,,,,,,,,,,,,,,,,,80,152152,23,Female,1,2024/02/27_10:59:33,YZ,None,
,,,,,,test,1,2,3,917,12,X,1,right,0.4564065570011735,0,0,,,,,,,,,,,,,,,,,,,,,1,,,,,,,,,,,,,,,,,,,,,,,,,,,,,,,,,,,,,,,,,,,,,,80,152152,23,Female,1,2024/02/27_10:59:33,YZ,None,
,,,,,,Test,1,2,3,917,,,,,,,,0.9166666666666666,0.6666666666666666,0.0,1.0,0.0,1.0,0.5575428132530457,2,0,0,0,0,9,11,3,9,0,,,,1,,,,,,,,,,,,,,,,,,,,,,,,,,,,,,,,,,,,,,,,,,,,,,80,152152,23,Female,1,2024/02/27_10:59:33,YZ,None,
,,,,,240227_111337,TEST,1,2,3,917,,,,,,,,,,,,,,,,,,,,,,,,,,,,1,2,3,2,cue1.png,hard,B,52,1.5390118880022783,0,699.1982422549918,700.7546435069817,,,,,,,,,,,,,,,,,,,,,,,,,,,,,,,,,,,80,152152,23,Female,1,2024/02/27_10:59:33,YZ,None,
,,,,,,test,1,3,3,917,1,C,0,right,0.4218046320020221,1,0,,,,,,,,,,,,,,,,,,,,,1,,,,,,,,,,,,,,,,,,,,,,,,,,,,,,,,,,,,,,,,,,,,,,80,152152,23,Female,1,2024/02/27_10:59:33,YZ,None,
,,,,,,test,1,3,3,917,2,C,0,right,0.2402374559896998,1,0,,,,,,,,,,,,,,,,,,,,,1,,,,,,,,,,,,,,,,,,,,,,,,,,,,,,,,,,,,,,,,,,,,,,80,152152,23,Female,1,2024/02/27_10:59:33,YZ,None,
,,,,,,test,1,3,3,917,3,S,0,right,0.25562599700060673,1,0,,,,,,,,,,,,,,,,,,,,,1,,,,,,,,,,,,,,,,,,,,,,,,,,,,,,,,,,,,,,,,,,,,,,80,152152,23,Female,1,2024/02/27_10:59:33,YZ,None,
,,,,,,test,1,3,3,917,4,C,1,left,0.40794849998201244,1,0,,,,,,,,,,,,,,,,,,,,,1,,,,,,,,,,,,,,,,,,,,,,,,,,,,,,,,,,,,,,,,,,,,,,80,152152,23,Female,1,2024/02/27_10:59:33,YZ,None,
,,,,,,test,1,3,3,917,5,Q,0,right,0.4401640089927241,1,0,,,,,,,,,,,,,,,,,,,,,1,,,,,,,,,,,,,,,,,,,,,,,,,,,,,,,,,,,,,,,,,,,,,,80,152152,23,Female,1,2024/02/27_10:59:33,YZ,None,
,,,,,,test,1,3,3,917,6,X,0,right,0.3768104719929397,1,0,,,,,,,,,,,,,,,,,,,,,1,,,,,,,,,,,,,,,,,,,,,,,,,,,,,,,,,,,,,,,,,,,,,,80,152152,23,Female,1,2024/02/27_10:59:33,YZ,None,
,,,,,,test,1,3,3,917,7,C,1,right,0.5120558199996594,0,0,,,,,,,,,,,,,,,,,,,,,1,,,,,,,,,,,,,,,,,,,,,,,,,,,,,,,,,,,,,,,,,,,,,,80,152152,23,Female,1,2024/02/27_10:59:33,YZ,None,
,,,,,,test,1,3,3,917,8,Q,1,right,0.44138256399310194,0,0,,,,,,,,,,,,,,,,,,,,,1,,,,,,,,,,,,,,,,,,,,,,,,,,,,,,,,,,,,,,,,,,,,,,80,152152,23,Female,1,2024/02/27_10:59:33,YZ,None,
,,,,,,test,1,3,3,917,9,Q,0,right,0.7085426960256882,1,0,,,,,,,,,,,,,,,,,,,,,1,,,,,,,,,,,,,,,,,,,,,,,,,,,,,,,,,,,,,,,,,,,,,,80,152152,23,Female,1,2024/02/27_10:59:33,YZ,None,
,,,,,,test,1,3,3,917,10,V,0,left,0.4280880329897627,0,0,,,,,,,,,,,,,,,,,,,,,1,,,,,,,,,,,,,,,,,,,,,,,,,,,,,,,,,,,,,,,,,,,,,,80,152152,23,Female,1,2024/02/27_10:59:33,YZ,None,
,,,,,,test,1,3,3,917,11,S,0,right,0.4262666220020037,1,0,,,,,,,,,,,,,,,,,,,,,1,,,,,,,,,,,,,,,,,,,,,,,,,,,,,,,,,,,,,,,,,,,,,,80,152152,23,Female,1,2024/02/27_10:59:33,YZ,None,
,,,,,,test,1,3,3,917,12,S,0,right,0.49719891298445873,1,0,,,,,,,,,,,,,,,,,,,,,1,,,,,,,,,,,,,,,,,,,,,,,,,,,,,,,,,,,,,,,,,,,,,,80,152152,23,Female,1,2024/02/27_10:59:33,YZ,None,
,,,,,,Test,1,3,3,917,,,,,,,,0.7222222222222222,0.3333333333333333,0.1111111111111111,0.8888888888888888,0.0,0.8888888888888888,0.42967714282955666,1,1,0,0,0,8,9,3,9,0,,,,1,,,,,,,,,,,,,,,,,,,,,,,,,,,,,,,,,,,,,,,,,,,,,,80,152152,23,Female,1,2024/02/27_10:59:33,YZ,None,
,,,,,240227_111359,TEST,1,3,3,917,,,,,,,,,,,,,,,,,,,,,,,,,,,,1,3,4,3,cue1.png,hard,B,52,2.0218687650049105,0,722.8717019629839,724.9232044029923,,,,,,,,,,,,,,,,,,,,,,,,,,,,,,,,,,,80,152152,23,Female,1,2024/02/27_10:59:33,YZ,None,
,,,,,,test,1,4,3,917,1,N,0,right,0.35703311100951396,1,0,,,,,,,,,,,,,,,,,,,,,1,,,,,,,,,,,,,,,,,,,,,,,,,,,,,,,,,,,,,,,,,,,,,,80,152152,23,Female,1,2024/02/27_10:59:33,YZ,None,
,,,,,,test,1,4,3,917,2,F,0,right,0.10658292498555966,1,0,,,,,,,,,,,,,,,,,,,,,1,,,,,,,,,,,,,,,,,,,,,,,,,,,,,,,,,,,,,,,,,,,,,,80,152152,23,Female,1,2024/02/27_10:59:33,YZ,None,
,,,,,,test,1,4,3,917,3,C,0,right,0.22857259900774807,1,0,,,,,,,,,,,,,,,,,,,,,1,,,,,,,,,,,,,,,,,,,,,,,,,,,,,,,,,,,,,,,,,,,,,,80,152152,23,Female,1,2024/02/27_10:59:33,YZ,None,
,,,,,,test,1,4,3,917,4,X,0,right,0.4270422170229722,1,0,,,,,,,,,,,,,,,,,,,,,1,,,,,,,,,,,,,,,,,,,,,,,,,,,,,,,,,,,,,,,,,,,,,,80,152152,23,Female,1,2024/02/27_10:59:33,YZ,None,
,,,,,,test,1,4,3,917,5,F,1,right,0.3406598959991243,0,0,,,,,,,,,,,,,,,,,,,,,1,,,,,,,,,,,,,,,,,,,,,,,,,,,,,,,,,,,,,,,,,,,,,,80,152152,23,Female,1,2024/02/27_10:59:33,YZ,None,
,,,,,,test,1,4,3,917,6,Q,0,right,0.3806257400137838,1,0,,,,,,,,,,,,,,,,,,,,,1,,,,,,,,,,,,,,,,,,,,,,,,,,,,,,,,,,,,,,,,,,,,,,80,152152,23,Female,1,2024/02/27_10:59:33,YZ,None,
,,,,,,test,1,4,3,917,7,X,1,right,0.3210280629864428,0,0,,,,,,,,,,,,,,,,,,,,,1,,,,,,,,,,,,,,,,,,,,,,,,,,,,,,,,,,,,,,,,,,,,,,80,152152,23,Female,1,2024/02/27_10:59:33,YZ,None,
,,,,,,test,1,4,3,917,8,F,1,left,0.6128232490154915,1,0,,,,,,,,,,,,,,,,,,,,,1,,,,,,,,,,,,,,,,,,,,,,,,,,,,,,,,,,,,,,,,,,,,,,80,152152,23,Female,1,2024/02/27_10:59:33,YZ,None,
,,,,,,test,1,4,3,917,9,C,0,right,0.2565993540047202,1,0,,,,,,,,,,,,,,,,,,,,,1,,,,,,,,,,,,,,,,,,,,,,,,,,,,,,,,,,,,,,,,,,,,,,80,152152,23,Female,1,2024/02/27_10:59:33,YZ,None,
,,,,,,test,1,4,3,917,10,N,0,right,0.337589791015489,1,0,,,,,,,,,,,,,,,,,,,,,1,,,,,,,,,,,,,,,,,,,,,,,,,,,,,,,,,,,,,,,,,,,,,,80,152152,23,Female,1,2024/02/27_10:59:33,YZ,None,
,,,,,,test,1,4,3,917,11,Q,0,right,0.33661821999703534,1,0,,,,,,,,,,,,,,,,,,,,,1,,,,,,,,,,,,,,,,,,,,,,,,,,,,,,,,,,,,,,,,,,,,,,80,152152,23,Female,1,2024/02/27_10:59:33,YZ,None,
,,,,,,test,1,4,3,917,12,N,0,left,0.5332802439806983,0,0,,,,,,,,,,,,,,,,,,,,,1,,,,,,,,,,,,,,,,,,,,,,,,,,,,,,,,,,,,,,,,,,,,,,80,152152,23,Female,1,2024/02/27_10:59:33,YZ,None,
,,,,,,Test,1,4,3,917,,,,,,,,0.7222222222222222,0.3333333333333333,0.1111111111111111,0.8888888888888888,0.0,0.8888888888888888,0.3532046174198816,1,1,0,0,0,8,9,3,9,0,,,,1,,,,,,,,,,,,,,,,,,,,,,,,,,,,,,,,,,,,,,,,,,,,,,80,152152,23,Female,1,2024/02/27_10:59:33,YZ,None,
,,,,,240227_111421,TEST,1,4,3,917,,,,,,,,,,,,,,,,,,,,,,,,,,,,1,4,5,4,cue1.png,hard,B,54,2.2024521700222977,0,745.4893571099965,747.7070851089957,,,,,,,,,,,,,,,,,,,,,,,,,,,,,,,,,,,80,152152,23,Female,1,2024/02/27_10:59:33,YZ,None,
,,,,,,test,1,5,1,917,1,F,0,right,0.42072149997693487,1,0,,,,,,,,,,,,,,,,,,,,,1,,,,,,,,,,,,,,,,,,,,,,,,,,,,,,,,,,,,,,,,,,,,,,80,152152,23,Female,1,2024/02/27_10:59:33,YZ,None,
,,,,,,test,1,5,1,917,2,J,0,right,0.4806235170108266,1,0,,,,,,,,,,,,,,,,,,,,,1,,,,,,,,,,,,,,,,,,,,,,,,,,,,,,,,,,,,,,,,,,,,,,80,152152,23,Female,1,2024/02/27_10:59:33,YZ,None,
,,,,,,test,1,5,1,917,3,N,0,right,0.45014963898574933,1,0,,,,,,,,,,,,,,,,,,,,,1,,,,,,,,,,,,,,,,,,,,,,,,,,,,,,,,,,,,,,,,,,,,,,80,152152,23,Female,1,2024/02/27_10:59:33,YZ,None,
,,,,,,test,1,5,1,917,4,X,0,right,0.44007145799696445,1,0,,,,,,,,,,,,,,,,,,,,,1,,,,,,,,,,,,,,,,,,,,,,,,,,,,,,,,,,,,,,,,,,,,,,80,152152,23,Female,1,2024/02/27_10:59:33,YZ,None,
,,,,,,test,1,5,1,917,5,X,1,left,0.5706731340033002,1,0,,,,,,,,,,,,,,,,,,,,,1,,,,,,,,,,,,,,,,,,,,,,,,,,,,,,,,,,,,,,,,,,,,,,80,152152,23,Female,1,2024/02/27_10:59:33,YZ,None,
,,,,,,test,1,5,1,917,6,F,0,right,0.3737446270242799,1,0,,,,,,,,,,,,,,,,,,,,,1,,,,,,,,,,,,,,,,,,,,,,,,,,,,,,,,,,,,,,,,,,,,,,80,152152,23,Female,1,2024/02/27_10:59:33,YZ,None,
,,,,,,test,1,5,1,917,7,C,0,right,0.5248719840019476,1,0,,,,,,,,,,,,,,,,,,,,,1,,,,,,,,,,,,,,,,,,,,,,,,,,,,,,,,,,,,,,,,,,,,,,80,152152,23,Female,1,2024/02/27_10:59:33,YZ,None,
,,,,,,test,1,5,1,917,8,S,0,right,0.6083436339977197,1,0,,,,,,,,,,,,,,,,,,,,,1,,,,,,,,,,,,,,,,,,,,,,,,,,,,,,,,,,,,,,,,,,,,,,80,152152,23,Female,1,2024/02/27_10:59:33,YZ,None,
,,,,,,test,1,5,1,917,9,S,1,left,0.5401345930004027,1,0,,,,,,,,,,,,,,,,,,,,,1,,,,,,,,,,,,,,,,,,,,,,,,,,,,,,,,,,,,,,,,,,,,,,80,152152,23,Female,1,2024/02/27_10:59:33,YZ,None,
,,,,,,test,1,5,1,917,10,X,0,right,0.3848522049956955,1,0,,,,,,,,,,,,,,,,,,,,,1,,,,,,,,,,,,,,,,,,,,,,,,,,,,,,,,,,,,,,,,,,,,,,80,152152,23,Female,1,2024/02/27_10:59:33,YZ,None,
,,,,,,test,1,5,1,917,11,X,1,left,0.49687603101483546,1,0,,,,,,,,,,,,,,,,,,,,,1,,,,,,,,,,,,,,,,,,,,,,,,,,,,,,,,,,,,,,,,,,,,,,80,152152,23,Female,1,2024/02/27_10:59:33,YZ,None,
,,,,,,test,1,5,1,917,12,S,0,right,0.4604169260128401,1,0,,,,,,,,,,,,,,,,,,,,,1,,,,,,,,,,,,,,,,,,,,,,,,,,,,,,,,,,,,,,,,,,,,,,80,152152,23,Female,1,2024/02/27_10:59:33,YZ,None,
,,,,,,Test,1,5,1,917,,,,,,,,1.0,1.0,0.0,1.0,0.0,1.0,0.4792899373351247,3,0,0,0,0,9,12,3,9,0,,,,1,,,,,,,,,,,,,,,,,,,,,,,,,,,,,,,,,,,,,,,,,,,,,,80,152152,23,Female,1,2024/02/27_10:59:33,YZ,None,
,,,,,240227_111444,TEST,1,5,1,917,,,,,,,,,,,,,,,,,,,,,,,,,,,,1,5,6,5,cue2.png,easy,B,47,2.0388366550032515,0,767.3478034219879,769.4033718629798,,,,,,,,,,,,,,,,,,,,,,,,,,,,,,,,,,,80,152152,23,Female,1,2024/02/27_10:59:33,YZ,None,
,,,,,,test,1,6,3,917,1,Q,0,right,0.08174235300975852,1,0,,,,,,,,,,,,,,,,,,,,,1,,,,,,,,,,,,,,,,,,,,,,,,,,,,,,,,,,,,,,,,,,,,,,80,152152,23,Female,1,2024/02/27_10:59:33,YZ,None,
,,,,,,test,1,6,3,917,2,N,0,right,0.15680262699606828,1,0,,,,,,,,,,,,,,,,,,,,,1,,,,,,,,,,,,,,,,,,,,,,,,,,,,,,,,,,,,,,,,,,,,,,80,152152,23,Female,1,2024/02/27_10:59:33,YZ,None,
,,,,,,test,1,6,3,917,3,S,0,right,0.1807537229906302,1,0,,,,,,,,,,,,,,,,,,,,,1,,,,,,,,,,,,,,,,,,,,,,,,,,,,,,,,,,,,,,,,,,,,,,80,152152,23,Female,1,2024/02/27_10:59:33,YZ,None,
,,,,,,test,1,6,3,917,4,Q,1,right,0.30173916500643827,0,0,,,,,,,,,,,,,,,,,,,,,1,,,,,,,,,,,,,,,,,,,,,,,,,,,,,,,,,,,,,,,,,,,,,,80,152152,23,Female,1,2024/02/27_10:59:33,YZ,None,
,,,,,,test,1,6,3,917,5,S,0,right,0.4009075769863557,1,0,,,,,,,,,,,,,,,,,,,,,1,,,,,,,,,,,,,,,,,,,,,,,,,,,,,,,,,,,,,,,,,,,,,,80,152152,23,Female,1,2024/02/27_10:59:33,YZ,None,
,,,,,,test,1,6,3,917,6,S,1,right,0.7694266100006644,0,0,,,,,,,,,,,,,,,,,,,,,1,,,,,,,,,,,,,,,,,,,,,,,,,,,,,,,,,,,,,,,,,,,,,,80,152152,23,Female,1,2024/02/27_10:59:33,YZ,None,
,,,,,,test,1,6,3,917,7,Q,1,left,0.45671270502498373,1,0,,,,,,,,,,,,,,,,,,,,,1,,,,,,,,,,,,,,,,,,,,,,,,,,,,,,,,,,,,,,,,,,,,,,80,152152,23,Female,1,2024/02/27_10:59:33,YZ,None,
,,,,,,test,1,6,3,917,8,Q,0,right,0.2501205159933306,1,0,,,,,,,,,,,,,,,,,,,,,1,,,,,,,,,,,,,,,,,,,,,,,,,,,,,,,,,,,,,,,,,,,,,,80,152152,23,Female,1,2024/02/27_10:59:33,YZ,None,
,,,,,,test,1,6,3,917,9,V,0,right,0.42447263200301677,1,0,,,,,,,,,,,,,,,,,,,,,1,,,,,,,,,,,,,,,,,,,,,,,,,,,,,,,,,,,,,,,,,,,,,,80,152152,23,Female,1,2024/02/27_10:59:33,YZ,None,
,,,,,,test,1,6,3,917,10,Q,1,left,0.5953076129953843,1,0,,,,,,,,,,,,,,,,,,,,,1,,,,,,,,,,,,,,,,,,,,,,,,,,,,,,,,,,,,,,,,,,,,,,80,152152,23,Female,1,2024/02/27_10:59:33,YZ,None,
,,,,,,test,1,6,3,917,11,F,0,right,0.5566770339792129,1,0,,,,,,,,,,,,,,,,,,,,,1,,,,,,,,,,,,,,,,,,,,,,,,,,,,,,,,,,,,,,,,,,,,,,80,152152,23,Female,1,2024/02/27_10:59:33,YZ,None,
,,,,,,test,1,6,3,917,12,J,0,right,0.48043471298296936,1,0,,,,,,,,,,,,,,,,,,,,,1,,,,,,,,,,,,,,,,,,,,,,,,,,,,,,,,,,,,,,,,,,,,,,80,152152,23,Female,1,2024/02/27_10:59:33,YZ,None,
,,,,,,Test,1,6,3,917,,,,,,,,0.875,0.5,0.0,1.0,0.0,1.0,0.3879247723307344,2,0,0,0,0,8,10,4,8,0,,,,1,,,,,,,,,,,,,,,,,,,,,,,,,,,,,,,,,,,,,,,,,,,,,,80,152152,23,Female,1,2024/02/27_10:59:33,YZ,None,
,,,,,240227_111506,TEST,1,6,3,917,,,,,,,,,,,,,,,,,,,,,,,,,,,,1,6,7,6,cue1.png,hard,B,51,1.4696132559911348,0,790.5661521319998,792.0540608989832,,,,,,,,,,,,,,,,,,,,,,,,,,,,,,,,,,,80,152152,23,Female,1,2024/02/27_10:59:33,YZ,None,
,,,,,,test,1,7,3,917,1,S,0,right,0.4096344280114863,1,0,,,,,,,,,,,,,,,,,,,,,1,,,,,,,,,,,,,,,,,,,,,,,,,,,,,,,,,,,,,,,,,,,,,,80,152152,23,Female,1,2024/02/27_10:59:33,YZ,None,
,,,,,,test,1,7,3,917,2,V,0,right,0.05834399798186496,1,0,,,,,,,,,,,,,,,,,,,,,1,,,,,,,,,,,,,,,,,,,,,,,,,,,,,,,,,,,,,,,,,,,,,,80,152152,23,Female,1,2024/02/27_10:59:33,YZ,None,
,,,,,,test,1,7,3,917,3,S,0,right,0.25669570398167707,1,0,,,,,,,,,,,,,,,,,,,,,1,,,,,,,,,,,,,,,,,,,,,,,,,,,,,,,,,,,,,,,,,,,,,,80,152152,23,Female,1,2024/02/27_10:59:33,YZ,None,
,,,,,,test,1,7,3,917,4,N,0,right,0.38598959299270064,1,0,,,,,,,,,,,,,,,,,,,,,1,,,,,,,,,,,,,,,,,,,,,,,,,,,,,,,,,,,,,,,,,,,,,,80,152152,23,Female,1,2024/02/27_10:59:33,YZ,None,
,,,,,,test,1,7,3,917,5,C,0,right,0.44652885300456546,1,0,,,,,,,,,,,,,,,,,,,,,1,,,,,,,,,,,,,,,,,,,,,,,,,,,,,,,,,,,,,,,,,,,,,,80,152152,23,Female,1,2024/02/27_10:59:33,YZ,None,
,,,,,,test,1,7,3,917,6,J,0,right,0.36467584798811004,1,0,,,,,,,,,,,,,,,,,,,,,1,,,,,,,,,,,,,,,,,,,,,,,,,,,,,,,,,,,,,,,,,,,,,,80,152152,23,Female,1,2024/02/27_10:59:33,YZ,None,
,,,,,,test,1,7,3,917,7,N,1,right,0.41818934999173507,0,0,,,,,,,,,,,,,,,,,,,,,1,,,,,,,,,,,,,,,,,,,,,,,,,,,,,,,,,,,,,,,,,,,,,,80,152152,23,Female,1,2024/02/27_10:59:33,YZ,None,
,,,,,,test,1,7,3,917,8,C,1,left,0.5120372049859725,1,0,,,,,,,,,,,,,,,,,,,,,1,,,,,,,,,,,,,,,,,,,,,,,,,,,,,,,,,,,,,,,,,,,,,,80,152152,23,Female,1,2024/02/27_10:59:33,YZ,None,
,,,,,,test,1,7,3,917,9,Q,0,right,0.30391048701130785,1,0,,,,,,,,,,,,,,,,,,,,,1,,,,,,,,,,,,,,,,,,,,,,,,,,,,,,,,,,,,,,,,,,,,,,80,152152,23,Female,1,2024/02/27_10:59:33,YZ,None,
,,,,,,test,1,7,3,917,10,N,1,right,0.3999415099970065,0,0,,,,,,,,,,,,,,,,,,,,,1,,,,,,,,,,,,,,,,,,,,,,,,,,,,,,,,,,,,,,,,,,,,,,80,152152,23,Female,1,2024/02/27_10:59:33,YZ,None,
,,,,,,test,1,7,3,917,11,V,0,right,0.5122368510055821,1,0,,,,,,,,,,,,,,,,,,,,,1,,,,,,,,,,,,,,,,,,,,,,,,,,,,,,,,,,,,,,,,,,,,,,80,152152,23,Female,1,2024/02/27_10:59:33,YZ,None,
,,,,,,test,1,7,3,917,12,S,0,left,0.5931963789917063,0,0,,,,,,,,,,,,,,,,,,,,,1,,,,,,,,,,,,,,,,,,,,,,,,,,,,,,,,,,,,,,,,,,,,,,80,152152,23,Female,1,2024/02/27_10:59:33,YZ,None,
,,,,,,Test,1,7,3,917,,,,,,,,0.7222222222222222,0.3333333333333333,0.1111111111111111,0.8888888888888888,0.0,0.8888888888888888,0.38844835049530957,1,1,0,0,0,8,9,3,9,0,,,,1,,,,,,,,,,,,,,,,,,,,,,,,,,,,,,,,,,,,,,,,,,,,,,80,152152,23,Female,1,2024/02/27_10:59:33,YZ,None,
,,,,,240227_111528,TEST,1,7,3,917,,,,,,,,,,,,,,,,,,,,,,,,,,,,1,7,8,7,cue1.png,hard,B,47,2.161213235987816,0,812.0977341069956,814.2716005419788,,,,,,,,,,,,,,,,,,,,,,,,,,,,,,,,,,,80,152152,23,Female,1,2024/02/27_10:59:33,YZ,None,
,,,,,,test,1,8,1,917,1,S,0,right,0.22396932600531727,1,0,,,,,,,,,,,,,,,,,,,,,1,,,,,,,,,,,,,,,,,,,,,,,,,,,,,,,,,,,,,,,,,,,,,,80,152152,23,Female,1,2024/02/27_10:59:33,YZ,None,
,,,,,,test,1,8,1,917,2,V,0,right,0.3462461040180642,1,0,,,,,,,,,,,,,,,,,,,,,1,,,,,,,,,,,,,,,,,,,,,,,,,,,,,,,,,,,,,,,,,,,,,,80,152152,23,Female,1,2024/02/27_10:59:33,YZ,None,
,,,,,,test,1,8,1,917,3,V,1,right,0.4399816200020723,0,0,,,,,,,,,,,,,,,,,,,,,1,,,,,,,,,,,,,,,,,,,,,,,,,,,,,,,,,,,,,,,,,,,,,,80,152152,23,Female,1,2024/02/27_10:59:33,YZ,None,
,,,,,,test,1,8,1,917,4,C,0,right,0.4082700420112815,1,0,,,,,,,,,,,,,,,,,,,,,1,,,,,,,,,,,,,,,,,,,,,,,,,,,,,,,,,,,,,,,,,,,,,,80,152152,23,Female,1,2024/02/27_10:59:33,YZ,None,
,,,,,,test,1,8,1,917,5,F,0,right,0.4336944509996101,1,0,,,,,,,,,,,,,,,,,,,,,1,,,,,,,,,,,,,,,,,,,,,,,,,,,,,,,,,,,,,,,,,,,,,,80,152152,23,Female,1,2024/02/27_10:59:33,YZ,None,
,,,,,,test,1,8,1,917,6,V,0,right,0.44958540800143965,1,0,,,,,,,,,,,,,,,,,,,,,1,,,,,,,,,,,,,,,,,,,,,,,,,,,,,,,,,,,,,,,,,,,,,,80,152152,23,Female,1,2024/02/27_10:59:33,YZ,None,
,,,,,,test,1,8,1,917,7,V,1,left,0.37895075301639736,1,0,,,,,,,,,,,,,,,,,,,,,1,,,,,,,,,,,,,,,,,,,,,,,,,,,,,,,,,,,,,,,,,,,,,,80,152152,23,Female,1,2024/02/27_10:59:33,YZ,None,
,,,,,,test,1,8,1,917,8,X,0,right,0.5007119869987946,1,0,,,,,,,,,,,,,,,,,,,,,1,,,,,,,,,,,,,,,,,,,,,,,,,,,,,,,,,,,,,,,,,,,,,,80,152152,23,Female,1,2024/02/27_10:59:33,YZ,None,
,,,,,,test,1,8,1,917,9,J,0,right,0.512250882020453,1,0,,,,,,,,,,,,,,,,,,,,,1,,,,,,,,,,,,,,,,,,,,,,,,,,,,,,,,,,,,,,,,,,,,,,80,152152,23,Female,1,2024/02/27_10:59:33,YZ,None,
,,,,,,test,1,8,1,917,10,J,1,left,0.3679258179909084,1,0,,,,,,,,,,,,,,,,,,,,,1,,,,,,,,,,,,,,,,,,,,,,,,,,,,,,,,,,,,,,,,,,,,,,80,152152,23,Female,1,2024/02/27_10:59:33,YZ,None,
,,,,,,test,1,8,1,917,11,V,0,right,0.3364278750086669,1,0,,,,,,,,,,,,,,,,,,,,,1,,,,,,,,,,,,,,,,,,,,,,,,,,,,,,,,,,,,,,,,,,,,,,80,152152,23,Female,1,2024/02/27_10:59:33,YZ,None,
,,,,,,test,1,8,1,917,12,F,0,right,0.48306903601041995,1,0,,,,,,,,,,,,,,,,,,,,,1,,,,,,,,,,,,,,,,,,,,,,,,,,,,,,,,,,,,,,,,,,,,,,80,152152,23,Female,1,2024/02/27_10:59:33,YZ,None,
,,,,,,Test,1,8,1,917,,,,,,,,0.9166666666666666,0.6666666666666666,0.0,1.0,0.0,1.0,0.40675694184028544,2,0,0,0,0,9,11,3,9,0,,,,1,,,,,,,,,,,,,,,,,,,,,,,,,,,,,,,,,,,,,,,,,,,,,,80,152152,23,Female,1,2024/02/27_10:59:33,YZ,None,
,,,,,240227_111550,TEST,1,8,1,917,,,,,,,,,,,,,,,,,,,,,,,,,,,,1,8,9,8,cue2.png,easy,B,48,1.9129634159908164,0,834.3464962719881,836.2721266259905,,,,,,,,,,,,,,,,,,,,,,,,,,,,,,,,,,,80,152152,23,Female,1,2024/02/27_10:59:33,YZ,None,
,,,,,,test,1,9,1,917,1,V,0,right,0.2970363839995116,1,0,,,,,,,,,,,,,,,,,,,,,1,,,,,,,,,,,,,,,,,,,,,,,,,,,,,,,,,,,,,,,,,,,,,,80,152152,23,Female,1,2024/02/27_10:59:33,YZ,None,
,,,,,,test,1,9,1,917,2,V,1,left,0.6390964910096955,1,0,,,,,,,,,,,,,,,,,,,,,1,,,,,,,,,,,,,,,,,,,,,,,,,,,,,,,,,,,,,,,,,,,,,,80,152152,23,Female,1,2024/02/27_10:59:33,YZ,None,
,,,,,,test,1,9,1,917,3,C,0,right,0.3402387889800593,1,0,,,,,,,,,,,,,,,,,,,,,1,,,,,,,,,,,,,,,,,,,,,,,,,,,,,,,,,,,,,,,,,,,,,,80,152152,23,Female,1,2024/02/27_10:59:33,YZ,None,
,,,,,,test,1,9,1,917,4,C,1,left,0.40489728600368835,1,0,,,,,,,,,,,,,,,,,,,,,1,,,,,,,,,,,,,,,,,,,,,,,,,,,,,,,,,,,,,,,,,,,,,,80,152152,23,Female,1,2024/02/27_10:59:33,YZ,None,
,,,,,,test,1,9,1,917,5,V,0,right,0.5121264059853274,1,0,,,,,,,,,,,,,,,,,,,,,1,,,,,,,,,,,,,,,,,,,,,,,,,,,,,,,,,,,,,,,,,,,,,,80,152152,23,Female,1,2024/02/27_10:59:33,YZ,None,
,,,,,,test,1,9,1,917,6,V,1,left,0.3578551659884397,1,0,,,,,,,,,,,,,,,,,,,,,1,,,,,,,,,,,,,,,,,,,,,,,,,,,,,,,,,,,,,,,,,,,,,,80,152152,23,Female,1,2024/02/27_10:59:33,YZ,None,
,,,,,,test,1,9,1,917,7,S,0,right,0.6252907410089392,1,0,,,,,,,,,,,,,,,,,,,,,1,,,,,,,,,,,,,,,,,,,,,,,,,,,,,,,,,,,,,,,,,,,,,,80,152152,23,Female,1,2024/02/27_10:59:33,YZ,None,
,,,,,,test,1,9,1,917,8,Q,0,right,0.6095964510168415,1,0,,,,,,,,,,,,,,,,,,,,,1,,,,,,,,,,,,,,,,,,,,,,,,,,,,,,,,,,,,,,,,,,,,,,80,152152,23,Female,1,2024/02/27_10:59:33,YZ,None,
