Instruction,Stimulus,Key,RT,START,END,Phase,Block,TrialN,NbackLevel,ISI,LetterN,Letter,Letter_isSame,Letter_Resp,Letter_RT,Letter_Accuracy,Letter_Timeout,Trial_A_measure,Trial_HR,Trial_FAR,Trial_CDR,Trial_MSR,Trial_ACC,Trial_RT,Trial_HitsCount,Trial_FAsCount,Trial_SameNoRespCount,Trial_DiffNoRespCount,Trial_NoRespCount,Trial_CDsCount,Trial_CorrectRespCount,Trial_SameLetterCount,Trial_DiffLetterCount,Trial_InvalidLetterCount,TrialCountCali,CaliEnd_A_measure,ISI_calibrated,Run,TrialIndex,TrialNumber_total,TrialNumber_valid,CueLearning,TrialDemandLearning,CueMapping,OnlineRating,OnlineRatingRT,OnlineRatingTimeOut,CueSTART,RatingSTART,OfflineRatingTimePoint,OfflineRatingQuesIndex,CueFigure,TrialDemand,OfflineRating,OfflineRatingRT,CueStart,OfflineRatingStart,PhaseType,CueLeft,CueDemandLeft,CueRight,CueDemandRight,Choice,ChoiceDemand,TaskDemand,ChoiceRT,ChoiceTimeOut,ChoiceSTART,CueCheck,CueDemandCheck,CorrectAnswer,Answer,AnswerDemand,AnswerRT,AnswerACC,AnswerTimeOut,CheckSTART,DemandRatingQuesIndex,QuesTLX,DemandLevel,DemandRating,DemandRatingRT,QuesStart,PID,SONA,Age,Gender,Run,TIME,EXPERIMENTER,frameRate,
1,./instructions/inst_begin/Slide2.png,right,24.414932968007633,0.1072100019955542,24.522142970003188,,,,,,,,,,,,,,,,,,,,,,,,,,,,,,,,,1,,,,,,,,,,,,,,,,,,,,,,,,,,,,,,,,,,,,,,,,,,,,,,70,143035,23,Female,1,2024/02/20_11:50:57,YZ,None,
2,./instructions/inst_begin/Slide3.png,right,14.138528866998968,24.551598470003228,38.690127337002195,,,,,,,,,,,,,,,,,,,,,,,,,,,,,,,,,1,,,,,,,,,,,,,,,,,,,,,,,,,,,,,,,,,,,,,,,,,,,,,,70,143035,23,Female,1,2024/02/20_11:50:57,YZ,None,
3,./instructions/inst_begin/Slide4.png,right,7.765151207000599,38.71683943399694,46.48199064099754,,,,,,,,,,,,,,,,,,,,,,,,,,,,,,,,,1,,,,,,,,,,,,,,,,,,,,,,,,,,,,,,,,,,,,,,,,,,,,,,70,143035,23,Female,1,2024/02/20_11:50:57,YZ,None,
1,./instructions/inst_prac_2/Slide6.png,right,25.7109783860069,46.515089741995325,72.22606812800223,,,,,,,,,,,,,,,,,,,,,,,,,,,,,,,,,1,,,,,,,,,,,,,,,,,,,,,,,,,,,,,,,,,,,,,,,,,,,,,,70,143035,23,Female,1,2024/02/20_11:50:57,YZ,None,
2,./instructions/inst_prac_2/Slide7.png,right,25.098760441003833,72.25561158299388,97.35437202399771,,,,,,,,,,,,,,,,,,,,,,,,,,,,,,,,,1,,,,,,,,,,,,,,,,,,,,,,,,,,,,,,,,,,,,,,,,,,,,,,70,143035,23,Female,1,2024/02/20_11:50:57,YZ,None,
3,./instructions/inst_prac_2/Slide8.png,right,40.23422132599808,97.38368901000649,137.61791033600457,,,,,,,,,,,,,,,,,,,,,,,,,,,,,,,,,1,,,,,,,,,,,,,,,,,,,,,,,,,,,,,,,,,,,,,,,,,,,,,,70,143035,23,Female,1,2024/02/20_11:50:57,YZ,None,
4,./instructions/inst_prac_2/Slide9.png,right,6.651221281004837,137.646887142997,144.29810842400184,,,,,,,,,,,,,,,,,,,,,,,,,,,,,,,,,1,,,,,,,,,,,,,,,,,,,,,,,,,,,,,,,,,,,,,,,,,,,,,,70,143035,23,Female,1,2024/02/20_11:50:57,YZ,None,
5,./instructions/inst_prac_2/Slide10.png,right,3.0680329379974864,144.32604303800326,147.39407597600075,,,,,,,,,,,,,,,,,,,,,,,,,,,,,,,,,1,,,,,,,,,,,,,,,,,,,,,,,,,,,,,,,,,,,,,,,,,,,,,,70,143035,23,Female,1,2024/02/20_11:50:57,YZ,None,
6,./instructions/inst_prac_2/Slide11.png,right,3.8994008200097596,147.42294007299643,151.32234089300619,,,,,,,,,,,,,,,,,,,,,,,,,,,,,,,,,1,,,,,,,,,,,,,,,,,,,,,,,,,,,,,,,,,,,,,,,,,,,,,,70,143035,23,Female,1,2024/02/20_11:50:57,YZ,None,
7,./instructions/inst_prac_2/Slide12.png,right,2.14088810600515,151.34909527099808,153.48998337700323,,,,,,,,,,,,,,,,,,,,,,,,,,,,,,,,,1,,,,,,,,,,,,,,,,,,,,,,,,,,,,,,,,,,,,,,,,,,,,,,70,143035,23,Female,1,2024/02/20_11:50:57,YZ,None,
8,./instructions/inst_prac_2/Slide13.png,right,6.2935059890005505,153.51650832800078,159.81001431700133,,,,,,,,,,,,,,,,,,,,,,,,,,,,,,,,,1,,,,,,,,,,,,,,,,,,,,,,,,,,,,,,,,,,,,,,,,,,,,,,70,143035,23,Female,1,2024/02/20_11:50:57,YZ,None,
9,./instructions/inst_prac_2/Slide14.png,right,14.45251093999832,159.83764406900445,174.29015500900277,,,,,,,,,,,,,,,,,,,,,,,,,,,,,,,,,1,,,,,,,,,,,,,,,,,,,,,,,,,,,,,,,,,,,,,,,,,,,,,,70,143035,23,Female,1,2024/02/20_11:50:57,YZ,None,
10,./instructions/inst_prac_2/Slide15.png,right,11.150054835001356,174.31620811299945,185.4662629480008,,,,,,,,,,,,,,,,,,,,,,,,,,,,,,,,,1,,,,,,,,,,,,,,,,,,,,,,,,,,,,,,,,,,,,,,,,,,,,,,70,143035,23,Female,1,2024/02/20_11:50:57,YZ,None,
,,,,,,practice,0,3,2,2583,1,N,0,right,2.2654830919927917,1,0,,,,,,,,,,,,,,,,,,,,,1,,,,,,,,,,,,,,,,,,,,,,,,,,,,,,,,,,,,,,,,,,,,,,70,143035,23,Female,1,2024/02/20_11:50:57,YZ,None,
,,,,,,practice,0,3,2,2583,2,Q,0,right,2.49835303099826,1,0,,,,,,,,,,,,,,,,,,,,,1,,,,,,,,,,,,,,,,,,,,,,,,,,,,,,,,,,,,,,,,,,,,,,70,143035,23,Female,1,2024/02/20_11:50:57,YZ,None,
,,,,,,practice,0,3,2,2583,3,S,0,right,2.09151694799948,1,0,,,,,,,,,,,,,,,,,,,,,1,,,,,,,,,,,,,,,,,,,,,,,,,,,,,,,,,,,,,,,,,,,,,,70,143035,23,Female,1,2024/02/20_11:50:57,YZ,None,
,,,,,,practice,0,3,2,2583,4,F,0,right,2.4691312439972535,1,0,,,,,,,,,,,,,,,,,,,,,1,,,,,,,,,,,,,,,,,,,,,,,,,,,,,,,,,,,,,,,,,,,,,,70,143035,23,Female,1,2024/02/20_11:50:57,YZ,None,
,,,,,,practice,0,3,2,2583,5,S,1,left,1.190119140999741,1,0,,,,,,,,,,,,,,,,,,,,,1,,,,,,,,,,,,,,,,,,,,,,,,,,,,,,,,,,,,,,,,,,,,,,70,143035,23,Female,1,2024/02/20_11:50:57,YZ,None,
,,,,,,practice,0,3,2,2583,6,F,1,left,1.0621386310085654,1,0,,,,,,,,,,,,,,,,,,,,,1,,,,,,,,,,,,,,,,,,,,,,,,,,,,,,,,,,,,,,,,,,,,,,70,143035,23,Female,1,2024/02/20_11:50:57,YZ,None,
,,,,,,practice,0,3,2,2583,,,,,,,,1.0,1.0,0.0,1.0,0.0,1.0,1.9294570144993486,2,0,0,0,0,4,6,2,4,0,,,,1,,,,,,,,,,,,,,,,,,,,,,,,,,,,,,,,,,,,,,,,,,,,,,70,143035,23,Female,1,2024/02/20_11:50:57,YZ,None,
1,./instructions/inst_to_cali/Slide20.png,right,8.096490477008047,203.40164640899457,211.4981368860026,,,,,,,,,,,,,,,,,,,,,,,,,,,,,,,,,1,,,,,,,,,,,,,,,,,,,,,,,,,,,,,,,,,,,,,,,,,,,,,,70,143035,23,Female,1,2024/02/20_11:50:57,YZ,None,
1,./instructions/inst_cali/Slide22.png,right,9.854491098987637,211.53171035200648,221.38620145099412,,,,,,,,,,,,,,,,,,,,,,,,,,,,,,,,,1,,,,,,,,,,,,,,,,,,,,,,,,,,,,,,,,,,,,,,,,,,,,,,70,143035,23,Female,1,2024/02/20_11:50:57,YZ,None,
,,,,,,calibration,0,19,2,583,1,C,0,right,0.8938412940042326,1,0,,,,,,,,,,,,,,,,,,,,,1,,,,,,,,,,,,,,,,,,,,,,,,,,,,,,,,,,,,,,,,,,,,,,70,143035,23,Female,1,2024/02/20_11:50:57,YZ,None,
,,,,,,calibration,0,19,2,583,2,F,0,right,0.9675236490002135,1,0,,,,,,,,,,,,,,,,,,,,,1,,,,,,,,,,,,,,,,,,,,,,,,,,,,,,,,,,,,,,,,,,,,,,70,143035,23,Female,1,2024/02/20_11:50:57,YZ,None,
,,,,,,calibration,0,19,2,583,3,V,0,right,1.0155219969892642,1,0,,,,,,,,,,,,,,,,,,,,,1,,,,,,,,,,,,,,,,,,,,,,,,,,,,,,,,,,,,,,,,,,,,,,70,143035,23,Female,1,2024/02/20_11:50:57,YZ,None,
,,,,,,calibration,0,19,2,583,4,N,0,right,1.3730139319959562,1,0,,,,,,,,,,,,,,,,,,,,,1,,,,,,,,,,,,,,,,,,,,,,,,,,,,,,,,,,,,,,,,,,,,,,70,143035,23,Female,1,2024/02/20_11:50:57,YZ,None,
,,,,,,calibration,0,19,2,583,5,Q,0,right,1.052985386995715,1,0,,,,,,,,,,,,,,,,,,,,,1,,,,,,,,,,,,,,,,,,,,,,,,,,,,,,,,,,,,,,,,,,,,,,70,143035,23,Female,1,2024/02/20_11:50:57,YZ,None,
,,,,,,calibration,0,19,2,583,6,N,1,left,1.7209350699995412,1,0,,,,,,,,,,,,,,,,,,,,,1,,,,,,,,,,,,,,,,,,,,,,,,,,,,,,,,,,,,,,,,,,,,,,70,143035,23,Female,1,2024/02/20_11:50:57,YZ,None,
,,,,,,calibration,0,19,2,583,7,Q,1,left,1.5799289790011244,1,0,,,,,,,,,,,,,,,,,,,,,1,,,,,,,,,,,,,,,,,,,,,,,,,,,,,,,,,,,,,,,,,,,,,,70,143035,23,Female,1,2024/02/20_11:50:57,YZ,None,
,,,,,,calibration,0,19,2,583,8,S,0,right,1.414401286005159,1,0,,,,,,,,,,,,,,,,,,,,,1,,,,,,,,,,,,,,,,,,,,,,,,,,,,,,,,,,,,,,,,,,,,,,70,143035,23,Female,1,2024/02/20_11:50:57,YZ,None,
,,,,,,calibration,0,19,2,583,9,X,0,right,0.9757318269985262,1,0,,,,,,,,,,,,,,,,,,,,,1,,,,,,,,,,,,,,,,,,,,,,,,,,,,,,,,,,,,,,,,,,,,,,70,143035,23,Female,1,2024/02/20_11:50:57,YZ,None,
,,,,,,calibration,0,19,2,583,10,V,0,right,1.134276229000534,1,0,,,,,,,,,,,,,,,,,,,,,1,,,,,,,,,,,,,,,,,,,,,,,,,,,,,,,,,,,,,,,,,,,,,,70,143035,23,Female,1,2024/02/20_11:50:57,YZ,None,
,,,,,,calibration,0,19,2,583,11,F,0,left,1.5275599410088034,0,0,,,,,,,,,,,,,,,,,,,,,1,,,,,,,,,,,,,,,,,,,,,,,,,,,,,,,,,,,,,,,,,,,,,,70,143035,23,Female,1,2024/02/20_11:50:57,YZ,None,
,,,,,,calibration,0,19,2,583,12,V,1,left,1.5257492340024328,1,0,,,,,,,,,,,,,,,,,,,,,1,,,,,,,,,,,,,,,,,,,,,,,,,,,,,,,,,,,,,,,,,,,,,,70,143035,23,Female,1,2024/02/20_11:50:57,YZ,None,
,,,,,,calibration,0,19,2,583,13,C,0,left,1.1692579490045318,0,0,,,,,,,,,,,,,,,,,,,,,1,,,,,,,,,,,,,,,,,,,,,,,,,,,,,,,,,,,,,,,,,,,,,,70,143035,23,Female,1,2024/02/20_11:50:57,YZ,None,
,,,,,,calibration,0,19,2,583,14,V,1,right,1.1031865510012722,0,0,,,,,,,,,,,,,,,,,,,,,1,,,,,,,,,,,,,,,,,,,,,,,,,,,,,,,,,,,,,,,,,,,,,,70,143035,23,Female,1,2024/02/20_11:50:57,YZ,None,
,,,,,,calibration,0,19,2,583,15,N,0,right,0.9970085910026683,1,0,,,,,,,,,,,,,,,,,,,,,1,,,,,,,,,,,,,,,,,,,,,,,,,,,,,,,,,,,,,,,,,,,,,,70,143035,23,Female,1,2024/02/20_11:50:57,YZ,None,
,,,,,,calibration,0,19,2,583,,,,,,,,0.8465909090909092,0.75,0.18181818181818182,0.8181818181818182,0.0,0.8181818181818181,1.2300614610673317,3,2,0,0,0,9,12,4,11,0,,,,1,,,,,,,,,,,,,,,,,,,,,,,,,,,,,,,,,,,,,,,,,,,,,,70,143035,23,Female,1,2024/02/20_11:50:57,YZ,None,
,,,,,,Calibration,0,,2,583,,,,,,,,,,,,,,,,,,,,,,,,,1,,,1,,,,,,,,,,,,,,,,,,,,,,,,,,,,,,,,,,,,,,,,,,,,,,70,143035,23,Female,1,2024/02/20_11:50:57,YZ,None,
,,,,,,calibration,0,18,2,583,1,X,0,None,nan,0,1,,,,,,,,,,,,,,,,,,,,,1,,,,,,,,,,,,,,,,,,,,,,,,,,,,,,,,,,,,,,,,,,,,,,70,143035,23,Female,1,2024/02/20_11:50:57,YZ,None,
,,,,,,calibration,0,18,2,583,2,C,0,right,1.285208909001085,1,0,,,,,,,,,,,,,,,,,,,,,1,,,,,,,,,,,,,,,,,,,,,,,,,,,,,,,,,,,,,,,,,,,,,,70,143035,23,Female,1,2024/02/20_11:50:57,YZ,None,
,,,,,,calibration,0,18,2,583,3,S,0,right,0.7761552179872524,1,0,,,,,,,,,,,,,,,,,,,,,1,,,,,,,,,,,,,,,,,,,,,,,,,,,,,,,,,,,,,,,,,,,,,,70,143035,23,Female,1,2024/02/20_11:50:57,YZ,None,
,,,,,,calibration,0,18,2,583,4,V,0,right,0.725586211992777,1,0,,,,,,,,,,,,,,,,,,,,,1,,,,,,,,,,,,,,,,,,,,,,,,,,,,,,,,,,,,,,,,,,,,,,70,143035,23,Female,1,2024/02/20_11:50:57,YZ,None,
,,,,,,calibration,0,18,2,583,5,X,0,right,0.4129725230013719,1,0,,,,,,,,,,,,,,,,,,,,,1,,,,,,,,,,,,,,,,,,,,,,,,,,,,,,,,,,,,,,,,,,,,,,70,143035,23,Female,1,2024/02/20_11:50:57,YZ,None,
,,,,,,calibration,0,18,2,583,6,J,0,right,0.4472287209937349,1,0,,,,,,,,,,,,,,,,,,,,,1,,,,,,,,,,,,,,,,,,,,,,,,,,,,,,,,,,,,,,,,,,,,,,70,143035,23,Female,1,2024/02/20_11:50:57,YZ,None,
,,,,,,calibration,0,18,2,583,7,X,1,left,0.688304123992566,1,0,,,,,,,,,,,,,,,,,,,,,1,,,,,,,,,,,,,,,,,,,,,,,,,,,,,,,,,,,,,,,,,,,,,,70,143035,23,Female,1,2024/02/20_11:50:57,YZ,None,
,,,,,,calibration,0,18,2,583,8,J,1,left,0.7119374580070144,1,0,,,,,,,,,,,,,,,,,,,,,1,,,,,,,,,,,,,,,,,,,,,,,,,,,,,,,,,,,,,,,,,,,,,,70,143035,23,Female,1,2024/02/20_11:50:57,YZ,None,
,,,,,,calibration,0,18,2,583,9,V,0,left,1.4426322350045666,0,0,,,,,,,,,,,,,,,,,,,,,1,,,,,,,,,,,,,,,,,,,,,,,,,,,,,,,,,,,,,,,,,,,,,,70,143035,23,Female,1,2024/02/20_11:50:57,YZ,None,
,,,,,,calibration,0,18,2,583,10,J,1,left,0.925277759990422,1,0,,,,,,,,,,,,,,,,,,,,,1,,,,,,,,,,,,,,,,,,,,,,,,,,,,,,,,,,,,,,,,,,,,,,70,143035,23,Female,1,2024/02/20_11:50:57,YZ,None,
,,,,,,calibration,0,18,2,583,11,Q,0,left,0.3740193499979796,0,0,,,,,,,,,,,,,,,,,,,,,1,,,,,,,,,,,,,,,,,,,,,,,,,,,,,,,,,,,,,,,,,,,,,,70,143035,23,Female,1,2024/02/20_11:50:57,YZ,None,
,,,,,,calibration,0,18,2,583,12,F,0,right,0.5307782559975749,1,0,,,,,,,,,,,,,,,,,,,,,1,,,,,,,,,,,,,,,,,,,,,,,,,,,,,,,,,,,,,,,,,,,,,,70,143035,23,Female,1,2024/02/20_11:50:57,YZ,None,
,,,,,,calibration,0,18,2,583,13,Q,1,right,nan,0,1,,,,,,,,,,,,,,,,,,,,,1,,,,,,,,,,,,,,,,,,,,,,,,,,,,,,,,,,,,,,,,,,,,,,70,143035,23,Female,1,2024/02/20_11:50:57,YZ,None,
,,,,,,calibration,0,18,2,583,14,N,0,right,0.5407778370135929,1,0,,,,,,,,,,,,,,,,,,,,,1,,,,,,,,,,,,,,,,,,,,,,,,,,,,,,,,,,,,,,,,,,,,,,70,143035,23,Female,1,2024/02/20_11:50:57,YZ,None,
,,,,,,calibration,0,18,2,583,15,J,0,right,0.7382636969996383,1,0,,,,,,,,,,,,,,,,,,,,,1,,,,,,,,,,,,,,,,,,,,,,,,,,,,,,,,,,,,,,,,,,,,,,70,143035,23,Female,1,2024/02/20_11:50:57,YZ,None,
,,,,,,calibration,0,18,2,583,,,,,,,,0.8465909090909092,0.75,0.18181818181818182,0.8,0.13333333333333333,0.6848484848484848,0.7383955615368905,3,2,1,1,2,8,11,4,11,0,,,,1,,,,,,,,,,,,,,,,,,,,,,,,,,,,,,,,,,,,,,,,,,,,,,70,143035,23,Female,1,2024/02/20_11:50:57,YZ,None,
,,,,,,Calibration,0,,2,583,,,,,,,,,,,,,,,,,,,,,,,,,2,,,1,,,,,,,,,,,,,,,,,,,,,,,,,,,,,,,,,,,,,,,,,,,,,,70,143035,23,Female,1,2024/02/20_11:50:57,YZ,None,
,,,,,,calibration,0,10,2,583,1,F,0,None,nan,0,1,,,,,,,,,,,,,,,,,,,,,1,,,,,,,,,,,,,,,,,,,,,,,,,,,,,,,,,,,,,,,,,,,,,,70,143035,23,Female,1,2024/02/20_11:50:57,YZ,None,
,,,,,,calibration,0,10,2,583,2,V,0,right,1.4340683389891637,1,0,,,,,,,,,,,,,,,,,,,,,1,,,,,,,,,,,,,,,,,,,,,,,,,,,,,,,,,,,,,,,,,,,,,,70,143035,23,Female,1,2024/02/20_11:50:57,YZ,None,
,,,,,,calibration,0,10,2,583,3,S,0,right,0.6192666479910258,1,0,,,,,,,,,,,,,,,,,,,,,1,,,,,,,,,,,,,,,,,,,,,,,,,,,,,,,,,,,,,,,,,,,,,,70,143035,23,Female,1,2024/02/20_11:50:57,YZ,None,
,,,,,,calibration,0,10,2,583,4,N,0,right,0.42953333600598853,1,0,,,,,,,,,,,,,,,,,,,,,1,,,,,,,,,,,,,,,,,,,,,,,,,,,,,,,,,,,,,,,,,,,,,,70,143035,23,Female,1,2024/02/20_11:50:57,YZ,None,
,,,,,,calibration,0,10,2,583,5,V,0,right,0.41599078600120265,1,0,,,,,,,,,,,,,,,,,,,,,1,,,,,,,,,,,,,,,,,,,,,,,,,,,,,,,,,,,,,,,,,,,,,,70,143035,23,Female,1,2024/02/20_11:50:57,YZ,None,
,,,,,,calibration,0,10,2,583,6,N,1,right,0.37216680399433244,0,0,,,,,,,,,,,,,,,,,,,,,1,,,,,,,,,,,,,,,,,,,,,,,,,,,,,,,,,,,,,,,,,,,,,,70,143035,23,Female,1,2024/02/20_11:50:57,YZ,None,
,,,,,,calibration,0,10,2,583,7,Q,0,right,0.5123737099929713,1,0,,,,,,,,,,,,,,,,,,,,,1,,,,,,,,,,,,,,,,,,,,,,,,,,,,,,,,,,,,,,,,,,,,,,70,143035,23,Female,1,2024/02/20_11:50:57,YZ,None,
,,,,,,calibration,0,10,2,583,8,N,1,left,0.7079519529943354,1,0,,,,,,,,,,,,,,,,,,,,,1,,,,,,,,,,,,,,,,,,,,,,,,,,,,,,,,,,,,,,,,,,,,,,70,143035,23,Female,1,2024/02/20_11:50:57,YZ,None,
,,,,,,calibration,0,10,2,583,9,S,0,left,0.5547059230011655,0,0,,,,,,,,,,,,,,,,,,,,,1,,,,,,,,,,,,,,,,,,,,,,,,,,,,,,,,,,,,,,,,,,,,,,70,143035,23,Female,1,2024/02/20_11:50:57,YZ,None,
,,,,,,calibration,0,10,2,583,10,N,1,right,0.6227959740062943,0,0,,,,,,,,,,,,,,,,,,,,,1,,,,,,,,,,,,,,,,,,,,,,,,,,,,,,,,,,,,,,,,,,,,,,70,143035,23,Female,1,2024/02/20_11:50:57,YZ,None,
,,,,,,calibration,0,10,2,583,11,C,0,left,0.7951040619955165,0,0,,,,,,,,,,,,,,,,,,,,,1,,,,,,,,,,,,,,,,,,,,,,,,,,,,,,,,,,,,,,,,,,,,,,70,143035,23,Female,1,2024/02/20_11:50:57,YZ,None,
,,,,,,calibration,0,10,2,583,12,S,0,left,0.8478795429982711,0,0,,,,,,,,,,,,,,,,,,,,,1,,,,,,,,,,,,,,,,,,,,,,,,,,,,,,,,,,,,,,,,,,,,,,70,143035,23,Female,1,2024/02/20_11:50:57,YZ,None,
,,,,,,calibration,0,10,2,583,13,C,1,left,0.48259852500632405,1,0,,,,,,,,,,,,,,,,,,,,,1,,,,,,,,,,,,,,,,,,,,,,,,,,,,,,,,,,,,,,,,,,,,,,70,143035,23,Female,1,2024/02/20_11:50:57,YZ,None,
,,,,,,calibration,0,10,2,583,14,Q,0,right,0.7165587849885924,1,0,,,,,,,,,,,,,,,,,,,,,1,,,,,,,,,,,,,,,,,,,,,,,,,,,,,,,,,,,,,,,,,,,,,,70,143035,23,Female,1,2024/02/20_11:50:57,YZ,None,
,,,,,,calibration,0,10,2,583,15,S,0,right,nan,0,1,,,,,,,,,,,,,,,,,,,,,1,,,,,,,,,,,,,,,,,,,,,,,,,,,,,,,,,,,,,,,,,,,,,,70,143035,23,Female,1,2024/02/20_11:50:57,YZ,None,
,,,,,,calibration,0,10,2,583,,,,,,,,0.6704545454545455,0.5,0.2727272727272727,0.6666666666666666,0.13333333333333333,0.593939393939394,0.6546918759973218,2,3,0,2,2,6,8,4,11,0,,,,1,,,,,,,,,,,,,,,,,,,,,,,,,,,,,,,,,,,,,,,,,,,,,,70,143035,23,Female,1,2024/02/20_11:50:57,YZ,None,
,,,,,,Calibration,0,,2,583,,,,,,,,,,,,,,,,,,,,,,,,,3,,,1,,,,,,,,,,,,,,,,,,,,,,,,,,,,,,,,,,,,,,,,,,,,,,70,143035,23,Female,1,2024/02/20_11:50:57,YZ,None,
,,,,,,calibration,0,15,2,679,1,C,0,right,0.888139417002094,1,0,,,,,,,,,,,,,,,,,,,,,1,,,,,,,,,,,,,,,,,,,,,,,,,,,,,,,,,,,,,,,,,,,,,,70,143035,23,Female,1,2024/02/20_11:50:57,YZ,None,
,,,,,,calibration,0,15,2,679,2,S,0,right,0.36633325400180183,1,0,,,,,,,,,,,,,,,,,,,,,1,,,,,,,,,,,,,,,,,,,,,,,,,,,,,,,,,,,,,,,,,,,,,,70,143035,23,Female,1,2024/02/20_11:50:57,YZ,None,
,,,,,,calibration,0,15,2,679,3,X,0,right,0.6656965529982699,1,0,,,,,,,,,,,,,,,,,,,,,1,,,,,,,,,,,,,,,,,,,,,,,,,,,,,,,,,,,,,,,,,,,,,,70,143035,23,Female,1,2024/02/20_11:50:57,YZ,None,
,,,,,,calibration,0,15,2,679,4,S,1,left,0.5658952959929593,1,0,,,,,,,,,,,,,,,,,,,,,1,,,,,,,,,,,,,,,,,,,,,,,,,,,,,,,,,,,,,,,,,,,,,,70,143035,23,Female,1,2024/02/20_11:50:57,YZ,None,
,,,,,,calibration,0,15,2,679,5,V,0,right,0.6412705889961217,1,0,,,,,,,,,,,,,,,,,,,,,1,,,,,,,,,,,,,,,,,,,,,,,,,,,,,,,,,,,,,,,,,,,,,,70,143035,23,Female,1,2024/02/20_11:50:57,YZ,None,
,,,,,,calibration,0,15,2,679,6,F,0,right,0.439165663003223,1,0,,,,,,,,,,,,,,,,,,,,,1,,,,,,,,,,,,,,,,,,,,,,,,,,,,,,,,,,,,,,,,,,,,,,70,143035,23,Female,1,2024/02/20_11:50:57,YZ,None,
,,,,,,calibration,0,15,2,679,7,C,0,left,0.557589944000938,0,0,,,,,,,,,,,,,,,,,,,,,1,,,,,,,,,,,,,,,,,,,,,,,,,,,,,,,,,,,,,,,,,,,,,,70,143035,23,Female,1,2024/02/20_11:50:57,YZ,None,
,,,,,,calibration,0,15,2,679,8,Q,0,right,0.6376894600107335,1,0,,,,,,,,,,,,,,,,,,,,,1,,,,,,,,,,,,,,,,,,,,,,,,,,,,,,,,,,,,,,,,,,,,,,70,143035,23,Female,1,2024/02/20_11:50:57,YZ,None,
,,,,,,calibration,0,15,2,679,9,C,1,left,0.5797742439899594,1,0,,,,,,,,,,,,,,,,,,,,,1,,,,,,,,,,,,,,,,,,,,,,,,,,,,,,,,,,,,,,,,,,,,,,70,143035,23,Female,1,2024/02/20_11:50:57,YZ,None,
,,,,,,calibration,0,15,2,679,10,F,0,left,1.5653123140073149,0,0,,,,,,,,,,,,,,,,,,,,,1,,,,,,,,,,,,,,,,,,,,,,,,,,,,,,,,,,,,,,,,,,,,,,70,143035,23,Female,1,2024/02/20_11:50:57,YZ,None,
,,,,,,calibration,0,15,2,679,11,C,1,left,0.7240912970009958,1,0,,,,,,,,,,,,,,,,,,,,,1,,,,,,,,,,,,,,,,,,,,,,,,,,,,,,,,,,,,,,,,,,,,,,70,143035,23,Female,1,2024/02/20_11:50:57,YZ,None,
,,,,,,calibration,0,15,2,679,12,F,1,left,0.7395940809947206,1,0,,,,,,,,,,,,,,,,,,,,,1,,,,,,,,,,,,,,,,,,,,,,,,,,,,,,,,,,,,,,,,,,,,,,70,143035,23,Female,1,2024/02/20_11:50:57,YZ,None,
,,,,,,calibration,0,15,2,679,13,Q,0,right,0.4738304189959308,1,0,,,,,,,,,,,,,,,,,,,,,1,,,,,,,,,,,,,,,,,,,,,,,,,,,,,,,,,,,,,,,,,,,,,,70,143035,23,Female,1,2024/02/20_11:50:57,YZ,None,
,,,,,,calibration,0,15,2,679,14,V,0,right,0.726040063003893,1,0,,,,,,,,,,,,,,,,,,,,,1,,,,,,,,,,,,,,,,,,,,,,,,,,,,,,,,,,,,,,,,,,,,,,70,143035,23,Female,1,2024/02/20_11:50:57,YZ,None,
,,,,,,calibration,0,15,2,679,,,,,,,,0.95,1.0,0.2,0.8,0.0,0.8,0.6836016138570683,4,2,0,0,0,8,12,4,10,0,,,,1,,,,,,,,,,,,,,,,,,,,,,,,,,,,,,,,,,,,,,,,,,,,,,70,143035,23,Female,1,2024/02/20_11:50:57,YZ,None,
,,,,,,Calibration,0,,2,679,,,,,,,,,,,,,,,,,,,,,,,,,4,,,1,,,,,,,,,,,,,,,,,,,,,,,,,,,,,,,,,,,,,,,,,,,,,,70,143035,23,Female,1,2024/02/20_11:50:57,YZ,None,
,,,,,,calibration,0,27,2,583,1,Q,0,right,0.6296248779981397,1,0,,,,,,,,,,,,,,,,,,,,,1,,,,,,,,,,,,,,,,,,,,,,,,,,,,,,,,,,,,,,,,,,,,,,70,143035,23,Female,1,2024/02/20_11:50:57,YZ,None,
,,,,,,calibration,0,27,2,583,2,V,0,right,0.5124952360056341,1,0,,,,,,,,,,,,,,,,,,,,,1,,,,,,,,,,,,,,,,,,,,,,,,,,,,,,,,,,,,,,,,,,,,,,70,143035,23,Female,1,2024/02/20_11:50:57,YZ,None,
,,,,,,calibration,0,27,2,583,3,N,0,right,0.4107596200046828,1,0,,,,,,,,,,,,,,,,,,,,,1,,,,,,,,,,,,,,,,,,,,,,,,,,,,,,,,,,,,,,,,,,,,,,70,143035,23,Female,1,2024/02/20_11:50:57,YZ,None,
,,,,,,calibration,0,27,2,583,4,X,0,right,0.5122734659962589,1,0,,,,,,,,,,,,,,,,,,,,,1,,,,,,,,,,,,,,,,,,,,,,,,,,,,,,,,,,,,,,,,,,,,,,70,143035,23,Female,1,2024/02/20_11:50:57,YZ,None,
,,,,,,calibration,0,27,2,583,5,N,1,right,0.6087479740090203,0,0,,,,,,,,,,,,,,,,,,,,,1,,,,,,,,,,,,,,,,,,,,,,,,,,,,,,,,,,,,,,,,,,,,,,70,143035,23,Female,1,2024/02/20_11:50:57,YZ,None,
,,,,,,calibration,0,27,2,583,6,X,1,left,0.557790278995526,1,0,,,,,,,,,,,,,,,,,,,,,1,,,,,,,,,,,,,,,,,,,,,,,,,,,,,,,,,,,,,,,,,,,,,,70,143035,23,Female,1,2024/02/20_11:50:57,YZ,None,
,,,,,,calibration,0,27,2,583,7,V,0,right,0.8080144300038228,1,0,,,,,,,,,,,,,,,,,,,,,1,,,,,,,,,,,,,,,,,,,,,,,,,,,,,,,,,,,,,,,,,,,,,,70,143035,23,Female,1,2024/02/20_11:50:57,YZ,None,
,,,,,,calibration,0,27,2,583,8,N,0,left,0.6521283729962306,0,0,,,,,,,,,,,,,,,,,,,,,1,,,,,,,,,,,,,,,,,,,,,,,,,,,,,,,,,,,,,,,,,,,,,,70,143035,23,Female,1,2024/02/20_11:50:57,YZ,None,
,,,,,,calibration,0,27,2,583,9,V,1,left,0.8634876720025204,1,0,,,,,,,,,,,,,,,,,,,,,1,,,,,,,,,,,,,,,,,,,,,,,,,,,,,,,,,,,,,,,,,,,,,,70,143035,23,Female,1,2024/02/20_11:50:57,YZ,None,
,,,,,,calibration,0,27,2,583,10,S,0,right,1.0079490959906252,1,0,,,,,,,,,,,,,,,,,,,,,1,,,,,,,,,,,,,,,,,,,,,,,,,,,,,,,,,,,,,,,,,,,,,,70,143035,23,Female,1,2024/02/20_11:50:57,YZ,None,
,,,,,,calibration,0,27,2,583,11,X,0,right,0.593009689997416,1,0,,,,,,,,,,,,,,,,,,,,,1,,,,,,,,,,,,,,,,,,,,,,,,,,,,,,,,,,,,,,,,,,,,,,70,143035,23,Female,1,2024/02/20_11:50:57,YZ,None,
,,,,,,calibration,0,27,2,583,12,S,1,left,0.7407222239999101,1,0,,,,,,,,,,,,,,,,,,,,,1,,,,,,,,,,,,,,,,,,,,,,,,,,,,,,,,,,,,,,,,,,,,,,70,143035,23,Female,1,2024/02/20_11:50:57,YZ,None,
,,,,,,calibration,0,27,2,583,13,F,0,right,0.7464432250126265,1,0,,,,,,,,,,,,,,,,,,,,,1,,,,,,,,,,,,,,,,,,,,,,,,,,,,,,,,,,,,,,,,,,,,,,70,143035,23,Female,1,2024/02/20_11:50:57,YZ,None,
,,,,,,calibration,0,27,2,583,14,N,0,left,0.7247160690021701,0,0,,,,,,,,,,,,,,,,,,,,,1,,,,,,,,,,,,,,,,,,,,,,,,,,,,,,,,,,,,,,,,,,,,,,70,143035,23,Female,1,2024/02/20_11:50:57,YZ,None,
,,,,,,calibration,0,27,2,583,15,S,0,left,0.868884937997791,0,0,,,,,,,,,,,,,,,,,,,,,1,,,,,,,,,,,,,,,,,,,,,,,,,,,,,,,,,,,,,,,,,,,,,,70,143035,23,Female,1,2024/02/20_11:50:57,YZ,None,
,,,,,,calibration,0,27,2,583,,,,,,,,0.8011363636363638,0.75,0.2727272727272727,0.7272727272727273,0.0,0.7272727272727273,0.6824698113341583,3,3,0,0,0,8,11,4,11,0,,,,1,,,,,,,,,,,,,,,,,,,,,,,,,,,,,,,,,,,,,,,,,,,,,,70,143035,23,Female,1,2024/02/20_11:50:57,YZ,None,
,,,,,,Calibration,0,,2,583,,,,,,,,,,,,,,,,,,,,,,,,,5,,,1,,,,,,,,,,,,,,,,,,,,,,,,,,,,,,,,,,,,,,,,,,,,,,70,143035,23,Female,1,2024/02/20_11:50:57,YZ,None,
,,,,,,calibration,0,22,2,583,1,F,0,right,1.5749651759979315,1,0,,,,,,,,,,,,,,,,,,,,,1,,,,,,,,,,,,,,,,,,,,,,,,,,,,,,,,,,,,,,,,,,,,,,70,143035,23,Female,1,2024/02/20_11:50:57,YZ,None,
,,,,,,calibration,0,22,2,583,2,F,0,right,1.9393029149941867,1,0,,,,,,,,,,,,,,,,,,,,,1,,,,,,,,,,,,,,,,,,,,,,,,,,,,,,,,,,,,,,,,,,,,,,70,143035,23,Female,1,2024/02/20_11:50:57,YZ,None,
,,,,,,calibration,0,22,2,583,3,F,1,left,0.8250178710004548,1,0,,,,,,,,,,,,,,,,,,,,,1,,,,,,,,,,,,,,,,,,,,,,,,,,,,,,,,,,,,,,,,,,,,,,70,143035,23,Female,1,2024/02/20_11:50:57,YZ,None,
,,,,,,calibration,0,22,2,583,4,F,1,left,0.6077919789968291,1,0,,,,,,,,,,,,,,,,,,,,,1,,,,,,,,,,,,,,,,,,,,,,,,,,,,,,,,,,,,,,,,,,,,,,70,143035,23,Female,1,2024/02/20_11:50:57,YZ,None,
,,,,,,calibration,0,22,2,583,5,X,0,right,0.9350876399985282,1,0,,,,,,,,,,,,,,,,,,,,,1,,,,,,,,,,,,,,,,,,,,,,,,,,,,,,,,,,,,,,,,,,,,,,70,143035,23,Female,1,2024/02/20_11:50:57,YZ,None,
,,,,,,calibration,0,22,2,583,6,F,1,left,0.3690109460003441,1,0,,,,,,,,,,,,,,,,,,,,,1,,,,,,,,,,,,,,,,,,,,,,,,,,,,,,,,,,,,,,,,,,,,,,70,143035,23,Female,1,2024/02/20_11:50:57,YZ,None,
,,,,,,calibration,0,22,2,583,7,N,0,right,1.065662151988363,1,0,,,,,,,,,,,,,,,,,,,,,1,,,,,,,,,,,,,,,,,,,,,,,,,,,,,,,,,,,,,,,,,,,,,,70,143035,23,Female,1,2024/02/20_11:50:57,YZ,None,
,,,,,,calibration,0,22,2,583,8,S,0,right,1.1144603790016845,1,0,,,,,,,,,,,,,,,,,,,,,1,,,,,,,,,,,,,,,,,,,,,,,,,,,,,,,,,,,,,,,,,,,,,,70,143035,23,Female,1,2024/02/20_11:50:57,YZ,None,
,,,,,,calibration,0,22,2,583,9,X,0,right,0.7570098899886943,1,0,,,,,,,,,,,,,,,,,,,,,1,,,,,,,,,,,,,,,,,,,,,,,,,,,,,,,,,,,,,,,,,,,,,,70,143035,23,Female,1,2024/02/20_11:50:57,YZ,None,
,,,,,,calibration,0,22,2,583,10,S,1,left,0.806734840007266,1,0,,,,,,,,,,,,,,,,,,,,,1,,,,,,,,,,,,,,,,,,,,,,,,,,,,,,,,,,,,,,,,,,,,,,70,143035,23,Female,1,2024/02/20_11:50:57,YZ,None,
,,,,,,calibration,0,22,2,583,11,X,1,left,1.7520799890044145,1,0,,,,,,,,,,,,,,,,,,,,,1,,,,,,,,,,,,,,,,,,,,,,,,,,,,,,,,,,,,,,,,,,,,,,70,143035,23,Female,1,2024/02/20_11:50:57,YZ,None,
,,,,,,calibration,0,22,2,583,12,J,0,right,0.8450416470004711,1,0,,,,,,,,,,,,,,,,,,,,,1,,,,,,,,,,,,,,,,,,,,,,,,,,,,,,,,,,,,,,,,,,,,,,70,143035,23,Female,1,2024/02/20_11:50:57,YZ,None,
,,,,,,calibration,0,22,2,583,13,N,0,right,0.5123023420019308,1,0,,,,,,,,,,,,,,,,,,,,,1,,,,,,,,,,,,,,,,,,,,,,,,,,,,,,,,,,,,,,,,,,,,,,70,143035,23,Female,1,2024/02/20_11:50:57,YZ,None,
,,,,,,calibration,0,22,2,583,14,X,0,right,0.449042983003892,1,0,,,,,,,,,,,,,,,,,,,,,1,,,,,,,,,,,,,,,,,,,,,,,,,,,,,,,,,,,,,,,,,,,,,,70,143035,23,Female,1,2024/02/20_11:50:57,YZ,None,
,,,,,,calibration,0,22,2,583,15,J,0,left,0.7218282620015088,0,0,,,,,,,,,,,,,,,,,,,,,1,,,,,,,,,,,,,,,,,,,,,,,,,,,,,,,,,,,,,,,,,,,,,,70,143035,23,Female,1,2024/02/20_11:50:57,YZ,None,
,,,,,,calibration,0,22,2,583,,,,,,,,0.975,1.0,0.1,0.9,0.0,0.9,0.9516892673991,5,1,0,0,0,9,14,5,10,0,,,,1,,,,,,,,,,,,,,,,,,,,,,,,,,,,,,,,,,,,,,,,,,,,,,70,143035,23,Female,1,2024/02/20_11:50:57,YZ,None,
,,,,,,Calibration,0,,2,583,,,,,,,,,,,,,,,,,,,,,,,,,6,,,1,,,,,,,,,,,,,,,,,,,,,,,,,,,,,,,,,,,,,,,,,,,,,,70,143035,23,Female,1,2024/02/20_11:50:57,YZ,None,
,,,,,,calibration,0,4,2,500,1,Q,0,right,0.7195943520055152,1,0,,,,,,,,,,,,,,,,,,,,,1,,,,,,,,,,,,,,,,,,,,,,,,,,,,,,,,,,,,,,,,,,,,,,70,143035,23,Female,1,2024/02/20_11:50:57,YZ,None,
,,,,,,calibration,0,4,2,500,2,C,0,right,0.42758279299596325,1,0,,,,,,,,,,,,,,,,,,,,,1,,,,,,,,,,,,,,,,,,,,,,,,,,,,,,,,,,,,,,,,,,,,,,70,143035,23,Female,1,2024/02/20_11:50:57,YZ,None,
,,,,,,calibration,0,4,2,500,3,Q,1,right,0.5004479420022108,0,0,,,,,,,,,,,,,,,,,,,,,1,,,,,,,,,,,,,,,,,,,,,,,,,,,,,,,,,,,,,,,,,,,,,,70,143035,23,Female,1,2024/02/20_11:50:57,YZ,None,
,,,,,,calibration,0,4,2,500,4,F,0,right,0.4574806449963944,1,0,,,,,,,,,,,,,,,,,,,,,1,,,,,,,,,,,,,,,,,,,,,,,,,,,,,,,,,,,,,,,,,,,,,,70,143035,23,Female,1,2024/02/20_11:50:57,YZ,None,
,,,,,,calibration,0,4,2,500,5,S,0,left,0.7266928640019614,0,0,,,,,,,,,,,,,,,,,,,,,1,,,,,,,,,,,,,,,,,,,,,,,,,,,,,,,,,,,,,,,,,,,,,,70,143035,23,Female,1,2024/02/20_11:50:57,YZ,None,
,,,,,,calibration,0,4,2,500,6,F,1,left,nan,0,1,,,,,,,,,,,,,,,,,,,,,1,,,,,,,,,,,,,,,,,,,,,,,,,,,,,,,,,,,,,,,,,,,,,,70,143035,23,Female,1,2024/02/20_11:50:57,YZ,None,
,,,,,,calibration,0,4,2,500,7,J,0,left,nan,0,1,,,,,,,,,,,,,,,,,,,,,1,,,,,,,,,,,,,,,,,,,,,,,,,,,,,,,,,,,,,,,,,,,,,,70,143035,23,Female,1,2024/02/20_11:50:57,YZ,None,
,,,,,,calibration,0,4,2,500,8,F,1,right,0.03516668600786943,0,0,,,,,,,,,,,,,,,,,,,,,1,,,,,,,,,,,,,,,,,,,,,,,,,,,,,,,,,,,,,,,,,,,,,,70,143035,23,Female,1,2024/02/20_11:50:57,YZ,None,
,,,,,,calibration,0,4,2,500,9,N,0,right,0.6354406320024282,1,0,,,,,,,,,,,,,,,,,,,,,1,,,,,,,,,,,,,,,,,,,,,,,,,,,,,,,,,,,,,,,,,,,,,,70,143035,23,Female,1,2024/02/20_11:50:57,YZ,None,
,,,,,,calibration,0,4,2,500,10,F,1,right,0.5912806879932759,0,0,,,,,,,,,,,,,,,,,,,,,1,,,,,,,,,,,,,,,,,,,,,,,,,,,,,,,,,,,,,,,,,,,,,,70,143035,23,Female,1,2024/02/20_11:50:57,YZ,None,
,,,,,,calibration,0,4,2,500,11,C,0,right,nan,0,1,,,,,,,,,,,,,,,,,,,,,1,,,,,,,,,,,,,,,,,,,,,,,,,,,,,,,,,,,,,,,,,,,,,,70,143035,23,Female,1,2024/02/20_11:50:57,YZ,None,
,,,,,,calibration,0,4,2,500,12,Q,0,right,nan,0,1,,,,,,,,,,,,,,,,,,,,,1,,,,,,,,,,,,,,,,,,,,,,,,,,,,,,,,,,,,,,,,,,,,,,70,143035,23,Female,1,2024/02/20_11:50:57,YZ,None,
,,,,,,calibration,0,4,2,500,13,C,1,left,0.4741218279959867,1,0,,,,,,,,,,,,,,,,,,,,,1,,,,,,,,,,,,,,,,,,,,,,,,,,,,,,,,,,,,,,,,,,,,,,70,143035,23,Female,1,2024/02/20_11:50:57,YZ,None,
,,,,,,calibration,0,4,2,500,14,V,0,right,0.6775378260063007,1,0,,,,,,,,,,,,,,,,,,,,,1,,,,,,,,,,,,,,,,,,,,,,,,,,,,,,,,,,,,,,,,,,,,,,70,143035,23,Female,1,2024/02/20_11:50:57,YZ,None,
,,,,,,calibration,0,4,2,500,15,X,0,left,0.618752570997458,0,0,,,,,,,,,,,,,,,,,,,,,1,,,,,,,,,,,,,,,,,,,,,,,,,,,,,,,,,,,,,,,,,,,,,,70,143035,23,Female,1,2024/02/20_11:50:57,YZ,None,
,,,,,,calibration,0,4,2,500,16,C,0,right,0.4622410320007475,1,0,,,,,,,,,,,,,,,,,,,,,1,,,,,,,,,,,,,,,,,,,,,,,,,,,,,,,,,,,,,,,,,,,,,,70,143035,23,Female,1,2024/02/20_11:50:57,YZ,None,
,,,,,,calibration,0,4,2,500,,,,,,,,0.5272727272727272,0.2,0.18181818181818182,0.75,0.25,0.5681818181818181,0.5271949882505093,1,2,1,3,4,6,7,5,11,0,,,,1,,,,,,,,,,,,,,,,,,,,,,,,,,,,,,,,,,,,,,,,,,,,,,70,143035,23,Female,1,2024/02/20_11:50:57,YZ,None,
,,,,,,Calibration,0,,2,500,,,,,,,,,,,,,,,,,,,,,,,,,7,,,1,,,,,,,,,,,,,,,,,,,,,,,,,,,,,,,,,,,,,,,,,,,,,,70,143035,23,Female,1,2024/02/20_11:50:57,YZ,None,
,,,,,,calibration,0,7,2,583,1,S,0,right,0.663914909993764,1,0,,,,,,,,,,,,,,,,,,,,,1,,,,,,,,,,,,,,,,,,,,,,,,,,,,,,,,,,,,,,,,,,,,,,70,143035,23,Female,1,2024/02/20_11:50:57,YZ,None,
,,,,,,calibration,0,7,2,583,2,N,0,right,0.35354620800353587,1,0,,,,,,,,,,,,,,,,,,,,,1,,,,,,,,,,,,,,,,,,,,,,,,,,,,,,,,,,,,,,,,,,,,,,70,143035,23,Female,1,2024/02/20_11:50:57,YZ,None,
,,,,,,calibration,0,7,2,583,3,J,0,right,0.5773069459974067,1,0,,,,,,,,,,,,,,,,,,,,,1,,,,,,,,,,,,,,,,,,,,,,,,,,,,,,,,,,,,,,,,,,,,,,70,143035,23,Female,1,2024/02/20_11:50:57,YZ,None,
,,,,,,calibration,0,7,2,583,4,N,1,right,0.2968269950069953,0,0,,,,,,,,,,,,,,,,,,,,,1,,,,,,,,,,,,,,,,,,,,,,,,,,,,,,,,,,,,,,,,,,,,,,70,143035,23,Female,1,2024/02/20_11:50:57,YZ,None,
,,,,,,calibration,0,7,2,583,5,V,0,right,0.6328245709883049,1,0,,,,,,,,,,,,,,,,,,,,,1,,,,,,,,,,,,,,,,,,,,,,,,,,,,,,,,,,,,,,,,,,,,,,70,143035,23,Female,1,2024/02/20_11:50:57,YZ,None,
,,,,,,calibration,0,7,2,583,6,N,1,left,0.4630796020064736,1,0,,,,,,,,,,,,,,,,,,,,,1,,,,,,,,,,,,,,,,,,,,,,,,,,,,,,,,,,,,,,,,,,,,,,70,143035,23,Female,1,2024/02/20_11:50:57,YZ,None,
,,,,,,calibration,0,7,2,583,7,V,1,left,0.6749125759961316,1,0,,,,,,,,,,,,,,,,,,,,,1,,,,,,,,,,,,,,,,,,,,,,,,,,,,,,,,,,,,,,,,,,,,,,70,143035,23,Female,1,2024/02/20_11:50:57,YZ,None,
,,,,,,calibration,0,7,2,583,8,Q,0,right,0.5756946269975742,1,0,,,,,,,,,,,,,,,,,,,,,1,,,,,,,,,,,,,,,,,,,,,,,,,,,,,,,,,,,,,,,,,,,,,,70,143035,23,Female,1,2024/02/20_11:50:57,YZ,None,
,,,,,,calibration,0,7,2,583,9,N,0,left,0.735654075993807,0,0,,,,,,,,,,,,,,,,,,,,,1,,,,,,,,,,,,,,,,,,,,,,,,,,,,,,,,,,,,,,,,,,,,,,70,143035,23,Female,1,2024/02/20_11:50:57,YZ,None,
,,,,,,calibration,0,7,2,583,10,Q,1,left,0.7112045360117918,1,0,,,,,,,,,,,,,,,,,,,,,1,,,,,,,,,,,,,,,,,,,,,,,,,,,,,,,,,,,,,,,,,,,,,,70,143035,23,Female,1,2024/02/20_11:50:57,YZ,None,
,,,,,,calibration,0,7,2,583,11,X,0,right,0.45836151399998926,1,0,,,,,,,,,,,,,,,,,,,,,1,,,,,,,,,,,,,,,,,,,,,,,,,,,,,,,,,,,,,,,,,,,,,,70,143035,23,Female,1,2024/02/20_11:50:57,YZ,None,
,,,,,,calibration,0,7,2,583,12,J,0,right,0.3776583230064716,1,0,,,,,,,,,,,,,,,,,,,,,1,,,,,,,,,,,,,,,,,,,,,,,,,,,,,,,,,,,,,,,,,,,,,,70,143035,23,Female,1,2024/02/20_11:50:57,YZ,None,
,,,,,,calibration,0,7,2,583,13,S,0,right,0.974266933000763,1,0,,,,,,,,,,,,,,,,,,,,,1,,,,,,,,,,,,,,,,,,,,,,,,,,,,,,,,,,,,,,,,,,,,,,70,143035,23,Female,1,2024/02/20_11:50:57,YZ,None,
,,,,,,calibration,0,7,2,583,14,J,1,left,0.6339296189980814,1,0,,,,,,,,,,,,,,,,,,,,,1,,,,,,,,,,,,,,,,,,,,,,,,,,,,,,,,,,,,,,,,,,,,,,70,143035,23,Female,1,2024/02/20_11:50:57,YZ,None,
,,,,,,calibration,0,7,2,583,15,Q,0,right,1.027031147008529,1,0,,,,,,,,,,,,,,,,,,,,,1,,,,,,,,,,,,,,,,,,,,,,,,,,,,,,,,,,,,,,,,,,,,,,70,143035,23,Female,1,2024/02/20_11:50:57,YZ,None,
,,,,,,calibration,0,7,2,583,,,,,,,,0.905,0.8,0.1,0.9,0.0,0.9,0.6104141722006413,4,1,0,0,0,9,13,5,10,0,,,,1,,,,,,,,,,,,,,,,,,,,,,,,,,,,,,,,,,,,,,,,,,,,,,70,143035,23,Female,1,2024/02/20_11:50:57,YZ,None,
,,,,,,Calibration,0,,2,583,,,,,,,,,,,,,,,,,,,,,,,,,8,,,1,,,,,,,,,,,,,,,,,,,,,,,,,,,,,,,,,,,,,,,,,,,,,,70,143035,23,Female,1,2024/02/20_11:50:57,YZ,None,
,,,,,,calibration,0,19,2,500,1,V,0,right,0.3910425639915047,1,0,,,,,,,,,,,,,,,,,,,,,1,,,,,,,,,,,,,,,,,,,,,,,,,,,,,,,,,,,,,,,,,,,,,,70,143035,23,Female,1,2024/02/20_11:50:57,YZ,None,
,,,,,,calibration,0,19,2,500,2,S,0,right,0.4243027260090457,1,0,,,,,,,,,,,,,,,,,,,,,1,,,,,,,,,,,,,,,,,,,,,,,,,,,,,,,,,,,,,,,,,,,,,,70,143035,23,Female,1,2024/02/20_11:50:57,YZ,None,
,,,,,,calibration,0,19,2,500,3,N,0,left,0.5125391100009438,0,0,,,,,,,,,,,,,,,,,,,,,1,,,,,,,,,,,,,,,,,,,,,,,,,,,,,,,,,,,,,,,,,,,,,,70,143035,23,Female,1,2024/02/20_11:50:57,YZ,None,
,,,,,,calibration,0,19,2,500,4,S,1,right,0.49970891099656,0,0,,,,,,,,,,,,,,,,,,,,,1,,,,,,,,,,,,,,,,,,,,,,,,,,,,,,,,,,,,,,,,,,,,,,70,143035,23,Female,1,2024/02/20_11:50:57,YZ,None,
,,,,,,calibration,0,19,2,500,5,N,1,left,0.8600559949991293,1,0,,,,,,,,,,,,,,,,,,,,,1,,,,,,,,,,,,,,,,,,,,,,,,,,,,,,,,,,,,,,,,,,,,,,70,143035,23,Female,1,2024/02/20_11:50:57,YZ,None,
,,,,,,calibration,0,19,2,500,6,C,0,right,0.6240403140109265,1,0,,,,,,,,,,,,,,,,,,,,,1,,,,,,,,,,,,,,,,,,,,,,,,,,,,,,,,,,,,,,,,,,,,,,70,143035,23,Female,1,2024/02/20_11:50:57,YZ,None,
,,,,,,calibration,0,19,2,500,7,Q,0,right,0.7308742390014231,1,0,,,,,,,,,,,,,,,,,,,,,1,,,,,,,,,,,,,,,,,,,,,,,,,,,,,,,,,,,,,,,,,,,,,,70,143035,23,Female,1,2024/02/20_11:50:57,YZ,None,
,,,,,,calibration,0,19,2,500,8,V,0,right,0.7319299250084441,1,0,,,,,,,,,,,,,,,,,,,,,1,,,,,,,,,,,,,,,,,,,,,,,,,,,,,,,,,,,,,,,,,,,,,,70,143035,23,Female,1,2024/02/20_11:50:57,YZ,None,
,,,,,,calibration,0,19,2,500,9,Q,1,left,0.6576235389948124,1,0,,,,,,,,,,,,,,,,,,,,,1,,,,,,,,,,,,,,,,,,,,,,,,,,,,,,,,,,,,,,,,,,,,,,70,143035,23,Female,1,2024/02/20_11:50:57,YZ,None,
,,,,,,calibration,0,19,2,500,10,J,0,right,0.5247924349969253,1,0,,,,,,,,,,,,,,,,,,,,,1,,,,,,,,,,,,,,,,,,,,,,,,,,,,,,,,,,,,,,,,,,,,,,70,143035,23,Female,1,2024/02/20_11:50:57,YZ,None,
,,,,,,calibration,0,19,2,500,11,C,0,right,0.5407658329932019,1,0,,,,,,,,,,,,,,,,,,,,,1,,,,,,,,,,,,,,,,,,,,,,,,,,,,,,,,,,,,,,,,,,,,,,70,143035,23,Female,1,2024/02/20_11:50:57,YZ,None,
,,,,,,calibration,0,19,2,500,12,J,1,left,0.8088401090062689,1,0,,,,,,,,,,,,,,,,,,,,,1,,,,,,,,,,,,,,,,,,,,,,,,,,,,,,,,,,,,,,,,,,,,,,70,143035,23,Female,1,2024/02/20_11:50:57,YZ,None,
,,,,,,calibration,0,19,2,500,13,S,0,right,0.6508639959938591,1,0,,,,,,,,,,,,,,,,,,,,,1,,,,,,,,,,,,,,,,,,,,,,,,,,,,,,,,,,,,,,,,,,,,,,70,143035,23,Female,1,2024/02/20_11:50:57,YZ,None,
,,,,,,calibration,0,19,2,500,14,C,0,right,nan,0,1,,,,,,,,,,,,,,,,,,,,,1,,,,,,,,,,,,,,,,,,,,,,,,,,,,,,,,,,,,,,,,,,,,,,70,143035,23,Female,1,2024/02/20_11:50:57,YZ,None,
,,,,,,calibration,0,19,2,500,15,J,0,left,0.8642397719959263,0,0,,,,,,,,,,,,,,,,,,,,,1,,,,,,,,,,,,,,,,,,,,,,,,,,,,,,,,,,,,,,,,,,,,,,70,143035,23,Female,1,2024/02/20_11:50:57,YZ,None,
,,,,,,calibration,0,19,2,500,16,N,0,right,0.4445926809858065,1,0,,,,,,,,,,,,,,,,,,,,,1,,,,,,,,,,,,,,,,,,,,,,,,,,,,,,,,,,,,,,,,,,,,,,70,143035,23,Female,1,2024/02/20_11:50:57,YZ,None,
,,,,,,calibration,0,19,2,500,,,,,,,,0.8541666666666667,0.75,0.16666666666666666,0.8181818181818182,0.0625,0.7708333333333334,0.6177474765989852,3,2,0,1,1,9,12,4,12,0,,,,1,,,,,,,,,,,,,,,,,,,,,,,,,,,,,,,,,,,,,,,,,,,,,,70,143035,23,Female,1,2024/02/20_11:50:57,YZ,None,
,,,,,,Calibration,0,,2,500,,,,,,,,,,,,,,,,,,,,,,,,,9,,,1,,,,,,,,,,,,,,,,,,,,,,,,,,,,,,,,,,,,,,,,,,,,,,70,143035,23,Female,1,2024/02/20_11:50:57,YZ,None,
,,,,,,calibration,0,28,2,426,1,C,0,right,0.7757411130005494,1,0,,,,,,,,,,,,,,,,,,,,,1,,,,,,,,,,,,,,,,,,,,,,,,,,,,,,,,,,,,,,,,,,,,,,70,143035,23,Female,1,2024/02/20_11:50:57,YZ,None,
,,,,,,calibration,0,28,2,426,2,S,0,right,0.625810604004073,1,0,,,,,,,,,,,,,,,,,,,,,1,,,,,,,,,,,,,,,,,,,,,,,,,,,,,,,,,,,,,,,,,,,,,,70,143035,23,Female,1,2024/02/20_11:50:57,YZ,None,
,,,,,,calibration,0,28,2,426,3,F,0,right,0.734593016008148,1,0,,,,,,,,,,,,,,,,,,,,,1,,,,,,,,,,,,,,,,,,,,,,,,,,,,,,,,,,,,,,,,,,,,,,70,143035,23,Female,1,2024/02/20_11:50:57,YZ,None,
,,,,,,calibration,0,28,2,426,4,N,0,right,0.9016174669959582,1,0,,,,,,,,,,,,,,,,,,,,,1,,,,,,,,,,,,,,,,,,,,,,,,,,,,,,,,,,,,,,,,,,,,,,70,143035,23,Female,1,2024/02/20_11:50:57,YZ,None,
,,,,,,calibration,0,28,2,426,5,F,1,left,0.5516947140131379,1,0,,,,,,,,,,,,,,,,,,,,,1,,,,,,,,,,,,,,,,,,,,,,,,,,,,,,,,,,,,,,,,,,,,,,70,143035,23,Female,1,2024/02/20_11:50:57,YZ,None,
,,,,,,calibration,0,28,2,426,6,N,1,left,0.7739372799987905,1,0,,,,,,,,,,,,,,,,,,,,,1,,,,,,,,,,,,,,,,,,,,,,,,,,,,,,,,,,,,,,,,,,,,,,70,143035,23,Female,1,2024/02/20_11:50:57,YZ,None,
,,,,,,calibration,0,28,2,426,7,C,0,right,0.7407148079946637,1,0,,,,,,,,,,,,,,,,,,,,,1,,,,,,,,,,,,,,,,,,,,,,,,,,,,,,,,,,,,,,,,,,,,,,70,143035,23,Female,1,2024/02/20_11:50:57,YZ,None,
,,,,,,calibration,0,28,2,426,8,V,0,right,0.9582031809986802,1,0,,,,,,,,,,,,,,,,,,,,,1,,,,,,,,,,,,,,,,,,,,,,,,,,,,,,,,,,,,,,,,,,,,,,70,143035,23,Female,1,2024/02/20_11:50:57,YZ,None,
,,,,,,calibration,0,28,2,426,9,J,0,right,0.4459427219990175,1,0,,,,,,,,,,,,,,,,,,,,,1,,,,,,,,,,,,,,,,,,,,,,,,,,,,,,,,,,,,,,,,,,,,,,70,143035,23,Female,1,2024/02/20_11:50:57,YZ,None,
,,,,,,calibration,0,28,2,426,10,V,1,left,0.7719467110000551,1,0,,,,,,,,,,,,,,,,,,,,,1,,,,,,,,,,,,,,,,,,,,,,,,,,,,,,,,,,,,,,,,,,,,,,70,143035,23,Female,1,2024/02/20_11:50:57,YZ,None,
,,,,,,calibration,0,28,2,426,11,S,0,right,0.6647844230028568,1,0,,,,,,,,,,,,,,,,,,,,,1,,,,,,,,,,,,,,,,,,,,,,,,,,,,,,,,,,,,,,,,,,,,,,70,143035,23,Female,1,2024/02/20_11:50:57,YZ,None,
,,,,,,calibration,0,28,2,426,12,X,0,right,0.9242036159994313,1,0,,,,,,,,,,,,,,,,,,,,,1,,,,,,,,,,,,,,,,,,,,,,,,,,,,,,,,,,,,,,,,,,,,,,70,143035,23,Female,1,2024/02/20_11:50:57,YZ,None,
,,,,,,calibration,0,28,2,426,13,F,0,left,0.8382777950027958,0,0,,,,,,,,,,,,,,,,,,,,,1,,,,,,,,,,,,,,,,,,,,,,,,,,,,,,,,,,,,,,,,,,,,,,70,143035,23,Female,1,2024/02/20_11:50:57,YZ,None,
,,,,,,calibration,0,28,2,426,14,X,1,right,0.796541032003006,0,0,,,,,,,,,,,,,,,,,,,,,1,,,,,,,,,,,,,,,,,,,,,,,,,,,,,,,,,,,,,,,,,,,,,,70,143035,23,Female,1,2024/02/20_11:50:57,YZ,None,
,,,,,,calibration,0,28,2,426,15,F,1,left,0.8917826660035644,1,0,,,,,,,,,,,,,,,,,,,,,1,,,,,,,,,,,,,,,,,,,,,,,,,,,,,,,,,,,,,,,,,,,,,,70,143035,23,Female,1,2024/02/20_11:50:57,YZ,None,
,,,,,,calibration,0,28,2,426,16,S,0,right,0.653113095992012,1,0,,,,,,,,,,,,,,,,,,,,,1,,,,,,,,,,,,,,,,,,,,,,,,,,,,,,,,,,,,,,,,,,,,,,70,143035,23,Female,1,2024/02/20_11:50:57,YZ,None,
,,,,,,calibration,0,28,2,426,17,J,0,right,0.7542321399960201,1,0,,,,,,,,,,,,,,,,,,,,,1,,,,,,,,,,,,,,,,,,,,,,,,,,,,,,,,,,,,,,,,,,,,,,70,143035,23,Female,1,2024/02/20_11:50:57,YZ,None,
,,,,,,calibration,0,28,2,426,,,,,,,,0.9125000000000001,0.8,0.08333333333333333,0.9166666666666666,0.0,0.9166666666666666,0.7531256696478094,4,1,0,0,0,11,15,5,12,0,,,,1,,,,,,,,,,,,,,,,,,,,,,,,,,,,,,,,,,,,,,,,,,,,,,70,143035,23,Female,1,2024/02/20_11:50:57,YZ,None,
,,,,,,Calibration,0,,2,426,,,,,,,,,,,,,,,,,,,,,,,,,10,,,1,,,,,,,,,,,,,,,,,,,,,,,,,,,,,,,,,,,,,,,,,,,,,,70,143035,23,Female,1,2024/02/20_11:50:57,YZ,None,
,,,,,,calibration,0,9,2,361,1,Q,0,right,0.749511113986955,1,0,,,,,,,,,,,,,,,,,,,,,1,,,,,,,,,,,,,,,,,,,,,,,,,,,,,,,,,,,,,,,,,,,,,,70,143035,23,Female,1,2024/02/20_11:50:57,YZ,None,
,,,,,,calibration,0,9,2,361,2,N,0,right,0.4492074479931034,1,0,,,,,,,,,,,,,,,,,,,,,1,,,,,,,,,,,,,,,,,,,,,,,,,,,,,,,,,,,,,,,,,,,,,,70,143035,23,Female,1,2024/02/20_11:50:57,YZ,None,
,,,,,,calibration,0,9,2,361,3,J,0,right,0.6490440750058042,1,0,,,,,,,,,,,,,,,,,,,,,1,,,,,,,,,,,,,,,,,,,,,,,,,,,,,,,,,,,,,,,,,,,,,,70,143035,23,Female,1,2024/02/20_11:50:57,YZ,None,
,,,,,,calibration,0,9,2,361,4,X,0,right,0.3472007269883761,1,0,,,,,,,,,,,,,,,,,,,,,1,,,,,,,,,,,,,,,,,,,,,,,,,,,,,,,,,,,,,,,,,,,,,,70,143035,23,Female,1,2024/02/20_11:50:57,YZ,None,
,,,,,,calibration,0,9,2,361,5,C,0,right,0.9996728620026261,1,0,,,,,,,,,,,,,,,,,,,,,1,,,,,,,,,,,,,,,,,,,,,,,,,,,,,,,,,,,,,,,,,,,,,,70,143035,23,Female,1,2024/02/20_11:50:57,YZ,None,
,,,,,,calibration,0,9,2,361,6,J,0,right,nan,0,1,,,,,,,,,,,,,,,,,,,,,1,,,,,,,,,,,,,,,,,,,,,,,,,,,,,,,,,,,,,,,,,,,,,,70,143035,23,Female,1,2024/02/20_11:50:57,YZ,None,
,,,,,,calibration,0,9,2,361,7,S,0,right,0.08082242099044379,1,0,,,,,,,,,,,,,,,,,,,,,1,,,,,,,,,,,,,,,,,,,,,,,,,,,,,,,,,,,,,,,,,,,,,,70,143035,23,Female,1,2024/02/20_11:50:57,YZ,None,
,,,,,,calibration,0,9,2,361,8,Q,0,right,nan,0,1,,,,,,,,,,,,,,,,,,,,,1,,,,,,,,,,,,,,,,,,,,,,,,,,,,,,,,,,,,,,,,,,,,,,70,143035,23,Female,1,2024/02/20_11:50:57,YZ,None,
,,,,,,calibration,0,9,2,361,9,J,0,right,nan,0,1,,,,,,,,,,,,,,,,,,,,,1,,,,,,,,,,,,,,,,,,,,,,,,,,,,,,,,,,,,,,,,,,,,,,70,143035,23,Female,1,2024/02/20_11:50:57,YZ,None,
,,,,,,calibration,0,9,2,361,10,F,0,right,nan,0,1,,,,,,,,,,,,,,,,,,,,,1,,,,,,,,,,,,,,,,,,,,,,,,,,,,,,,,,,,,,,,,,,,,,,70,143035,23,Female,1,2024/02/20_11:50:57,YZ,None,
,,,,,,calibration,0,9,2,361,11,X,0,right,nan,0,1,,,,,,,,,,,,,,,,,,,,,1,,,,,,,,,,,,,,,,,,,,,,,,,,,,,,,,,,,,,,,,,,,,,,70,143035,23,Female,1,2024/02/20_11:50:57,YZ,None,
,,,,,,calibration,0,9,2,361,12,F,1,right,0.30252414901042357,0,0,,,,,,,,,,,,,,,,,,,,,1,,,,,,,,,,,,,,,,,,,,,,,,,,,,,,,,,,,,,,,,,,,,,,70,143035,23,Female,1,2024/02/20_11:50:57,YZ,None,
,,,,,,calibration,0,9,2,361,13,X,1,right,nan,0,1,,,,,,,,,,,,,,,,,,,,,1,,,,,,,,,,,,,,,,,,,,,,,,,,,,,,,,,,,,,,,,,,,,,,70,143035,23,Female,1,2024/02/20_11:50:57,YZ,None,
,,,,,,calibration,0,9,2,361,14,J,0,right,nan,0,1,,,,,,,,,,,,,,,,,,,,,1,,,,,,,,,,,,,,,,,,,,,,,,,,,,,,,,,,,,,,,,,,,,,,70,143035,23,Female,1,2024/02/20_11:50:57,YZ,None,
,,,,,,calibration,0,9,2,361,15,X,1,left,0.8247331919992575,1,0,,,,,,,,,,,,,,,,,,,,,1,,,,,,,,,,,,,,,,,,,,,,,,,,,,,,,,,,,,,,,,,,,,,,70,143035,23,Female,1,2024/02/20_11:50:57,YZ,None,
,,,,,,calibration,0,9,2,361,16,J,1,left,0.7522624270059168,1,0,,,,,,,,,,,,,,,,,,,,,1,,,,,,,,,,,,,,,,,,,,,,,,,,,,,,,,,,,,,,,,,,,,,,70,143035,23,Female,1,2024/02/20_11:50:57,YZ,None,
,,,,,,calibration,0,9,2,361,17,S,0,right,0.5519815759907942,1,0,,,,,,,,,,,,,,,,,,,,,1,,,,,,,,,,,,,,,,,,,,,,,,,,,,,,,,,,,,,,,,,,,,,,70,143035,23,Female,1,2024/02/20_11:50:57,YZ,None,
,,,,,,calibration,0,9,2,361,18,J,1,right,nan,0,1,,,,,,,,,,,,,,,,,,,,,1,,,,,,,,,,,,,,,,,,,,,,,,,,,,,,,,,,,,,,,,,,,,,,70,143035,23,Female,1,2024/02/20_11:50:57,YZ,None,
,,,,,,calibration,0,9,2,361,,,,,,,,0.85,0.4,0.0,1.0,0.4444444444444444,0.5555555555555556,0.5706959990973701,2,0,2,6,8,7,9,5,13,0,,,,1,,,,,,,,,,,,,,,,,,,,,,,,,,,,,,,,,,,,,,,,,,,,,,70,143035,23,Female,1,2024/02/20_11:50:57,YZ,None,
,,,,,,Calibration,0,,2,361,,,,,,,,,,,,,,,,,,,,,,,,,11,,,1,,,,,,,,,,,,,,,,,,,,,,,,,,,,,,,,,,,,,,,,,,,,,,70,143035,23,Female,1,2024/02/20_11:50:57,YZ,None,
,,,,,,calibration,0,17,2,361,1,N,0,right,0.7626227939908858,1,0,,,,,,,,,,,,,,,,,,,,,1,,,,,,,,,,,,,,,,,,,,,,,,,,,,,,,,,,,,,,,,,,,,,,70,143035,23,Female,1,2024/02/20_11:50:57,YZ,None,
,,,,,,calibration,0,17,2,361,2,S,0,right,0.3406597830035025,1,0,,,,,,,,,,,,,,,,,,,,,1,,,,,,,,,,,,,,,,,,,,,,,,,,,,,,,,,,,,,,,,,,,,,,70,143035,23,Female,1,2024/02/20_11:50:57,YZ,None,
,,,,,,calibration,0,17,2,361,3,Q,0,right,0.5423955979931634,1,0,,,,,,,,,,,,,,,,,,,,,1,,,,,,,,,,,,,,,,,,,,,,,,,,,,,,,,,,,,,,,,,,,,,,70,143035,23,Female,1,2024/02/20_11:50:57,YZ,None,
,,,,,,calibration,0,17,2,361,4,S,1,left,0.5252399890014203,1,0,,,,,,,,,,,,,,,,,,,,,1,,,,,,,,,,,,,,,,,,,,,,,,,,,,,,,,,,,,,,,,,,,,,,70,143035,23,Female,1,2024/02/20_11:50:57,YZ,None,
,,,,,,calibration,0,17,2,361,5,J,0,right,0.6302351049962454,1,0,,,,,,,,,,,,,,,,,,,,,1,,,,,,,,,,,,,,,,,,,,,,,,,,,,,,,,,,,,,,,,,,,,,,70,143035,23,Female,1,2024/02/20_11:50:57,YZ,None,
,,,,,,calibration,0,17,2,361,6,F,0,right,0.9591077770019183,1,0,,,,,,,,,,,,,,,,,,,,,1,,,,,,,,,,,,,,,,,,,,,,,,,,,,,,,,,,,,,,,,,,,,,,70,143035,23,Female,1,2024/02/20_11:50:57,YZ,None,
,,,,,,calibration,0,17,2,361,7,C,0,right,0.49951557999884244,1,0,,,,,,,,,,,,,,,,,,,,,1,,,,,,,,,,,,,,,,,,,,,,,,,,,,,,,,,,,,,,,,,,,,,,70,143035,23,Female,1,2024/02/20_11:50:57,YZ,None,
,,,,,,calibration,0,17,2,361,8,J,0,right,0.6096465650043683,1,0,,,,,,,,,,,,,,,,,,,,,1,,,,,,,,,,,,,,,,,,,,,,,,,,,,,,,,,,,,,,,,,,,,,,70,143035,23,Female,1,2024/02/20_11:50:57,YZ,None,
,,,,,,calibration,0,17,2,361,9,C,1,left,0.6921629849966848,1,0,,,,,,,,,,,,,,,,,,,,,1,,,,,,,,,,,,,,,,,,,,,,,,,,,,,,,,,,,,,,,,,,,,,,70,143035,23,Female,1,2024/02/20_11:50:57,YZ,None,
,,,,,,calibration,0,17,2,361,10,X,0,right,0.4706415139953606,1,0,,,,,,,,,,,,,,,,,,,,,1,,,,,,,,,,,,,,,,,,,,,,,,,,,,,,,,,,,,,,,,,,,,,,70,143035,23,Female,1,2024/02/20_11:50:57,YZ,None,
,,,,,,calibration,0,17,2,361,11,C,1,left,0.8103094160032924,1,0,,,,,,,,,,,,,,,,,,,,,1,,,,,,,,,,,,,,,,,,,,,,,,,,,,,,,,,,,,,,,,,,,,,,70,143035,23,Female,1,2024/02/20_11:50:57,YZ,None,
,,,,,,calibration,0,17,2,361,12,X,1,left,0.8512782850011718,1,0,,,,,,,,,,,,,,,,,,,,,1,,,,,,,,,,,,,,,,,,,,,,,,,,,,,,,,,,,,,,,,,,,,,,70,143035,23,Female,1,2024/02/20_11:50:57,YZ,None,
,,,,,,calibration,0,17,2,361,13,V,0,right,0.56945456500398,1,0,,,,,,,,,,,,,,,,,,,,,1,,,,,,,,,,,,,,,,,,,,,,,,,,,,,,,,,,,,,,,,,,,,,,70,143035,23,Female,1,2024/02/20_11:50:57,YZ,None,
,,,,,,calibration,0,17,2,361,14,S,0,left,0.992660371994134,0,0,,,,,,,,,,,,,,,,,,,,,1,,,,,,,,,,,,,,,,,,,,,,,,,,,,,,,,,,,,,,,,,,,,,,70,143035,23,Female,1,2024/02/20_11:50:57,YZ,None,
,,,,,,calibration,0,17,2,361,15,C,0,left,nan,0,1,,,,,,,,,,,,,,,,,,,,,1,,,,,,,,,,,,,,,,,,,,,,,,,,,,,,,,,,,,,,,,,,,,,,70,143035,23,Female,1,2024/02/20_11:50:57,YZ,None,
,,,,,,calibration,0,17,2,361,16,X,0,right,0.12554085000010673,1,0,,,,,,,,,,,,,,,,,,,,,1,,,,,,,,,,,,,,,,,,,,,,,,,,,,,,,,,,,,,,,,,,,,,,70,143035,23,Female,1,2024/02/20_11:50:57,YZ,None,
,,,,,,calibration,0,17,2,361,17,C,1,right,nan,0,1,,,,,,,,,,,,,,,,,,,,,1,,,,,,,,,,,,,,,,,,,,,,,,,,,,,,,,,,,,,,,,,,,,,,70,143035,23,Female,1,2024/02/20_11:50:57,YZ,None,
,,,,,,calibration,0,17,2,361,18,X,1,left,0.757489573006751,1,0,,,,,,,,,,,,,,,,,,,,,1,,,,,,,,,,,,,,,,,,,,,,,,,,,,,,,,,,,,,,,,,,,,,,70,143035,23,Female,1,2024/02/20_11:50:57,YZ,None,
,,,,,,calibration,0,17,2,361,,,,,,,,0.9236111111111112,0.8333333333333334,0.08333333333333333,0.9090909090909091,0.1111111111111111,0.8055555555555556,0.6336850469369892,5,1,1,1,2,10,15,6,12,0,,,,1,,,,,,,,,,,,,,,,,,,,,,,,,,,,,,,,,,,,,,,,,,,,,,70,143035,23,Female,1,2024/02/20_11:50:57,YZ,None,
,,,,,,Calibration,0,,2,361,,,,,,,,,,,,,,,,,,,,,,,,,12,,,1,,,,,,,,,,,,,,,,,,,,,,,,,,,,,,,,,,,,,,,,,,,,,,70,143035,23,Female,1,2024/02/20_11:50:57,YZ,None,
,,,,,,calibration,0,31,2,303,1,J,0,None,nan,0,1,,,,,,,,,,,,,,,,,,,,,1,,,,,,,,,,,,,,,,,,,,,,,,,,,,,,,,,,,,,,,,,,,,,,70,143035,23,Female,1,2024/02/20_11:50:57,YZ,None,
,,,,,,calibration,0,31,2,303,2,F,0,right,0.0,1,0,,,,,,,,,,,,,,,,,,,,,1,,,,,,,,,,,,,,,,,,,,,,,,,,,,,,,,,,,,,,,,,,,,,,70,143035,23,Female,1,2024/02/20_11:50:57,YZ,None,
,,,,,,calibration,0,31,2,303,3,Q,0,right,0.0,1,0,,,,,,,,,,,,,,,,,,,,,1,,,,,,,,,,,,,,,,,,,,,,,,,,,,,,,,,,,,,,,,,,,,,,70,143035,23,Female,1,2024/02/20_11:50:57,YZ,None,
,,,,,,calibration,0,31,2,303,4,V,0,right,0.15971446799812838,1,0,,,,,,,,,,,,,,,,,,,,,1,,,,,,,,,,,,,,,,,,,,,,,,,,,,,,,,,,,,,,,,,,,,,,70,143035,23,Female,1,2024/02/20_11:50:57,YZ,None,
,,,,,,calibration,0,31,2,303,5,F,0,right,0.16454311899724416,1,0,,,,,,,,,,,,,,,,,,,,,1,,,,,,,,,,,,,,,,,,,,,,,,,,,,,,,,,,,,,,,,,,,,,,70,143035,23,Female,1,2024/02/20_11:50:57,YZ,None,
,,,,,,calibration,0,31,2,303,6,C,0,right,0.0822755050030537,1,0,,,,,,,,,,,,,,,,,,,,,1,,,,,,,,,,,,,,,,,,,,,,,,,,,,,,,,,,,,,,,,,,,,,,70,143035,23,Female,1,2024/02/20_11:50:57,YZ,None,
,,,,,,calibration,0,31,2,303,7,Q,0,right,0.15243211899360176,1,0,,,,,,,,,,,,,,,,,,,,,1,,,,,,,,,,,,,,,,,,,,,,,,,,,,,,,,,,,,,,,,,,,,,,70,143035,23,Female,1,2024/02/20_11:50:57,YZ,None,
,,,,,,calibration,0,31,2,303,8,S,0,left,0.4717695540020941,0,0,,,,,,,,,,,,,,,,,,,,,1,,,,,,,,,,,,,,,,,,,,,,,,,,,,,,,,,,,,,,,,,,,,,,70,143035,23,Female,1,2024/02/20_11:50:57,YZ,None,
,,,,,,calibration,0,31,2,303,9,Q,1,right,0.055399523000232875,0,0,,,,,,,,,,,,,,,,,,,,,1,,,,,,,,,,,,,,,,,,,,,,,,,,,,,,,,,,,,,,,,,,,,,,70,143035,23,Female,1,2024/02/20_11:50:57,YZ,None,
,,,,,,calibration,0,31,2,303,10,F,0,right,nan,0,1,,,,,,,,,,,,,,,,,,,,,1,,,,,,,,,,,,,,,,,,,,,,,,,,,,,,,,,,,,,,,,,,,,,,70,143035,23,Female,1,2024/02/20_11:50:57,YZ,None,
,,,,,,calibration,0,31,2,303,11,Q,1,right,nan,0,1,,,,,,,,,,,,,,,,,,,,,1,,,,,,,,,,,,,,,,,,,,,,,,,,,,,,,,,,,,,,,,,,,,,,70,143035,23,Female,1,2024/02/20_11:50:57,YZ,None,
,,,,,,calibration,0,31,2,303,12,S,0,right,0.05427711599622853,1,0,,,,,,,,,,,,,,,,,,,,,1,,,,,,,,,,,,,,,,,,,,,,,,,,,,,,,,,,,,,,,,,,,,,,70,143035,23,Female,1,2024/02/20_11:50:57,YZ,None,
,,,,,,calibration,0,31,2,303,13,X,0,right,nan,0,1,,,,,,,,,,,,,,,,,,,,,1,,,,,,,,,,,,,,,,,,,,,,,,,,,,,,,,,,,,,,,,,,,,,,70,143035,23,Female,1,2024/02/20_11:50:57,YZ,None,
,,,,,,calibration,0,31,2,303,14,S,1,left,0.8825522309925873,1,0,,,,,,,,,,,,,,,,,,,,,1,,,,,,,,,,,,,,,,,,,,,,,,,,,,,,,,,,,,,,,,,,,,,,70,143035,23,Female,1,2024/02/20_11:50:57,YZ,None,
,,,,,,calibration,0,31,2,303,15,F,0,right,0.7585915090021444,1,0,,,,,,,,,,,,,,,,,,,,,1,,,,,,,,,,,,,,,,,,,,,,,,,,,,,,,,,,,,,,,,,,,,,,70,143035,23,Female,1,2024/02/20_11:50:57,YZ,None,
,,,,,,calibration,0,31,2,303,16,S,1,left,0.7357424969959538,1,0,,,,,,,,,,,,,,,,,,,,,1,,,,,,,,,,,,,,,,,,,,,,,,,,,,,,,,,,,,,,,,,,,,,,70,143035,23,Female,1,2024/02/20_11:50:57,YZ,None,
,,,,,,calibration,0,31,2,303,17,V,0,right,0.7541289989894722,1,0,,,,,,,,,,,,,,,,,,,,,1,,,,,,,,,,,,,,,,,,,,,,,,,,,,,,,,,,,,,,,,,,,,,,70,143035,23,Female,1,2024/02/20_11:50:57,YZ,None,
,,,,,,calibration,0,31,2,303,18,S,1,right,0.416115608997643,0,0,,,,,,,,,,,,,,,,,,,,,1,,,,,,,,,,,,,,,,,,,,,,,,,,,,,,,,,,,,,,,,,,,,,,70,143035,23,Female,1,2024/02/20_11:50:57,YZ,None,
,,,,,,calibration,0,31,2,303,19,V,1,left,0.985447479004506,1,0,,,,,,,,,,,,,,,,,,,,,1,,,,,,,,,,,,,,,,,,,,,,,,,,,,,,,,,,,,,,,,,,,,,,70,143035,23,Female,1,2024/02/20_11:50:57,YZ,None,
,,,,,,calibration,0,31,2,303,,,,,,,,0.8173076923076923,0.5,0.07692307692307693,0.9,0.21052631578947367,0.7125506072874495,0.37819931519819266,3,1,1,3,4,9,12,6,13,0,,,,1,,,,,,,,,,,,,,,,,,,,,,,,,,,,,,,,,,,,,,,,,,,,,,70,143035,23,Female,1,2024/02/20_11:50:57,YZ,None,
,,,,,,Calibration,0,,2,303,,,,,,,,,,,,,,,,,,,,,,,,,13,,,1,,,,,,,,,,,,,,,,,,,,,,,,,,,,,,,,,,,,,,,,,,,,,,70,143035,23,Female,1,2024/02/20_11:50:57,YZ,None,
,,,,,,calibration,0,15,2,303,1,F,0,right,0.9542247520003002,1,0,,,,,,,,,,,,,,,,,,,,,1,,,,,,,,,,,,,,,,,,,,,,,,,,,,,,,,,,,,,,,,,,,,,,70,143035,23,Female,1,2024/02/20_11:50:57,YZ,None,
,,,,,,calibration,0,15,2,303,2,J,0,right,0.33852566199493594,1,0,,,,,,,,,,,,,,,,,,,,,1,,,,,,,,,,,,,,,,,,,,,,,,,,,,,,,,,,,,,,,,,,,,,,70,143035,23,Female,1,2024/02/20_11:50:57,YZ,None,
,,,,,,calibration,0,15,2,303,3,Q,0,right,0.47164715100370813,1,0,,,,,,,,,,,,,,,,,,,,,1,,,,,,,,,,,,,,,,,,,,,,,,,,,,,,,,,,,,,,,,,,,,,,70,143035,23,Female,1,2024/02/20_11:50:57,YZ,None,
,,,,,,calibration,0,15,2,303,4,C,0,right,0.5913417270057835,1,0,,,,,,,,,,,,,,,,,,,,,1,,,,,,,,,,,,,,,,,,,,,,,,,,,,,,,,,,,,,,,,,,,,,,70,143035,23,Female,1,2024/02/20_11:50:57,YZ,None,
,,,,,,calibration,0,15,2,303,5,J,0,left,0.6566449669917347,0,0,,,,,,,,,,,,,,,,,,,,,1,,,,,,,,,,,,,,,,,,,,,,,,,,,,,,,,,,,,,,,,,,,,,,70,143035,23,Female,1,2024/02/20_11:50:57,YZ,None,
,,,,,,calibration,0,15,2,303,6,C,1,right,0.591655399010051,0,0,,,,,,,,,,,,,,,,,,,,,1,,,,,,,,,,,,,,,,,,,,,,,,,,,,,,,,,,,,,,,,,,,,,,70,143035,23,Female,1,2024/02/20_11:50:57,YZ,None,
,,,,,,calibration,0,15,2,303,7,V,0,right,nan,0,1,,,,,,,,,,,,,,,,,,,,,1,,,,,,,,,,,,,,,,,,,,,,,,,,,,,,,,,,,,,,,,,,,,,,70,143035,23,Female,1,2024/02/20_11:50:57,YZ,None,
,,,,,,calibration,0,15,2,303,8,N,0,right,nan,0,1,,,,,,,,,,,,,,,,,,,,,1,,,,,,,,,,,,,,,,,,,,,,,,,,,,,,,,,,,,,,,,,,,,,,70,143035,23,Female,1,2024/02/20_11:50:57,YZ,None,
,,,,,,calibration,0,15,2,303,9,F,0,right,nan,0,1,,,,,,,,,,,,,,,,,,,,,1,,,,,,,,,,,,,,,,,,,,,,,,,,,,,,,,,,,,,,,,,,,,,,70,143035,23,Female,1,2024/02/20_11:50:57,YZ,None,
,,,,,,calibration,0,15,2,303,10,Q,0,right,nan,0,1,,,,,,,,,,,,,,,,,,,,,1,,,,,,,,,,,,,,,,,,,,,,,,,,,,,,,,,,,,,,,,,,,,,,70,143035,23,Female,1,2024/02/20_11:50:57,YZ,None,
,,,,,,calibration,0,15,2,303,11,F,1,right,nan,0,1,,,,,,,,,,,,,,,,,,,,,1,,,,,,,,,,,,,,,,,,,,,,,,,,,,,,,,,,,,,,,,,,,,,,70,143035,23,Female,1,2024/02/20_11:50:57,YZ,None,
,,,,,,calibration,0,15,2,303,12,Q,1,left,0.8589487410063157,1,0,,,,,,,,,,,,,,,,,,,,,1,,,,,,,,,,,,,,,,,,,,,,,,,,,,,,,,,,,,,,,,,,,,,,70,143035,23,Female,1,2024/02/20_11:50:57,YZ,None,
,,,,,,calibration,0,15,2,303,13,C,0,left,0.6254803850024473,0,0,,,,,,,,,,,,,,,,,,,,,1,,,,,,,,,,,,,,,,,,,,,,,,,,,,,,,,,,,,,,,,,,,,,,70,143035,23,Female,1,2024/02/20_11:50:57,YZ,None,
,,,,,,calibration,0,15,2,303,14,X,0,right,0.9244070849963464,1,0,,,,,,,,,,,,,,,,,,,,,1,,,,,,,,,,,,,,,,,,,,,,,,,,,,,,,,,,,,,,,,,,,,,,70,143035,23,Female,1,2024/02/20_11:50:57,YZ,None,
,,,,,,calibration,0,15,2,303,15,J,0,left,0.969001235003816,0,0,,,,,,,,,,,,,,,,,,,,,1,,,,,,,,,,,,,,,,,,,,,,,,,,,,,,,,,,,,,,,,,,,,,,70,143035,23,Female,1,2024/02/20_11:50:57,YZ,None,
,,,,,,calibration,0,15,2,303,16,X,1,right,0.7794845110038295,0,0,,,,,,,,,,,,,,,,,,,,,1,,,,,,,,,,,,,,,,,,,,,,,,,,,,,,,,,,,,,,,,,,,,,,70,143035,23,Female,1,2024/02/20_11:50:57,YZ,None,
,,,,,,calibration,0,15,2,303,17,N,0,right,nan,0,1,,,,,,,,,,,,,,,,,,,,,1,,,,,,,,,,,,,,,,,,,,,,,,,,,,,,,,,,,,,,,,,,,,,,70,143035,23,Female,1,2024/02/20_11:50:57,YZ,None,
,,,,,,calibration,0,15,2,303,18,X,1,right,0.4061046339920722,0,0,,,,,,,,,,,,,,,,,,,,,1,,,,,,,,,,,,,,,,,,,,,,,,,,,,,,,,,,,,,,,,,,,,,,70,143035,23,Female,1,2024/02/20_11:50:57,YZ,None,
,,,,,,calibration,0,15,2,303,19,J,0,right,nan,0,1,,,,,,,,,,,,,,,,,,,,,1,,,,,,,,,,,,,,,,,,,,,,,,,,,,,,,,,,,,,,,,,,,,,,70,143035,23,Female,1,2024/02/20_11:50:57,YZ,None,
,,,,,,calibration,0,15,2,303,,,,,,,,0.013095238095238076,0.2,0.21428571428571427,0.625,0.3684210526315789,0.41729323308270677,0.6806221874176117,1,3,1,6,7,5,6,5,14,0,,,,1,,,,,,,,,,,,,,,,,,,,,,,,,,,,,,,,,,,,,,,,,,,,,,70,143035,23,Female,1,2024/02/20_11:50:57,YZ,None,
,,,,,,Calibration,0,,2,303,,,,,,,,,,,,,,,,,,,,,,,,,14,,,1,,,,,,,,,,,,,,,,,,,,,,,,,,,,,,,,,,,,,,,,,,,,,,70,143035,23,Female,1,2024/02/20_11:50:57,YZ,None,
,,,,,,calibration,0,18,2,361,1,X,0,right,0.5105300089926459,1,0,,,,,,,,,,,,,,,,,,,,,1,,,,,,,,,,,,,,,,,,,,,,,,,,,,,,,,,,,,,,,,,,,,,,70,143035,23,Female,1,2024/02/20_11:50:57,YZ,None,
,,,,,,calibration,0,18,2,361,2,X,0,right,0.6261883139959536,1,0,,,,,,,,,,,,,,,,,,,,,1,,,,,,,,,,,,,,,,,,,,,,,,,,,,,,,,,,,,,,,,,,,,,,70,143035,23,Female,1,2024/02/20_11:50:57,YZ,None,
,,,,,,calibration,0,18,2,361,3,C,0,right,0.696991832999629,1,0,,,,,,,,,,,,,,,,,,,,,1,,,,,,,,,,,,,,,,,,,,,,,,,,,,,,,,,,,,,,,,,,,,,,70,143035,23,Female,1,2024/02/20_11:50:57,YZ,None,
,,,,,,calibration,0,18,2,361,4,N,0,right,0.6248946619889466,1,0,,,,,,,,,,,,,,,,,,,,,1,,,,,,,,,,,,,,,,,,,,,,,,,,,,,,,,,,,,,,,,,,,,,,70,143035,23,Female,1,2024/02/20_11:50:57,YZ,None,
,,,,,,calibration,0,18,2,361,5,F,0,right,0.6689402030024212,1,0,,,,,,,,,,,,,,,,,,,,,1,,,,,,,,,,,,,,,,,,,,,,,,,,,,,,,,,,,,,,,,,,,,,,70,143035,23,Female,1,2024/02/20_11:50:57,YZ,None,
,,,,,,calibration,0,18,2,361,6,N,1,left,0.8087056189979194,1,0,,,,,,,,,,,,,,,,,,,,,1,,,,,,,,,,,,,,,,,,,,,,,,,,,,,,,,,,,,,,,,,,,,,,70,143035,23,Female,1,2024/02/20_11:50:57,YZ,None,
,,,,,,calibration,0,18,2,361,7,F,1,left,0.7257991429942194,1,0,,,,,,,,,,,,,,,,,,,,,1,,,,,,,,,,,,,,,,,,,,,,,,,,,,,,,,,,,,,,,,,,,,,,70,143035,23,Female,1,2024/02/20_11:50:57,YZ,None,
,,,,,,calibration,0,18,2,361,8,X,0,right,0.9523956469929544,1,0,,,,,,,,,,,,,,,,,,,,,1,,,,,,,,,,,,,,,,,,,,,,,,,,,,,,,,,,,,,,,,,,,,,,70,143035,23,Female,1,2024/02/20_11:50:57,YZ,None,
,,,,,,calibration,0,18,2,361,9,F,1,right,nan,0,1,,,,,,,,,,,,,,,,,,,,,1,,,,,,,,,,,,,,,,,,,,,,,,,,,,,,,,,,,,,,,,,,,,,,70,143035,23,Female,1,2024/02/20_11:50:57,YZ,None,
,,,,,,calibration,0,18,2,361,10,N,0,right,0.9492455970030278,1,0,,,,,,,,,,,,,,,,,,,,,1,,,,,,,,,,,,,,,,,,,,,,,,,,,,,,,,,,,,,,,,,,,,,,70,143035,23,Female,1,2024/02/20_11:50:57,YZ,None,
,,,,,,calibration,0,18,2,361,11,V,0,right,0.7580865820054896,1,0,,,,,,,,,,,,,,,,,,,,,1,,,,,,,,,,,,,,,,,,,,,,,,,,,,,,,,,,,,,,,,,,,,,,70,143035,23,Female,1,2024/02/20_11:50:57,YZ,None,
,,,,,,calibration,0,18,2,361,12,N,1,left,0.786006210008054,1,0,,,,,,,,,,,,,,,,,,,,,1,,,,,,,,,,,,,,,,,,,,,,,,,,,,,,,,,,,,,,,,,,,,,,70,143035,23,Female,1,2024/02/20_11:50:57,YZ,None,
,,,,,,calibration,0,18,2,361,13,V,1,left,nan,0,1,,,,,,,,,,,,,,,,,,,,,1,,,,,,,,,,,,,,,,,,,,,,,,,,,,,,,,,,,,,,,,,,,,,,70,143035,23,Female,1,2024/02/20_11:50:57,YZ,None,
,,,,,,calibration,0,18,2,361,14,X,0,right,0.8325350749946665,1,0,,,,,,,,,,,,,,,,,,,,,1,,,,,,,,,,,,,,,,,,,,,,,,,,,,,,,,,,,,,,,,,,,,,,70,143035,23,Female,1,2024/02/20_11:50:57,YZ,None,
,,,,,,calibration,0,18,2,361,15,V,1,right,0.8915330949967029,0,0,,,,,,,,,,,,,,,,,,,,,1,,,,,,,,,,,,,,,,,,,,,,,,,,,,,,,,,,,,,,,,,,,,,,70,143035,23,Female,1,2024/02/20_11:50:57,YZ,None,
,,,,,,calibration,0,18,2,361,16,N,0,right,0.8026897529925918,1,0,,,,,,,,,,,,,,,,,,,,,1,,,,,,,,,,,,,,,,,,,,,,,,,,,,,,,,,,,,,,,,,,,,,,70,143035,23,Female,1,2024/02/20_11:50:57,YZ,None,
,,,,,,calibration,0,18,2,361,17,S,0,right,nan,0,1,,,,,,,,,,,,,,,,,,,,,1,,,,,,,,,,,,,,,,,,,,,,,,,,,,,,,,,,,,,,,,,,,,,,70,143035,23,Female,1,2024/02/20_11:50:57,YZ,None,
,,,,,,calibration,0,18,2,361,18,F,0,right,nan,0,1,,,,,,,,,,,,,,,,,,,,,1,,,,,,,,,,,,,,,,,,,,,,,,,,,,,,,,,,,,,,,,,,,,,,70,143035,23,Female,1,2024/02/20_11:50:57,YZ,None,
,,,,,,calibration,0,18,2,361,,,,,,,,0.875,0.5,0.0,1.0,0.2222222222222222,0.7777777777777778,0.7596101244260873,3,0,2,2,4,10,13,6,12,0,,,,1,,,,,,,,,,,,,,,,,,,,,,,,,,,,,,,,,,,,,,,,,,,,,,70,143035,23,Female,1,2024/02/20_11:50:57,YZ,None,
,,,,,,Calibration,0,,2,361,,,,,,,,,,,,,,,,,,,,,,,,,15,,,1,,,,,,,,,,,,,,,,,,,,,,,,,,,,,,,,,,,,,,,,,,,,,,70,143035,23,Female,1,2024/02/20_11:50:57,YZ,None,
,,,,,,CALIBRATION,0,,,,,,,,,,,,,,,,,,,,,,,,,,,,15,0.875,361,1,,,,,,,,,,,,,,,,,,,,,,,,,,,,,,,,,,,,,,,,,,,,,,70,143035,23,Female,1,2024/02/20_11:50:57,YZ,None,
1,./instructions/inst_prac_1/Slide24.png,right,10.427554691996193,578.1907352330018,588.618289924998,,,,,,,,,,,,,,,,,,,,,,,,,,,,,,,,,1,,,,,,,,,,,,,,,,,,,,,,,,,,,,,,,,,,,,,,,,,,,,,,70,143035,23,Female,1,2024/02/20_11:50:57,YZ,None,
2,./instructions/inst_prac_1/Slide25.png,right,2.6826956550066825,588.6473973109969,591.3300929660036,,,,,,,,,,,,,,,,,,,,,,,,,,,,,,,,,1,,,,,,,,,,,,,,,,,,,,,,,,,,,,,,,,,,,,,,,,,,,,,,70,143035,23,Female,1,2024/02/20_11:50:57,YZ,None,
3,./instructions/inst_prac_1/Slide26.png,right,1.1632413119950797,591.3588787059998,592.5221200179949,,,,,,,,,,,,,,,,,,,,,,,,,,,,,,,,,1,,,,,,,,,,,,,,,,,,,,,,,,,,,,,,,,,,,,,,,,,,,,,,70,143035,23,Female,1,2024/02/20_11:50:57,YZ,None,
4,./instructions/inst_prac_1/Slide27.png,right,0.9710483779927017,592.5511258110055,593.5221741889982,,,,,,,,,,,,,,,,,,,,,,,,,,,,,,,,,1,,,,,,,,,,,,,,,,,,,,,,,,,,,,,,,,,,,,,,,,,,,,,,70,143035,23,Female,1,2024/02/20_11:50:57,YZ,None,
5,./instructions/inst_prac_1/Slide28.png,right,1.211416553996969,593.5507452900056,594.7621618440025,,,,,,,,,,,,,,,,,,,,,,,,,,,,,,,,,1,,,,,,,,,,,,,,,,,,,,,,,,,,,,,,,,,,,,,,,,,,,,,,70,143035,23,Female,1,2024/02/20_11:50:57,YZ,None,
6,./instructions/inst_prac_1/Slide29.png,right,2.493990255999961,594.7883529859973,597.2823432419973,,,,,,,,,,,,,,,,,,,,,,,,,,,,,,,,,1,,,,,,,,,,,,,,,,,,,,,,,,,,,,,,,,,,,,,,,,,,,,,,70,143035,23,Female,1,2024/02/20_11:50:57,YZ,None,
7,./instructions/inst_prac_1/Slide30.png,right,24.55038719699951,597.3078547900077,621.8582419870072,,,,,,,,,,,,,,,,,,,,,,,,,,,,,,,,,1,,,,,,,,,,,,,,,,,,,,,,,,,,,,,,,,,,,,,,,,,,,,,,70,143035,23,Female,1,2024/02/20_11:50:57,YZ,None,
,,,,,,practice,0,9,1,1250,1,Q,0,right,3.0575045139994472,1,0,,,,,,,,,,,,,,,,,,,,,1,,,,,,,,,,,,,,,,,,,,,,,,,,,,,,,,,,,,,,,,,,,,,,70,143035,23,Female,1,2024/02/20_11:50:57,YZ,None,
,,,,,,practice,0,9,1,1250,2,X,0,right,1.2426379120006459,1,0,,,,,,,,,,,,,,,,,,,,,1,,,,,,,,,,,,,,,,,,,,,,,,,,,,,,,,,,,,,,,,,,,,,,70,143035,23,Female,1,2024/02/20_11:50:57,YZ,None,
,,,,,,practice,0,9,1,1250,3,X,1,left,0.9276725960080512,1,0,,,,,,,,,,,,,,,,,,,,,1,,,,,,,,,,,,,,,,,,,,,,,,,,,,,,,,,,,,,,,,,,,,,,70,143035,23,Female,1,2024/02/20_11:50:57,YZ,None,
,,,,,,practice,0,9,1,1250,4,V,0,right,0.8197300610045204,1,0,,,,,,,,,,,,,,,,,,,,,1,,,,,,,,,,,,,,,,,,,,,,,,,,,,,,,,,,,,,,,,,,,,,,70,143035,23,Female,1,2024/02/20_11:50:57,YZ,None,
,,,,,,practice,0,9,1,1250,5,S,0,right,0.7796487140003592,1,0,,,,,,,,,,,,,,,,,,,,,1,,,,,,,,,,,,,,,,,,,,,,,,,,,,,,,,,,,,,,,,,,,,,,70,143035,23,Female,1,2024/02/20_11:50:57,YZ,None,
,,,,,,practice,0,9,1,1250,6,V,0,right,0.9240771879995009,1,0,,,,,,,,,,,,,,,,,,,,,1,,,,,,,,,,,,,,,,,,,,,,,,,,,,,,,,,,,,,,,,,,,,,,70,143035,23,Female,1,2024/02/20_11:50:57,YZ,None,
,,,,,,practice,0,9,1,1250,7,V,1,left,0.8083595240022987,1,0,,,,,,,,,,,,,,,,,,,,,1,,,,,,,,,,,,,,,,,,,,,,,,,,,,,,,,,,,,,,,,,,,,,,70,143035,23,Female,1,2024/02/20_11:50:57,YZ,None,
,,,,,,practice,0,9,1,1250,8,N,0,right,0.9158753119991161,1,0,,,,,,,,,,,,,,,,,,,,,1,,,,,,,,,,,,,,,,,,,,,,,,,,,,,,,,,,,,,,,,,,,,,,70,143035,23,Female,1,2024/02/20_11:50:57,YZ,None,
,,,,,,practice,0,9,1,1250,9,N,1,left,3.6287639399961336,1,0,,,,,,,,,,,,,,,,,,,,,1,,,,,,,,,,,,,,,,,,,,,,,,,,,,,,,,,,,,,,,,,,,,,,70,143035,23,Female,1,2024/02/20_11:50:57,YZ,None,
,,,,,,practice,0,9,1,1250,10,S,0,right,1.1075470990035683,1,0,,,,,,,,,,,,,,,,,,,,,1,,,,,,,,,,,,,,,,,,,,,,,,,,,,,,,,,,,,,,,,,,,,,,70,143035,23,Female,1,2024/02/20_11:50:57,YZ,None,
,,,,,,practice,0,9,1,1250,,,,,,,,1.0,1.0,0.0,1.0,0.0,1.0,1.4211816860013642,3,0,0,0,0,7,10,3,7,0,,,,1,,,,,,,,,,,,,,,,,,,,,,,,,,,,,,,,,,,,,,,,,,,,,,70,143035,23,Female,1,2024/02/20_11:50:57,YZ,None,
1,./instructions/inst_prac_1_next/Slide35.png,right,2.304876221998711,646.6091626480047,648.9140388700034,,,,,,,,,,,,,,,,,,,,,,,,,,,,,,,,,1,,,,,,,,,,,,,,,,,,,,,,,,,,,,,,,,,,,,,,,,,,,,,,70,143035,23,Female,1,2024/02/20_11:50:57,YZ,None,
,,,,,,practice,0,17,1,361,1,C,0,right,1.6036641310056439,1,0,,,,,,,,,,,,,,,,,,,,,1,,,,,,,,,,,,,,,,,,,,,,,,,,,,,,,,,,,,,,,,,,,,,,70,143035,23,Female,1,2024/02/20_11:50:57,YZ,None,
,,,,,,practice,0,17,1,361,2,C,1,left,0.7385826300014742,1,0,,,,,,,,,,,,,,,,,,,,,1,,,,,,,,,,,,,,,,,,,,,,,,,,,,,,,,,,,,,,,,,,,,,,70,143035,23,Female,1,2024/02/20_11:50:57,YZ,None,
,,,,,,practice,0,17,1,361,3,Q,0,right,1.2103798650059616,1,0,,,,,,,,,,,,,,,,,,,,,1,,,,,,,,,,,,,,,,,,,,,,,,,,,,,,,,,,,,,,,,,,,,,,70,143035,23,Female,1,2024/02/20_11:50:57,YZ,None,
,,,,,,practice,0,17,1,361,4,Q,1,left,0.7844878150062868,1,0,,,,,,,,,,,,,,,,,,,,,1,,,,,,,,,,,,,,,,,,,,,,,,,,,,,,,,,,,,,,,,,,,,,,70,143035,23,Female,1,2024/02/20_11:50:57,YZ,None,
,,,,,,practice,0,17,1,361,5,X,0,right,0.9882071320025716,1,0,,,,,,,,,,,,,,,,,,,,,1,,,,,,,,,,,,,,,,,,,,,,,,,,,,,,,,,,,,,,,,,,,,,,70,143035,23,Female,1,2024/02/20_11:50:57,YZ,None,
,,,,,,practice,0,17,1,361,6,C,0,right,2.18347251501109,1,0,,,,,,,,,,,,,,,,,,,,,1,,,,,,,,,,,,,,,,,,,,,,,,,,,,,,,,,,,,,,,,,,,,,,70,143035,23,Female,1,2024/02/20_11:50:57,YZ,None,
,,,,,,practice,0,17,1,361,7,S,0,right,0.8831523999979254,1,0,,,,,,,,,,,,,,,,,,,,,1,,,,,,,,,,,,,,,,,,,,,,,,,,,,,,,,,,,,,,,,,,,,,,70,143035,23,Female,1,2024/02/20_11:50:57,YZ,None,
,,,,,,practice,0,17,1,361,8,X,0,right,0.8875692880101269,1,0,,,,,,,,,,,,,,,,,,,,,1,,,,,,,,,,,,,,,,,,,,,,,,,,,,,,,,,,,,,,,,,,,,,,70,143035,23,Female,1,2024/02/20_11:50:57,YZ,None,
,,,,,,practice,0,17,1,361,9,J,0,right,0.6958094360015821,1,0,,,,,,,,,,,,,,,,,,,,,1,,,,,,,,,,,,,,,,,,,,,,,,,,,,,,,,,,,,,,,,,,,,,,70,143035,23,Female,1,2024/02/20_11:50:57,YZ,None,
,,,,,,practice,0,17,1,361,10,J,1,left,0.6527426450047642,1,0,,,,,,,,,,,,,,,,,,,,,1,,,,,,,,,,,,,,,,,,,,,,,,,,,,,,,,,,,,,,,,,,,,,,70,143035,23,Female,1,2024/02/20_11:50:57,YZ,None,
,,,,,,practice,0,17,1,361,11,F,0,right,0.747926322001149,1,0,,,,,,,,,,,,,,,,,,,,,1,,,,,,,,,,,,,,,,,,,,,,,,,,,,,,,,,,,,,,,,,,,,,,70,143035,23,Female,1,2024/02/20_11:50:57,YZ,None,
,,,,,,practice,0,17,1,361,12,C,0,right,0.7365361039992422,1,0,,,,,,,,,,,,,,,,,,,,,1,,,,,,,,,,,,,,,,,,,,,,,,,,,,,,,,,,,,,,,,,,,,,,70,143035,23,Female,1,2024/02/20_11:50:57,YZ,None,
,,,,,,practice,0,17,1,361,13,J,0,right,0.6555411890003597,1,0,,,,,,,,,,,,,,,,,,,,,1,,,,,,,,,,,,,,,,,,,,,,,,,,,,,,,,,,,,,,,,,,,,,,70,143035,23,Female,1,2024/02/20_11:50:57,YZ,None,
,,,,,,practice,0,17,1,361,14,J,1,right,0.4603870280116098,0,0,,,,,,,,,,,,,,,,,,,,,1,,,,,,,,,,,,,,,,,,,,,,,,,,,,,,,,,,,,,,,,,,,,,,70,143035,23,Female,1,2024/02/20_11:50:57,YZ,None,
,,,,,,practice,0,17,1,361,15,N,0,right,0.0,1,0,,,,,,,,,,,,,,,,,,,,,1,,,,,,,,,,,,,,,,,,,,,,,,,,,,,,,,,,,,,,,,,,,,,,70,143035,23,Female,1,2024/02/20_11:50:57,YZ,None,
,,,,,,practice,0,17,1,361,16,Q,0,right,1.9653460219997214,1,0,,,,,,,,,,,,,,,,,,,,,1,,,,,,,,,,,,,,,,,,,,,,,,,,,,,,,,,,,,,,,,,,,,,,70,143035,23,Female,1,2024/02/20_11:50:57,YZ,None,
,,,,,,practice,0,17,1,361,17,Q,1,left,0.6252676690055523,1,0,,,,,,,,,,,,,,,,,,,,,1,,,,,,,,,,,,,,,,,,,,,,,,,,,,,,,,,,,,,,,,,,,,,,70,143035,23,Female,1,2024/02/20_11:50:57,YZ,None,
,,,,,,practice,0,17,1,361,18,J,0,right,0.5563183990016114,1,0,,,,,,,,,,,,,,,,,,,,,1,,,,,,,,,,,,,,,,,,,,,,,,,,,,,,,,,,,,,,,,,,,,,,70,143035,23,Female,1,2024/02/20_11:50:57,YZ,None,
,,,,,,practice,0,17,1,361,,,,,,,,0.95,0.8,0.0,1.0,0.0,1.0,0.9097439216703707,4,0,0,0,0,13,17,5,13,0,,,,1,,,,,,,,,,,,,,,,,,,,,,,,,,,,,,,,,,,,,,,,,,,,,,70,143035,23,Female,1,2024/02/20_11:50:57,YZ,None,
,,,,,,practice,0,6,1,361,1,F,0,right,1.2235748389939545,1,0,,,,,,,,,,,,,,,,,,,,,1,,,,,,,,,,,,,,,,,,,,,,,,,,,,,,,,,,,,,,,,,,,,,,70,143035,23,Female,1,2024/02/20_11:50:57,YZ,None,
,,,,,,practice,0,6,1,361,2,F,1,left,0.6971814140124479,1,0,,,,,,,,,,,,,,,,,,,,,1,,,,,,,,,,,,,,,,,,,,,,,,,,,,,,,,,,,,,,,,,,,,,,70,143035,23,Female,1,2024/02/20_11:50:57,YZ,None,
,,,,,,practice,0,6,1,361,3,V,0,right,0.688875833991915,1,0,,,,,,,,,,,,,,,,,,,,,1,,,,,,,,,,,,,,,,,,,,,,,,,,,,,,,,,,,,,,,,,,,,,,70,143035,23,Female,1,2024/02/20_11:50:57,YZ,None,
,,,,,,practice,0,6,1,361,4,Q,0,right,0.6288533309998456,1,0,,,,,,,,,,,,,,,,,,,,,1,,,,,,,,,,,,,,,,,,,,,,,,,,,,,,,,,,,,,,,,,,,,,,70,143035,23,Female,1,2024/02/20_11:50:57,YZ,None,
,,,,,,practice,0,6,1,361,5,Q,1,left,0.7577849179942859,1,0,,,,,,,,,,,,,,,,,,,,,1,,,,,,,,,,,,,,,,,,,,,,,,,,,,,,,,,,,,,,,,,,,,,,70,143035,23,Female,1,2024/02/20_11:50:57,YZ,None,
,,,,,,practice,0,6,1,361,6,F,0,right,1.1350876030046493,1,0,,,,,,,,,,,,,,,,,,,,,1,,,,,,,,,,,,,,,,,,,,,,,,,,,,,,,,,,,,,,,,,,,,,,70,143035,23,Female,1,2024/02/20_11:50:57,YZ,None,
,,,,,,practice,0,6,1,361,7,F,1,left,0.6340593669883674,1,0,,,,,,,,,,,,,,,,,,,,,1,,,,,,,,,,,,,,,,,,,,,,,,,,,,,,,,,,,,,,,,,,,,,,70,143035,23,Female,1,2024/02/20_11:50:57,YZ,None,
,,,,,,practice,0,6,1,361,8,J,0,right,0.6008465709892334,1,0,,,,,,,,,,,,,,,,,,,,,1,,,,,,,,,,,,,,,,,,,,,,,,,,,,,,,,,,,,,,,,,,,,,,70,143035,23,Female,1,2024/02/20_11:50:57,YZ,None,
,,,,,,practice,0,6,1,361,9,V,0,right,0.5348078140086727,1,0,,,,,,,,,,,,,,,,,,,,,1,,,,,,,,,,,,,,,,,,,,,,,,,,,,,,,,,,,,,,,,,,,,,,70,143035,23,Female,1,2024/02/20_11:50:57,YZ,None,
,,,,,,practice,0,6,1,361,10,V,1,left,0.6924053300026571,1,0,,,,,,,,,,,,,,,,,,,,,1,,,,,,,,,,,,,,,,,,,,,,,,,,,,,,,,,,,,,,,,,,,,,,70,143035,23,Female,1,2024/02/20_11:50:57,YZ,None,
,,,,,,practice,0,6,1,361,11,N,0,right,0.49245345398958307,1,0,,,,,,,,,,,,,,,,,,,,,1,,,,,,,,,,,,,,,,,,,,,,,,,,,,,,,,,,,,,,,,,,,,,,70,143035,23,Female,1,2024/02/20_11:50:57,YZ,None,
,,,,,,practice,0,6,1,361,12,X,0,right,0.6533643160073552,1,0,,,,,,,,,,,,,,,,,,,,,1,,,,,,,,,,,,,,,,,,,,,,,,,,,,,,,,,,,,,,,,,,,,,,70,143035,23,Female,1,2024/02/20_11:50:57,YZ,None,
,,,,,,practice,0,6,1,361,13,X,1,left,0.8649905190104619,1,0,,,,,,,,,,,,,,,,,,,,,1,,,,,,,,,,,,,,,,,,,,,,,,,,,,,,,,,,,,,,,,,,,,,,70,143035,23,Female,1,2024/02/20_11:50:57,YZ,None,
,,,,,,practice,0,6,1,361,14,N,0,right,0.4787470890005352,1,0,,,,,,,,,,,,,,,,,,,,,1,,,,,,,,,,,,,,,,,,,,,,,,,,,,,,,,,,,,,,,,,,,,,,70,143035,23,Female,1,2024/02/20_11:50:57,YZ,None,
,,,,,,practice,0,6,1,361,15,S,0,right,1.2444377390056616,1,0,,,,,,,,,,,,,,,,,,,,,1,,,,,,,,,,,,,,,,,,,,,,,,,,,,,,,,,,,,,,,,,,,,,,70,143035,23,Female,1,2024/02/20_11:50:57,YZ,None,
,,,,,,practice,0,6,1,361,16,S,1,left,0.6284785019961419,1,0,,,,,,,,,,,,,,,,,,,,,1,,,,,,,,,,,,,,,,,,,,,,,,,,,,,,,,,,,,,,,,,,,,,,70,143035,23,Female,1,2024/02/20_11:50:57,YZ,None,
,,,,,,practice,0,6,1,361,17,X,0,right,0.5801235830003861,1,0,,,,,,,,,,,,,,,,,,,,,1,,,,,,,,,,,,,,,,,,,,,,,,,,,,,,,,,,,,,,,,,,,,,,70,143035,23,Female,1,2024/02/20_11:50:57,YZ,None,
,,,,,,practice,0,6,1,361,18,Q,0,right,0.6923167450004257,1,0,,,,,,,,,,,,,,,,,,,,,1,,,,,,,,,,,,,,,,,,,,,,,,,,,,,,,,,,,,,,,,,,,,,,70,143035,23,Female,1,2024/02/20_11:50:57,YZ,None,
,,,,,,practice,0,6,1,361,,,,,,,,1.0,1.0,0.0,1.0,0.0,1.0,0.7349104982220322,6,0,0,0,0,12,18,6,12,0,,,,1,,,,,,,,,,,,,,,,,,,,,,,,,,,,,,,,,,,,,,,,,,,,,,70,143035,23,Female,1,2024/02/20_11:50:57,YZ,None,
1,./instructions/inst_prac_3/Slide37.png,right,4.176917422009865,701.4891769929964,705.6660944150062,,,,,,,,,,,,,,,,,,,,,,,,,,,,,,,,,1,,,,,,,,,,,,,,,,,,,,,,,,,,,,,,,,,,,,,,,,,,,,,,70,143035,23,Female,1,2024/02/20_11:50:57,YZ,None,
2,./instructions/inst_prac_3/Slide38.png,right,1.6669892589998199,705.6950034239999,707.3619926829997,,,,,,,,,,,,,,,,,,,,,,,,,,,,,,,,,1,,,,,,,,,,,,,,,,,,,,,,,,,,,,,,,,,,,,,,,,,,,,,,70,143035,23,Female,1,2024/02/20_11:50:57,YZ,None,
3,./instructions/inst_prac_3/Slide39.png,right,1.878439152991632,707.3876554900053,709.2660946429969,,,,,,,,,,,,,,,,,,,,,,,,,,,,,,,,,1,,,,,,,,,,,,,,,,,,,,,,,,,,,,,,,,,,,,,,,,,,,,,,70,143035,23,Female,1,2024/02/20_11:50:57,YZ,None,
4,./instructions/inst_prac_3/Slide40.png,right,3.1388786349998554,709.2952118910034,712.4340905260033,,,,,,,,,,,,,,,,,,,,,,,,,,,,,,,,,1,,,,,,,,,,,,,,,,,,,,,,,,,,,,,,,,,,,,,,,,,,,,,,70,143035,23,Female,1,2024/02/20_11:50:57,YZ,None,
5,./instructions/inst_prac_3/Slide41.png,right,4.151103857002454,712.4590256289957,716.6101294859982,,,,,,,,,,,,,,,,,,,,,,,,,,,,,,,,,1,,,,,,,,,,,,,,,,,,,,,,,,,,,,,,,,,,,,,,,,,,,,,,70,143035,23,Female,1,2024/02/20_11:50:57,YZ,None,
6,./instructions/inst_prac_3/Slide42.png,right,3.651106774996151,716.6390844770067,720.2901912520028,,,,,,,,,,,,,,,,,,,,,,,,,,,,,,,,,1,,,,,,,,,,,,,,,,,,,,,,,,,,,,,,,,,,,,,,,,,,,,,,70,143035,23,Female,1,2024/02/20_11:50:57,YZ,None,
7,./instructions/inst_prac_3/Slide43.png,right,2.4271079350000946,720.3189602380007,722.7460681730008,,,,,,,,,,,,,,,,,,,,,,,,,,,,,,,,,1,,,,,,,,,,,,,,,,,,,,,,,,,,,,,,,,,,,,,,,,,,,,,,70,143035,23,Female,1,2024/02/20_11:50:57,YZ,None,
8,./instructions/inst_prac_3/Slide44.png,right,3.0672909999993863,722.774857077995,725.8421480779944,,,,,,,,,,,,,,,,,,,,,,,,,,,,,,,,,1,,,,,,,,,,,,,,,,,,,,,,,,,,,,,,,,,,,,,,,,,,,,,,70,143035,23,Female,1,2024/02/20_11:50:57,YZ,None,
,,,,,,practice,0,36,3,788,1,F,0,right,1.2498578719969373,1,0,,,,,,,,,,,,,,,,,,,,,1,,,,,,,,,,,,,,,,,,,,,,,,,,,,,,,,,,,,,,,,,,,,,,70,143035,23,Female,1,2024/02/20_11:50:57,YZ,None,
,,,,,,practice,0,36,3,788,2,X,0,right,0.8285185100103263,1,0,,,,,,,,,,,,,,,,,,,,,1,,,,,,,,,,,,,,,,,,,,,,,,,,,,,,,,,,,,,,,,,,,,,,70,143035,23,Female,1,2024/02/20_11:50:57,YZ,None,
,,,,,,practice,0,36,3,788,3,V,0,right,0.2700466719979886,1,0,,,,,,,,,,,,,,,,,,,,,1,,,,,,,,,,,,,,,,,,,,,,,,,,,,,,,,,,,,,,,,,,,,,,70,143035,23,Female,1,2024/02/20_11:50:57,YZ,None,
,,,,,,practice,0,36,3,788,4,Q,0,right,0.748917409000569,1,0,,,,,,,,,,,,,,,,,,,,,1,,,,,,,,,,,,,,,,,,,,,,,,,,,,,,,,,,,,,,,,,,,,,,70,143035,23,Female,1,2024/02/20_11:50:57,YZ,None,
,,,,,,practice,0,36,3,788,5,X,1,left,1.5442437429883284,1,0,,,,,,,,,,,,,,,,,,,,,1,,,,,,,,,,,,,,,,,,,,,,,,,,,,,,,,,,,,,,,,,,,,,,70,143035,23,Female,1,2024/02/20_11:50:57,YZ,None,
,,,,,,practice,0,36,3,788,6,N,0,right,3.7177057660010178,1,0,,,,,,,,,,,,,,,,,,,,,1,,,,,,,,,,,,,,,,,,,,,,,,,,,,,,,,,,,,,,,,,,,,,,70,143035,23,Female,1,2024/02/20_11:50:57,YZ,None,
,,,,,,practice,0,36,3,788,7,Q,1,left,0.8240923910052516,1,0,,,,,,,,,,,,,,,,,,,,,1,,,,,,,,,,,,,,,,,,,,,,,,,,,,,,,,,,,,,,,,,,,,,,70,143035,23,Female,1,2024/02/20_11:50:57,YZ,None,
,,,,,,practice,0,36,3,788,8,Q,0,right,1.4930896839941852,1,0,,,,,,,,,,,,,,,,,,,,,1,,,,,,,,,,,,,,,,,,,,,,,,,,,,,,,,,,,,,,,,,,,,,,70,143035,23,Female,1,2024/02/20_11:50:57,YZ,None,
,,,,,,practice,0,36,3,788,9,V,0,right,1.100645461003296,1,0,,,,,,,,,,,,,,,,,,,,,1,,,,,,,,,,,,,,,,,,,,,,,,,,,,,,,,,,,,,,,,,,,,,,70,143035,23,Female,1,2024/02/20_11:50:57,YZ,None,
,,,,,,practice,0,36,3,788,10,X,0,right,0.8853803570091259,1,0,,,,,,,,,,,,,,,,,,,,,1,,,,,,,,,,,,,,,,,,,,,,,,,,,,,,,,,,,,,,,,,,,,,,70,143035,23,Female,1,2024/02/20_11:50:57,YZ,None,
,,,,,,practice,0,36,3,788,11,Q,1,left,0.8938777529983781,1,0,,,,,,,,,,,,,,,,,,,,,1,,,,,,,,,,,,,,,,,,,,,,,,,,,,,,,,,,,,,,,,,,,,,,70,143035,23,Female,1,2024/02/20_11:50:57,YZ,None,
,,,,,,practice,0,36,3,788,12,S,0,right,0.9796489159925841,1,0,,,,,,,,,,,,,,,,,,,,,1,,,,,,,,,,,,,,,,,,,,,,,,,,,,,,,,,,,,,,,,,,,,,,70,143035,23,Female,1,2024/02/20_11:50:57,YZ,None,
,,,,,,practice,0,36,3,788,13,X,1,left,0.9014542010118021,1,0,,,,,,,,,,,,,,,,,,,,,1,,,,,,,,,,,,,,,,,,,,,,,,,,,,,,,,,,,,,,,,,,,,,,70,143035,23,Female,1,2024/02/20_11:50:57,YZ,None,
,,,,,,practice,0,36,3,788,,,,,,,,1.0,1.0,0.0,1.0,0.0,1.0,1.1874983642315224,4,0,0,0,0,9,13,4,9,0,,,,1,,,,,,,,,,,,,,,,,,,,,,,,,,,,,,,,,,,,,,,,,,,,,,70,143035,23,Female,1,2024/02/20_11:50:57,YZ,None,
1,./instructions/inst_prac_3_next/Slide49.png,right,4.185502913998789,754.9607413699996,759.1462442839984,,,,,,,,,,,,,,,,,,,,,,,,,,,,,,,,,1,,,,,,,,,,,,,,,,,,,,,,,,,,,,,,,,,,,,,,,,,,,,,,70,143035,23,Female,1,2024/02/20_11:50:57,YZ,None,
,,,,,,practice,0,34,3,361,1,Q,0,right,0.5327934090018971,1,0,,,,,,,,,,,,,,,,,,,,,1,,,,,,,,,,,,,,,,,,,,,,,,,,,,,,,,,,,,,,,,,,,,,,70,143035,23,Female,1,2024/02/20_11:50:57,YZ,None,
,,,,,,practice,0,34,3,361,2,J,0,right,2.4294362740038196,1,0,,,,,,,,,,,,,,,,,,,,,1,,,,,,,,,,,,,,,,,,,,,,,,,,,,,,,,,,,,,,,,,,,,,,70,143035,23,Female,1,2024/02/20_11:50:57,YZ,None,
,,,,,,practice,0,34,3,361,3,Q,0,right,2.3056568679894553,1,0,,,,,,,,,,,,,,,,,,,,,1,,,,,,,,,,,,,,,,,,,,,,,,,,,,,,,,,,,,,,,,,,,,,,70,143035,23,Female,1,2024/02/20_11:50:57,YZ,None,
,,,,,,practice,0,34,3,361,4,V,0,right,3.2202889550098917,1,0,,,,,,,,,,,,,,,,,,,,,1,,,,,,,,,,,,,,,,,,,,,,,,,,,,,,,,,,,,,,,,,,,,,,70,143035,23,Female,1,2024/02/20_11:50:57,YZ,None,
,,,,,,practice,0,34,3,361,5,J,1,right,1.918761809996795,0,0,,,,,,,,,,,,,,,,,,,,,1,,,,,,,,,,,,,,,,,,,,,,,,,,,,,,,,,,,,,,,,,,,,,,70,143035,23,Female,1,2024/02/20_11:50:57,YZ,None,
,,,,,,practice,0,34,3,361,6,J,0,right,4.985034829995129,1,0,,,,,,,,,,,,,,,,,,,,,1,,,,,,,,,,,,,,,,,,,,,,,,,,,,,,,,,,,,,,,,,,,,,,70,143035,23,Female,1,2024/02/20_11:50:57,YZ,None,
,,,,,,practice,0,34,3,361,7,V,1,left,0.8005441290006274,1,0,,,,,,,,,,,,,,,,,,,,,1,,,,,,,,,,,,,,,,,,,,,,,,,,,,,,,,,,,,,,,,,,,,,,70,143035,23,Female,1,2024/02/20_11:50:57,YZ,None,
,,,,,,practice,0,34,3,361,8,Q,0,left,0.9348051749984734,0,0,,,,,,,,,,,,,,,,,,,,,1,,,,,,,,,,,,,,,,,,,,,,,,,,,,,,,,,,,,,,,,,,,,,,70,143035,23,Female,1,2024/02/20_11:50:57,YZ,None,
,,,,,,practice,0,34,3,361,9,J,1,left,1.0843952349969186,1,0,,,,,,,,,,,,,,,,,,,,,1,,,,,,,,,,,,,,,,,,,,,,,,,,,,,,,,,,,,,,,,,,,,,,70,143035,23,Female,1,2024/02/20_11:50:57,YZ,None,
,,,,,,practice,0,34,3,361,10,F,0,right,0.9831258979975246,1,0,,,,,,,,,,,,,,,,,,,,,1,,,,,,,,,,,,,,,,,,,,,,,,,,,,,,,,,,,,,,,,,,,,,,70,143035,23,Female,1,2024/02/20_11:50:57,YZ,None,
,,,,,,practice,0,34,3,361,11,J,0,right,1.8020876110094832,1,0,,,,,,,,,,,,,,,,,,,,,1,,,,,,,,,,,,,,,,,,,,,,,,,,,,,,,,,,,,,,,,,,,,,,70,143035,23,Female,1,2024/02/20_11:50:57,YZ,None,
,,,,,,practice,0,34,3,361,12,J,1,right,3.585127468992141,0,0,,,,,,,,,,,,,,,,,,,,,1,,,,,,,,,,,,,,,,,,,,,,,,,,,,,,,,,,,,,,,,,,,,,,70,143035,23,Female,1,2024/02/20_11:50:57,YZ,None,
,,,,,,practice,0,34,3,361,13,V,0,left,2.5523097760014934,0,0,,,,,,,,,,,,,,,,,,,,,1,,,,,,,,,,,,,,,,,,,,,,,,,,,,,,,,,,,,,,,,,,,,,,70,143035,23,Female,1,2024/02/20_11:50:57,YZ,None,
,,,,,,practice,0,34,3,361,14,J,1,right,1.4208154279913288,0,0,,,,,,,,,,,,,,,,,,,,,1,,,,,,,,,,,,,,,,,,,,,,,,,,,,,,,,,,,,,,,,,,,,,,70,143035,23,Female,1,2024/02/20_11:50:57,YZ,None,
,,,,,,practice,0,34,3,361,15,C,0,right,0.816367021005135,1,0,,,,,,,,,,,,,,,,,,,,,1,,,,,,,,,,,,,,,,,,,,,,,,,,,,,,,,,,,,,,,,,,,,,,70,143035,23,Female,1,2024/02/20_11:50:57,YZ,None,
,,,,,,practice,0,34,3,361,16,S,0,right,0.8038272410049103,1,0,,,,,,,,,,,,,,,,,,,,,1,,,,,,,,,,,,,,,,,,,,,,,,,,,,,,,,,,,,,,,,,,,,,,70,143035,23,Female,1,2024/02/20_11:50:57,YZ,None,
,,,,,,practice,0,34,3,361,17,N,0,right,0.7446121589891845,1,0,,,,,,,,,,,,,,,,,,,,,1,,,,,,,,,,,,,,,,,,,,,,,,,,,,,,,,,,,,,,,,,,,,,,70,143035,23,Female,1,2024/02/20_11:50:57,YZ,None,
,,,,,,practice,0,34,3,361,18,C,1,left,1.1002723279962083,1,0,,,,,,,,,,,,,,,,,,,,,1,,,,,,,,,,,,,,,,,,,,,,,,,,,,,,,,,,,,,,,,,,,,,,70,143035,23,Female,1,2024/02/20_11:50:57,YZ,None,
,,,,,,practice,0,34,3,361,,,,,,,,0.75,0.5,0.16666666666666666,0.8333333333333334,0.0,0.8333333333333334,1.7789034231100231,3,2,0,0,0,10,13,6,12,0,,,,1,,,,,,,,,,,,,,,,,,,,,,,,,,,,,,,,,,,,,,,,,,,,,,70,143035,23,Female,1,2024/02/20_11:50:57,YZ,None,
,,,,,,practice,0,17,3,361,1,C,0,right,1.1065360959910322,1,0,,,,,,,,,,,,,,,,,,,,,1,,,,,,,,,,,,,,,,,,,,,,,,,,,,,,,,,,,,,,,,,,,,,,70,143035,23,Female,1,2024/02/20_11:50:57,YZ,None,
,,,,,,practice,0,17,3,361,2,X,0,right,0.6640526529954514,1,0,,,,,,,,,,,,,,,,,,,,,1,,,,,,,,,,,,,,,,,,,,,,,,,,,,,,,,,,,,,,,,,,,,,,70,143035,23,Female,1,2024/02/20_11:50:57,YZ,None,
,,,,,,practice,0,17,3,361,3,N,0,right,1.324112579008215,1,0,,,,,,,,,,,,,,,,,,,,,1,,,,,,,,,,,,,,,,,,,,,,,,,,,,,,,,,,,,,,,,,,,,,,70,143035,23,Female,1,2024/02/20_11:50:57,YZ,None,
,,,,,,practice,0,17,3,361,4,C,1,left,0.8082693479955196,1,0,,,,,,,,,,,,,,,,,,,,,1,,,,,,,,,,,,,,,,,,,,,,,,,,,,,,,,,,,,,,,,,,,,,,70,143035,23,Female,1,2024/02/20_11:50:57,YZ,None,
,,,,,,practice,0,17,3,361,5,X,1,left,0.824419967000722,1,0,,,,,,,,,,,,,,,,,,,,,1,,,,,,,,,,,,,,,,,,,,,,,,,,,,,,,,,,,,,,,,,,,,,,70,143035,23,Female,1,2024/02/20_11:50:57,YZ,None,
,,,,,,practice,0,17,3,361,6,S,0,right,0.8975614920054795,1,0,,,,,,,,,,,,,,,,,,,,,1,,,,,,,,,,,,,,,,,,,,,,,,,,,,,,,,,,,,,,,,,,,,,,70,143035,23,Female,1,2024/02/20_11:50:57,YZ,None,
,,,,,,practice,0,17,3,361,7,V,0,right,1.0822773039981257,1,0,,,,,,,,,,,,,,,,,,,,,1,,,,,,,,,,,,,,,,,,,,,,,,,,,,,,,,,,,,,,,,,,,,,,70,143035,23,Female,1,2024/02/20_11:50:57,YZ,None,
,,,,,,practice,0,17,3,361,8,X,1,right,3.7911346740002045,0,0,,,,,,,,,,,,,,,,,,,,,1,,,,,,,,,,,,,,,,,,,,,,,,,,,,,,,,,,,,,,,,,,,,,,70,143035,23,Female,1,2024/02/20_11:50:57,YZ,None,
,,,,,,practice,0,17,3,361,9,F,0,right,1.6318094549933448,1,0,,,,,,,,,,,,,,,,,,,,,1,,,,,,,,,,,,,,,,,,,,,,,,,,,,,,,,,,,,,,,,,,,,,,70,143035,23,Female,1,2024/02/20_11:50:57,YZ,None,
,,,,,,practice,0,17,3,361,10,V,1,right,0.5878310069965664,0,0,,,,,,,,,,,,,,,,,,,,,1,,,,,,,,,,,,,,,,,,,,,,,,,,,,,,,,,,,,,,,,,,,,,,70,143035,23,Female,1,2024/02/20_11:50:57,YZ,None,
,,,,,,practice,0,17,3,361,11,J,0,right,0.572207999008242,1,0,,,,,,,,,,,,,,,,,,,,,1,,,,,,,,,,,,,,,,,,,,,,,,,,,,,,,,,,,,,,,,,,,,,,70,143035,23,Female,1,2024/02/20_11:50:57,YZ,None,
,,,,,,practice,0,17,3,361,12,X,0,right,0.4987922529981006,1,0,,,,,,,,,,,,,,,,,,,,,1,,,,,,,,,,,,,,,,,,,,,,,,,,,,,,,,,,,,,,,,,,,,,,70,143035,23,Female,1,2024/02/20_11:50:57,YZ,None,
,,,,,,practice,0,17,3,361,13,S,0,right,0.3914791610004613,1,0,,,,,,,,,,,,,,,,,,,,,1,,,,,,,,,,,,,,,,,,,,,,,,,,,,,,,,,,,,,,,,,,,,,,70,143035,23,Female,1,2024/02/20_11:50:57,YZ,None,
,,,,,,practice,0,17,3,361,14,X,0,left,0.6553774229978444,0,0,,,,,,,,,,,,,,,,,,,,,1,,,,,,,,,,,,,,,,,,,,,,,,,,,,,,,,,,,,,,,,,,,,,,70,143035,23,Female,1,2024/02/20_11:50:57,YZ,None,
,,,,,,practice,0,17,3,361,15,X,1,left,1.5880547340057092,1,0,,,,,,,,,,,,,,,,,,,,,1,,,,,,,,,,,,,,,,,,,,,,,,,,,,,,,,,,,,,,,,,,,,,,70,143035,23,Female,1,2024/02/20_11:50:57,YZ,None,
,,,,,,practice,0,17,3,361,16,N,0,right,0.9806299460033188,1,0,,,,,,,,,,,,,,,,,,,,,1,,,,,,,,,,,,,,,,,,,,,,,,,,,,,,,,,,,,,,,,,,,,,,70,143035,23,Female,1,2024/02/20_11:50:57,YZ,None,
,,,,,,practice,0,17,3,361,17,X,1,left,0.8487850439996691,1,0,,,,,,,,,,,,,,,,,,,,,1,,,,,,,,,,,,,,,,,,,,,,,,,,,,,,,,,,,,,,,,,,,,,,70,143035,23,Female,1,2024/02/20_11:50:57,YZ,None,
,,,,,,practice,0,17,3,361,18,F,0,right,0.6707965370005695,1,0,,,,,,,,,,,,,,,,,,,,,1,,,,,,,,,,,,,,,,,,,,,,,,,,,,,,,,,,,,,,,,,,,,,,70,143035,23,Female,1,2024/02/20_11:50:57,YZ,None,
,,,,,,practice,0,17,3,361,,,,,,,,0.8680555555555555,0.6666666666666666,0.08333333333333333,0.9166666666666666,0.0,0.9166666666666666,1.051340426222143,4,1,0,0,0,11,15,6,12,0,,,,1,,,,,,,,,,,,,,,,,,,,,,,,,,,,,,,,,,,,,,,,,,,,,,70,143035,23,Female,1,2024/02/20_11:50:57,YZ,None,
1,./instructions/inst_prac_main/Slide51.png,right,2.900278872009949,833.101701667998,836.0019805400079,,,,,,,,,,,,,,,,,,,,,,,,,,,,,,,,,1,,,,,,,,,,,,,,,,,,,,,,,,,,,,,,,,,,,,,,,,,,,,,,70,143035,23,Female,1,2024/02/20_11:50:57,YZ,None,
2,./instructions/inst_prac_main/Slide52.png,right,13.23627194200526,836.0298980020016,849.2661699440068,,,,,,,,,,,,,,,,,,,,,,,,,,,,,,,,,1,,,,,,,,,,,,,,,,,,,,,,,,,,,,,,,,,,,,,,,,,,,,,,70,143035,23,Female,1,2024/02/20_11:50:57,YZ,None,
3,./instructions/inst_prac_main/Slide53.png,right,5.3984598540118895,849.2917010109959,854.6901608650078,,,,,,,,,,,,,,,,,,,,,,,,,,,,,,,,,1,,,,,,,,,,,,,,,,,,,,,,,,,,,,,,,,,,,,,,,,,,,,,,70,143035,23,Female,1,2024/02/20_11:50:57,YZ,None,
4,./instructions/inst_prac_main/Slide54.png,right,0.2003843030106509,854.7189730289974,854.9193573320081,,,,,,,,,,,,,,,,,,,,,,,,,,,,,,,,,1,,,,,,,,,,,,,,,,,,,,,,,,,,,,,,,,,,,,,,,,,,,,,,70,143035,23,Female,1,2024/02/20_11:50:57,YZ,None,
,,,,,,practice_main,0,1,1,361,1,J,0,None,nan,0,1,,,,,,,,,,,,,,,,,,,,,1,,,,,,,,,,,,,,,,,,,,,,,,,,,,,,,,,,,,,,,,,,,,,,70,143035,23,Female,1,2024/02/20_11:50:57,YZ,None,
,,,,,,practice_main,0,1,1,361,2,J,1,None,nan,0,1,,,,,,,,,,,,,,,,,,,,,1,,,,,,,,,,,,,,,,,,,,,,,,,,,,,,,,,,,,,,,,,,,,,,70,143035,23,Female,1,2024/02/20_11:50:57,YZ,None,
,,,,,,practice_main,0,1,1,361,3,S,0,None,nan,0,1,,,,,,,,,,,,,,,,,,,,,1,,,,,,,,,,,,,,,,,,,,,,,,,,,,,,,,,,,,,,,,,,,,,,70,143035,23,Female,1,2024/02/20_11:50:57,YZ,None,
,,,,,,practice_main,0,1,1,361,4,Q,0,None,nan,0,1,,,,,,,,,,,,,,,,,,,,,1,,,,,,,,,,,,,,,,,,,,,,,,,,,,,,,,,,,,,,,,,,,,,,70,143035,23,Female,1,2024/02/20_11:50:57,YZ,None,
,,,,,,practice_main,0,1,1,361,5,N,0,right,0.493353821002529,1,0,,,,,,,,,,,,,,,,,,,,,1,,,,,,,,,,,,,,,,,,,,,,,,,,,,,,,,,,,,,,,,,,,,,,70,143035,23,Female,1,2024/02/20_11:50:57,YZ,None,
,,,,,,practice_main,0,1,1,361,6,N,1,right,nan,0,1,,,,,,,,,,,,,,,,,,,,,1,,,,,,,,,,,,,,,,,,,,,,,,,,,,,,,,,,,,,,,,,,,,,,70,143035,23,Female,1,2024/02/20_11:50:57,YZ,None,
,,,,,,practice_main,0,1,1,361,7,C,0,right,nan,0,1,,,,,,,,,,,,,,,,,,,,,1,,,,,,,,,,,,,,,,,,,,,,,,,,,,,,,,,,,,,,,,,,,,,,70,143035,23,Female,1,2024/02/20_11:50:57,YZ,None,
,,,,,,practice_main,0,1,1,361,8,X,0,right,0.43901991900929715,1,0,,,,,,,,,,,,,,,,,,,,,1,,,,,,,,,,,,,,,,,,,,,,,,,,,,,,,,,,,,,,,,,,,,,,70,143035,23,Female,1,2024/02/20_11:50:57,YZ,None,
,,,,,,practice_main,0,1,1,361,9,F,0,right,nan,0,1,,,,,,,,,,,,,,,,,,,,,1,,,,,,,,,,,,,,,,,,,,,,,,,,,,,,,,,,,,,,,,,,,,,,70,143035,23,Female,1,2024/02/20_11:50:57,YZ,None,
,,,,,,practice_main,0,1,1,361,10,C,0,left,0.37750130200583953,0,0,,,,,,,,,,,,,,,,,,,,,1,,,,,,,,,,,,,,,,,,,,,,,,,,,,,,,,,,,,,,,,,,,,,,70,143035,23,Female,1,2024/02/20_11:50:57,YZ,None,
,,,,,,practice_main,0,1,1,361,11,C,1,left,nan,0,1,,,,,,,,,,,,,,,,,,,,,1,,,,,,,,,,,,,,,,,,,,,,,,,,,,,,,,,,,,,,,,,,,,,,70,143035,23,Female,1,2024/02/20_11:50:57,YZ,None,
,,,,,,practice_main,0,1,1,361,12,F,0,left,nan,0,1,,,,,,,,,,,,,,,,,,,,,1,,,,,,,,,,,,,,,,,,,,,,,,,,,,,,,,,,,,,,,,,,,,,,70,143035,23,Female,1,2024/02/20_11:50:57,YZ,None,
,,,,,,practice_main,0,1,1,361,13,F,1,left,nan,0,1,,,,,,,,,,,,,,,,,,,,,1,,,,,,,,,,,,,,,,,,,,,,,,,,,,,,,,,,,,,,,,,,,,,,70,143035,23,Female,1,2024/02/20_11:50:57,YZ,None,
,,,,,,practice_main,0,1,1,361,14,S,0,left,nan,0,1,,,,,,,,,,,,,,,,,,,,,1,,,,,,,,,,,,,,,,,,,,,,,,,,,,,,,,,,,,,,,,,,,,,,70,143035,23,Female,1,2024/02/20_11:50:57,YZ,None,
,,,,,,practice_main,0,1,1,361,15,N,0,left,nan,0,1,,,,,,,,,,,,,,,,,,,,,1,,,,,,,,,,,,,,,,,,,,,,,,,,,,,,,,,,,,,,,,,,,,,,70,143035,23,Female,1,2024/02/20_11:50:57,YZ,None,
,,,,,,practice_main,0,1,1,361,16,X,0,left,nan,0,1,,,,,,,,,,,,,,,,,,,,,1,,,,,,,,,,,,,,,,,,,,,,,,,,,,,,,,,,,,,,,,,,,,,,70,143035,23,Female,1,2024/02/20_11:50:57,YZ,None,
,,,,,,practice_main,0,1,1,361,17,J,0,left,nan,0,1,,,,,,,,,,,,,,,,,,,,,1,,,,,,,,,,,,,,,,,,,,,,,,,,,,,,,,,,,,,,,,,,,,,,70,143035,23,Female,1,2024/02/20_11:50:57,YZ,None,
,,,,,,practice_main,0,1,1,361,18,J,1,left,nan,0,1,,,,,,,,,,,,,,,,,,,,,1,,,,,,,,,,,,,,,,,,,,,,,,,,,,,,,,,,,,,,,,,,,,,,70,143035,23,Female,1,2024/02/20_11:50:57,YZ,None,
,,,,,,practice_main,0,1,1,361,,,,,,,,0.23076923076923078,0.0,0.07692307692307693,0.6666666666666666,0.8333333333333334,0.08974358974358976,0.43662501400588855,0,1,5,10,15,2,2,5,13,0,,,,1,,,,,,,,,,,,,,,,,,,,,,,,,,,,,,,,,,,,,,,,,,,,,,70,143035,23,Female,1,2024/02/20_11:50:57,YZ,None,
,,,,,240220_131814,PRACTICE,0,1,1,361,,,,,,,,,,,,,,,,,,,,,,,,,,,,1,48,1,1,cue2.png,easy,B,40,2.838713914999971,0,857.9827520560066,860.8508762099955,,,,,,,,,,,,,,,,,,,,,,,,,,,,,,,,,,,70,143035,23,Female,1,2024/02/20_11:50:57,YZ,None,
,,,,,,practice_main,0,2,1,361,1,S,0,None,nan,0,1,,,,,,,,,,,,,,,,,,,,,1,,,,,,,,,,,,,,,,,,,,,,,,,,,,,,,,,,,,,,,,,,,,,,70,143035,23,Female,1,2024/02/20_11:50:57,YZ,None,
,,,,,,practice_main,0,2,1,361,2,V,0,right,0.5123569419956766,1,0,,,,,,,,,,,,,,,,,,,,,1,,,,,,,,,,,,,,,,,,,,,,,,,,,,,,,,,,,,,,,,,,,,,,70,143035,23,Female,1,2024/02/20_11:50:57,YZ,None,
,,,,,,practice_main,0,2,1,361,3,V,1,left,0.5421056560007855,1,0,,,,,,,,,,,,,,,,,,,,,1,,,,,,,,,,,,,,,,,,,,,,,,,,,,,,,,,,,,,,,,,,,,,,70,143035,23,Female,1,2024/02/20_11:50:57,YZ,None,
,,,,,,practice_main,0,2,1,361,4,J,0,right,0.8728270829888061,1,0,,,,,,,,,,,,,,,,,,,,,1,,,,,,,,,,,,,,,,,,,,,,,,,,,,,,,,,,,,,,,,,,,,,,70,143035,23,Female,1,2024/02/20_11:50:57,YZ,None,
,,,,,,practice_main,0,2,1,361,5,J,1,left,0.7641259749943856,1,0,,,,,,,,,,,,,,,,,,,,,1,,,,,,,,,,,,,,,,,,,,,,,,,,,,,,,,,,,,,,,,,,,,,,70,143035,23,Female,1,2024/02/20_11:50:57,YZ,None,
,,,,,,practice_main,0,2,1,361,6,F,0,right,0.9825688899873057,1,0,,,,,,,,,,,,,,,,,,,,,1,,,,,,,,,,,,,,,,,,,,,,,,,,,,,,,,,,,,,,,,,,,,,,70,143035,23,Female,1,2024/02/20_11:50:57,YZ,None,
,,,,,,practice_main,0,2,1,361,7,N,0,right,0.5816817489976529,1,0,,,,,,,,,,,,,,,,,,,,,1,,,,,,,,,,,,,,,,,,,,,,,,,,,,,,,,,,,,,,,,,,,,,,70,143035,23,Female,1,2024/02/20_11:50:57,YZ,None,
,,,,,,practice_main,0,2,1,361,8,C,0,right,0.3903618979966268,1,0,,,,,,,,,,,,,,,,,,,,,1,,,,,,,,,,,,,,,,,,,,,,,,,,,,,,,,,,,,,,,,,,,,,,70,143035,23,Female,1,2024/02/20_11:50:57,YZ,None,
,,,,,,practice_main,0,2,1,361,9,N,0,right,0.4652564669959247,1,0,,,,,,,,,,,,,,,,,,,,,1,,,,,,,,,,,,,,,,,,,,,,,,,,,,,,,,,,,,,,,,,,,,,,70,143035,23,Female,1,2024/02/20_11:50:57,YZ,None,
,,,,,,practice_main,0,2,1,361,10,N,1,left,0.5333006050059339,1,0,,,,,,,,,,,,,,,,,,,,,1,,,,,,,,,,,,,,,,,,,,,,,,,,,,,,,,,,,,,,,,,,,,,,70,143035,23,Female,1,2024/02/20_11:50:57,YZ,None,
,,,,,,practice_main,0,2,1,361,11,V,0,right,0.48987873100850265,1,0,,,,,,,,,,,,,,,,,,,,,1,,,,,,,,,,,,,,,,,,,,,,,,,,,,,,,,,,,,,,,,,,,,,,70,143035,23,Female,1,2024/02/20_11:50:57,YZ,None,
,,,,,,practice_main,0,2,1,361,12,Q,0,right,0.42766525300976355,1,0,,,,,,,,,,,,,,,,,,,,,1,,,,,,,,,,,,,,,,,,,,,,,,,,,,,,,,,,,,,,,,,,,,,,70,143035,23,Female,1,2024/02/20_11:50:57,YZ,None,
,,,,,,practice_main,0,2,1,361,13,Q,1,right,0.37243483199563343,0,0,,,,,,,,,,,,,,,,,,,,,1,,,,,,,,,,,,,,,,,,,,,,,,,,,,,,,,,,,,,,,,,,,,,,70,143035,23,Female,1,2024/02/20_11:50:57,YZ,None,
,,,,,,practice_main,0,2,1,361,14,F,0,right,0.4167271059995983,1,0,,,,,,,,,,,,,,,,,,,,,1,,,,,,,,,,,,,,,,,,,,,,,,,,,,,,,,,,,,,,,,,,,,,,70,143035,23,Female,1,2024/02/20_11:50:57,YZ,None,
,,,,,,practice_main,0,2,1,361,15,S,0,left,0.4399448789918097,0,0,,,,,,,,,,,,,,,,,,,,,1,,,,,,,,,,,,,,,,,,,,,,,,,,,,,,,,,,,,,,,,,,,,,,70,143035,23,Female,1,2024/02/20_11:50:57,YZ,None,
,,,,,,practice_main,0,2,1,361,16,S,1,left,0.5648879829968791,1,0,,,,,,,,,,,,,,,,,,,,,1,,,,,,,,,,,,,,,,,,,,,,,,,,,,,,,,,,,,,,,,,,,,,,70,143035,23,Female,1,2024/02/20_11:50:57,YZ,None,
,,,,,,practice_main,0,2,1,361,17,X,0,right,0.4556442789908033,1,0,,,,,,,,,,,,,,,,,,,,,1,,,,,,,,,,,,,,,,,,,,,,,,,,,,,,,,,,,,,,,,,,,,,,70,143035,23,Female,1,2024/02/20_11:50:57,YZ,None,
,,,,,,practice_main,0,2,1,361,18,X,1,right,0.3323176929989131,0,0,,,,,,,,,,,,,,,,,,,,,1,,,,,,,,,,,,,,,,,,,,,,,,,,,,,,,,,,,,,,,,,,,,,,70,143035,23,Female,1,2024/02/20_11:50:57,YZ,None,
,,,,,,practice_main,0,2,1,361,,,,,,,,0.8680555555555555,0.6666666666666666,0.08333333333333333,0.9090909090909091,0.05555555555555555,0.861111111111111,0.537887412997353,4,1,0,1,1,10,14,6,12,0,,,,1,,,,,,,,,,,,,,,,,,,,,,,,,,,,,,,,,,,,,,,,,,,,,,70,143035,23,Female,1,2024/02/20_11:50:57,YZ,None,
,,,,,240220_131852,PRACTICE,0,2,1,361,,,,,,,,,,,,,,,,,,,,,,,,,,,,1,29,3,2,cue2.png,easy,B,30,0.8541337469941936,0,903.8734530710062,904.7418161389942,,,,,,,,,,,,,,,,,,,,,,,,,,,,,,,,,,,70,143035,23,Female,1,2024/02/20_11:50:57,YZ,None,
,,,,,,practice_main,0,3,3,361,1,S,0,right,0.7477032559982035,1,0,,,,,,,,,,,,,,,,,,,,,1,,,,,,,,,,,,,,,,,,,,,,,,,,,,,,,,,,,,,,,,,,,,,,70,143035,23,Female,1,2024/02/20_11:50:57,YZ,None,
,,,,,,practice_main,0,3,3,361,2,X,0,right,0.47996439700364135,1,0,,,,,,,,,,,,,,,,,,,,,1,,,,,,,,,,,,,,,,,,,,,,,,,,,,,,,,,,,,,,,,,,,,,,70,143035,23,Female,1,2024/02/20_11:50:57,YZ,None,
,,,,,,practice_main,0,3,3,361,3,C,0,right,0.40332982799736783,1,0,,,,,,,,,,,,,,,,,,,,,1,,,,,,,,,,,,,,,,,,,,,,,,,,,,,,,,,,,,,,,,,,,,,,70,143035,23,Female,1,2024/02/20_11:50:57,YZ,None,
,,,,,,practice_main,0,3,3,361,4,S,1,left,0.38464310599374585,1,0,,,,,,,,,,,,,,,,,,,,,1,,,,,,,,,,,,,,,,,,,,,,,,,,,,,,,,,,,,,,,,,,,,,,70,143035,23,Female,1,2024/02/20_11:50:57,YZ,None,
,,,,,,practice_main,0,3,3,361,5,C,0,right,0.9519069210073212,1,0,,,,,,,,,,,,,,,,,,,,,1,,,,,,,,,,,,,,,,,,,,,,,,,,,,,,,,,,,,,,,,,,,,,,70,143035,23,Female,1,2024/02/20_11:50:57,YZ,None,
,,,,,,practice_main,0,3,3,361,6,F,0,right,0.6807401710102567,1,0,,,,,,,,,,,,,,,,,,,,,1,,,,,,,,,,,,,,,,,,,,,,,,,,,,,,,,,,,,,,,,,,,,,,70,143035,23,Female,1,2024/02/20_11:50:57,YZ,None,
,,,,,,practice_main,0,3,3,361,7,Q,0,right,0.30134626300423406,1,0,,,,,,,,,,,,,,,,,,,,,1,,,,,,,,,,,,,,,,,,,,,,,,,,,,,,,,,,,,,,,,,,,,,,70,143035,23,Female,1,2024/02/20_11:50:57,YZ,None,
,,,,,,practice_main,0,3,3,361,8,C,1,right,0.813140658006887,0,0,,,,,,,,,,,,,,,,,,,,,1,,,,,,,,,,,,,,,,,,,,,,,,,,,,,,,,,,,,,,,,,,,,,,70,143035,23,Female,1,2024/02/20_11:50:57,YZ,None,
,,,,,,practice_main,0,3,3,361,9,S,0,right,nan,0,1,,,,,,,,,,,,,,,,,,,,,1,,,,,,,,,,,,,,,,,,,,,,,,,,,,,,,,,,,,,,,,,,,,,,70,143035,23,Female,1,2024/02/20_11:50:57,YZ,None,
,,,,,,practice_main,0,3,3,361,10,F,0,right,nan,0,1,,,,,,,,,,,,,,,,,,,,,1,,,,,,,,,,,,,,,,,,,,,,,,,,,,,,,,,,,,,,,,,,,,,,70,143035,23,Female,1,2024/02/20_11:50:57,YZ,None,
,,,,,,practice_main,0,3,3,361,11,S,0,right,0.0,1,0,,,,,,,,,,,,,,,,,,,,,1,,,,,,,,,,,,,,,,,,,,,,,,,,,,,,,,,,,,,,,,,,,,,,70,143035,23,Female,1,2024/02/20_11:50:57,YZ,None,
,,,,,,practice_main,0,3,3,361,12,S,1,right,0.21724069799529389,0,0,,,,,,,,,,,,,,,,,,,,,1,,,,,,,,,,,,,,,,,,,,,,,,,,,,,,,,,,,,,,,,,,,,,,70,143035,23,Female,1,2024/02/20_11:50:57,YZ,None,
,,,,,,practice_main,0,3,3,361,13,V,0,right,0.4361491669988027,1,0,,,,,,,,,,,,,,,,,,,,,1,,,,,,,,,,,,,,,,,,,,,,,,,,,,,,,,,,,,,,,,,,,,,,70,143035,23,Female,1,2024/02/20_11:50:57,YZ,None,
,,,,,,practice_main,0,3,3,361,14,S,1,right,nan,0,1,,,,,,,,,,,,,,,,,,,,,1,,,,,,,,,,,,,,,,,,,,,,,,,,,,,,,,,,,,,,,,,,,,,,70,143035,23,Female,1,2024/02/20_11:50:57,YZ,None,
,,,,,,practice_main,0,3,3,361,15,V,0,right,0.042980865997378714,1,0,,,,,,,,,,,,,,,,,,,,,1,,,,,,,,,,,,,,,,,,,,,,,,,,,,,,,,,,,,,,,,,,,,,,70,143035,23,Female,1,2024/02/20_11:50:57,YZ,None,
,,,,,,practice_main,0,3,3,361,16,V,1,right,0.512505828999565,0,0,,,,,,,,,,,,,,,,,,,,,1,,,,,,,,,,,,,,,,,,,,,,,,,,,,,,,,,,,,,,,,,,,,,,70,143035,23,Female,1,2024/02/20_11:50:57,YZ,None,
,,,,,,practice_main,0,3,3,361,17,J,0,right,nan,0,1,,,,,,,,,,,,,,,,,,,,,1,,,,,,,,,,,,,,,,,,,,,,,,,,,,,,,,,,,,,,,,,,,,,,70,143035,23,Female,1,2024/02/20_11:50:57,YZ,None,
,,,,,,practice_main,0,3,3,361,18,J,0,right,nan,0,1,,,,,,,,,,,,,,,,,,,,,1,,,,,,,,,,,,,,,,,,,,,,,,,,,,,,,,,,,,,,,,,,,,,,70,143035,23,Female,1,2024/02/20_11:50:57,YZ,None,
,,,,,,practice_main,0,3,3,361,,,,,,,,0.8,0.2,0.0,1.0,0.2777777777777778,0.7222222222222222,0.4593577815394383,1,0,1,4,5,9,10,5,13,0,,,,1,,,,,,,,,,,,,,,,,,,,,,,,,,,,,,,,,,,,,,,,,,,,,,70,143035,23,Female,1,2024/02/20_11:50:57,YZ,None,
,,,,,240220_131922,PRACTICE,0,3,3,361,,,,,,,,,,,,,,,,,,,,,,,,,,,,1,2,4,3,cue1.png,hard,B,22,0.7334702190128155,0,933.5046421290026,934.2550173570053,,,,,,,,,,,,,,,,,,,,,,,,,,,,,,,,,,,70,143035,23,Female,1,2024/02/20_11:50:57,YZ,None,
-1,./instructions/inst_prac_end/Slide56.png,left,10.09486578599899,962.3553269069962,972.4501926929952,,,,,,,,,,,,,,,,,,,,,,,,,,,,,,,,,1,,,,,,,,,,,,,,,,,,,,,,,,,,,,,,,,,,,,,,,,,,,,,,70,143035,23,Female,1,2024/02/20_11:50:57,YZ,None,
1,./instructions/inst_test/Slide57.png,right,93.99645483700442,972.4775808209961,1066.4740356580005,,,,,,,,,,,,,,,,,,,,,,,,,,,,,,,,,1,,,,,,,,,,,,,,,,,,,,,,,,,,,,,,,,,,,,,,,,,,,,,,70,143035,23,Female,1,2024/02/20_11:50:57,YZ,None,
,,,,,,test,1,1,1,361,1,X,0,right,0.5256355309975334,1,0,,,,,,,,,,,,,,,,,,,,,1,,,,,,,,,,,,,,,,,,,,,,,,,,,,,,,,,,,,,,,,,,,,,,70,143035,23,Female,1,2024/02/20_11:50:57,YZ,None,
,,,,,,test,1,1,1,361,2,X,1,left,0.5238998800050467,1,0,,,,,,,,,,,,,,,,,,,,,1,,,,,,,,,,,,,,,,,,,,,,,,,,,,,,,,,,,,,,,,,,,,,,70,143035,23,Female,1,2024/02/20_11:50:57,YZ,None,
,,,,,,test,1,1,1,361,3,Q,0,right,0.8911620629951358,1,0,,,,,,,,,,,,,,,,,,,,,1,,,,,,,,,,,,,,,,,,,,,,,,,,,,,,,,,,,,,,,,,,,,,,70,143035,23,Female,1,2024/02/20_11:50:57,YZ,None,
,,,,,,test,1,1,1,361,4,Q,1,left,0.6823579320043791,1,0,,,,,,,,,,,,,,,,,,,,,1,,,,,,,,,,,,,,,,,,,,,,,,,,,,,,,,,,,,,,,,,,,,,,70,143035,23,Female,1,2024/02/20_11:50:57,YZ,None,
,,,,,,test,1,1,1,361,5,V,0,right,0.6414918900118209,1,0,,,,,,,,,,,,,,,,,,,,,1,,,,,,,,,,,,,,,,,,,,,,,,,,,,,,,,,,,,,,,,,,,,,,70,143035,23,Female,1,2024/02/20_11:50:57,YZ,None,
,,,,,,test,1,1,1,361,6,N,0,right,0.38064627700077835,1,0,,,,,,,,,,,,,,,,,,,,,1,,,,,,,,,,,,,,,,,,,,,,,,,,,,,,,,,,,,,,,,,,,,,,70,143035,23,Female,1,2024/02/20_11:50:57,YZ,None,
,,,,,,test,1,1,1,361,7,N,1,right,0.41637942800298333,0,0,,,,,,,,,,,,,,,,,,,,,1,,,,,,,,,,,,,,,,,,,,,,,,,,,,,,,,,,,,,,,,,,,,,,70,143035,23,Female,1,2024/02/20_11:50:57,YZ,None,
,,,,,,test,1,1,1,361,8,V,0,right,0.0,1,0,,,,,,,,,,,,,,,,,,,,,1,,,,,,,,,,,,,,,,,,,,,,,,,,,,,,,,,,,,,,,,,,,,,,70,143035,23,Female,1,2024/02/20_11:50:57,YZ,None,
,,,,,,test,1,1,1,361,9,X,0,right,nan,0,1,,,,,,,,,,,,,,,,,,,,,1,,,,,,,,,,,,,,,,,,,,,,,,,,,,,,,,,,,,,,,,,,,,,,70,143035,23,Female,1,2024/02/20_11:50:57,YZ,None,
,,,,,,test,1,1,1,361,10,F,0,right,0.5743699290032964,1,0,,,,,,,,,,,,,,,,,,,,,1,,,,,,,,,,,,,,,,,,,,,,,,,,,,,,,,,,,,,,,,,,,,,,70,143035,23,Female,1,2024/02/20_11:50:57,YZ,None,
,,,,,,test,1,1,1,361,11,Q,0,right,0.4750439070048742,1,0,,,,,,,,,,,,,,,,,,,,,1,,,,,,,,,,,,,,,,,,,,,,,,,,,,,,,,,,,,,,,,,,,,,,70,143035,23,Female,1,2024/02/20_11:50:57,YZ,None,
,,,,,,test,1,1,1,361,12,Q,1,left,0.44299738499103114,1,0,,,,,,,,,,,,,,,,,,,,,1,,,,,,,,,,,,,,,,,,,,,,,,,,,,,,,,,,,,,,,,,,,,,,70,143035,23,Female,1,2024/02/20_11:50:57,YZ,None,
,,,,,,test,1,1,1,361,13,N,0,right,0.44156939699314535,1,0,,,,,,,,,,,,,,,,,,,,,1,,,,,,,,,,,,,,,,,,,,,,,,,,,,,,,,,,,,,,,,,,,,,,70,143035,23,Female,1,2024/02/20_11:50:57,YZ,None,
,,,,,,test,1,1,1,361,14,S,0,right,0.7172804409929086,1,0,,,,,,,,,,,,,,,,,,,,,1,,,,,,,,,,,,,,,,,,,,,,,,,,,,,,,,,,,,,,,,,,,,,,70,143035,23,Female,1,2024/02/20_11:50:57,YZ,None,
,,,,,,test,1,1,1,361,15,S,1,left,0.5422007590095745,1,0,,,,,,,,,,,,,,,,,,,,,1,,,,,,,,,,,,,,,,,,,,,,,,,,,,,,,,,,,,,,,,,,,,,,70,143035,23,Female,1,2024/02/20_11:50:57,YZ,None,
,,,,,,test,1,1,1,361,16,V,0,right,0.39401459200598765,1,0,,,,,,,,,,,,,,,,,,,,,1,,,,,,,,,,,,,,,,,,,,,,,,,,,,,,,,,,,,,,,,,,,,,,70,143035,23,Female,1,2024/02/20_11:50:57,YZ,None,
,,,,,,test,1,1,1,361,17,C,0,right,0.4759941090014763,1,0,,,,,,,,,,,,,,,,,,,,,1,,,,,,,,,,,,,,,,,,,,,,,,,,,,,,,,,,,,,,,,,,,,,,70,143035,23,Female,1,2024/02/20_11:50:57,YZ,None,
,,,,,,test,1,1,1,361,18,C,1,left,0.5503858260053676,1,0,,,,,,,,,,,,,,,,,,,,,1,,,,,,,,,,,,,,,,,,,,,,,,,,,,,,,,,,,,,,,,,,,,,,70,143035,23,Female,1,2024/02/20_11:50:57,YZ,None,
,,,,,,Test,1,1,1,361,,,,,,,,0.9583333333333334,0.8333333333333334,0.0,1.0,0.05555555555555555,0.9444444444444444,0.5103193732956082,5,0,0,1,1,11,16,6,12,0,,,,1,,,,,,,,,,,,,,,,,,,,,,,,,,,,,,,,,,,,,,,,,,,,,,70,143035,23,Female,1,2024/02/20_11:50:57,YZ,None,
,,,,,240220_132140,TEST,1,1,1,361,,,,,,,,,,,,,,,,,,,,,,,,,,,,1,1,1,1,cue2.png,easy,B,31,1.634821052008192,0,1071.5293726700038,1073.180172250999,,,,,,,,,,,,,,,,,,,,,,,,,,,,,,,,,,,70,143035,23,Female,1,2024/02/20_11:50:57,YZ,None,
,,,,,,test,1,2,3,361,1,C,0,right,0.4446660630055703,1,0,,,,,,,,,,,,,,,,,,,,,1,,,,,,,,,,,,,,,,,,,,,,,,,,,,,,,,,,,,,,,,,,,,,,70,143035,23,Female,1,2024/02/20_11:50:57,YZ,None,
,,,,,,test,1,2,3,361,2,F,0,right,0.3085136150039034,1,0,,,,,,,,,,,,,,,,,,,,,1,,,,,,,,,,,,,,,,,,,,,,,,,,,,,,,,,,,,,,,,,,,,,,70,143035,23,Female,1,2024/02/20_11:50:57,YZ,None,
,,,,,,test,1,2,3,361,3,V,0,right,0.2844522569939727,1,0,,,,,,,,,,,,,,,,,,,,,1,,,,,,,,,,,,,,,,,,,,,,,,,,,,,,,,,,,,,,,,,,,,,,70,143035,23,Female,1,2024/02/20_11:50:57,YZ,None,
,,,,,,test,1,2,3,361,4,Q,0,right,0.7038712040084647,1,0,,,,,,,,,,,,,,,,,,,,,1,,,,,,,,,,,,,,,,,,,,,,,,,,,,,,,,,,,,,,,,,,,,,,70,143035,23,Female,1,2024/02/20_11:50:57,YZ,None,
,,,,,,test,1,2,3,361,5,F,1,right,0.6401781729946379,0,0,,,,,,,,,,,,,,,,,,,,,1,,,,,,,,,,,,,,,,,,,,,,,,,,,,,,,,,,,,,,,,,,,,,,70,143035,23,Female,1,2024/02/20_11:50:57,YZ,None,
,,,,,,test,1,2,3,361,6,S,0,right,0.4980244720063638,1,0,,,,,,,,,,,,,,,,,,,,,1,,,,,,,,,,,,,,,,,,,,,,,,,,,,,,,,,,,,,,,,,,,,,,70,143035,23,Female,1,2024/02/20_11:50:57,YZ,None,
,,,,,,test,1,2,3,361,7,V,0,right,0.4384770119941095,1,0,,,,,,,,,,,,,,,,,,,,,1,,,,,,,,,,,,,,,,,,,,,,,,,,,,,,,,,,,,,,,,,,,,,,70,143035,23,Female,1,2024/02/20_11:50:57,YZ,None,
,,,,,,test,1,2,3,361,8,X,0,right,0.41633580399502534,1,0,,,,,,,,,,,,,,,,,,,,,1,,,,,,,,,,,,,,,,,,,,,,,,,,,,,,,,,,,,,,,,,,,,,,70,143035,23,Female,1,2024/02/20_11:50:57,YZ,None,
,,,,,,test,1,2,3,361,9,S,1,left,0.4572738080023555,1,0,,,,,,,,,,,,,,,,,,,,,1,,,,,,,,,,,,,,,,,,,,,,,,,,,,,,,,,,,,,,,,,,,,,,70,143035,23,Female,1,2024/02/20_11:50:57,YZ,None,
,,,,,,test,1,2,3,361,10,F,0,right,0.34526003000792116,1,0,,,,,,,,,,,,,,,,,,,,,1,,,,,,,,,,,,,,,,,,,,,,,,,,,,,,,,,,,,,,,,,,,,,,70,143035,23,Female,1,2024/02/20_11:50:57,YZ,None,
,,,,,,test,1,2,3,361,11,X,1,right,0.4403966700047022,0,0,,,,,,,,,,,,,,,,,,,,,1,,,,,,,,,,,,,,,,,,,,,,,,,,,,,,,,,,,,,,,,,,,,,,70,143035,23,Female,1,2024/02/20_11:50:57,YZ,None,
,,,,,,test,1,2,3,361,12,S,1,left,0.47932741600379813,1,0,,,,,,,,,,,,,,,,,,,,,1,,,,,,,,,,,,,,,,,,,,,,,,,,,,,,,,,,,,,,,,,,,,,,70,143035,23,Female,1,2024/02/20_11:50:57,YZ,None,
,,,,,,test,1,2,3,361,13,X,0,left,nan,0,1,,,,,,,,,,,,,,,,,,,,,1,,,,,,,,,,,,,,,,,,,,,,,,,,,,,,,,,,,,,,,,,,,,,,70,143035,23,Female,1,2024/02/20_11:50:57,YZ,None,
,,,,,,test,1,2,3,361,14,V,0,right,0.006066389003535733,1,0,,,,,,,,,,,,,,,,,,,,,1,,,,,,,,,,,,,,,,,,,,,,,,,,,,,,,,,,,,,,,,,,,,,,70,143035,23,Female,1,2024/02/20_11:50:57,YZ,None,
,,,,,,test,1,2,3,361,15,Q,0,right,nan,0,1,,,,,,,,,,,,,,,,,,,,,1,,,,,,,,,,,,,,,,,,,,,,,,,,,,,,,,,,,,,,,,,,,,,,70,143035,23,Female,1,2024/02/20_11:50:57,YZ,None,
,,,,,,test,1,2,3,361,16,X,1,right,0.3866382800042629,0,0,,,,,,,,,,,,,,,,,,,,,1,,,,,,,,,,,,,,,,,,,,,,,,,,,,,,,,,,,,,,,,,,,,,,70,143035,23,Female,1,2024/02/20_11:50:57,YZ,None,
,,,,,,test,1,2,3,361,17,V,1,right,nan,0,1,,,,,,,,,,,,,,,,,,,,,1,,,,,,,,,,,,,,,,,,,,,,,,,,,,,,,,,,,,,,,,,,,,,,70,143035,23,Female,1,2024/02/20_11:50:57,YZ,None,
,,,,,,test,1,2,3,361,18,S,0,right,nan,0,1,,,,,,,,,,,,,,,,,,,,,1,,,,,,,,,,,,,,,,,,,,,,,,,,,,,,,,,,,,,,,,,,,,,,70,143035,23,Female,1,2024/02/20_11:50:57,YZ,None,
,,,,,,Test,1,2,3,361,,,,,,,,0.8333333333333334,0.3333333333333333,0.0,1.0,0.2222222222222222,0.7777777777777778,0.41782008521633024,2,0,1,3,4,9,11,6,12,0,,,,1,,,,,,,,,,,,,,,,,,,,,,,,,,,,,,,,,,,,,,,,,,,,,,70,143035,23,Female,1,2024/02/20_11:50:57,YZ,None,
,,,,,240220_132209,TEST,1,2,3,361,,,,,,,,,,,,,,,,,,,,,,,,,,,,1,2,2,2,cue1.png,hard,B,54,1.004518874004134,0,1101.4680070049944,1102.4924369509972,,,,,,,,,,,,,,,,,,,,,,,,,,,,,,,,,,,70,143035,23,Female,1,2024/02/20_11:50:57,YZ,None,
,,,,,,test,1,3,3,361,1,V,0,None,nan,0,1,,,,,,,,,,,,,,,,,,,,,1,,,,,,,,,,,,,,,,,,,,,,,,,,,,,,,,,,,,,,,,,,,,,,70,143035,23,Female,1,2024/02/20_11:50:57,YZ,None,
,,,,,,test,1,3,3,361,2,N,0,None,nan,0,1,,,,,,,,,,,,,,,,,,,,,1,,,,,,,,,,,,,,,,,,,,,,,,,,,,,,,,,,,,,,,,,,,,,,70,143035,23,Female,1,2024/02/20_11:50:57,YZ,None,
,,,,,,test,1,3,3,361,3,N,0,right,0.6308696159976535,1,0,,,,,,,,,,,,,,,,,,,,,1,,,,,,,,,,,,,,,,,,,,,,,,,,,,,,,,,,,,,,,,,,,,,,70,143035,23,Female,1,2024/02/20_11:50:57,YZ,None,
,,,,,,test,1,3,3,361,4,V,1,left,0.7321632850071182,1,0,,,,,,,,,,,,,,,,,,,,,1,,,,,,,,,,,,,,,,,,,,,,,,,,,,,,,,,,,,,,,,,,,,,,70,143035,23,Female,1,2024/02/20_11:50:57,YZ,None,
,,,,,,test,1,3,3,361,5,N,1,right,0.5413360070087947,0,0,,,,,,,,,,,,,,,,,,,,,1,,,,,,,,,,,,,,,,,,,,,,,,,,,,,,,,,,,,,,,,,,,,,,70,143035,23,Female,1,2024/02/20_11:50:57,YZ,None,
,,,,,,test,1,3,3,361,6,Q,0,right,nan,0,1,,,,,,,,,,,,,,,,,,,,,1,,,,,,,,,,,,,,,,,,,,,,,,,,,,,,,,,,,,,,,,,,,,,,70,143035,23,Female,1,2024/02/20_11:50:57,YZ,None,
,,,,,,test,1,3,3,361,7,V,1,right,nan,0,1,,,,,,,,,,,,,,,,,,,,,1,,,,,,,,,,,,,,,,,,,,,,,,,,,,,,,,,,,,,,,,,,,,,,70,143035,23,Female,1,2024/02/20_11:50:57,YZ,None,
,,,,,,test,1,3,3,361,8,X,0,right,nan,0,1,,,,,,,,,,,,,,,,,,,,,1,,,,,,,,,,,,,,,,,,,,,,,,,,,,,,,,,,,,,,,,,,,,,,70,143035,23,Female,1,2024/02/20_11:50:57,YZ,None,
,,,,,,test,1,3,3,361,9,Q,1,right,nan,0,1,,,,,,,,,,,,,,,,,,,,,1,,,,,,,,,,,,,,,,,,,,,,,,,,,,,,,,,,,,,,,,,,,,,,70,143035,23,Female,1,2024/02/20_11:50:57,YZ,None,
,,,,,,test,1,3,3,361,10,F,0,right,0.027137545999721624,1,0,,,,,,,,,,,,,,,,,,,,,1,,,,,,,,,,,,,,,,,,,,,,,,,,,,,,,,,,,,,,,,,,,,,,70,143035,23,Female,1,2024/02/20_11:50:57,YZ,None,
,,,,,,test,1,3,3,361,11,F,0,right,nan,0,1,,,,,,,,,,,,,,,,,,,,,1,,,,,,,,,,,,,,,,,,,,,,,,,,,,,,,,,,,,,,,,,,,,,,70,143035,23,Female,1,2024/02/20_11:50:57,YZ,None,
,,,,,,test,1,3,3,361,12,J,0,right,0.16848458000458777,1,0,,,,,,,,,,,,,,,,,,,,,1,,,,,,,,,,,,,,,,,,,,,,,,,,,,,,,,,,,,,,,,,,,,,,70,143035,23,Female,1,2024/02/20_11:50:57,YZ,None,
