Instruction,Stimulus,Key,RT,START,END,Phase,Block,TrialN,NbackLevel,ISI,LetterN,Letter,Letter_isSame,Letter_Resp,Letter_RT,Letter_Accuracy,Letter_Timeout,Trial_A_measure,Trial_HR,Trial_FAR,Trial_CDR,Trial_MSR,Trial_ACC,Trial_RT,Trial_HitsCount,Trial_FAsCount,Trial_SameNoRespCount,Trial_DiffNoRespCount,Trial_NoRespCount,Trial_CDsCount,Trial_CorrectRespCount,Trial_SameLetterCount,Trial_DiffLetterCount,Trial_InvalidLetterCount,TrialCountCali,CaliEnd_A_measure,ISI_calibrated,Run,TrialIndex,TrialNumber_total,TrialNumber_valid,CueLearning,TrialDemandLearning,CueMapping,OnlineRating,OnlineRatingRT,OnlineRatingTimeOut,CueSTART,RatingSTART,OfflineRatingTimePoint,OfflineRatingQuesIndex,CueFigure,TrialDemand,OfflineRating,OfflineRatingRT,CueStart,OfflineRatingStart,PhaseType,CueLeft,CueDemandLeft,CueRight,CueDemandRight,Choice,ChoiceDemand,TaskDemand,ChoiceRT,ChoiceTimeOut,ChoiceSTART,CueCheck,CueDemandCheck,CorrectAnswer,Answer,AnswerDemand,AnswerRT,AnswerACC,AnswerTimeOut,CheckSTART,DemandRatingQuesIndex,QuesTLX,DemandLevel,DemandRating,DemandRatingRT,QuesStart,PID,SONA,Age,Gender,Run,TIME,EXPERIMENTER,frameRate
1,./instructions/inst_begin/Slide2.png,right,45.94025719,0.600665333,46.54092252,,,,,,,,,,,,,,,,,,,,,,,,,,,,,,,,,1,,,,,,,,,,,,,,,,,,,,,,,,,,,,,,,,,,,,,,,,,,,,,,43,149005,22,Female,1,2024/02/09_12:46:08,JV,59.81815544
2,./instructions/inst_begin/Slide3.png,right,7.772617438,46.58404037,54.35665781,,,,,,,,,,,,,,,,,,,,,,,,,,,,,,,,,1,,,,,,,,,,,,,,,,,,,,,,,,,,,,,,,,,,,,,,,,,,,,,,43,149005,22,Female,1,2024/02/09_12:46:08,JV,59.81815544
3,./instructions/inst_begin/Slide4.png,right,5.27758833,54.4070983,59.68468663,,,,,,,,,,,,,,,,,,,,,,,,,,,,,,,,,1,,,,,,,,,,,,,,,,,,,,,,,,,,,,,,,,,,,,,,,,,,,,,,43,149005,22,Female,1,2024/02/09_12:46:08,JV,59.81815544
1,./instructions/inst_prac_2/Slide6.png,right,12.22757446,59.80101322,72.02858768,,,,,,,,,,,,,,,,,,,,,,,,,,,,,,,,,1,,,,,,,,,,,,,,,,,,,,,,,,,,,,,,,,,,,,,,,,,,,,,,43,149005,22,Female,1,2024/02/09_12:46:08,JV,59.81815544
2,./instructions/inst_prac_2/Slide7.png,right,11.60640136,72.0864067,83.69280806,,,,,,,,,,,,,,,,,,,,,,,,,,,,,,,,,1,,,,,,,,,,,,,,,,,,,,,,,,,,,,,,,,,,,,,,,,,,,,,,43,149005,22,Female,1,2024/02/09_12:46:08,JV,59.81815544
3,./instructions/inst_prac_2/Slide8.png,right,15.22925772,83.74347283,98.97273056,,,,,,,,,,,,,,,,,,,,,,,,,,,,,,,,,1,,,,,,,,,,,,,,,,,,,,,,,,,,,,,,,,,,,,,,,,,,,,,,43,149005,22,Female,1,2024/02/09_12:46:08,JV,59.81815544
4,./instructions/inst_prac_2/Slide9.png,right,4.678569734,99.02199222,103.7005619,,,,,,,,,,,,,,,,,,,,,,,,,,,,,,,,,1,,,,,,,,,,,,,,,,,,,,,,,,,,,,,,,,,,,,,,,,,,,,,,43,149005,22,Female,1,2024/02/09_12:46:08,JV,59.81815544
5,./instructions/inst_prac_2/Slide10.png,right,0.891684913,103.7531174,104.6448023,,,,,,,,,,,,,,,,,,,,,,,,,,,,,,,,,1,,,,,,,,,,,,,,,,,,,,,,,,,,,,,,,,,,,,,,,,,,,,,,43,149005,22,Female,1,2024/02/09_12:46:08,JV,59.81815544
6,./instructions/inst_prac_2/Slide11.png,right,1.354504772,104.7541138,106.1086185,,,,,,,,,,,,,,,,,,,,,,,,,,,,,,,,,1,,,,,,,,,,,,,,,,,,,,,,,,,,,,,,,,,,,,,,,,,,,,,,43,149005,22,Female,1,2024/02/09_12:46:08,JV,59.81815544
7,./instructions/inst_prac_2/Slide12.png,right,0.564693454,106.1999399,106.7646333,,,,,,,,,,,,,,,,,,,,,,,,,,,,,,,,,1,,,,,,,,,,,,,,,,,,,,,,,,,,,,,,,,,,,,,,,,,,,,,,43,149005,22,Female,1,2024/02/09_12:46:08,JV,59.81815544
8,./instructions/inst_prac_2/Slide13.png,right,0.684285256,106.8005278,107.4848131,,,,,,,,,,,,,,,,,,,,,,,,,,,,,,,,,1,,,,,,,,,,,,,,,,,,,,,,,,,,,,,,,,,,,,,,,,,,,,,,43,149005,22,Female,1,2024/02/09_12:46:08,JV,59.81815544
7,./instructions/inst_prac_2/Slide14.png,left,30.70977233,107.5429357,138.252708,,,,,,,,,,,,,,,,,,,,,,,,,,,,,,,,,1,,,,,,,,,,,,,,,,,,,,,,,,,,,,,,,,,,,,,,,,,,,,,,43,149005,22,Female,1,2024/02/09_12:46:08,JV,59.81815544
6,./instructions/inst_prac_2/Slide13.png,left,2.536283518,138.2845845,140.820868,,,,,,,,,,,,,,,,,,,,,,,,,,,,,,,,,1,,,,,,,,,,,,,,,,,,,,,,,,,,,,,,,,,,,,,,,,,,,,,,43,149005,22,Female,1,2024/02/09_12:46:08,JV,59.81815544
7,./instructions/inst_prac_2/Slide12.png,right,0.984568995,140.8519635,141.8365325,,,,,,,,,,,,,,,,,,,,,,,,,,,,,,,,,1,,,,,,,,,,,,,,,,,,,,,,,,,,,,,,,,,,,,,,,,,,,,,,43,149005,22,Female,1,2024/02/09_12:46:08,JV,59.81815544
6,./instructions/inst_prac_2/Slide13.png,left,0.655592591,141.8689314,142.524524,,,,,,,,,,,,,,,,,,,,,,,,,,,,,,,,,1,,,,,,,,,,,,,,,,,,,,,,,,,,,,,,,,,,,,,,,,,,,,,,43,149005,22,Female,1,2024/02/09_12:46:08,JV,59.81815544
7,./instructions/inst_prac_2/Slide12.png,right,0.661918675,142.5588632,143.2207819,,,,,,,,,,,,,,,,,,,,,,,,,,,,,,,,,1,,,,,,,,,,,,,,,,,,,,,,,,,,,,,,,,,,,,,,,,,,,,,,43,149005,22,Female,1,2024/02/09_12:46:08,JV,59.81815544
6,./instructions/inst_prac_2/Slide13.png,left,0.743716426,143.2532276,143.996944,,,,,,,,,,,,,,,,,,,,,,,,,,,,,,,,,1,,,,,,,,,,,,,,,,,,,,,,,,,,,,,,,,,,,,,,,,,,,,,,43,149005,22,Female,1,2024/02/09_12:46:08,JV,59.81815544
7,./instructions/inst_prac_2/Slide12.png,right,1.549838093,144.0308698,145.5807079,,,,,,,,,,,,,,,,,,,,,,,,,,,,,,,,,1,,,,,,,,,,,,,,,,,,,,,,,,,,,,,,,,,,,,,,,,,,,,,,43,149005,22,Female,1,2024/02/09_12:46:08,JV,59.81815544
8,./instructions/inst_prac_2/Slide13.png,right,1.581535018,145.6151903,147.1967253,,,,,,,,,,,,,,,,,,,,,,,,,,,,,,,,,1,,,,,,,,,,,,,,,,,,,,,,,,,,,,,,,,,,,,,,,,,,,,,,43,149005,22,Female,1,2024/02/09_12:46:08,JV,59.81815544
9,./instructions/inst_prac_2/Slide14.png,right,4.982111049,147.2306586,152.2127697,,,,,,,,,,,,,,,,,,,,,,,,,,,,,,,,,1,,,,,,,,,,,,,,,,,,,,,,,,,,,,,,,,,,,,,,,,,,,,,,43,149005,22,Female,1,2024/02/09_12:46:08,JV,59.81815544
10,./instructions/inst_prac_2/Slide15.png,right,16.57561943,152.3252094,168.9008289,,,,,,,,,,,,,,,,,,,,,,,,,,,,,,,,,1,,,,,,,,,,,,,,,,,,,,,,,,,,,,,,,,,,,,,,,,,,,,,,43,149005,22,Female,1,2024/02/09_12:46:08,JV,59.81815544
,,,,,,practice,0,32,2,2583,1,X,0,right,3.229387599,1,0,,,,,,,,,,,,,,,,,,,,,1,,,,,,,,,,,,,,,,,,,,,,,,,,,,,,,,,,,,,,,,,,,,,,43,149005,22,Female,1,2024/02/09_12:46:08,JV,59.81815544
,,,,,,practice,0,32,2,2583,2,J,0,right,5.894661828,1,0,,,,,,,,,,,,,,,,,,,,,1,,,,,,,,,,,,,,,,,,,,,,,,,,,,,,,,,,,,,,,,,,,,,,43,149005,22,Female,1,2024/02/09_12:46:08,JV,59.81815544
,,,,,,practice,0,32,2,2583,3,V,0,right,3.499031964,1,0,,,,,,,,,,,,,,,,,,,,,1,,,,,,,,,,,,,,,,,,,,,,,,,,,,,,,,,,,,,,,,,,,,,,43,149005,22,Female,1,2024/02/09_12:46:08,JV,59.81815544
,,,,,,practice,0,32,2,2583,4,J,1,left,1.991074312,1,0,,,,,,,,,,,,,,,,,,,,,1,,,,,,,,,,,,,,,,,,,,,,,,,,,,,,,,,,,,,,,,,,,,,,43,149005,22,Female,1,2024/02/09_12:46:08,JV,59.81815544
,,,,,,practice,0,32,2,2583,5,Q,0,right,1.297419919,1,0,,,,,,,,,,,,,,,,,,,,,1,,,,,,,,,,,,,,,,,,,,,,,,,,,,,,,,,,,,,,,,,,,,,,43,149005,22,Female,1,2024/02/09_12:46:08,JV,59.81815544
,,,,,,practice,0,32,2,2583,6,J,1,left,1.162323774,1,0,,,,,,,,,,,,,,,,,,,,,1,,,,,,,,,,,,,,,,,,,,,,,,,,,,,,,,,,,,,,,,,,,,,,43,149005,22,Female,1,2024/02/09_12:46:08,JV,59.81815544
,,,,,,practice,0,32,2,2583,,,,,,,,1,1,0,1,0,1,2.845649899,2,0,0,0,0,4,6,2,4,0,,,,1,,,,,,,,,,,,,,,,,,,,,,,,,,,,,,,,,,,,,,,,,,,,,,43,149005,22,Female,1,2024/02/09_12:46:08,JV,59.81815544
1,./instructions/inst_to_cali/Slide20.png,right,1.222893001,192.461583,193.684476,,,,,,,,,,,,,,,,,,,,,,,,,,,,,,,,,1,,,,,,,,,,,,,,,,,,,,,,,,,,,,,,,,,,,,,,,,,,,,,,43,149005,22,Female,1,2024/02/09_12:46:08,JV,59.81815544
1,./instructions/inst_cali/Slide22.png,right,4.826746862,193.7538015,198.5805483,,,,,,,,,,,,,,,,,,,,,,,,,,,,,,,,,1,,,,,,,,,,,,,,,,,,,,,,,,,,,,,,,,,,,,,,,,,,,,,,43,149005,22,Female,1,2024/02/09_12:46:08,JV,59.81815544
,,,,,,calibration,0,34,2,583,1,Q,0,None,nan,0,1,,,,,,,,,,,,,,,,,,,,,1,,,,,,,,,,,,,,,,,,,,,,,,,,,,,,,,,,,,,,,,,,,,,,43,149005,22,Female,1,2024/02/09_12:46:08,JV,59.81815544
,,,,,,calibration,0,34,2,583,2,X,0,None,nan,0,1,,,,,,,,,,,,,,,,,,,,,1,,,,,,,,,,,,,,,,,,,,,,,,,,,,,,,,,,,,,,,,,,,,,,43,149005,22,Female,1,2024/02/09_12:46:08,JV,59.81815544
,,,,,,calibration,0,34,2,583,3,Q,1,None,nan,0,1,,,,,,,,,,,,,,,,,,,,,1,,,,,,,,,,,,,,,,,,,,,,,,,,,,,,,,,,,,,,,,,,,,,,43,149005,22,Female,1,2024/02/09_12:46:08,JV,59.81815544
,,,,,,calibration,0,34,2,583,4,F,0,left,0.642231006,0,0,,,,,,,,,,,,,,,,,,,,,1,,,,,,,,,,,,,,,,,,,,,,,,,,,,,,,,,,,,,,,,,,,,,,43,149005,22,Female,1,2024/02/09_12:46:08,JV,59.81815544
,,,,,,calibration,0,34,2,583,5,Q,1,left,nan,0,1,,,,,,,,,,,,,,,,,,,,,1,,,,,,,,,,,,,,,,,,,,,,,,,,,,,,,,,,,,,,,,,,,,,,43,149005,22,Female,1,2024/02/09_12:46:08,JV,59.81815544
,,,,,,calibration,0,34,2,583,6,N,0,left,nan,0,1,,,,,,,,,,,,,,,,,,,,,1,,,,,,,,,,,,,,,,,,,,,,,,,,,,,,,,,,,,,,,,,,,,,,43,149005,22,Female,1,2024/02/09_12:46:08,JV,59.81815544
,,,,,,calibration,0,34,2,583,7,C,0,right,0,1,0,,,,,,,,,,,,,,,,,,,,,1,,,,,,,,,,,,,,,,,,,,,,,,,,,,,,,,,,,,,,,,,,,,,,43,149005,22,Female,1,2024/02/09_12:46:08,JV,59.81815544
,,,,,,calibration,0,34,2,583,8,Q,0,right,0.157324454,1,0,,,,,,,,,,,,,,,,,,,,,1,,,,,,,,,,,,,,,,,,,,,,,,,,,,,,,,,,,,,,,,,,,,,,43,149005,22,Female,1,2024/02/09_12:46:08,JV,59.81815544
,,,,,,calibration,0,34,2,583,9,X,0,right,0.793595807,1,0,,,,,,,,,,,,,,,,,,,,,1,,,,,,,,,,,,,,,,,,,,,,,,,,,,,,,,,,,,,,,,,,,,,,43,149005,22,Female,1,2024/02/09_12:46:08,JV,59.81815544
,,,,,,calibration,0,34,2,583,10,N,0,right,0.478072287,1,0,,,,,,,,,,,,,,,,,,,,,1,,,,,,,,,,,,,,,,,,,,,,,,,,,,,,,,,,,,,,,,,,,,,,43,149005,22,Female,1,2024/02/09_12:46:08,JV,59.81815544
,,,,,,calibration,0,34,2,583,11,X,1,right,nan,0,1,,,,,,,,,,,,,,,,,,,,,1,,,,,,,,,,,,,,,,,,,,,,,,,,,,,,,,,,,,,,,,,,,,,,43,149005,22,Female,1,2024/02/09_12:46:08,JV,59.81815544
,,,,,,calibration,0,34,2,583,12,N,1,right,nan,0,1,,,,,,,,,,,,,,,,,,,,,1,,,,,,,,,,,,,,,,,,,,,,,,,,,,,,,,,,,,,,,,,,,,,,43,149005,22,Female,1,2024/02/09_12:46:08,JV,59.81815544
,,,,,,calibration,0,34,2,583,13,Q,0,right,1.490717318,1,0,,,,,,,,,,,,,,,,,,,,,1,,,,,,,,,,,,,,,,,,,,,,,,,,,,,,,,,,,,,,,,,,,,,,43,149005,22,Female,1,2024/02/09_12:46:08,JV,59.81815544
,,,,,,calibration,0,34,2,583,14,F,0,right,0.469619406,1,0,,,,,,,,,,,,,,,,,,,,,1,,,,,,,,,,,,,,,,,,,,,,,,,,,,,,,,,,,,,,,,,,,,,,43,149005,22,Female,1,2024/02/09_12:46:08,JV,59.81815544
,,,,,,calibration,0,34,2,583,15,Q,1,right,nan,0,1,,,,,,,,,,,,,,,,,,,,,1,,,,,,,,,,,,,,,,,,,,,,,,,,,,,,,,,,,,,,,,,,,,,,43,149005,22,Female,1,2024/02/09_12:46:08,JV,59.81815544
,,,,,,calibration,0,34,2,583,,,,,,,,0.225,0,0.1,0.857142857,0.533333333,0.366666667,0.575937183,0,1,5,3,8,6,6,5,10,0,,,,1,,,,,,,,,,,,,,,,,,,,,,,,,,,,,,,,,,,,,,,,,,,,,,43,149005,22,Female,1,2024/02/09_12:46:08,JV,59.81815544
,,,,,,Calibration,0,,2,583,,,,,,,,,,,,,,,,,,,,,,,,,1,,,1,,,,,,,,,,,,,,,,,,,,,,,,,,,,,,,,,,,,,,,,,,,,,,43,149005,22,Female,1,2024/02/09_12:46:08,JV,59.81815544
,,,,,,calibration,0,23,2,679,1,J,0,None,nan,0,1,,,,,,,,,,,,,,,,,,,,,1,,,,,,,,,,,,,,,,,,,,,,,,,,,,,,,,,,,,,,,,,,,,,,43,149005,22,Female,1,2024/02/09_12:46:08,JV,59.81815544
,,,,,,calibration,0,23,2,679,2,S,0,right,0.404159286,1,0,,,,,,,,,,,,,,,,,,,,,1,,,,,,,,,,,,,,,,,,,,,,,,,,,,,,,,,,,,,,,,,,,,,,43,149005,22,Female,1,2024/02/09_12:46:08,JV,59.81815544
,,,,,,calibration,0,23,2,679,3,F,0,right,0.399507088,1,0,,,,,,,,,,,,,,,,,,,,,1,,,,,,,,,,,,,,,,,,,,,,,,,,,,,,,,,,,,,,,,,,,,,,43,149005,22,Female,1,2024/02/09_12:46:08,JV,59.81815544
,,,,,,calibration,0,23,2,679,4,S,1,left,0.649095361,1,0,,,,,,,,,,,,,,,,,,,,,1,,,,,,,,,,,,,,,,,,,,,,,,,,,,,,,,,,,,,,,,,,,,,,43,149005,22,Female,1,2024/02/09_12:46:08,JV,59.81815544
,,,,,,calibration,0,23,2,679,5,Q,0,right,0.288007617,1,0,,,,,,,,,,,,,,,,,,,,,1,,,,,,,,,,,,,,,,,,,,,,,,,,,,,,,,,,,,,,,,,,,,,,43,149005,22,Female,1,2024/02/09_12:46:08,JV,59.81815544
,,,,,,calibration,0,23,2,679,6,C,0,right,0.375535318,1,0,,,,,,,,,,,,,,,,,,,,,1,,,,,,,,,,,,,,,,,,,,,,,,,,,,,,,,,,,,,,,,,,,,,,43,149005,22,Female,1,2024/02/09_12:46:08,JV,59.81815544
,,,,,,calibration,0,23,2,679,7,S,0,right,0.876875831,1,0,,,,,,,,,,,,,,,,,,,,,1,,,,,,,,,,,,,,,,,,,,,,,,,,,,,,,,,,,,,,,,,,,,,,43,149005,22,Female,1,2024/02/09_12:46:08,JV,59.81815544
,,,,,,calibration,0,23,2,679,8,X,0,right,0.52563656,1,0,,,,,,,,,,,,,,,,,,,,,1,,,,,,,,,,,,,,,,,,,,,,,,,,,,,,,,,,,,,,,,,,,,,,43,149005,22,Female,1,2024/02/09_12:46:08,JV,59.81815544
,,,,,,calibration,0,23,2,679,9,S,1,left,0.656638954,1,0,,,,,,,,,,,,,,,,,,,,,1,,,,,,,,,,,,,,,,,,,,,,,,,,,,,,,,,,,,,,,,,,,,,,43,149005,22,Female,1,2024/02/09_12:46:08,JV,59.81815544
,,,,,,calibration,0,23,2,679,10,C,0,right,1.67642505,1,0,,,,,,,,,,,,,,,,,,,,,1,,,,,,,,,,,,,,,,,,,,,,,,,,,,,,,,,,,,,,,,,,,,,,43,149005,22,Female,1,2024/02/09_12:46:08,JV,59.81815544
,,,,,,calibration,0,23,2,679,11,N,0,right,0.404452258,1,0,,,,,,,,,,,,,,,,,,,,,1,,,,,,,,,,,,,,,,,,,,,,,,,,,,,,,,,,,,,,,,,,,,,,43,149005,22,Female,1,2024/02/09_12:46:08,JV,59.81815544
,,,,,,calibration,0,23,2,679,12,C,1,right,0.341979897,0,0,,,,,,,,,,,,,,,,,,,,,1,,,,,,,,,,,,,,,,,,,,,,,,,,,,,,,,,,,,,,,,,,,,,,43,149005,22,Female,1,2024/02/09_12:46:08,JV,59.81815544
,,,,,,calibration,0,23,2,679,13,S,0,right,0.290635737,1,0,,,,,,,,,,,,,,,,,,,,,1,,,,,,,,,,,,,,,,,,,,,,,,,,,,,,,,,,,,,,,,,,,,,,43,149005,22,Female,1,2024/02/09_12:46:08,JV,59.81815544
,,,,,,calibration,0,23,2,679,14,C,1,left,0.926373836,1,0,,,,,,,,,,,,,,,,,,,,,1,,,,,,,,,,,,,,,,,,,,,,,,,,,,,,,,,,,,,,,,,,,,,,43,149005,22,Female,1,2024/02/09_12:46:08,JV,59.81815544
,,,,,,calibration,0,23,2,679,,,,,,,,0.9375,0.75,0,1,0.071428571,0.928571429,0.601178676,3,0,0,1,1,9,12,4,10,0,,,,1,,,,,,,,,,,,,,,,,,,,,,,,,,,,,,,,,,,,,,,,,,,,,,43,149005,22,Female,1,2024/02/09_12:46:08,JV,59.81815544
,,,,,,Calibration,0,,2,679,,,,,,,,,,,,,,,,,,,,,,,,,2,,,1,,,,,,,,,,,,,,,,,,,,,,,,,,,,,,,,,,,,,,,,,,,,,,43,149005,22,Female,1,2024/02/09_12:46:08,JV,59.81815544
,,,,,,calibration,0,26,2,583,1,C,0,right,0.279933462,1,0,,,,,,,,,,,,,,,,,,,,,1,,,,,,,,,,,,,,,,,,,,,,,,,,,,,,,,,,,,,,,,,,,,,,43,149005,22,Female,1,2024/02/09_12:46:08,JV,59.81815544
,,,,,,calibration,0,26,2,583,2,J,0,right,0.183550151,1,0,,,,,,,,,,,,,,,,,,,,,1,,,,,,,,,,,,,,,,,,,,,,,,,,,,,,,,,,,,,,,,,,,,,,43,149005,22,Female,1,2024/02/09_12:46:08,JV,59.81815544
,,,,,,calibration,0,26,2,583,3,Q,0,right,0.642698846,1,0,,,,,,,,,,,,,,,,,,,,,1,,,,,,,,,,,,,,,,,,,,,,,,,,,,,,,,,,,,,,,,,,,,,,43,149005,22,Female,1,2024/02/09_12:46:08,JV,59.81815544
,,,,,,calibration,0,26,2,583,4,V,0,right,0.409836377,1,0,,,,,,,,,,,,,,,,,,,,,1,,,,,,,,,,,,,,,,,,,,,,,,,,,,,,,,,,,,,,,,,,,,,,43,149005,22,Female,1,2024/02/09_12:46:08,JV,59.81815544
,,,,,,calibration,0,26,2,583,5,N,0,right,1.030374479,1,0,,,,,,,,,,,,,,,,,,,,,1,,,,,,,,,,,,,,,,,,,,,,,,,,,,,,,,,,,,,,,,,,,,,,43,149005,22,Female,1,2024/02/09_12:46:08,JV,59.81815544
,,,,,,calibration,0,26,2,583,6,V,1,left,0.629615989,1,0,,,,,,,,,,,,,,,,,,,,,1,,,,,,,,,,,,,,,,,,,,,,,,,,,,,,,,,,,,,,,,,,,,,,43,149005,22,Female,1,2024/02/09_12:46:08,JV,59.81815544
,,,,,,calibration,0,26,2,583,7,N,1,right,0.418767476,0,0,,,,,,,,,,,,,,,,,,,,,1,,,,,,,,,,,,,,,,,,,,,,,,,,,,,,,,,,,,,,,,,,,,,,43,149005,22,Female,1,2024/02/09_12:46:08,JV,59.81815544
,,,,,,calibration,0,26,2,583,8,J,0,right,nan,0,1,,,,,,,,,,,,,,,,,,,,,1,,,,,,,,,,,,,,,,,,,,,,,,,,,,,,,,,,,,,,,,,,,,,,43,149005,22,Female,1,2024/02/09_12:46:08,JV,59.81815544
,,,,,,calibration,0,26,2,583,9,N,1,right,0.103334084,0,0,,,,,,,,,,,,,,,,,,,,,1,,,,,,,,,,,,,,,,,,,,,,,,,,,,,,,,,,,,,,,,,,,,,,43,149005,22,Female,1,2024/02/09_12:46:08,JV,59.81815544
,,,,,,calibration,0,26,2,583,10,C,0,right,0.382061245,1,0,,,,,,,,,,,,,,,,,,,,,1,,,,,,,,,,,,,,,,,,,,,,,,,,,,,,,,,,,,,,,,,,,,,,43,149005,22,Female,1,2024/02/09_12:46:08,JV,59.81815544
,,,,,,calibration,0,26,2,583,11,J,0,right,0.4787899,1,0,,,,,,,,,,,,,,,,,,,,,1,,,,,,,,,,,,,,,,,,,,,,,,,,,,,,,,,,,,,,,,,,,,,,43,149005,22,Female,1,2024/02/09_12:46:08,JV,59.81815544
,,,,,,calibration,0,26,2,583,12,X,0,right,0.513452446,1,0,,,,,,,,,,,,,,,,,,,,,1,,,,,,,,,,,,,,,,,,,,,,,,,,,,,,,,,,,,,,,,,,,,,,43,149005,22,Female,1,2024/02/09_12:46:08,JV,59.81815544
,,,,,,calibration,0,26,2,583,13,Q,0,right,0.59249479,1,0,,,,,,,,,,,,,,,,,,,,,1,,,,,,,,,,,,,,,,,,,,,,,,,,,,,,,,,,,,,,,,,,,,,,43,149005,22,Female,1,2024/02/09_12:46:08,JV,59.81815544
,,,,,,calibration,0,26,2,583,14,X,1,right,0.963420541,0,0,,,,,,,,,,,,,,,,,,,,,1,,,,,,,,,,,,,,,,,,,,,,,,,,,,,,,,,,,,,,,,,,,,,,43,149005,22,Female,1,2024/02/09_12:46:08,JV,59.81815544
,,,,,,calibration,0,26,2,583,15,J,0,right,1.71279159,1,0,,,,,,,,,,,,,,,,,,,,,1,,,,,,,,,,,,,,,,,,,,,,,,,,,,,,,,,,,,,,,,,,,,,,43,149005,22,Female,1,2024/02/09_12:46:08,JV,59.81815544
,,,,,,calibration,0,26,2,583,,,,,,,,0.8125,0.25,0,1,0.066666667,0.933333333,0.595794384,1,0,0,1,1,10,11,4,11,0,,,,1,,,,,,,,,,,,,,,,,,,,,,,,,,,,,,,,,,,,,,,,,,,,,,43,149005,22,Female,1,2024/02/09_12:46:08,JV,59.81815544
,,,,,,Calibration,0,,2,583,,,,,,,,,,,,,,,,,,,,,,,,,3,,,1,,,,,,,,,,,,,,,,,,,,,,,,,,,,,,,,,,,,,,,,,,,,,,43,149005,22,Female,1,2024/02/09_12:46:08,JV,59.81815544
,,,,,,calibration,0,23,2,583,1,X,0,right,0.49531024,1,0,,,,,,,,,,,,,,,,,,,,,1,,,,,,,,,,,,,,,,,,,,,,,,,,,,,,,,,,,,,,,,,,,,,,43,149005,22,Female,1,2024/02/09_12:46:08,JV,59.81815544
,,,,,,calibration,0,23,2,583,2,Q,0,right,0.402153902,1,0,,,,,,,,,,,,,,,,,,,,,1,,,,,,,,,,,,,,,,,,,,,,,,,,,,,,,,,,,,,,,,,,,,,,43,149005,22,Female,1,2024/02/09_12:46:08,JV,59.81815544
,,,,,,calibration,0,23,2,583,3,S,0,right,0.33466818,1,0,,,,,,,,,,,,,,,,,,,,,1,,,,,,,,,,,,,,,,,,,,,,,,,,,,,,,,,,,,,,,,,,,,,,43,149005,22,Female,1,2024/02/09_12:46:08,JV,59.81815544
,,,,,,calibration,0,23,2,583,4,F,0,right,0.579409727,1,0,,,,,,,,,,,,,,,,,,,,,1,,,,,,,,,,,,,,,,,,,,,,,,,,,,,,,,,,,,,,,,,,,,,,43,149005,22,Female,1,2024/02/09_12:46:08,JV,59.81815544
,,,,,,calibration,0,23,2,583,5,Q,0,left,0.57857932,0,0,,,,,,,,,,,,,,,,,,,,,1,,,,,,,,,,,,,,,,,,,,,,,,,,,,,,,,,,,,,,,,,,,,,,43,149005,22,Female,1,2024/02/09_12:46:08,JV,59.81815544
,,,,,,calibration,0,23,2,583,6,S,0,right,0.657223215,1,0,,,,,,,,,,,,,,,,,,,,,1,,,,,,,,,,,,,,,,,,,,,,,,,,,,,,,,,,,,,,,,,,,,,,43,149005,22,Female,1,2024/02/09_12:46:08,JV,59.81815544
,,,,,,calibration,0,23,2,583,7,Q,1,right,0.733605646,0,0,,,,,,,,,,,,,,,,,,,,,1,,,,,,,,,,,,,,,,,,,,,,,,,,,,,,,,,,,,,,,,,,,,,,43,149005,22,Female,1,2024/02/09_12:46:08,JV,59.81815544
,,,,,,calibration,0,23,2,583,8,S,1,right,1.166400012,0,0,,,,,,,,,,,,,,,,,,,,,1,,,,,,,,,,,,,,,,,,,,,,,,,,,,,,,,,,,,,,,,,,,,,,43,149005,22,Female,1,2024/02/09_12:46:08,JV,59.81815544
,,,,,,calibration,0,23,2,583,9,C,0,right,0.139737046,1,0,,,,,,,,,,,,,,,,,,,,,1,,,,,,,,,,,,,,,,,,,,,,,,,,,,,,,,,,,,,,,,,,,,,,43,149005,22,Female,1,2024/02/09_12:46:08,JV,59.81815544
,,,,,,calibration,0,23,2,583,10,N,0,right,0.354507472,1,0,,,,,,,,,,,,,,,,,,,,,1,,,,,,,,,,,,,,,,,,,,,,,,,,,,,,,,,,,,,,,,,,,,,,43,149005,22,Female,1,2024/02/09_12:46:08,JV,59.81815544
,,,,,,calibration,0,23,2,583,11,J,0,right,1.144165547,1,0,,,,,,,,,,,,,,,,,,,,,1,,,,,,,,,,,,,,,,,,,,,,,,,,,,,,,,,,,,,,,,,,,,,,43,149005,22,Female,1,2024/02/09_12:46:08,JV,59.81815544
,,,,,,calibration,0,23,2,583,12,C,0,right,0.695477338,1,0,,,,,,,,,,,,,,,,,,,,,1,,,,,,,,,,,,,,,,,,,,,,,,,,,,,,,,,,,,,,,,,,,,,,43,149005,22,Female,1,2024/02/09_12:46:08,JV,59.81815544
,,,,,,calibration,0,23,2,583,13,J,1,right,0.729934451,0,0,,,,,,,,,,,,,,,,,,,,,1,,,,,,,,,,,,,,,,,,,,,,,,,,,,,,,,,,,,,,,,,,,,,,43,149005,22,Female,1,2024/02/09_12:46:08,JV,59.81815544
,,,,,,calibration,0,23,2,583,14,C,1,left,0.377742299,1,0,,,,,,,,,,,,,,,,,,,,,1,,,,,,,,,,,,,,,,,,,,,,,,,,,,,,,,,,,,,,,,,,,,,,43,149005,22,Female,1,2024/02/09_12:46:08,JV,59.81815544
,,,,,,calibration,0,23,2,583,15,X,0,right,0.462263564,1,0,,,,,,,,,,,,,,,,,,,,,1,,,,,,,,,,,,,,,,,,,,,,,,,,,,,,,,,,,,,,,,,,,,,,43,149005,22,Female,1,2024/02/09_12:46:08,JV,59.81815544
,,,,,,calibration,0,23,2,583,,,,,,,,0.698863636,0.25,0.090909091,0.909090909,0,0.909090909,0.590078531,1,1,0,0,0,10,11,4,11,0,,,,1,,,,,,,,,,,,,,,,,,,,,,,,,,,,,,,,,,,,,,,,,,,,,,43,149005,22,Female,1,2024/02/09_12:46:08,JV,59.81815544
,,,,,,Calibration,0,,2,583,,,,,,,,,,,,,,,,,,,,,,,,,4,,,1,,,,,,,,,,,,,,,,,,,,,,,,,,,,,,,,,,,,,,,,,,,,,,43,149005,22,Female,1,2024/02/09_12:46:08,JV,59.81815544
,,,,,,calibration,0,10,2,679,1,C,0,right,0.401615352,1,0,,,,,,,,,,,,,,,,,,,,,1,,,,,,,,,,,,,,,,,,,,,,,,,,,,,,,,,,,,,,,,,,,,,,43,149005,22,Female,1,2024/02/09_12:46:08,JV,59.81815544
,,,,,,calibration,0,10,2,679,2,Q,0,right,0.397013637,1,0,,,,,,,,,,,,,,,,,,,,,1,,,,,,,,,,,,,,,,,,,,,,,,,,,,,,,,,,,,,,,,,,,,,,43,149005,22,Female,1,2024/02/09_12:46:08,JV,59.81815544
,,,,,,calibration,0,10,2,679,3,V,0,right,0.386998502,1,0,,,,,,,,,,,,,,,,,,,,,1,,,,,,,,,,,,,,,,,,,,,,,,,,,,,,,,,,,,,,,,,,,,,,43,149005,22,Female,1,2024/02/09_12:46:08,JV,59.81815544
,,,,,,calibration,0,10,2,679,4,N,0,right,0.406400966,1,0,,,,,,,,,,,,,,,,,,,,,1,,,,,,,,,,,,,,,,,,,,,,,,,,,,,,,,,,,,,,,,,,,,,,43,149005,22,Female,1,2024/02/09_12:46:08,JV,59.81815544
,,,,,,calibration,0,10,2,679,5,C,0,left,0.479673581,0,0,,,,,,,,,,,,,,,,,,,,,1,,,,,,,,,,,,,,,,,,,,,,,,,,,,,,,,,,,,,,,,,,,,,,43,149005,22,Female,1,2024/02/09_12:46:08,JV,59.81815544
,,,,,,calibration,0,10,2,679,6,N,1,right,0.318472046,0,0,,,,,,,,,,,,,,,,,,,,,1,,,,,,,,,,,,,,,,,,,,,,,,,,,,,,,,,,,,,,,,,,,,,,43,149005,22,Female,1,2024/02/09_12:46:08,JV,59.81815544
,,,,,,calibration,0,10,2,679,7,F,0,right,0.193932303,1,0,,,,,,,,,,,,,,,,,,,,,1,,,,,,,,,,,,,,,,,,,,,,,,,,,,,,,,,,,,,,,,,,,,,,43,149005,22,Female,1,2024/02/09_12:46:08,JV,59.81815544
,,,,,,calibration,0,10,2,679,8,N,1,left,0.303861826,1,0,,,,,,,,,,,,,,,,,,,,,1,,,,,,,,,,,,,,,,,,,,,,,,,,,,,,,,,,,,,,,,,,,,,,43,149005,22,Female,1,2024/02/09_12:46:08,JV,59.81815544
,,,,,,calibration,0,10,2,679,9,C,0,right,0.28758687,1,0,,,,,,,,,,,,,,,,,,,,,1,,,,,,,,,,,,,,,,,,,,,,,,,,,,,,,,,,,,,,,,,,,,,,43,149005,22,Female,1,2024/02/09_12:46:08,JV,59.81815544
,,,,,,calibration,0,10,2,679,10,F,0,right,0.283772323,1,0,,,,,,,,,,,,,,,,,,,,,1,,,,,,,,,,,,,,,,,,,,,,,,,,,,,,,,,,,,,,,,,,,,,,43,149005,22,Female,1,2024/02/09_12:46:08,JV,59.81815544
,,,,,,calibration,0,10,2,679,11,C,1,left,0.269935556,1,0,,,,,,,,,,,,,,,,,,,,,1,,,,,,,,,,,,,,,,,,,,,,,,,,,,,,,,,,,,,,,,,,,,,,43,149005,22,Female,1,2024/02/09_12:46:08,JV,59.81815544
,,,,,,calibration,0,10,2,679,12,F,1,right,0.357241695,0,0,,,,,,,,,,,,,,,,,,,,,1,,,,,,,,,,,,,,,,,,,,,,,,,,,,,,,,,,,,,,,,,,,,,,43,149005,22,Female,1,2024/02/09_12:46:08,JV,59.81815544
,,,,,,calibration,0,10,2,679,13,X,0,right,0.255136863,1,0,,,,,,,,,,,,,,,,,,,,,1,,,,,,,,,,,,,,,,,,,,,,,,,,,,,,,,,,,,,,,,,,,,,,43,149005,22,Female,1,2024/02/09_12:46:08,JV,59.81815544
,,,,,,calibration,0,10,2,679,14,J,0,right,0.358893863,1,0,,,,,,,,,,,,,,,,,,,,,1,,,,,,,,,,,,,,,,,,,,,,,,,,,,,,,,,,,,,,,,,,,,,,43,149005,22,Female,1,2024/02/09_12:46:08,JV,59.81815544
,,,,,,calibration,0,10,2,679,,,,,,,,0.8,0.5,0.1,0.9,0,0.9,0.335752527,2,1,0,0,0,9,11,4,10,0,,,,1,,,,,,,,,,,,,,,,,,,,,,,,,,,,,,,,,,,,,,,,,,,,,,43,149005,22,Female,1,2024/02/09_12:46:08,JV,59.81815544
,,,,,,Calibration,0,,2,679,,,,,,,,,,,,,,,,,,,,,,,,,5,,,1,,,,,,,,,,,,,,,,,,,,,,,,,,,,,,,,,,,,,,,,,,,,,,43,149005,22,Female,1,2024/02/09_12:46:08,JV,59.81815544
,,,,,,calibration,0,24,2,679,1,X,0,right,0.221588351,1,0,,,,,,,,,,,,,,,,,,,,,1,,,,,,,,,,,,,,,,,,,,,,,,,,,,,,,,,,,,,,,,,,,,,,43,149005,22,Female,1,2024/02/09_12:46:08,JV,59.81815544
,,,,,,calibration,0,24,2,679,2,S,0,right,0.301469175,1,0,,,,,,,,,,,,,,,,,,,,,1,,,,,,,,,,,,,,,,,,,,,,,,,,,,,,,,,,,,,,,,,,,,,,43,149005,22,Female,1,2024/02/09_12:46:08,JV,59.81815544
,,,,,,calibration,0,24,2,679,3,X,1,right,0.333653514,0,0,,,,,,,,,,,,,,,,,,,,,1,,,,,,,,,,,,,,,,,,,,,,,,,,,,,,,,,,,,,,,,,,,,,,43,149005,22,Female,1,2024/02/09_12:46:08,JV,59.81815544
,,,,,,calibration,0,24,2,679,4,F,0,right,0.478106737,1,0,,,,,,,,,,,,,,,,,,,,,1,,,,,,,,,,,,,,,,,,,,,,,,,,,,,,,,,,,,,,,,,,,,,,43,149005,22,Female,1,2024/02/09_12:46:08,JV,59.81815544
,,,,,,calibration,0,24,2,679,5,J,0,right,0.375326002,1,0,,,,,,,,,,,,,,,,,,,,,1,,,,,,,,,,,,,,,,,,,,,,,,,,,,,,,,,,,,,,,,,,,,,,43,149005,22,Female,1,2024/02/09_12:46:08,JV,59.81815544
,,,,,,calibration,0,24,2,679,6,C,0,right,0.499327634,1,0,,,,,,,,,,,,,,,,,,,,,1,,,,,,,,,,,,,,,,,,,,,,,,,,,,,,,,,,,,,,,,,,,,,,43,149005,22,Female,1,2024/02/09_12:46:08,JV,59.81815544
,,,,,,calibration,0,24,2,679,7,X,0,left,0.533871961,0,0,,,,,,,,,,,,,,,,,,,,,1,,,,,,,,,,,,,,,,,,,,,,,,,,,,,,,,,,,,,,,,,,,,,,43,149005,22,Female,1,2024/02/09_12:46:08,JV,59.81815544
,,,,,,calibration,0,24,2,679,8,C,1,right,0.260347059,0,0,,,,,,,,,,,,,,,,,,,,,1,,,,,,,,,,,,,,,,,,,,,,,,,,,,,,,,,,,,,,,,,,,,,,43,149005,22,Female,1,2024/02/09_12:46:08,JV,59.81815544
,,,,,,calibration,0,24,2,679,9,Q,0,right,0.474530532,1,0,,,,,,,,,,,,,,,,,,,,,1,,,,,,,,,,,,,,,,,,,,,,,,,,,,,,,,,,,,,,,,,,,,,,43,149005,22,Female,1,2024/02/09_12:46:08,JV,59.81815544
,,,,,,calibration,0,24,2,679,10,C,1,right,0.723704389,0,0,,,,,,,,,,,,,,,,,,,,,1,,,,,,,,,,,,,,,,,,,,,,,,,,,,,,,,,,,,,,,,,,,,,,43,149005,22,Female,1,2024/02/09_12:46:08,JV,59.81815544
,,,,,,calibration,0,24,2,679,11,V,0,right,0.682504067,1,0,,,,,,,,,,,,,,,,,,,,,1,,,,,,,,,,,,,,,,,,,,,,,,,,,,,,,,,,,,,,,,,,,,,,43,149005,22,Female,1,2024/02/09_12:46:08,JV,59.81815544
,,,,,,calibration,0,24,2,679,12,X,0,right,0.541229726,1,0,,,,,,,,,,,,,,,,,,,,,1,,,,,,,,,,,,,,,,,,,,,,,,,,,,,,,,,,,,,,,,,,,,,,43,149005,22,Female,1,2024/02/09_12:46:08,JV,59.81815544
,,,,,,calibration,0,24,2,679,13,S,0,right,0.472270529,1,0,,,,,,,,,,,,,,,,,,,,,1,,,,,,,,,,,,,,,,,,,,,,,,,,,,,,,,,,,,,,,,,,,,,,43,149005,22,Female,1,2024/02/09_12:46:08,JV,59.81815544
,,,,,,calibration,0,24,2,679,14,X,1,right,0.637053612,0,0,,,,,,,,,,,,,,,,,,,,,1,,,,,,,,,,,,,,,,,,,,,,,,,,,,,,,,,,,,,,,,,,,,,,43,149005,22,Female,1,2024/02/09_12:46:08,JV,59.81815544
,,,,,,calibration,0,24,2,679,,,,,,,,0.225,0,0.1,0.9,0,0.9,0.466784521,0,1,0,0,0,9,9,4,10,0,,,,1,,,,,,,,,,,,,,,,,,,,,,,,,,,,,,,,,,,,,,,,,,,,,,43,149005,22,Female,1,2024/02/09_12:46:08,JV,59.81815544
,,,,,,Calibration,0,,2,679,,,,,,,,,,,,,,,,,,,,,,,,,6,,,1,,,,,,,,,,,,,,,,,,,,,,,,,,,,,,,,,,,,,,,,,,,,,,43,149005,22,Female,1,2024/02/09_12:46:08,JV,59.81815544
,,,,,,calibration,0,2,2,788,1,Q,0,right,0.414644132,1,0,,,,,,,,,,,,,,,,,,,,,1,,,,,,,,,,,,,,,,,,,,,,,,,,,,,,,,,,,,,,,,,,,,,,43,149005,22,Female,1,2024/02/09_12:46:08,JV,59.81815544
,,,,,,calibration,0,2,2,788,2,F,0,right,0.399018677,1,0,,,,,,,,,,,,,,,,,,,,,1,,,,,,,,,,,,,,,,,,,,,,,,,,,,,,,,,,,,,,,,,,,,,,43,149005,22,Female,1,2024/02/09_12:46:08,JV,59.81815544
,,,,,,calibration,0,2,2,788,3,C,0,right,0.455699952,1,0,,,,,,,,,,,,,,,,,,,,,1,,,,,,,,,,,,,,,,,,,,,,,,,,,,,,,,,,,,,,,,,,,,,,43,149005,22,Female,1,2024/02/09_12:46:08,JV,59.81815544
,,,,,,calibration,0,2,2,788,4,V,0,right,0.513838093,1,0,,,,,,,,,,,,,,,,,,,,,1,,,,,,,,,,,,,,,,,,,,,,,,,,,,,,,,,,,,,,,,,,,,,,43,149005,22,Female,1,2024/02/09_12:46:08,JV,59.81815544
,,,,,,calibration,0,2,2,788,5,J,0,right,0.452602751,1,0,,,,,,,,,,,,,,,,,,,,,1,,,,,,,,,,,,,,,,,,,,,,,,,,,,,,,,,,,,,,,,,,,,,,43,149005,22,Female,1,2024/02/09_12:46:08,JV,59.81815544
,,,,,,calibration,0,2,2,788,6,V,1,left,0.437516828,1,0,,,,,,,,,,,,,,,,,,,,,1,,,,,,,,,,,,,,,,,,,,,,,,,,,,,,,,,,,,,,,,,,,,,,43,149005,22,Female,1,2024/02/09_12:46:08,JV,59.81815544
,,,,,,calibration,0,2,2,788,7,C,0,right,0.399443781,1,0,,,,,,,,,,,,,,,,,,,,,1,,,,,,,,,,,,,,,,,,,,,,,,,,,,,,,,,,,,,,,,,,,,,,43,149005,22,Female,1,2024/02/09_12:46:08,JV,59.81815544
,,,,,,calibration,0,2,2,788,8,S,0,right,0.415871348,1,0,,,,,,,,,,,,,,,,,,,,,1,,,,,,,,,,,,,,,,,,,,,,,,,,,,,,,,,,,,,,,,,,,,,,43,149005,22,Female,1,2024/02/09_12:46:08,JV,59.81815544
,,,,,,calibration,0,2,2,788,9,C,1,right,0.468309788,0,0,,,,,,,,,,,,,,,,,,,,,1,,,,,,,,,,,,,,,,,,,,,,,,,,,,,,,,,,,,,,,,,,,,,,43,149005,22,Female,1,2024/02/09_12:46:08,JV,59.81815544
,,,,,,calibration,0,2,2,788,10,S,1,left,0.341673947,1,0,,,,,,,,,,,,,,,,,,,,,1,,,,,,,,,,,,,,,,,,,,,,,,,,,,,,,,,,,,,,,,,,,,,,43,149005,22,Female,1,2024/02/09_12:46:08,JV,59.81815544
,,,,,,calibration,0,2,2,788,11,N,0,right,0.214428859,1,0,,,,,,,,,,,,,,,,,,,,,1,,,,,,,,,,,,,,,,,,,,,,,,,,,,,,,,,,,,,,,,,,,,,,43,149005,22,Female,1,2024/02/09_12:46:08,JV,59.81815544
,,,,,,calibration,0,2,2,788,12,C,0,right,0.527540425,1,0,,,,,,,,,,,,,,,,,,,,,1,,,,,,,,,,,,,,,,,,,,,,,,,,,,,,,,,,,,,,,,,,,,,,43,149005,22,Female,1,2024/02/09_12:46:08,JV,59.81815544
,,,,,,calibration,0,2,2,788,13,N,1,left,0.036937361,1,0,,,,,,,,,,,,,,,,,,,,,1,,,,,,,,,,,,,,,,,,,,,,,,,,,,,,,,,,,,,,,,,,,,,,43,149005,22,Female,1,2024/02/09_12:46:08,JV,59.81815544
,,,,,,calibration,0,2,2,788,,,,,,,,0.9375,0.75,0,1,0,1,0.390578919,3,0,0,0,0,9,12,4,9,0,,,,1,,,,,,,,,,,,,,,,,,,,,,,,,,,,,,,,,,,,,,,,,,,,,,43,149005,22,Female,1,2024/02/09_12:46:08,JV,59.81815544
,,,,,,Calibration,0,,2,788,,,,,,,,,,,,,,,,,,,,,,,,,7,,,1,,,,,,,,,,,,,,,,,,,,,,,,,,,,,,,,,,,,,,,,,,,,,,43,149005,22,Female,1,2024/02/09_12:46:08,JV,59.81815544
,,,,,,calibration,0,33,2,679,1,S,0,right,1.080571781,1,0,,,,,,,,,,,,,,,,,,,,,1,,,,,,,,,,,,,,,,,,,,,,,,,,,,,,,,,,,,,,,,,,,,,,43,149005,22,Female,1,2024/02/09_12:46:08,JV,59.81815544
,,,,,,calibration,0,33,2,679,2,S,0,right,1.160221733,1,0,,,,,,,,,,,,,,,,,,,,,1,,,,,,,,,,,,,,,,,,,,,,,,,,,,,,,,,,,,,,,,,,,,,,43,149005,22,Female,1,2024/02/09_12:46:08,JV,59.81815544
,,,,,,calibration,0,33,2,679,3,S,1,left,0.409394577,1,0,,,,,,,,,,,,,,,,,,,,,1,,,,,,,,,,,,,,,,,,,,,,,,,,,,,,,,,,,,,,,,,,,,,,43,149005,22,Female,1,2024/02/09_12:46:08,JV,59.81815544
,,,,,,calibration,0,33,2,679,4,J,0,right,1.11258605,1,0,,,,,,,,,,,,,,,,,,,,,1,,,,,,,,,,,,,,,,,,,,,,,,,,,,,,,,,,,,,,,,,,,,,,43,149005,22,Female,1,2024/02/09_12:46:08,JV,59.81815544
,,,,,,calibration,0,33,2,679,5,X,0,right,0.532189699,1,0,,,,,,,,,,,,,,,,,,,,,1,,,,,,,,,,,,,,,,,,,,,,,,,,,,,,,,,,,,,,,,,,,,,,43,149005,22,Female,1,2024/02/09_12:46:08,JV,59.81815544
,,,,,,calibration,0,33,2,679,6,N,0,right,0.611143851,1,0,,,,,,,,,,,,,,,,,,,,,1,,,,,,,,,,,,,,,,,,,,,,,,,,,,,,,,,,,,,,,,,,,,,,43,149005,22,Female,1,2024/02/09_12:46:08,JV,59.81815544
,,,,,,calibration,0,33,2,679,7,S,0,right,0.491589238,1,0,,,,,,,,,,,,,,,,,,,,,1,,,,,,,,,,,,,,,,,,,,,,,,,,,,,,,,,,,,,,,,,,,,,,43,149005,22,Female,1,2024/02/09_12:46:08,JV,59.81815544
,,,,,,calibration,0,33,2,679,8,N,1,left,0.346734678,1,0,,,,,,,,,,,,,,,,,,,,,1,,,,,,,,,,,,,,,,,,,,,,,,,,,,,,,,,,,,,,,,,,,,,,43,149005,22,Female,1,2024/02/09_12:46:08,JV,59.81815544
,,,,,,calibration,0,33,2,679,9,X,0,right,0.264756459,1,0,,,,,,,,,,,,,,,,,,,,,1,,,,,,,,,,,,,,,,,,,,,,,,,,,,,,,,,,,,,,,,,,,,,,43,149005,22,Female,1,2024/02/09_12:46:08,JV,59.81815544
,,,,,,calibration,0,33,2,679,10,F,0,right,0.611632305,1,0,,,,,,,,,,,,,,,,,,,,,1,,,,,,,,,,,,,,,,,,,,,,,,,,,,,,,,,,,,,,,,,,,,,,43,149005,22,Female,1,2024/02/09_12:46:08,JV,59.81815544
,,,,,,calibration,0,33,2,679,11,X,1,right,0.513589313,0,0,,,,,,,,,,,,,,,,,,,,,1,,,,,,,,,,,,,,,,,,,,,,,,,,,,,,,,,,,,,,,,,,,,,,43,149005,22,Female,1,2024/02/09_12:46:08,JV,59.81815544
,,,,,,calibration,0,33,2,679,12,Q,0,right,0.436380869,1,0,,,,,,,,,,,,,,,,,,,,,1,,,,,,,,,,,,,,,,,,,,,,,,,,,,,,,,,,,,,,,,,,,,,,43,149005,22,Female,1,2024/02/09_12:46:08,JV,59.81815544
,,,,,,calibration,0,33,2,679,13,X,1,left,0.629812463,1,0,,,,,,,,,,,,,,,,,,,,,1,,,,,,,,,,,,,,,,,,,,,,,,,,,,,,,,,,,,,,,,,,,,,,43,149005,22,Female,1,2024/02/09_12:46:08,JV,59.81815544
,,,,,,calibration,0,33,2,679,14,C,0,right,0.328591003,1,0,,,,,,,,,,,,,,,,,,,,,1,,,,,,,,,,,,,,,,,,,,,,,,,,,,,,,,,,,,,,,,,,,,,,43,149005,22,Female,1,2024/02/09_12:46:08,JV,59.81815544
,,,,,,calibration,0,33,2,679,,,,,,,,0.9375,0.75,0,1,0,1,0.609228144,3,0,0,0,0,10,13,4,10,0,,,,1,,,,,,,,,,,,,,,,,,,,,,,,,,,,,,,,,,,,,,,,,,,,,,43,149005,22,Female,1,2024/02/09_12:46:08,JV,59.81815544
,,,,,,Calibration,0,,2,679,,,,,,,,,,,,,,,,,,,,,,,,,8,,,1,,,,,,,,,,,,,,,,,,,,,,,,,,,,,,,,,,,,,,,,,,,,,,43,149005,22,Female,1,2024/02/09_12:46:08,JV,59.81815544
,,,,,,calibration,0,27,2,583,1,Q,0,right,0.236318166,1,0,,,,,,,,,,,,,,,,,,,,,1,,,,,,,,,,,,,,,,,,,,,,,,,,,,,,,,,,,,,,,,,,,,,,43,149005,22,Female,1,2024/02/09_12:46:08,JV,59.81815544
,,,,,,calibration,0,27,2,583,2,V,0,right,0.430377455,1,0,,,,,,,,,,,,,,,,,,,,,1,,,,,,,,,,,,,,,,,,,,,,,,,,,,,,,,,,,,,,,,,,,,,,43,149005,22,Female,1,2024/02/09_12:46:08,JV,59.81815544
,,,,,,calibration,0,27,2,583,3,N,0,right,0.343237419,1,0,,,,,,,,,,,,,,,,,,,,,1,,,,,,,,,,,,,,,,,,,,,,,,,,,,,,,,,,,,,,,,,,,,,,43,149005,22,Female,1,2024/02/09_12:46:08,JV,59.81815544
,,,,,,calibration,0,27,2,583,4,X,0,right,0.404863045,1,0,,,,,,,,,,,,,,,,,,,,,1,,,,,,,,,,,,,,,,,,,,,,,,,,,,,,,,,,,,,,,,,,,,,,43,149005,22,Female,1,2024/02/09_12:46:08,JV,59.81815544
,,,,,,calibration,0,27,2,583,5,N,1,right,0.350171465,0,0,,,,,,,,,,,,,,,,,,,,,1,,,,,,,,,,,,,,,,,,,,,,,,,,,,,,,,,,,,,,,,,,,,,,43,149005,22,Female,1,2024/02/09_12:46:08,JV,59.81815544
,,,,,,calibration,0,27,2,583,6,X,1,left,0.333993011,1,0,,,,,,,,,,,,,,,,,,,,,1,,,,,,,,,,,,,,,,,,,,,,,,,,,,,,,,,,,,,,,,,,,,,,43,149005,22,Female,1,2024/02/09_12:46:08,JV,59.81815544
,,,,,,calibration,0,27,2,583,7,V,0,right,0.234284916,1,0,,,,,,,,,,,,,,,,,,,,,1,,,,,,,,,,,,,,,,,,,,,,,,,,,,,,,,,,,,,,,,,,,,,,43,149005,22,Female,1,2024/02/09_12:46:08,JV,59.81815544
,,,,,,calibration,0,27,2,583,8,N,0,right,0.398528782,1,0,,,,,,,,,,,,,,,,,,,,,1,,,,,,,,,,,,,,,,,,,,,,,,,,,,,,,,,,,,,,,,,,,,,,43,149005,22,Female,1,2024/02/09_12:46:08,JV,59.81815544
,,,,,,calibration,0,27,2,583,9,V,1,left,0.293188744,1,0,,,,,,,,,,,,,,,,,,,,,1,,,,,,,,,,,,,,,,,,,,,,,,,,,,,,,,,,,,,,,,,,,,,,43,149005,22,Female,1,2024/02/09_12:46:08,JV,59.81815544
,,,,,,calibration,0,27,2,583,10,S,0,right,0.279319125,1,0,,,,,,,,,,,,,,,,,,,,,1,,,,,,,,,,,,,,,,,,,,,,,,,,,,,,,,,,,,,,,,,,,,,,43,149005,22,Female,1,2024/02/09_12:46:08,JV,59.81815544
,,,,,,calibration,0,27,2,583,11,X,0,right,0.416318869,1,0,,,,,,,,,,,,,,,,,,,,,1,,,,,,,,,,,,,,,,,,,,,,,,,,,,,,,,,,,,,,,,,,,,,,43,149005,22,Female,1,2024/02/09_12:46:08,JV,59.81815544
,,,,,,calibration,0,27,2,583,12,S,1,right,0.327740663,0,0,,,,,,,,,,,,,,,,,,,,,1,,,,,,,,,,,,,,,,,,,,,,,,,,,,,,,,,,,,,,,,,,,,,,43,149005,22,Female,1,2024/02/09_12:46:08,JV,59.81815544
,,,,,,calibration,0,27,2,583,13,F,0,right,0.479943578,1,0,,,,,,,,,,,,,,,,,,,,,1,,,,,,,,,,,,,,,,,,,,,,,,,,,,,,,,,,,,,,,,,,,,,,43,149005,22,Female,1,2024/02/09_12:46:08,JV,59.81815544
,,,,,,calibration,0,27,2,583,14,N,0,left,0.373775992,0,0,,,,,,,,,,,,,,,,,,,,,1,,,,,,,,,,,,,,,,,,,,,,,,,,,,,,,,,,,,,,,,,,,,,,43,149005,22,Female,1,2024/02/09_12:46:08,JV,59.81815544
,,,,,,calibration,0,27,2,583,15,S,0,right,0.327648679,1,0,,,,,,,,,,,,,,,,,,,,,1,,,,,,,,,,,,,,,,,,,,,,,,,,,,,,,,,,,,,,,,,,,,,,43,149005,22,Female,1,2024/02/09_12:46:08,JV,59.81815544
,,,,,,calibration,0,27,2,583,,,,,,,,0.806818182,0.5,0.090909091,0.909090909,0,0.909090909,0.348647327,2,1,0,0,0,10,12,4,11,0,,,,1,,,,,,,,,,,,,,,,,,,,,,,,,,,,,,,,,,,,,,,,,,,,,,43,149005,22,Female,1,2024/02/09_12:46:08,JV,59.81815544
,,,,,,Calibration,0,,2,583,,,,,,,,,,,,,,,,,,,,,,,,,9,,,1,,,,,,,,,,,,,,,,,,,,,,,,,,,,,,,,,,,,,,,,,,,,,,43,149005,22,Female,1,2024/02/09_12:46:08,JV,59.81815544
,,,,,,calibration,0,11,2,583,1,S,0,right,0.693896883,1,0,,,,,,,,,,,,,,,,,,,,,1,,,,,,,,,,,,,,,,,,,,,,,,,,,,,,,,,,,,,,,,,,,,,,43,149005,22,Female,1,2024/02/09_12:46:08,JV,59.81815544
,,,,,,calibration,0,11,2,583,2,C,0,right,0.291551163,1,0,,,,,,,,,,,,,,,,,,,,,1,,,,,,,,,,,,,,,,,,,,,,,,,,,,,,,,,,,,,,,,,,,,,,43,149005,22,Female,1,2024/02/09_12:46:08,JV,59.81815544
,,,,,,calibration,0,11,2,583,3,N,0,right,0.394408576,1,0,,,,,,,,,,,,,,,,,,,,,1,,,,,,,,,,,,,,,,,,,,,,,,,,,,,,,,,,,,,,,,,,,,,,43,149005,22,Female,1,2024/02/09_12:46:08,JV,59.81815544
,,,,,,calibration,0,11,2,583,4,S,0,right,0.6410641,1,0,,,,,,,,,,,,,,,,,,,,,1,,,,,,,,,,,,,,,,,,,,,,,,,,,,,,,,,,,,,,,,,,,,,,43,149005,22,Female,1,2024/02/09_12:46:08,JV,59.81815544
,,,,,,calibration,0,11,2,583,5,N,1,right,0.310838189,0,0,,,,,,,,,,,,,,,,,,,,,1,,,,,,,,,,,,,,,,,,,,,,,,,,,,,,,,,,,,,,,,,,,,,,43,149005,22,Female,1,2024/02/09_12:46:08,JV,59.81815544
,,,,,,calibration,0,11,2,583,6,C,0,right,0.402783411,1,0,,,,,,,,,,,,,,,,,,,,,1,,,,,,,,,,,,,,,,,,,,,,,,,,,,,,,,,,,,,,,,,,,,,,43,149005,22,Female,1,2024/02/09_12:46:08,JV,59.81815544
,,,,,,calibration,0,11,2,583,7,S,0,right,0.405241194,1,0,,,,,,,,,,,,,,,,,,,,,1,,,,,,,,,,,,,,,,,,,,,,,,,,,,,,,,,,,,,,,,,,,,,,43,149005,22,Female,1,2024/02/09_12:46:08,JV,59.81815544
,,,,,,calibration,0,11,2,583,8,Q,0,right,0.431107749,1,0,,,,,,,,,,,,,,,,,,,,,1,,,,,,,,,,,,,,,,,,,,,,,,,,,,,,,,,,,,,,,,,,,,,,43,149005,22,Female,1,2024/02/09_12:46:08,JV,59.81815544
,,,,,,calibration,0,11,2,583,9,X,0,right,0.583685283,1,0,,,,,,,,,,,,,,,,,,,,,1,,,,,,,,,,,,,,,,,,,,,,,,,,,,,,,,,,,,,,,,,,,,,,43,149005,22,Female,1,2024/02/09_12:46:08,JV,59.81815544
,,,,,,calibration,0,11,2,583,10,J,0,right,0.402268458,1,0,,,,,,,,,,,,,,,,,,,,,1,,,,,,,,,,,,,,,,,,,,,,,,,,,,,,,,,,,,,,,,,,,,,,43,149005,22,Female,1,2024/02/09_12:46:08,JV,59.81815544
,,,,,,calibration,0,11,2,583,11,X,1,right,0.513494518,0,0,,,,,,,,,,,,,,,,,,,,,1,,,,,,,,,,,,,,,,,,,,,,,,,,,,,,,,,,,,,,,,,,,,,,43,149005,22,Female,1,2024/02/09_12:46:08,JV,59.81815544
,,,,,,calibration,0,11,2,583,12,Q,0,right,0.407941004,1,0,,,,,,,,,,,,,,,,,,,,,1,,,,,,,,,,,,,,,,,,,,,,,,,,,,,,,,,,,,,,,,,,,,,,43,149005,22,Female,1,2024/02/09_12:46:08,JV,59.81815544
,,,,,,calibration,0,11,2,583,13,X,1,right,0.427119315,0,0,,,,,,,,,,,,,,,,,,,,,1,,,,,,,,,,,,,,,,,,,,,,,,,,,,,,,,,,,,,,,,,,,,,,43,149005,22,Female,1,2024/02/09_12:46:08,JV,59.81815544
,,,,,,calibration,0,11,2,583,14,Q,1,right,0.442672748,0,0,,,,,,,,,,,,,,,,,,,,,1,,,,,,,,,,,,,,,,,,,,,,,,,,,,,,,,,,,,,,,,,,,,,,43,149005,22,Female,1,2024/02/09_12:46:08,JV,59.81815544
,,,,,,calibration,0,11,2,583,15,F,0,right,0.693156402,1,0,,,,,,,,,,,,,,,,,,,,,1,,,,,,,,,,,,,,,,,,,,,,,,,,,,,,,,,,,,,,,,,,,,,,43,149005,22,Female,1,2024/02/09_12:46:08,JV,59.81815544
,,,,,,calibration,0,11,2,583,,,,,,,,0.5,0,0,1,0,1,0.469415266,0,0,0,0,0,11,11,4,11,0,,,,1,,,,,,,,,,,,,,,,,,,,,,,,,,,,,,,,,,,,,,,,,,,,,,43,149005,22,Female,1,2024/02/09_12:46:08,JV,59.81815544
,,,,,,Calibration,0,,2,583,,,,,,,,,,,,,,,,,,,,,,,,,10,,,1,,,,,,,,,,,,,,,,,,,,,,,,,,,,,,,,,,,,,,,,,,,,,,43,149005,22,Female,1,2024/02/09_12:46:08,JV,59.81815544
,,,,,,calibration,0,30,2,679,1,X,0,right,0.294476582,1,0,,,,,,,,,,,,,,,,,,,,,1,,,,,,,,,,,,,,,,,,,,,,,,,,,,,,,,,,,,,,,,,,,,,,43,149005,22,Female,1,2024/02/09_12:46:08,JV,59.81815544
,,,,,,calibration,0,30,2,679,2,F,0,right,0.386284232,1,0,,,,,,,,,,,,,,,,,,,,,1,,,,,,,,,,,,,,,,,,,,,,,,,,,,,,,,,,,,,,,,,,,,,,43,149005,22,Female,1,2024/02/09_12:46:08,JV,59.81815544
,,,,,,calibration,0,30,2,679,3,X,1,left,0.325905408,1,0,,,,,,,,,,,,,,,,,,,,,1,,,,,,,,,,,,,,,,,,,,,,,,,,,,,,,,,,,,,,,,,,,,,,43,149005,22,Female,1,2024/02/09_12:46:08,JV,59.81815544
,,,,,,calibration,0,30,2,679,4,V,0,right,0.234299106,1,0,,,,,,,,,,,,,,,,,,,,,1,,,,,,,,,,,,,,,,,,,,,,,,,,,,,,,,,,,,,,,,,,,,,,43,149005,22,Female,1,2024/02/09_12:46:08,JV,59.81815544
,,,,,,calibration,0,30,2,679,5,J,0,right,0.492771361,1,0,,,,,,,,,,,,,,,,,,,,,1,,,,,,,,,,,,,,,,,,,,,,,,,,,,,,,,,,,,,,,,,,,,,,43,149005,22,Female,1,2024/02/09_12:46:08,JV,59.81815544
,,,,,,calibration,0,30,2,679,6,Q,0,right,0.448494022,1,0,,,,,,,,,,,,,,,,,,,,,1,,,,,,,,,,,,,,,,,,,,,,,,,,,,,,,,,,,,,,,,,,,,,,43,149005,22,Female,1,2024/02/09_12:46:08,JV,59.81815544
,,,,,,calibration,0,30,2,679,7,J,1,left,0.365658749,1,0,,,,,,,,,,,,,,,,,,,,,1,,,,,,,,,,,,,,,,,,,,,,,,,,,,,,,,,,,,,,,,,,,,,,43,149005,22,Female,1,2024/02/09_12:46:08,JV,59.81815544
,,,,,,calibration,0,30,2,679,8,X,0,right,0.256903153,1,0,,,,,,,,,,,,,,,,,,,,,1,,,,,,,,,,,,,,,,,,,,,,,,,,,,,,,,,,,,,,,,,,,,,,43,149005,22,Female,1,2024/02/09_12:46:08,JV,59.81815544
,,,,,,calibration,0,30,2,679,9,C,0,right,0.53880482,1,0,,,,,,,,,,,,,,,,,,,,,1,,,,,,,,,,,,,,,,,,,,,,,,,,,,,,,,,,,,,,,,,,,,,,43,149005,22,Female,1,2024/02/09_12:46:08,JV,59.81815544
,,,,,,calibration,0,30,2,679,10,V,0,right,0.496912364,1,0,,,,,,,,,,,,,,,,,,,,,1,,,,,,,,,,,,,,,,,,,,,,,,,,,,,,,,,,,,,,,,,,,,,,43,149005,22,Female,1,2024/02/09_12:46:08,JV,59.81815544
,,,,,,calibration,0,30,2,679,11,J,0,right,0.551484428,1,0,,,,,,,,,,,,,,,,,,,,,1,,,,,,,,,,,,,,,,,,,,,,,,,,,,,,,,,,,,,,,,,,,,,,43,149005,22,Female,1,2024/02/09_12:46:08,JV,59.81815544
,,,,,,calibration,0,30,2,679,12,V,1,right,0.513432392,0,0,,,,,,,,,,,,,,,,,,,,,1,,,,,,,,,,,,,,,,,,,,,,,,,,,,,,,,,,,,,,,,,,,,,,43,149005,22,Female,1,2024/02/09_12:46:08,JV,59.81815544
,,,,,,calibration,0,30,2,679,13,N,0,right,0.424310296,1,0,,,,,,,,,,,,,,,,,,,,,1,,,,,,,,,,,,,,,,,,,,,,,,,,,,,,,,,,,,,,,,,,,,,,43,149005,22,Female,1,2024/02/09_12:46:08,JV,59.81815544
,,,,,,calibration,0,30,2,679,14,V,1,right,0.644298101,0,0,,,,,,,,,,,,,,,,,,,,,1,,,,,,,,,,,,,,,,,,,,,,,,,,,,,,,,,,,,,,,,,,,,,,43,149005,22,Female,1,2024/02/09_12:46:08,JV,59.81815544
,,,,,,calibration,0,30,2,679,,,,,,,,0.875,0.5,0,1,0,1,0.426716787,2,0,0,0,0,10,12,4,10,0,,,,1,,,,,,,,,,,,,,,,,,,,,,,,,,,,,,,,,,,,,,,,,,,,,,43,149005,22,Female,1,2024/02/09_12:46:08,JV,59.81815544
,,,,,,Calibration,0,,2,679,,,,,,,,,,,,,,,,,,,,,,,,,11,,,1,,,,,,,,,,,,,,,,,,,,,,,,,,,,,,,,,,,,,,,,,,,,,,43,149005,22,Female,1,2024/02/09_12:46:08,JV,59.81815544
,,,,,,calibration,0,13,2,583,1,C,0,right,0.268141932,1,0,,,,,,,,,,,,,,,,,,,,,1,,,,,,,,,,,,,,,,,,,,,,,,,,,,,,,,,,,,,,,,,,,,,,43,149005,22,Female,1,2024/02/09_12:46:08,JV,59.81815544
,,,,,,calibration,0,13,2,583,2,S,0,right,0.325168725,1,0,,,,,,,,,,,,,,,,,,,,,1,,,,,,,,,,,,,,,,,,,,,,,,,,,,,,,,,,,,,,,,,,,,,,43,149005,22,Female,1,2024/02/09_12:46:08,JV,59.81815544
,,,,,,calibration,0,13,2,583,3,Q,0,right,0.447113859,1,0,,,,,,,,,,,,,,,,,,,,,1,,,,,,,,,,,,,,,,,,,,,,,,,,,,,,,,,,,,,,,,,,,,,,43,149005,22,Female,1,2024/02/09_12:46:08,JV,59.81815544
,,,,,,calibration,0,13,2,583,4,F,0,right,0.470218089,1,0,,,,,,,,,,,,,,,,,,,,,1,,,,,,,,,,,,,,,,,,,,,,,,,,,,,,,,,,,,,,,,,,,,,,43,149005,22,Female,1,2024/02/09_12:46:08,JV,59.81815544
,,,,,,calibration,0,13,2,583,5,Q,1,right,0.344971791,0,0,,,,,,,,,,,,,,,,,,,,,1,,,,,,,,,,,,,,,,,,,,,,,,,,,,,,,,,,,,,,,,,,,,,,43,149005,22,Female,1,2024/02/09_12:46:08,JV,59.81815544
,,,,,,calibration,0,13,2,583,6,X,0,right,0.47042496,1,0,,,,,,,,,,,,,,,,,,,,,1,,,,,,,,,,,,,,,,,,,,,,,,,,,,,,,,,,,,,,,,,,,,,,43,149005,22,Female,1,2024/02/09_12:46:08,JV,59.81815544
,,,,,,calibration,0,13,2,583,7,Q,1,right,0.428598344,0,0,,,,,,,,,,,,,,,,,,,,,1,,,,,,,,,,,,,,,,,,,,,,,,,,,,,,,,,,,,,,,,,,,,,,43,149005,22,Female,1,2024/02/09_12:46:08,JV,59.81815544
,,,,,,calibration,0,13,2,583,8,C,0,right,0.370459776,1,0,,,,,,,,,,,,,,,,,,,,,1,,,,,,,,,,,,,,,,,,,,,,,,,,,,,,,,,,,,,,,,,,,,,,43,149005,22,Female,1,2024/02/09_12:46:08,JV,59.81815544
,,,,,,calibration,0,13,2,583,9,Q,1,right,0.383000248,0,0,,,,,,,,,,,,,,,,,,,,,1,,,,,,,,,,,,,,,,,,,,,,,,,,,,,,,,,,,,,,,,,,,,,,43,149005,22,Female,1,2024/02/09_12:46:08,JV,59.81815544
,,,,,,calibration,0,13,2,583,10,X,0,right,0.437848503,1,0,,,,,,,,,,,,,,,,,,,,,1,,,,,,,,,,,,,,,,,,,,,,,,,,,,,,,,,,,,,,,,,,,,,,43,149005,22,Female,1,2024/02/09_12:46:08,JV,59.81815544
,,,,,,calibration,0,13,2,583,11,C,0,right,0.341872471,1,0,,,,,,,,,,,,,,,,,,,,,1,,,,,,,,,,,,,,,,,,,,,,,,,,,,,,,,,,,,,,,,,,,,,,43,149005,22,Female,1,2024/02/09_12:46:08,JV,59.81815544
,,,,,,calibration,0,13,2,583,12,X,1,right,0.454184734,0,0,,,,,,,,,,,,,,,,,,,,,1,,,,,,,,,,,,,,,,,,,,,,,,,,,,,,,,,,,,,,,,,,,,,,43,149005,22,Female,1,2024/02/09_12:46:08,JV,59.81815544
,,,,,,calibration,0,13,2,583,13,N,0,right,0.422016683,1,0,,,,,,,,,,,,,,,,,,,,,1,,,,,,,,,,,,,,,,,,,,,,,,,,,,,,,,,,,,,,,,,,,,,,43,149005,22,Female,1,2024/02/09_12:46:08,JV,59.81815544
,,,,,,calibration,0,13,2,583,14,X,1,right,0.437628905,0,0,,,,,,,,,,,,,,,,,,,,,1,,,,,,,,,,,,,,,,,,,,,,,,,,,,,,,,,,,,,,,,,,,,,,43,149005,22,Female,1,2024/02/09_12:46:08,JV,59.81815544
,,,,,,calibration,0,13,2,583,15,V,0,right,0.437229207,1,0,,,,,,,,,,,,,,,,,,,,,1,,,,,,,,,,,,,,,,,,,,,,,,,,,,,,,,,,,,,,,,,,,,,,43,149005,22,Female,1,2024/02/09_12:46:08,JV,59.81815544
,,,,,,calibration,0,13,2,583,,,,,,,,0.5,0,0,1,0,1,0.402591882,0,0,0,0,0,10,10,5,10,0,,,,1,,,,,,,,,,,,,,,,,,,,,,,,,,,,,,,,,,,,,,,,,,,,,,43,149005,22,Female,1,2024/02/09_12:46:08,JV,59.81815544
,,,,,,Calibration,0,,2,583,,,,,,,,,,,,,,,,,,,,,,,,,12,,,1,,,,,,,,,,,,,,,,,,,,,,,,,,,,,,,,,,,,,,,,,,,,,,43,149005,22,Female,1,2024/02/09_12:46:08,JV,59.81815544
,,,,,,calibration,0,10,2,679,1,C,0,right,0.0497414,1,0,,,,,,,,,,,,,,,,,,,,,1,,,,,,,,,,,,,,,,,,,,,,,,,,,,,,,,,,,,,,,,,,,,,,43,149005,22,Female,1,2024/02/09_12:46:08,JV,59.81815544
,,,,,,calibration,0,10,2,679,2,Q,0,right,0.313898463,1,0,,,,,,,,,,,,,,,,,,,,,1,,,,,,,,,,,,,,,,,,,,,,,,,,,,,,,,,,,,,,,,,,,,,,43,149005,22,Female,1,2024/02/09_12:46:08,JV,59.81815544
,,,,,,calibration,0,10,2,679,3,V,0,right,0.413034582,1,0,,,,,,,,,,,,,,,,,,,,,1,,,,,,,,,,,,,,,,,,,,,,,,,,,,,,,,,,,,,,,,,,,,,,43,149005,22,Female,1,2024/02/09_12:46:08,JV,59.81815544
,,,,,,calibration,0,10,2,679,4,N,0,right,0.370738435,1,0,,,,,,,,,,,,,,,,,,,,,1,,,,,,,,,,,,,,,,,,,,,,,,,,,,,,,,,,,,,,,,,,,,,,43,149005,22,Female,1,2024/02/09_12:46:08,JV,59.81815544
,,,,,,calibration,0,10,2,679,5,C,0,right,0.478077449,1,0,,,,,,,,,,,,,,,,,,,,,1,,,,,,,,,,,,,,,,,,,,,,,,,,,,,,,,,,,,,,,,,,,,,,43,149005,22,Female,1,2024/02/09_12:46:08,JV,59.81815544
,,,,,,calibration,0,10,2,679,6,N,1,right,0.435607326,0,0,,,,,,,,,,,,,,,,,,,,,1,,,,,,,,,,,,,,,,,,,,,,,,,,,,,,,,,,,,,,,,,,,,,,43,149005,22,Female,1,2024/02/09_12:46:08,JV,59.81815544
,,,,,,calibration,0,10,2,679,7,F,0,right,0.446403237,1,0,,,,,,,,,,,,,,,,,,,,,1,,,,,,,,,,,,,,,,,,,,,,,,,,,,,,,,,,,,,,,,,,,,,,43,149005,22,Female,1,2024/02/09_12:46:08,JV,59.81815544
,,,,,,calibration,0,10,2,679,8,N,1,right,0.48762495,0,0,,,,,,,,,,,,,,,,,,,,,1,,,,,,,,,,,,,,,,,,,,,,,,,,,,,,,,,,,,,,,,,,,,,,43,149005,22,Female,1,2024/02/09_12:46:08,JV,59.81815544
,,,,,,calibration,0,10,2,679,9,C,0,right,0.424723928,1,0,,,,,,,,,,,,,,,,,,,,,1,,,,,,,,,,,,,,,,,,,,,,,,,,,,,,,,,,,,,,,,,,,,,,43,149005,22,Female,1,2024/02/09_12:46:08,JV,59.81815544
,,,,,,calibration,0,10,2,679,10,F,0,right,0.423232197,1,0,,,,,,,,,,,,,,,,,,,,,1,,,,,,,,,,,,,,,,,,,,,,,,,,,,,,,,,,,,,,,,,,,,,,43,149005,22,Female,1,2024/02/09_12:46:08,JV,59.81815544
,,,,,,calibration,0,10,2,679,11,C,1,left,0.552625534,1,0,,,,,,,,,,,,,,,,,,,,,1,,,,,,,,,,,,,,,,,,,,,,,,,,,,,,,,,,,,,,,,,,,,,,43,149005,22,Female,1,2024/02/09_12:46:08,JV,59.81815544
,,,,,,calibration,0,10,2,679,12,F,1,right,0.627266991,0,0,,,,,,,,,,,,,,,,,,,,,1,,,,,,,,,,,,,,,,,,,,,,,,,,,,,,,,,,,,,,,,,,,,,,43,149005,22,Female,1,2024/02/09_12:46:08,JV,59.81815544
,,,,,,calibration,0,10,2,679,13,X,0,right,0.56223069,1,0,,,,,,,,,,,,,,,,,,,,,1,,,,,,,,,,,,,,,,,,,,,,,,,,,,,,,,,,,,,,,,,,,,,,43,149005,22,Female,1,2024/02/09_12:46:08,JV,59.81815544
,,,,,,calibration,0,10,2,679,14,J,0,right,0.661698994,1,0,,,,,,,,,,,,,,,,,,,,,1,,,,,,,,,,,,,,,,,,,,,,,,,,,,,,,,,,,,,,,,,,,,,,43,149005,22,Female,1,2024/02/09_12:46:08,JV,59.81815544
,,,,,,calibration,0,10,2,679,,,,,,,,0.8125,0.25,0,1,0,1,0.446207441,1,0,0,0,0,10,11,4,10,0,,,,1,,,,,,,,,,,,,,,,,,,,,,,,,,,,,,,,,,,,,,,,,,,,,,43,149005,22,Female,1,2024/02/09_12:46:08,JV,59.81815544
,,,,,,Calibration,0,,2,679,,,,,,,,,,,,,,,,,,,,,,,,,13,,,1,,,,,,,,,,,,,,,,,,,,,,,,,,,,,,,,,,,,,,,,,,,,,,43,149005,22,Female,1,2024/02/09_12:46:08,JV,59.81815544
,,,,,,calibration,0,17,2,679,1,N,0,right,0.307510261,1,0,,,,,,,,,,,,,,,,,,,,,1,,,,,,,,,,,,,,,,,,,,,,,,,,,,,,,,,,,,,,,,,,,,,,43,149005,22,Female,1,2024/02/09_12:46:08,JV,59.81815544
,,,,,,calibration,0,17,2,679,2,Q,0,right,0.470362236,1,0,,,,,,,,,,,,,,,,,,,,,1,,,,,,,,,,,,,,,,,,,,,,,,,,,,,,,,,,,,,,,,,,,,,,43,149005,22,Female,1,2024/02/09_12:46:08,JV,59.81815544
,,,,,,calibration,0,17,2,679,3,N,1,left,0.430271358,1,0,,,,,,,,,,,,,,,,,,,,,1,,,,,,,,,,,,,,,,,,,,,,,,,,,,,,,,,,,,,,,,,,,,,,43,149005,22,Female,1,2024/02/09_12:46:08,JV,59.81815544
,,,,,,calibration,0,17,2,679,4,Q,1,left,nan,0,1,,,,,,,,,,,,,,,,,,,,,1,,,,,,,,,,,,,,,,,,,,,,,,,,,,,,,,,,,,,,,,,,,,,,43,149005,22,Female,1,2024/02/09_12:46:08,JV,59.81815544
,,,,,,calibration,0,17,2,679,5,X,0,right,0.406784476,1,0,,,,,,,,,,,,,,,,,,,,,1,,,,,,,,,,,,,,,,,,,,,,,,,,,,,,,,,,,,,,,,,,,,,,43,149005,22,Female,1,2024/02/09_12:46:08,JV,59.81815544
,,,,,,calibration,0,17,2,679,6,F,0,right,0.208595206,1,0,,,,,,,,,,,,,,,,,,,,,1,,,,,,,,,,,,,,,,,,,,,,,,,,,,,,,,,,,,,,,,,,,,,,43,149005,22,Female,1,2024/02/09_12:46:08,JV,59.81815544
,,,,,,calibration,0,17,2,679,7,V,0,left,0.403225717,0,0,,,,,,,,,,,,,,,,,,,,,1,,,,,,,,,,,,,,,,,,,,,,,,,,,,,,,,,,,,,,,,,,,,,,43,149005,22,Female,1,2024/02/09_12:46:08,JV,59.81815544
,,,,,,calibration,0,17,2,679,8,Q,0,right,0.712849095,1,0,,,,,,,,,,,,,,,,,,,,,1,,,,,,,,,,,,,,,,,,,,,,,,,,,,,,,,,,,,,,,,,,,,,,43,149005,22,Female,1,2024/02/09_12:46:08,JV,59.81815544
,,,,,,calibration,0,17,2,679,9,C,0,right,0.561013892,1,0,,,,,,,,,,,,,,,,,,,,,1,,,,,,,,,,,,,,,,,,,,,,,,,,,,,,,,,,,,,,,,,,,,,,43,149005,22,Female,1,2024/02/09_12:46:08,JV,59.81815544
,,,,,,calibration,0,17,2,679,10,J,0,right,0.25186525,1,0,,,,,,,,,,,,,,,,,,,,,1,,,,,,,,,,,,,,,,,,,,,,,,,,,,,,,,,,,,,,,,,,,,,,43,149005,22,Female,1,2024/02/09_12:46:08,JV,59.81815544
,,,,,,calibration,0,17,2,679,11,C,1,right,0.375547041,0,0,,,,,,,,,,,,,,,,,,,,,1,,,,,,,,,,,,,,,,,,,,,,,,,,,,,,,,,,,,,,,,,,,,,,43,149005,22,Female,1,2024/02/09_12:46:08,JV,59.81815544
,,,,,,calibration,0,17,2,679,12,J,1,right,0.325771936,0,0,,,,,,,,,,,,,,,,,,,,,1,,,,,,,,,,,,,,,,,,,,,,,,,,,,,,,,,,,,,,,,,,,,,,43,149005,22,Female,1,2024/02/09_12:46:08,JV,59.81815544
,,,,,,calibration,0,17,2,679,13,X,0,right,0.327248394,1,0,,,,,,,,,,,,,,,,,,,,,1,,,,,,,,,,,,,,,,,,,,,,,,,,,,,,,,,,,,,,,,,,,,,,43,149005,22,Female,1,2024/02/09_12:46:08,JV,59.81815544
,,,,,,calibration,0,17,2,679,14,F,0,right,0.370595097,1,0,,,,,,,,,,,,,,,,,,,,,1,,,,,,,,,,,,,,,,,,,,,,,,,,,,,,,,,,,,,,,,,,,,,,43,149005,22,Female,1,2024/02/09_12:46:08,JV,59.81815544
,,,,,,calibration,0,17,2,679,,,,,,,,0.6875,0.25,0.1,0.9,0.071428571,0.828571429,0.396279997,1,1,1,0,1,9,10,4,10,0,,,,1,,,,,,,,,,,,,,,,,,,,,,,,,,,,,,,,,,,,,,,,,,,,,,43,149005,22,Female,1,2024/02/09_12:46:08,JV,59.81815544
,,,,,,Calibration,0,,2,679,,,,,,,,,,,,,,,,,,,,,,,,,14,,,1,,,,,,,,,,,,,,,,,,,,,,,,,,,,,,,,,,,,,,,,,,,,,,43,149005,22,Female,1,2024/02/09_12:46:08,JV,59.81815544
,,,,,,calibration,0,15,2,788,1,F,0,right,0.242308126,1,0,,,,,,,,,,,,,,,,,,,,,1,,,,,,,,,,,,,,,,,,,,,,,,,,,,,,,,,,,,,,,,,,,,,,43,149005,22,Female,1,2024/02/09_12:46:08,JV,59.81815544
,,,,,,calibration,0,15,2,788,2,C,0,right,0.192780697,1,0,,,,,,,,,,,,,,,,,,,,,1,,,,,,,,,,,,,,,,,,,,,,,,,,,,,,,,,,,,,,,,,,,,,,43,149005,22,Female,1,2024/02/09_12:46:08,JV,59.81815544
,,,,,,calibration,0,15,2,788,3,X,0,right,0.545438677,1,0,,,,,,,,,,,,,,,,,,,,,1,,,,,,,,,,,,,,,,,,,,,,,,,,,,,,,,,,,,,,,,,,,,,,43,149005,22,Female,1,2024/02/09_12:46:08,JV,59.81815544
,,,,,,calibration,0,15,2,788,4,C,1,right,nan,0,1,,,,,,,,,,,,,,,,,,,,,1,,,,,,,,,,,,,,,,,,,,,,,,,,,,,,,,,,,,,,,,,,,,,,43,149005,22,Female,1,2024/02/09_12:46:08,JV,59.81815544
,,,,,,calibration,0,15,2,788,5,S,0,right,0.840981286,1,0,,,,,,,,,,,,,,,,,,,,,1,,,,,,,,,,,,,,,,,,,,,,,,,,,,,,,,,,,,,,,,,,,,,,43,149005,22,Female,1,2024/02/09_12:46:08,JV,59.81815544
,,,,,,calibration,0,15,2,788,6,V,0,right,0.215045513,1,0,,,,,,,,,,,,,,,,,,,,,1,,,,,,,,,,,,,,,,,,,,,,,,,,,,,,,,,,,,,,,,,,,,,,43,149005,22,Female,1,2024/02/09_12:46:08,JV,59.81815544
,,,,,,calibration,0,15,2,788,7,Q,0,right,0.463964431,1,0,,,,,,,,,,,,,,,,,,,,,1,,,,,,,,,,,,,,,,,,,,,,,,,,,,,,,,,,,,,,,,,,,,,,43,149005,22,Female,1,2024/02/09_12:46:08,JV,59.81815544
,,,,,,calibration,0,15,2,788,8,N,0,right,0.470125494,1,0,,,,,,,,,,,,,,,,,,,,,1,,,,,,,,,,,,,,,,,,,,,,,,,,,,,,,,,,,,,,,,,,,,,,43,149005,22,Female,1,2024/02/09_12:46:08,JV,59.81815544
,,,,,,calibration,0,15,2,788,9,Q,1,right,0.666944198,0,0,,,,,,,,,,,,,,,,,,,,,1,,,,,,,,,,,,,,,,,,,,,,,,,,,,,,,,,,,,,,,,,,,,,,43,149005,22,Female,1,2024/02/09_12:46:08,JV,59.81815544
,,,,,,calibration,0,15,2,788,10,N,1,right,0.272003138,0,0,,,,,,,,,,,,,,,,,,,,,1,,,,,,,,,,,,,,,,,,,,,,,,,,,,,,,,,,,,,,,,,,,,,,43,149005,22,Female,1,2024/02/09_12:46:08,JV,59.81815544
,,,,,,calibration,0,15,2,788,11,J,0,right,0.678600717,1,0,,,,,,,,,,,,,,,,,,,,,1,,,,,,,,,,,,,,,,,,,,,,,,,,,,,,,,,,,,,,,,,,,,,,43,149005,22,Female,1,2024/02/09_12:46:08,JV,59.81815544
,,,,,,calibration,0,15,2,788,12,N,1,right,0.243987191,0,0,,,,,,,,,,,,,,,,,,,,,1,,,,,,,,,,,,,,,,,,,,,,,,,,,,,,,,,,,,,,,,,,,,,,43,149005,22,Female,1,2024/02/09_12:46:08,JV,59.81815544
,,,,,,calibration,0,15,2,788,13,X,0,right,0.407960354,1,0,,,,,,,,,,,,,,,,,,,,,1,,,,,,,,,,,,,,,,,,,,,,,,,,,,,,,,,,,,,,,,,,,,,,43,149005,22,Female,1,2024/02/09_12:46:08,JV,59.81815544
,,,,,,calibration,0,15,2,788,,,,,,,,0.5,0,0,1,0.076923077,0.923076923,0.436678319,0,0,1,0,1,9,9,4,9,0,,,,1,,,,,,,,,,,,,,,,,,,,,,,,,,,,,,,,,,,,,,,,,,,,,,43,149005,22,Female,1,2024/02/09_12:46:08,JV,59.81815544
,,,,,,Calibration,0,,2,788,,,,,,,,,,,,,,,,,,,,,,,,,15,,,1,,,,,,,,,,,,,,,,,,,,,,,,,,,,,,,,,,,,,,,,,,,,,,43,149005,22,Female,1,2024/02/09_12:46:08,JV,59.81815544
,,,,,,calibration,0,15,2,917,1,X,0,right,0.311728149,1,0,,,,,,,,,,,,,,,,,,,,,1,,,,,,,,,,,,,,,,,,,,,,,,,,,,,,,,,,,,,,,,,,,,,,43,149005,22,Female,1,2024/02/09_12:46:08,JV,59.81815544
,,,,,,calibration,0,15,2,917,2,C,0,right,0.328277353,1,0,,,,,,,,,,,,,,,,,,,,,1,,,,,,,,,,,,,,,,,,,,,,,,,,,,,,,,,,,,,,,,,,,,,,43,149005,22,Female,1,2024/02/09_12:46:08,JV,59.81815544
,,,,,,calibration,0,15,2,917,3,N,0,right,0.413301887,1,0,,,,,,,,,,,,,,,,,,,,,1,,,,,,,,,,,,,,,,,,,,,,,,,,,,,,,,,,,,,,,,,,,,,,43,149005,22,Female,1,2024/02/09_12:46:08,JV,59.81815544
,,,,,,calibration,0,15,2,917,4,S,0,right,0.467552546,1,0,,,,,,,,,,,,,,,,,,,,,1,,,,,,,,,,,,,,,,,,,,,,,,,,,,,,,,,,,,,,,,,,,,,,43,149005,22,Female,1,2024/02/09_12:46:08,JV,59.81815544
,,,,,,calibration,0,15,2,917,5,N,1,right,0.562280935,0,0,,,,,,,,,,,,,,,,,,,,,1,,,,,,,,,,,,,,,,,,,,,,,,,,,,,,,,,,,,,,,,,,,,,,43,149005,22,Female,1,2024/02/09_12:46:08,JV,59.81815544
,,,,,,calibration,0,15,2,917,6,J,0,right,0.201269832,1,0,,,,,,,,,,,,,,,,,,,,,1,,,,,,,,,,,,,,,,,,,,,,,,,,,,,,,,,,,,,,,,,,,,,,43,149005,22,Female,1,2024/02/09_12:46:08,JV,59.81815544
,,,,,,calibration,0,15,2,917,7,Q,0,right,0.220903877,1,0,,,,,,,,,,,,,,,,,,,,,1,,,,,,,,,,,,,,,,,,,,,,,,,,,,,,,,,,,,,,,,,,,,,,43,149005,22,Female,1,2024/02/09_12:46:08,JV,59.81815544
,,,,,,calibration,0,15,2,917,8,J,1,right,0.22163594,0,0,,,,,,,,,,,,,,,,,,,,,1,,,,,,,,,,,,,,,,,,,,,,,,,,,,,,,,,,,,,,,,,,,,,,43,149005,22,Female,1,2024/02/09_12:46:08,JV,59.81815544
,,,,,,calibration,0,15,2,917,9,Q,1,right,0.283058318,0,0,,,,,,,,,,,,,,,,,,,,,1,,,,,,,,,,,,,,,,,,,,,,,,,,,,,,,,,,,,,,,,,,,,,,43,149005,22,Female,1,2024/02/09_12:46:08,JV,59.81815544
,,,,,,calibration,0,15,2,917,10,N,0,right,0.609008533,1,0,,,,,,,,,,,,,,,,,,,,,1,,,,,,,,,,,,,,,,,,,,,,,,,,,,,,,,,,,,,,,,,,,,,,43,149005,22,Female,1,2024/02/09_12:46:08,JV,59.81815544
,,,,,,calibration,0,15,2,917,11,C,0,right,0.38248117,1,0,,,,,,,,,,,,,,,,,,,,,1,,,,,,,,,,,,,,,,,,,,,,,,,,,,,,,,,,,,,,,,,,,,,,43,149005,22,Female,1,2024/02/09_12:46:08,JV,59.81815544
,,,,,,calibration,0,15,2,917,12,S,0,right,0.381949043,1,0,,,,,,,,,,,,,,,,,,,,,1,,,,,,,,,,,,,,,,,,,,,,,,,,,,,,,,,,,,,,,,,,,,,,43,149005,22,Female,1,2024/02/09_12:46:08,JV,59.81815544
,,,,,,calibration,0,15,2,917,,,,,,,,0.5,0,0,1,0,1,0.365287299,0,0,0,0,0,9,9,3,9,0,,,,1,,,,,,,,,,,,,,,,,,,,,,,,,,,,,,,,,,,,,,,,,,,,,,43,149005,22,Female,1,2024/02/09_12:46:08,JV,59.81815544
,,,,,,Calibration,0,,2,917,,,,,,,,,,,,,,,,,,,,,,,,,16,,,1,,,,,,,,,,,,,,,,,,,,,,,,,,,,,,,,,,,,,,,,,,,,,,43,149005,22,Female,1,2024/02/09_12:46:08,JV,59.81815544
,,,,,,calibration,0,28,2,1068,1,X,0,right,0.212979273,1,0,,,,,,,,,,,,,,,,,,,,,1,,,,,,,,,,,,,,,,,,,,,,,,,,,,,,,,,,,,,,,,,,,,,,43,149005,22,Female,1,2024/02/09_12:46:08,JV,59.81815544
,,,,,,calibration,0,28,2,1068,2,C,0,right,1.822283721,1,0,,,,,,,,,,,,,,,,,,,,,1,,,,,,,,,,,,,,,,,,,,,,,,,,,,,,,,,,,,,,,,,,,,,,43,149005,22,Female,1,2024/02/09_12:46:08,JV,59.81815544
,,,,,,calibration,0,28,2,1068,3,N,0,right,0.557454373,1,0,,,,,,,,,,,,,,,,,,,,,1,,,,,,,,,,,,,,,,,,,,,,,,,,,,,,,,,,,,,,,,,,,,,,43,149005,22,Female,1,2024/02/09_12:46:08,JV,59.81815544
,,,,,,calibration,0,28,2,1068,4,Q,0,right,0.345792987,1,0,,,,,,,,,,,,,,,,,,,,,1,,,,,,,,,,,,,,,,,,,,,,,,,,,,,,,,,,,,,,,,,,,,,,43,149005,22,Female,1,2024/02/09_12:46:08,JV,59.81815544
,,,,,,calibration,0,28,2,1068,5,S,0,right,0.368887032,1,0,,,,,,,,,,,,,,,,,,,,,1,,,,,,,,,,,,,,,,,,,,,,,,,,,,,,,,,,,,,,,,,,,,,,43,149005,22,Female,1,2024/02/09_12:46:08,JV,59.81815544
,,,,,,calibration,0,28,2,1068,6,F,0,right,0.447987052,1,0,,,,,,,,,,,,,,,,,,,,,1,,,,,,,,,,,,,,,,,,,,,,,,,,,,,,,,,,,,,,,,,,,,,,43,149005,22,Female,1,2024/02/09_12:46:08,JV,59.81815544
,,,,,,calibration,0,28,2,1068,7,S,1,right,0.262169593,0,0,,,,,,,,,,,,,,,,,,,,,1,,,,,,,,,,,,,,,,,,,,,,,,,,,,,,,,,,,,,,,,,,,,,,43,149005,22,Female,1,2024/02/09_12:46:08,JV,59.81815544
,,,,,,calibration,0,28,2,1068,8,J,0,right,0.319902435,1,0,,,,,,,,,,,,,,,,,,,,,1,,,,,,,,,,,,,,,,,,,,,,,,,,,,,,,,,,,,,,,,,,,,,,43,149005,22,Female,1,2024/02/09_12:46:08,JV,59.81815544
,,,,,,calibration,0,28,2,1068,9,S,1,left,0.423236297,1,0,,,,,,,,,,,,,,,,,,,,,1,,,,,,,,,,,,,,,,,,,,,,,,,,,,,,,,,,,,,,,,,,,,,,43,149005,22,Female,1,2024/02/09_12:46:08,JV,59.81815544
,,,,,,calibration,0,28,2,1068,10,J,1,right,0.487486352,0,0,,,,,,,,,,,,,,,,,,,,,1,,,,,,,,,,,,,,,,,,,,,,,,,,,,,,,,,,,,,,,,,,,,,,43,149005,22,Female,1,2024/02/09_12:46:08,JV,59.81815544
,,,,,,calibration,0,28,2,1068,11,C,0,right,0.430549959,1,0,,,,,,,,,,,,,,,,,,,,,1,,,,,,,,,,,,,,,,,,,,,,,,,,,,,,,,,,,,,,,,,,,,,,43,149005,22,Female,1,2024/02/09_12:46:08,JV,59.81815544
,,,,,,calibration,0,28,2,1068,,,,,,,,0.833333333,0.333333333,0,1,0,1,0.516248098,1,0,0,0,0,8,9,3,8,0,,,,1,,,,,,,,,,,,,,,,,,,,,,,,,,,,,,,,,,,,,,,,,,,,,,43,149005,22,Female,1,2024/02/09_12:46:08,JV,59.81815544
,,,,,,Calibration,0,,2,1068,,,,,,,,,,,,,,,,,,,,,,,,,17,,,1,,,,,,,,,,,,,,,,,,,,,,,,,,,,,,,,,,,,,,,,,,,,,,43,149005,22,Female,1,2024/02/09_12:46:08,JV,59.81815544
,,,,,,CALIBRATION,0,,,,,,,,,,,,,,,,,,,,,,,,,,,,17,0.833333333,1068,1,,,,,,,,,,,,,,,,,,,,,,,,,,,,,,,,,,,,,,,,,,,,,,43,149005,22,Female,1,2024/02/09_12:46:08,JV,59.81815544
1,./instructions/inst_prac_1/Slide24.png,right,12.26901487,498.5115411,510.7805559,,,,,,,,,,,,,,,,,,,,,,,,,,,,,,,,,1,,,,,,,,,,,,,,,,,,,,,,,,,,,,,,,,,,,,,,,,,,,,,,43,149005,22,Female,1,2024/02/09_12:46:08,JV,59.81815544
2,./instructions/inst_prac_1/Slide25.png,right,3.833103167,510.8356117,514.6687149,,,,,,,,,,,,,,,,,,,,,,,,,,,,,,,,,1,,,,,,,,,,,,,,,,,,,,,,,,,,,,,,,,,,,,,,,,,,,,,,43,149005,22,Female,1,2024/02/09_12:46:08,JV,59.81815544
3,./instructions/inst_prac_1/Slide26.png,right,1.146939573,514.7696227,515.9165623,,,,,,,,,,,,,,,,,,,,,,,,,,,,,,,,,1,,,,,,,,,,,,,,,,,,,,,,,,,,,,,,,,,,,,,,,,,,,,,,43,149005,22,Female,1,2024/02/09_12:46:08,JV,59.81815544
4,./instructions/inst_prac_1/Slide27.png,right,0.615136794,515.9736829,516.5888197,,,,,,,,,,,,,,,,,,,,,,,,,,,,,,,,,1,,,,,,,,,,,,,,,,,,,,,,,,,,,,,,,,,,,,,,,,,,,,,,43,149005,22,Female,1,2024/02/09_12:46:08,JV,59.81815544
5,./instructions/inst_prac_1/Slide28.png,right,0.586621821,516.6901467,517.2767685,,,,,,,,,,,,,,,,,,,,,,,,,,,,,,,,,1,,,,,,,,,,,,,,,,,,,,,,,,,,,,,,,,,,,,,,,,,,,,,,43,149005,22,Female,1,2024/02/09_12:46:08,JV,59.81815544
6,./instructions/inst_prac_1/Slide29.png,right,11.25711902,517.3237032,528.5808222,,,,,,,,,,,,,,,,,,,,,,,,,,,,,,,,,1,,,,,,,,,,,,,,,,,,,,,,,,,,,,,,,,,,,,,,,,,,,,,,43,149005,22,Female,1,2024/02/09_12:46:08,JV,59.81815544
7,./instructions/inst_prac_1/Slide30.png,right,4.539798474,528.6488191,533.1886176,,,,,,,,,,,,,,,,,,,,,,,,,,,,,,,,,1,,,,,,,,,,,,,,,,,,,,,,,,,,,,,,,,,,,,,,,,,,,,,,43,149005,22,Female,1,2024/02/09_12:46:08,JV,59.81815544
,,,,,,practice,0,26,1,1250,1,S,0,right,2.087419256,1,0,,,,,,,,,,,,,,,,,,,,,1,,,,,,,,,,,,,,,,,,,,,,,,,,,,,,,,,,,,,,,,,,,,,,43,149005,22,Female,1,2024/02/09_12:46:08,JV,59.81815544
,,,,,,practice,0,26,1,1250,2,V,0,right,0.943642152,1,0,,,,,,,,,,,,,,,,,,,,,1,,,,,,,,,,,,,,,,,,,,,,,,,,,,,,,,,,,,,,,,,,,,,,43,149005,22,Female,1,2024/02/09_12:46:08,JV,59.81815544
,,,,,,practice,0,26,1,1250,3,N,0,right,0.478758051,1,0,,,,,,,,,,,,,,,,,,,,,1,,,,,,,,,,,,,,,,,,,,,,,,,,,,,,,,,,,,,,,,,,,,,,43,149005,22,Female,1,2024/02/09_12:46:08,JV,59.81815544
,,,,,,practice,0,26,1,1250,4,N,1,left,0.792233389,1,0,,,,,,,,,,,,,,,,,,,,,1,,,,,,,,,,,,,,,,,,,,,,,,,,,,,,,,,,,,,,,,,,,,,,43,149005,22,Female,1,2024/02/09_12:46:08,JV,59.81815544
,,,,,,practice,0,26,1,1250,5,C,0,right,1.023096271,1,0,,,,,,,,,,,,,,,,,,,,,1,,,,,,,,,,,,,,,,,,,,,,,,,,,,,,,,,,,,,,,,,,,,,,43,149005,22,Female,1,2024/02/09_12:46:08,JV,59.81815544
,,,,,,practice,0,26,1,1250,6,Q,0,right,0.828759606,1,0,,,,,,,,,,,,,,,,,,,,,1,,,,,,,,,,,,,,,,,,,,,,,,,,,,,,,,,,,,,,,,,,,,,,43,149005,22,Female,1,2024/02/09_12:46:08,JV,59.81815544
,,,,,,practice,0,26,1,1250,7,Q,1,right,0.413697145,0,0,,,,,,,,,,,,,,,,,,,,,1,,,,,,,,,,,,,,,,,,,,,,,,,,,,,,,,,,,,,,,,,,,,,,43,149005,22,Female,1,2024/02/09_12:46:08,JV,59.81815544
,,,,,,practice,0,26,1,1250,8,N,0,left,0.798269975,0,0,,,,,,,,,,,,,,,,,,,,,1,,,,,,,,,,,,,,,,,,,,,,,,,,,,,,,,,,,,,,,,,,,,,,43,149005,22,Female,1,2024/02/09_12:46:08,JV,59.81815544
,,,,,,practice,0,26,1,1250,9,Q,0,right,1.41858032,1,0,,,,,,,,,,,,,,,,,,,,,1,,,,,,,,,,,,,,,,,,,,,,,,,,,,,,,,,,,,,,,,,,,,,,43,149005,22,Female,1,2024/02/09_12:46:08,JV,59.81815544
,,,,,,practice,0,26,1,1250,10,Q,1,left,0.673106884,1,0,,,,,,,,,,,,,,,,,,,,,1,,,,,,,,,,,,,,,,,,,,,,,,,,,,,,,,,,,,,,,,,,,,,,43,149005,22,Female,1,2024/02/09_12:46:08,JV,59.81815544
,,,,,,practice,0,26,1,1250,,,,,,,,0.833333333,0.666666667,0.142857143,0.857142857,0,0.857142857,0.945756305,2,1,0,0,0,6,8,3,7,0,,,,1,,,,,,,,,,,,,,,,,,,,,,,,,,,,,,,,,,,,,,,,,,,,,,43,149005,22,Female,1,2024/02/09_12:46:08,JV,59.81815544
1,./instructions/inst_prac_1_next/Slide35.png,right,0.905971908,554.2745957,555.1805677,,,,,,,,,,,,,,,,,,,,,,,,,,,,,,,,,1,,,,,,,,,,,,,,,,,,,,,,,,,,,,,,,,,,,,,,,,,,,,,,43,149005,22,Female,1,2024/02/09_12:46:08,JV,59.81815544
,,,,,,practice,0,34,1,1068,1,X,0,right,0.871314596,1,0,,,,,,,,,,,,,,,,,,,,,1,,,,,,,,,,,,,,,,,,,,,,,,,,,,,,,,,,,,,,,,,,,,,,43,149005,22,Female,1,2024/02/09_12:46:08,JV,59.81815544
,,,,,,practice,0,34,1,1068,2,J,0,right,0.46391368,1,0,,,,,,,,,,,,,,,,,,,,,1,,,,,,,,,,,,,,,,,,,,,,,,,,,,,,,,,,,,,,,,,,,,,,43,149005,22,Female,1,2024/02/09_12:46:08,JV,59.81815544
,,,,,,practice,0,34,1,1068,3,J,1,left,0.366188103,1,0,,,,,,,,,,,,,,,,,,,,,1,,,,,,,,,,,,,,,,,,,,,,,,,,,,,,,,,,,,,,,,,,,,,,43,149005,22,Female,1,2024/02/09_12:46:08,JV,59.81815544
,,,,,,practice,0,34,1,1068,4,S,0,right,0.450714969,1,0,,,,,,,,,,,,,,,,,,,,,1,,,,,,,,,,,,,,,,,,,,,,,,,,,,,,,,,,,,,,,,,,,,,,43,149005,22,Female,1,2024/02/09_12:46:08,JV,59.81815544
,,,,,,practice,0,34,1,1068,5,S,1,left,0.390011797,1,0,,,,,,,,,,,,,,,,,,,,,1,,,,,,,,,,,,,,,,,,,,,,,,,,,,,,,,,,,,,,,,,,,,,,43,149005,22,Female,1,2024/02/09_12:46:08,JV,59.81815544
,,,,,,practice,0,34,1,1068,6,V,0,right,0.358471338,1,0,,,,,,,,,,,,,,,,,,,,,1,,,,,,,,,,,,,,,,,,,,,,,,,,,,,,,,,,,,,,,,,,,,,,43,149005,22,Female,1,2024/02/09_12:46:08,JV,59.81815544
,,,,,,practice,0,34,1,1068,7,C,0,right,0.610628557,1,0,,,,,,,,,,,,,,,,,,,,,1,,,,,,,,,,,,,,,,,,,,,,,,,,,,,,,,,,,,,,,,,,,,,,43,149005,22,Female,1,2024/02/09_12:46:08,JV,59.81815544
,,,,,,practice,0,34,1,1068,8,N,0,right,0.481522856,1,0,,,,,,,,,,,,,,,,,,,,,1,,,,,,,,,,,,,,,,,,,,,,,,,,,,,,,,,,,,,,,,,,,,,,43,149005,22,Female,1,2024/02/09_12:46:08,JV,59.81815544
,,,,,,practice,0,34,1,1068,9,N,1,left,0.565363406,1,0,,,,,,,,,,,,,,,,,,,,,1,,,,,,,,,,,,,,,,,,,,,,,,,,,,,,,,,,,,,,,,,,,,,,43,149005,22,Female,1,2024/02/09_12:46:08,JV,59.81815544
,,,,,,practice,0,34,1,1068,10,F,0,right,0.418420684,1,0,,,,,,,,,,,,,,,,,,,,,1,,,,,,,,,,,,,,,,,,,,,,,,,,,,,,,,,,,,,,,,,,,,,,43,149005,22,Female,1,2024/02/09_12:46:08,JV,59.81815544
,,,,,,practice,0,34,1,1068,11,J,0,right,0.51170599,1,0,,,,,,,,,,,,,,,,,,,,,1,,,,,,,,,,,,,,,,,,,,,,,,,,,,,,,,,,,,,,,,,,,,,,43,149005,22,Female,1,2024/02/09_12:46:08,JV,59.81815544
,,,,,,practice,0,34,1,1068,,,,,,,,1,1,0,1,0,1,0.498932361,3,0,0,0,0,8,11,3,8,0,,,,1,,,,,,,,,,,,,,,,,,,,,,,,,,,,,,,,,,,,,,,,,,,,,,43,149005,22,Female,1,2024/02/09_12:46:08,JV,59.81815544
,,,,,,practice,0,19,1,1068,1,C,0,right,0.397709809,1,0,,,,,,,,,,,,,,,,,,,,,1,,,,,,,,,,,,,,,,,,,,,,,,,,,,,,,,,,,,,,,,,,,,,,43,149005,22,Female,1,2024/02/09_12:46:08,JV,59.81815544
,,,,,,practice,0,19,1,1068,2,S,0,right,0.490616968,1,0,,,,,,,,,,,,,,,,,,,,,1,,,,,,,,,,,,,,,,,,,,,,,,,,,,,,,,,,,,,,,,,,,,,,43,149005,22,Female,1,2024/02/09_12:46:08,JV,59.81815544
,,,,,,practice,0,19,1,1068,3,S,1,left,0.474527645,1,0,,,,,,,,,,,,,,,,,,,,,1,,,,,,,,,,,,,,,,,,,,,,,,,,,,,,,,,,,,,,,,,,,,,,43,149005,22,Female,1,2024/02/09_12:46:08,JV,59.81815544
,,,,,,practice,0,19,1,1068,4,Q,0,right,0.440352854,1,0,,,,,,,,,,,,,,,,,,,,,1,,,,,,,,,,,,,,,,,,,,,,,,,,,,,,,,,,,,,,,,,,,,,,43,149005,22,Female,1,2024/02/09_12:46:08,JV,59.81815544
,,,,,,practice,0,19,1,1068,5,Q,1,left,0.330620148,1,0,,,,,,,,,,,,,,,,,,,,,1,,,,,,,,,,,,,,,,,,,,,,,,,,,,,,,,,,,,,,,,,,,,,,43,149005,22,Female,1,2024/02/09_12:46:08,JV,59.81815544
,,,,,,practice,0,19,1,1068,6,J,0,right,0.3574925,1,0,,,,,,,,,,,,,,,,,,,,,1,,,,,,,,,,,,,,,,,,,,,,,,,,,,,,,,,,,,,,,,,,,,,,43,149005,22,Female,1,2024/02/09_12:46:08,JV,59.81815544
,,,,,,practice,0,19,1,1068,7,Q,0,right,0.557226257,1,0,,,,,,,,,,,,,,,,,,,,,1,,,,,,,,,,,,,,,,,,,,,,,,,,,,,,,,,,,,,,,,,,,,,,43,149005,22,Female,1,2024/02/09_12:46:08,JV,59.81815544
,,,,,,practice,0,19,1,1068,8,J,0,right,0.766577431,1,0,,,,,,,,,,,,,,,,,,,,,1,,,,,,,,,,,,,,,,,,,,,,,,,,,,,,,,,,,,,,,,,,,,,,43,149005,22,Female,1,2024/02/09_12:46:08,JV,59.81815544
,,,,,,practice,0,19,1,1068,9,J,1,left,0.525270514,1,0,,,,,,,,,,,,,,,,,,,,,1,,,,,,,,,,,,,,,,,,,,,,,,,,,,,,,,,,,,,,,,,,,,,,43,149005,22,Female,1,2024/02/09_12:46:08,JV,59.81815544
,,,,,,practice,0,19,1,1068,10,F,0,right,0.463956601,1,0,,,,,,,,,,,,,,,,,,,,,1,,,,,,,,,,,,,,,,,,,,,,,,,,,,,,,,,,,,,,,,,,,,,,43,149005,22,Female,1,2024/02/09_12:46:08,JV,59.81815544
,,,,,,practice,0,19,1,1068,11,S,0,right,0.551042503,1,0,,,,,,,,,,,,,,,,,,,,,1,,,,,,,,,,,,,,,,,,,,,,,,,,,,,,,,,,,,,,,,,,,,,,43,149005,22,Female,1,2024/02/09_12:46:08,JV,59.81815544
,,,,,,practice,0,19,1,1068,,,,,,,,1,1,0,1,0,1,0.48685393,3,0,0,0,0,8,11,3,8,0,,,,1,,,,,,,,,,,,,,,,,,,,,,,,,,,,,,,,,,,,,,,,,,,,,,43,149005,22,Female,1,2024/02/09_12:46:08,JV,59.81815544
1,./instructions/inst_prac_3/Slide37.png,right,6.048164423,581.7406356,587.7888,,,,,,,,,,,,,,,,,,,,,,,,,,,,,,,,,1,,,,,,,,,,,,,,,,,,,,,,,,,,,,,,,,,,,,,,,,,,,,,,43,149005,22,Female,1,2024/02/09_12:46:08,JV,59.81815544
2,./instructions/inst_prac_3/Slide38.png,right,1.536869256,587.8438086,589.3806779,,,,,,,,,,,,,,,,,,,,,,,,,,,,,,,,,1,,,,,,,,,,,,,,,,,,,,,,,,,,,,,,,,,,,,,,,,,,,,,,43,149005,22,Female,1,2024/02/09_12:46:08,JV,59.81815544
3,./instructions/inst_prac_3/Slide39.png,right,0.672923422,589.4356594,590.1085828,,,,,,,,,,,,,,,,,,,,,,,,,,,,,,,,,1,,,,,,,,,,,,,,,,,,,,,,,,,,,,,,,,,,,,,,,,,,,,,,43,149005,22,Female,1,2024/02/09_12:46:08,JV,59.81815544
4,./instructions/inst_prac_3/Slide40.png,right,0.478633275,590.1579604,590.6365936,,,,,,,,,,,,,,,,,,,,,,,,,,,,,,,,,1,,,,,,,,,,,,,,,,,,,,,,,,,,,,,,,,,,,,,,,,,,,,,,43,149005,22,Female,1,2024/02/09_12:46:08,JV,59.81815544
5,./instructions/inst_prac_3/Slide41.png,right,0.46576798,590.6910159,591.1567838,,,,,,,,,,,,,,,,,,,,,,,,,,,,,,,,,1,,,,,,,,,,,,,,,,,,,,,,,,,,,,,,,,,,,,,,,,,,,,,,43,149005,22,Female,1,2024/02/09_12:46:08,JV,59.81815544
6,./instructions/inst_prac_3/Slide42.png,right,0.801749377,591.211215,592.0129643,,,,,,,,,,,,,,,,,,,,,,,,,,,,,,,,,1,,,,,,,,,,,,,,,,,,,,,,,,,,,,,,,,,,,,,,,,,,,,,,43,149005,22,Female,1,2024/02/09_12:46:08,JV,59.81815544
7,./instructions/inst_prac_3/Slide43.png,right,6.663134681,592.0694561,598.7325908,,,,,,,,,,,,,,,,,,,,,,,,,,,,,,,,,1,,,,,,,,,,,,,,,,,,,,,,,,,,,,,,,,,,,,,,,,,,,,,,43,149005,22,Female,1,2024/02/09_12:46:08,JV,59.81815544
8,./instructions/inst_prac_3/Slide44.png,right,0.837842492,598.7827288,599.6205713,,,,,,,,,,,,,,,,,,,,,,,,,,,,,,,,,1,,,,,,,,,,,,,,,,,,,,,,,,,,,,,,,,,,,,,,,,,,,,,,43,149005,22,Female,1,2024/02/09_12:46:08,JV,59.81815544
,,,,,,practice,0,8,3,788,1,N,0,right,0.687147184,1,0,,,,,,,,,,,,,,,,,,,,,1,,,,,,,,,,,,,,,,,,,,,,,,,,,,,,,,,,,,,,,,,,,,,,43,149005,22,Female,1,2024/02/09_12:46:08,JV,59.81815544
,,,,,,practice,0,8,3,788,2,F,0,right,0.592134185,1,0,,,,,,,,,,,,,,,,,,,,,1,,,,,,,,,,,,,,,,,,,,,,,,,,,,,,,,,,,,,,,,,,,,,,43,149005,22,Female,1,2024/02/09_12:46:08,JV,59.81815544
,,,,,,practice,0,8,3,788,3,C,0,right,0.392143713,1,0,,,,,,,,,,,,,,,,,,,,,1,,,,,,,,,,,,,,,,,,,,,,,,,,,,,,,,,,,,,,,,,,,,,,43,149005,22,Female,1,2024/02/09_12:46:08,JV,59.81815544
,,,,,,practice,0,8,3,788,4,N,1,left,0.336937459,1,0,,,,,,,,,,,,,,,,,,,,,1,,,,,,,,,,,,,,,,,,,,,,,,,,,,,,,,,,,,,,,,,,,,,,43,149005,22,Female,1,2024/02/09_12:46:08,JV,59.81815544
,,,,,,practice,0,8,3,788,5,N,0,right,0.985670102,1,0,,,,,,,,,,,,,,,,,,,,,1,,,,,,,,,,,,,,,,,,,,,,,,,,,,,,,,,,,,,,,,,,,,,,43,149005,22,Female,1,2024/02/09_12:46:08,JV,59.81815544
,,,,,,practice,0,8,3,788,6,Q,0,right,1.134688291,1,0,,,,,,,,,,,,,,,,,,,,,1,,,,,,,,,,,,,,,,,,,,,,,,,,,,,,,,,,,,,,,,,,,,,,43,149005,22,Female,1,2024/02/09_12:46:08,JV,59.81815544
,,,,,,practice,0,8,3,788,7,J,0,right,0.655012627,1,0,,,,,,,,,,,,,,,,,,,,,1,,,,,,,,,,,,,,,,,,,,,,,,,,,,,,,,,,,,,,,,,,,,,,43,149005,22,Female,1,2024/02/09_12:46:08,JV,59.81815544
,,,,,,practice,0,8,3,788,8,V,0,right,0.472479629,1,0,,,,,,,,,,,,,,,,,,,,,1,,,,,,,,,,,,,,,,,,,,,,,,,,,,,,,,,,,,,,,,,,,,,,43,149005,22,Female,1,2024/02/09_12:46:08,JV,59.81815544
,,,,,,practice,0,8,3,788,9,Q,1,left,0.698375844,1,0,,,,,,,,,,,,,,,,,,,,,1,,,,,,,,,,,,,,,,,,,,,,,,,,,,,,,,,,,,,,,,,,,,,,43,149005,22,Female,1,2024/02/09_12:46:08,JV,59.81815544
,,,,,,practice,0,8,3,788,10,J,1,left,0.870783004,1,0,,,,,,,,,,,,,,,,,,,,,1,,,,,,,,,,,,,,,,,,,,,,,,,,,,,,,,,,,,,,,,,,,,,,43,149005,22,Female,1,2024/02/09_12:46:08,JV,59.81815544
,,,,,,practice,0,8,3,788,11,S,0,right,0.582091965,1,0,,,,,,,,,,,,,,,,,,,,,1,,,,,,,,,,,,,,,,,,,,,,,,,,,,,,,,,,,,,,,,,,,,,,43,149005,22,Female,1,2024/02/09_12:46:08,JV,59.81815544
,,,,,,practice,0,8,3,788,12,S,0,right,0.686929537,1,0,,,,,,,,,,,,,,,,,,,,,1,,,,,,,,,,,,,,,,,,,,,,,,,,,,,,,,,,,,,,,,,,,,,,43,149005,22,Female,1,2024/02/09_12:46:08,JV,59.81815544
,,,,,,practice,0,8,3,788,13,J,1,left,0.579743053,1,0,,,,,,,,,,,,,,,,,,,,,1,,,,,,,,,,,,,,,,,,,,,,,,,,,,,,,,,,,,,,,,,,,,,,43,149005,22,Female,1,2024/02/09_12:46:08,JV,59.81815544
,,,,,,practice,0,8,3,788,,,,,,,,1,1,0,1,0,1,0.667241276,4,0,0,0,0,9,13,4,9,0,,,,1,,,,,,,,,,,,,,,,,,,,,,,,,,,,,,,,,,,,,,,,,,,,,,43,149005,22,Female,1,2024/02/09_12:46:08,JV,59.81815544
1,./instructions/inst_prac_3_next/Slide49.png,right,0.881818117,622.0749535,622.9567716,,,,,,,,,,,,,,,,,,,,,,,,,,,,,,,,,1,,,,,,,,,,,,,,,,,,,,,,,,,,,,,,,,,,,,,,,,,,,,,,43,149005,22,Female,1,2024/02/09_12:46:08,JV,59.81815544
,,,,,,practice,0,20,3,1068,1,Q,0,right,0.340159883,1,0,,,,,,,,,,,,,,,,,,,,,1,,,,,,,,,,,,,,,,,,,,,,,,,,,,,,,,,,,,,,,,,,,,,,43,149005,22,Female,1,2024/02/09_12:46:08,JV,59.81815544
,,,,,,practice,0,20,3,1068,2,X,0,right,0.224113241,1,0,,,,,,,,,,,,,,,,,,,,,1,,,,,,,,,,,,,,,,,,,,,,,,,,,,,,,,,,,,,,,,,,,,,,43,149005,22,Female,1,2024/02/09_12:46:08,JV,59.81815544
,,,,,,practice,0,20,3,1068,3,Q,0,right,0.23433977,1,0,,,,,,,,,,,,,,,,,,,,,1,,,,,,,,,,,,,,,,,,,,,,,,,,,,,,,,,,,,,,,,,,,,,,43,149005,22,Female,1,2024/02/09_12:46:08,JV,59.81815544
,,,,,,practice,0,20,3,1068,4,J,0,right,0.334254506,1,0,,,,,,,,,,,,,,,,,,,,,1,,,,,,,,,,,,,,,,,,,,,,,,,,,,,,,,,,,,,,,,,,,,,,43,149005,22,Female,1,2024/02/09_12:46:08,JV,59.81815544
,,,,,,practice,0,20,3,1068,5,C,0,right,0.34196683,1,0,,,,,,,,,,,,,,,,,,,,,1,,,,,,,,,,,,,,,,,,,,,,,,,,,,,,,,,,,,,,,,,,,,,,43,149005,22,Female,1,2024/02/09_12:46:08,JV,59.81815544
,,,,,,practice,0,20,3,1068,6,Q,1,right,0.324127173,0,0,,,,,,,,,,,,,,,,,,,,,1,,,,,,,,,,,,,,,,,,,,,,,,,,,,,,,,,,,,,,,,,,,,,,43,149005,22,Female,1,2024/02/09_12:46:08,JV,59.81815544
,,,,,,practice,0,20,3,1068,7,S,0,right,0.427230685,1,0,,,,,,,,,,,,,,,,,,,,,1,,,,,,,,,,,,,,,,,,,,,,,,,,,,,,,,,,,,,,,,,,,,,,43,149005,22,Female,1,2024/02/09_12:46:08,JV,59.81815544
,,,,,,practice,0,20,3,1068,8,C,1,right,0.35463214,0,0,,,,,,,,,,,,,,,,,,,,,1,,,,,,,,,,,,,,,,,,,,,,,,,,,,,,,,,,,,,,,,,,,,,,43,149005,22,Female,1,2024/02/09_12:46:08,JV,59.81815544
,,,,,,practice,0,20,3,1068,9,Q,1,right,0.347118136,0,0,,,,,,,,,,,,,,,,,,,,,1,,,,,,,,,,,,,,,,,,,,,,,,,,,,,,,,,,,,,,,,,,,,,,43,149005,22,Female,1,2024/02/09_12:46:08,JV,59.81815544
,,,,,,practice,0,20,3,1068,10,N,0,right,0.306413778,1,0,,,,,,,,,,,,,,,,,,,,,1,,,,,,,,,,,,,,,,,,,,,,,,,,,,,,,,,,,,,,,,,,,,,,43,149005,22,Female,1,2024/02/09_12:46:08,JV,59.81815544
,,,,,,practice,0,20,3,1068,11,S,0,right,0.235595242,1,0,,,,,,,,,,,,,,,,,,,,,1,,,,,,,,,,,,,,,,,,,,,,,,,,,,,,,,,,,,,,,,,,,,,,43,149005,22,Female,1,2024/02/09_12:46:08,JV,59.81815544
,,,,,,practice,0,20,3,1068,,,,,,,,0.5,0,0,1,0,1,0.315450126,0,0,0,0,0,8,8,3,8,0,,,,1,,,,,,,,,,,,,,,,,,,,,,,,,,,,,,,,,,,,,,,,,,,,,,43,149005,22,Female,1,2024/02/09_12:46:08,JV,59.81815544
,,,,,,practice,0,10,3,1068,1,S,0,right,0.286642556,1,0,,,,,,,,,,,,,,,,,,,,,1,,,,,,,,,,,,,,,,,,,,,,,,,,,,,,,,,,,,,,,,,,,,,,43,149005,22,Female,1,2024/02/09_12:46:08,JV,59.81815544
,,,,,,practice,0,10,3,1068,2,J,0,right,0.22918051,1,0,,,,,,,,,,,,,,,,,,,,,1,,,,,,,,,,,,,,,,,,,,,,,,,,,,,,,,,,,,,,,,,,,,,,43,149005,22,Female,1,2024/02/09_12:46:08,JV,59.81815544
,,,,,,practice,0,10,3,1068,3,C,0,right,0.227503392,1,0,,,,,,,,,,,,,,,,,,,,,1,,,,,,,,,,,,,,,,,,,,,,,,,,,,,,,,,,,,,,,,,,,,,,43,149005,22,Female,1,2024/02/09_12:46:08,JV,59.81815544
,,,,,,practice,0,10,3,1068,4,V,0,right,0.472457597,1,0,,,,,,,,,,,,,,,,,,,,,1,,,,,,,,,,,,,,,,,,,,,,,,,,,,,,,,,,,,,,,,,,,,,,43,149005,22,Female,1,2024/02/09_12:46:08,JV,59.81815544
,,,,,,practice,0,10,3,1068,5,J,1,right,0.515665267,0,0,,,,,,,,,,,,,,,,,,,,,1,,,,,,,,,,,,,,,,,,,,,,,,,,,,,,,,,,,,,,,,,,,,,,43,149005,22,Female,1,2024/02/09_12:46:08,JV,59.81815544
,,,,,,practice,0,10,3,1068,6,X,0,right,0.117129745,1,0,,,,,,,,,,,,,,,,,,,,,1,,,,,,,,,,,,,,,,,,,,,,,,,,,,,,,,,,,,,,,,,,,,,,43,149005,22,Female,1,2024/02/09_12:46:08,JV,59.81815544
,,,,,,practice,0,10,3,1068,7,S,0,right,0.454126044,1,0,,,,,,,,,,,,,,,,,,,,,1,,,,,,,,,,,,,,,,,,,,,,,,,,,,,,,,,,,,,,,,,,,,,,43,149005,22,Female,1,2024/02/09_12:46:08,JV,59.81815544
,,,,,,practice,0,10,3,1068,8,F,0,right,0.298649603,1,0,,,,,,,,,,,,,,,,,,,,,1,,,,,,,,,,,,,,,,,,,,,,,,,,,,,,,,,,,,,,,,,,,,,,43,149005,22,Female,1,2024/02/09_12:46:08,JV,59.81815544
,,,,,,practice,0,10,3,1068,9,X,1,right,0.255153624,0,0,,,,,,,,,,,,,,,,,,,,,1,,,,,,,,,,,,,,,,,,,,,,,,,,,,,,,,,,,,,,,,,,,,,,43,149005,22,Female,1,2024/02/09_12:46:08,JV,59.81815544
,,,,,,practice,0,10,3,1068,10,S,1,left,0.303213427,1,0,,,,,,,,,,,,,,,,,,,,,1,,,,,,,,,,,,,,,,,,,,,,,,,,,,,,,,,,,,,,,,,,,,,,43,149005,22,Female,1,2024/02/09_12:46:08,JV,59.81815544
,,,,,,practice,0,10,3,1068,11,X,0,right,0.373619921,1,0,,,,,,,,,,,,,,,,,,,,,1,,,,,,,,,,,,,,,,,,,,,,,,,,,,,,,,,,,,,,,,,,,,,,43,149005,22,Female,1,2024/02/09_12:46:08,JV,59.81815544
,,,,,,practice,0,10,3,1068,,,,,,,,0.833333333,0.333333333,0,1,0,1,0.321212881,1,0,0,0,0,8,9,3,8,0,,,,1,,,,,,,,,,,,,,,,,,,,,,,,,,,,,,,,,,,,,,,,,,,,,,43,149005,22,Female,1,2024/02/09_12:46:08,JV,59.81815544
1,./instructions/inst_prac_main/Slide51.png,right,1.171332175,645.6653558,646.836688,,,,,,,,,,,,,,,,,,,,,,,,,,,,,,,,,1,,,,,,,,,,,,,,,,,,,,,,,,,,,,,,,,,,,,,,,,,,,,,,43,149005,22,Female,1,2024/02/09_12:46:08,JV,59.81815544
2,./instructions/inst_prac_main/Slide52.png,right,8.18134335,646.8794358,655.0607792,,,,,,,,,,,,,,,,,,,,,,,,,,,,,,,,,1,,,,,,,,,,,,,,,,,,,,,,,,,,,,,,,,,,,,,,,,,,,,,,43,149005,22,Female,1,2024/02/09_12:46:08,JV,59.81815544
1,./instructions/inst_prac_main/Slide53.png,left,2.039914496,655.1407607,657.1806751,,,,,,,,,,,,,,,,,,,,,,,,,,,,,,,,,1,,,,,,,,,,,,,,,,,,,,,,,,,,,,,,,,,,,,,,,,,,,,,,43,149005,22,Female,1,2024/02/09_12:46:08,JV,59.81815544
0,./instructions/inst_prac_main/Slide52.png,left,0.200711929,657.2153182,657.4160301,,,,,,,,,,,,,,,,,,,,,,,,,,,,,,,,,1,,,,,,,,,,,,,,,,,,,,,,,,,,,,,,,,,,,,,,,,,,,,,,43,149005,22,Female,1,2024/02/09_12:46:08,JV,59.81815544
-1,./instructions/inst_prac_main/Slide51.png,left,0.20086958,657.4392102,657.6400798,,,,,,,,,,,,,,,,,,,,,,,,,,,,,,,,,1,,,,,,,,,,,,,,,,,,,,,,,,,,,,,,,,,,,,,,,,,,,,,,43,149005,22,Female,1,2024/02/09_12:46:08,JV,59.81815544
-2,./instructions/inst_prac_main/Slide54.png,left,0.200476315,657.6915773,657.8920536,,,,,,,,,,,,,,,,,,,,,,,,,,,,,,,,,1,,,,,,,,,,,,,,,,,,,,,,,,,,,,,,,,,,,,,,,,,,,,,,43,149005,22,Female,1,2024/02/09_12:46:08,JV,59.81815544
-3,./instructions/inst_prac_main/Slide53.png,left,0.200435544,657.9200889,658.1205244,,,,,,,,,,,,,,,,,,,,,,,,,,,,,,,,,1,,,,,,,,,,,,,,,,,,,,,,,,,,,,,,,,,,,,,,,,,,,,,,43,149005,22,Female,1,2024/02/09_12:46:08,JV,59.81815544
-2,./instructions/inst_prac_main/Slide52.png,right,6.607734738,658.1490561,664.7567908,,,,,,,,,,,,,,,,,,,,,,,,,,,,,,,,,1,,,,,,,,,,,,,,,,,,,,,,,,,,,,,,,,,,,,,,,,,,,,,,43,149005,22,Female,1,2024/02/09_12:46:08,JV,59.81815544
-3,./instructions/inst_prac_main/Slide53.png,left,1.780318416,664.792484,666.5728025,,,,,,,,,,,,,,,,,,,,,,,,,,,,,,,,,1,,,,,,,,,,,,,,,,,,,,,,,,,,,,,,,,,,,,,,,,,,,,,,43,149005,22,Female,1,2024/02/09_12:46:08,JV,59.81815544
-2,./instructions/inst_prac_main/Slide52.png,right,1.860593032,666.6081071,668.4687001,,,,,,,,,,,,,,,,,,,,,,,,,,,,,,,,,1,,,,,,,,,,,,,,,,,,,,,,,,,,,,,,,,,,,,,,,,,,,,,,43,149005,22,Female,1,2024/02/09_12:46:08,JV,59.81815544
-1,./instructions/inst_prac_main/Slide53.png,right,0.919962495,668.500744,669.4207065,,,,,,,,,,,,,,,,,,,,,,,,,,,,,,,,,1,,,,,,,,,,,,,,,,,,,,,,,,,,,,,,,,,,,,,,,,,,,,,,43,149005,22,Female,1,2024/02/09_12:46:08,JV,59.81815544
0,./instructions/inst_prac_main/Slide54.png,right,12.89677079,669.4518942,682.348665,,,,,,,,,,,,,,,,,,,,,,,,,,,,,,,,,1,,,,,,,,,,,,,,,,,,,,,,,,,,,,,,,,,,,,,,,,,,,,,,43,149005,22,Female,1,2024/02/09_12:46:08,JV,59.81815544
1,./instructions/inst_prac_main/Slide51.png,right,3.243416028,682.377071,685.620487,,,,,,,,,,,,,,,,,,,,,,,,,,,,,,,,,1,,,,,,,,,,,,,,,,,,,,,,,,,,,,,,,,,,,,,,,,,,,,,,43,149005,22,Female,1,2024/02/09_12:46:08,JV,59.81815544
2,./instructions/inst_prac_main/Slide52.png,right,4.236854901,685.6556759,689.8925308,,,,,,,,,,,,,,,,,,,,,,,,,,,,,,,,,1,,,,,,,,,,,,,,,,,,,,,,,,,,,,,,,,,,,,,,,,,,,,,,43,149005,22,Female,1,2024/02/09_12:46:08,JV,59.81815544
1,./instructions/inst_prac_main/Slide53.png,left,3.22988445,689.9269026,693.156787,,,,,,,,,,,,,,,,,,,,,,,,,,,,,,,,,1,,,,,,,,,,,,,,,,,,,,,,,,,,,,,,,,,,,,,,,,,,,,,,43,149005,22,Female,1,2024/02/09_12:46:08,JV,59.81815544
0,./instructions/inst_prac_main/Slide52.png,left,0.20078974,693.1926253,693.393415,,,,,,,,,,,,,,,,,,,,,,,,,,,,,,,,,1,,,,,,,,,,,,,,,,,,,,,,,,,,,,,,,,,,,,,,,,,,,,,,43,149005,22,Female,1,2024/02/09_12:46:08,JV,59.81815544
-1,./instructions/inst_prac_main/Slide51.png,left,0.200442401,693.415884,693.6163264,,,,,,,,,,,,,,,,,,,,,,,,,,,,,,,,,1,,,,,,,,,,,,,,,,,,,,,,,,,,,,,,,,,,,,,,,,,,,,,,43,149005,22,Female,1,2024/02/09_12:46:08,JV,59.81815544
-2,./instructions/inst_prac_main/Slide54.png,left,0.200543251,693.6442247,693.8447679,,,,,,,,,,,,,,,,,,,,,,,,,,,,,,,,,1,,,,,,,,,,,,,,,,,,,,,,,,,,,,,,,,,,,,,,,,,,,,,,43,149005,22,Female,1,2024/02/09_12:46:08,JV,59.81815544
-3,./instructions/inst_prac_main/Slide53.png,left,0.794050967,693.8745041,694.6685551,,,,,,,,,,,,,,,,,,,,,,,,,,,,,,,,,1,,,,,,,,,,,,,,,,,,,,,,,,,,,,,,,,,,,,,,,,,,,,,,43,149005,22,Female,1,2024/02/09_12:46:08,JV,59.81815544
-4,./instructions/inst_prac_main/Slide52.png,left,0.201192185,694.702861,694.9040532,,,,,,,,,,,,,,,,,,,,,,,,,,,,,,,,,1,,,,,,,,,,,,,,,,,,,,,,,,,,,,,,,,,,,,,,,,,,,,,,43,149005,22,Female,1,2024/02/09_12:46:08,JV,59.81815544
,,,,,,practice_main,0,1,3,1068,1,X,0,right,0.89190543,1,0,,,,,,,,,,,,,,,,,,,,,1,,,,,,,,,,,,,,,,,,,,,,,,,,,,,,,,,,,,,,,,,,,,,,43,149005,22,Female,1,2024/02/09_12:46:08,JV,59.81815544
,,,,,,practice_main,0,1,3,1068,2,F,0,right,0.361130148,1,0,,,,,,,,,,,,,,,,,,,,,1,,,,,,,,,,,,,,,,,,,,,,,,,,,,,,,,,,,,,,,,,,,,,,43,149005,22,Female,1,2024/02/09_12:46:08,JV,59.81815544
,,,,,,practice_main,0,1,3,1068,3,C,0,right,0.255210659,1,0,,,,,,,,,,,,,,,,,,,,,1,,,,,,,,,,,,,,,,,,,,,,,,,,,,,,,,,,,,,,,,,,,,,,43,149005,22,Female,1,2024/02/09_12:46:08,JV,59.81815544
,,,,,,practice_main,0,1,3,1068,4,C,0,right,0.395051443,1,0,,,,,,,,,,,,,,,,,,,,,1,,,,,,,,,,,,,,,,,,,,,,,,,,,,,,,,,,,,,,,,,,,,,,43,149005,22,Female,1,2024/02/09_12:46:08,JV,59.81815544
,,,,,,practice_main,0,1,3,1068,5,X,0,right,0.769257788,1,0,,,,,,,,,,,,,,,,,,,,,1,,,,,,,,,,,,,,,,,,,,,,,,,,,,,,,,,,,,,,,,,,,,,,43,149005,22,Female,1,2024/02/09_12:46:08,JV,59.81815544
,,,,,,practice_main,0,1,3,1068,6,X,0,right,1.46314455,1,0,,,,,,,,,,,,,,,,,,,,,1,,,,,,,,,,,,,,,,,,,,,,,,,,,,,,,,,,,,,,,,,,,,,,43,149005,22,Female,1,2024/02/09_12:46:08,JV,59.81815544
,,,,,,practice_main,0,1,3,1068,7,C,1,right,0.525452351,0,0,,,,,,,,,,,,,,,,,,,,,1,,,,,,,,,,,,,,,,,,,,,,,,,,,,,,,,,,,,,,,,,,,,,,43,149005,22,Female,1,2024/02/09_12:46:08,JV,59.81815544
,,,,,,practice_main,0,1,3,1068,8,X,1,right,0.655856378,0,0,,,,,,,,,,,,,,,,,,,,,1,,,,,,,,,,,,,,,,,,,,,,,,,,,,,,,,,,,,,,,,,,,,,,43,149005,22,Female,1,2024/02/09_12:46:08,JV,59.81815544
,,,,,,practice_main,0,1,3,1068,9,N,0,right,0.523942813,1,0,,,,,,,,,,,,,,,,,,,,,1,,,,,,,,,,,,,,,,,,,,,,,,,,,,,,,,,,,,,,,,,,,,,,43,149005,22,Female,1,2024/02/09_12:46:08,JV,59.81815544
,,,,,,practice_main,0,1,3,1068,10,C,1,right,0.314024924,0,0,,,,,,,,,,,,,,,,,,,,,1,,,,,,,,,,,,,,,,,,,,,,,,,,,,,,,,,,,,,,,,,,,,,,43,149005,22,Female,1,2024/02/09_12:46:08,JV,59.81815544
,,,,,,practice_main,0,1,3,1068,11,Q,0,right,0.271669031,1,0,,,,,,,,,,,,,,,,,,,,,1,,,,,,,,,,,,,,,,,,,,,,,,,,,,,,,,,,,,,,,,,,,,,,43,149005,22,Female,1,2024/02/09_12:46:08,JV,59.81815544
,,,,,,practice_main,0,1,3,1068,,,,,,,,0.5,0,0,1,0,1,0.584240501,0,0,0,0,0,8,8,3,8,0,,,,1,,,,,,,,,,,,,,,,,,,,,,,,,,,,,,,,,,,,,,,,,,,,,,43,149005,22,Female,1,2024/02/09_12:46:08,JV,59.81815544
,,,,,240209_131722,PRACTICE,0,1,3,1068,,,,,,,,,,,,,,,,,,,,,,,,,,,,1,23,1,1,cue2.png,hard,A,13,2.726981935,0,698.6291476,701.3885593,,,,,,,,,,,,,,,,,,,,,,,,,,,,,,,,,,,43,149005,22,Female,1,2024/02/09_12:46:08,JV,59.81815544
,,,,,,practice_main,0,2,1,1068,1,N,0,right,0.362406856,1,0,,,,,,,,,,,,,,,,,,,,,1,,,,,,,,,,,,,,,,,,,,,,,,,,,,,,,,,,,,,,,,,,,,,,43,149005,22,Female,1,2024/02/09_12:46:08,JV,59.81815544
,,,,,,practice_main,0,2,1,1068,2,Q,0,right,0.352911126,1,0,,,,,,,,,,,,,,,,,,,,,1,,,,,,,,,,,,,,,,,,,,,,,,,,,,,,,,,,,,,,,,,,,,,,43,149005,22,Female,1,2024/02/09_12:46:08,JV,59.81815544
,,,,,,practice_main,0,2,1,1068,3,Q,1,left,0.464910682,1,0,,,,,,,,,,,,,,,,,,,,,1,,,,,,,,,,,,,,,,,,,,,,,,,,,,,,,,,,,,,,,,,,,,,,43,149005,22,Female,1,2024/02/09_12:46:08,JV,59.81815544
,,,,,,practice_main,0,2,1,1068,4,X,0,right,0.386429643,1,0,,,,,,,,,,,,,,,,,,,,,1,,,,,,,,,,,,,,,,,,,,,,,,,,,,,,,,,,,,,,,,,,,,,,43,149005,22,Female,1,2024/02/09_12:46:08,JV,59.81815544
,,,,,,practice_main,0,2,1,1068,5,X,1,left,0.313146764,1,0,,,,,,,,,,,,,,,,,,,,,1,,,,,,,,,,,,,,,,,,,,,,,,,,,,,,,,,,,,,,,,,,,,,,43,149005,22,Female,1,2024/02/09_12:46:08,JV,59.81815544
,,,,,,practice_main,0,2,1,1068,6,S,0,right,0.356778216,1,0,,,,,,,,,,,,,,,,,,,,,1,,,,,,,,,,,,,,,,,,,,,,,,,,,,,,,,,,,,,,,,,,,,,,43,149005,22,Female,1,2024/02/09_12:46:08,JV,59.81815544
,,,,,,practice_main,0,2,1,1068,7,J,0,right,0.694793352,1,0,,,,,,,,,,,,,,,,,,,,,1,,,,,,,,,,,,,,,,,,,,,,,,,,,,,,,,,,,,,,,,,,,,,,43,149005,22,Female,1,2024/02/09_12:46:08,JV,59.81815544
,,,,,,practice_main,0,2,1,1068,8,J,1,left,0.644386562,1,0,,,,,,,,,,,,,,,,,,,,,1,,,,,,,,,,,,,,,,,,,,,,,,,,,,,,,,,,,,,,,,,,,,,,43,149005,22,Female,1,2024/02/09_12:46:08,JV,59.81815544
,,,,,,practice_main,0,2,1,1068,9,Q,0,right,0.469010153,1,0,,,,,,,,,,,,,,,,,,,,,1,,,,,,,,,,,,,,,,,,,,,,,,,,,,,,,,,,,,,,,,,,,,,,43,149005,22,Female,1,2024/02/09_12:46:08,JV,59.81815544
,,,,,,practice_main,0,2,1,1068,10,S,0,right,0.36570811,1,0,,,,,,,,,,,,,,,,,,,,,1,,,,,,,,,,,,,,,,,,,,,,,,,,,,,,,,,,,,,,,,,,,,,,43,149005,22,Female,1,2024/02/09_12:46:08,JV,59.81815544
,,,,,,practice_main,0,2,1,1068,11,F,0,right,0.400099078,1,0,,,,,,,,,,,,,,,,,,,,,1,,,,,,,,,,,,,,,,,,,,,,,,,,,,,,,,,,,,,,,,,,,,,,43,149005,22,Female,1,2024/02/09_12:46:08,JV,59.81815544
,,,,,,practice_main,0,2,1,1068,,,,,,,,1,1,0,1,0,1,0.437325504,3,0,0,0,0,8,11,3,8,0,,,,1,,,,,,,,,,,,,,,,,,,,,,,,,,,,,,,,,,,,,,,,,,,,,,43,149005,22,Female,1,2024/02/09_12:46:08,JV,59.81815544
,,,,,240209_131744,PRACTICE,0,2,1,1068,,,,,,,,,,,,,,,,,,,,,,,,,,,,1,16,2,2,cue1.png,easy,A,7,2.150025667,0,722.814374,724.9886162,,,,,,,,,,,,,,,,,,,,,,,,,,,,,,,,,,,43,149005,22,Female,1,2024/02/09_12:46:08,JV,59.81815544
,,,,,,practice_main,0,3,3,1068,1,V,0,right,0.589080353,1,0,,,,,,,,,,,,,,,,,,,,,1,,,,,,,,,,,,,,,,,,,,,,,,,,,,,,,,,,,,,,,,,,,,,,43,149005,22,Female,1,2024/02/09_12:46:08,JV,59.81815544
,,,,,,practice_main,0,3,3,1068,2,Q,0,right,0.20857459,1,0,,,,,,,,,,,,,,,,,,,,,1,,,,,,,,,,,,,,,,,,,,,,,,,,,,,,,,,,,,,,,,,,,,,,43,149005,22,Female,1,2024/02/09_12:46:08,JV,59.81815544
,,,,,,practice_main,0,3,3,1068,3,V,0,right,0.238979639,1,0,,,,,,,,,,,,,,,,,,,,,1,,,,,,,,,,,,,,,,,,,,,,,,,,,,,,,,,,,,,,,,,,,,,,43,149005,22,Female,1,2024/02/09_12:46:08,JV,59.81815544
,,,,,,practice_main,0,3,3,1068,4,V,1,left,0.320142702,1,0,,,,,,,,,,,,,,,,,,,,,1,,,,,,,,,,,,,,,,,,,,,,,,,,,,,,,,,,,,,,,,,,,,,,43,149005,22,Female,1,2024/02/09_12:46:08,JV,59.81815544
,,,,,,practice_main,0,3,3,1068,5,N,0,right,0.191039448,1,0,,,,,,,,,,,,,,,,,,,,,1,,,,,,,,,,,,,,,,,,,,,,,,,,,,,,,,,,,,,,,,,,,,,,43,149005,22,Female,1,2024/02/09_12:46:08,JV,59.81815544
,,,,,,practice_main,0,3,3,1068,6,Q,0,right,0.287979894,1,0,,,,,,,,,,,,,,,,,,,,,1,,,,,,,,,,,,,,,,,,,,,,,,,,,,,,,,,,,,,,,,,,,,,,43,149005,22,Female,1,2024/02/09_12:46:08,JV,59.81815544
,,,,,,practice_main,0,3,3,1068,7,V,1,left,0.335034495,1,0,,,,,,,,,,,,,,,,,,,,,1,,,,,,,,,,,,,,,,,,,,,,,,,,,,,,,,,,,,,,,,,,,,,,43,149005,22,Female,1,2024/02/09_12:46:08,JV,59.81815544
,,,,,,practice_main,0,3,3,1068,8,S,0,right,0.109793382,1,0,,,,,,,,,,,,,,,,,,,,,1,,,,,,,,,,,,,,,,,,,,,,,,,,,,,,,,,,,,,,,,,,,,,,43,149005,22,Female,1,2024/02/09_12:46:08,JV,59.81815544
,,,,,,practice_main,0,3,3,1068,9,S,0,right,0.144951983,1,0,,,,,,,,,,,,,,,,,,,,,1,,,,,,,,,,,,,,,,,,,,,,,,,,,,,,,,,,,,,,,,,,,,,,43,149005,22,Female,1,2024/02/09_12:46:08,JV,59.81815544
,,,,,,practice_main,0,3,3,1068,10,C,0,right,0.224537268,1,0,,,,,,,,,,,,,,,,,,,,,1,,,,,,,,,,,,,,,,,,,,,,,,,,,,,,,,,,,,,,,,,,,,,,43,149005,22,Female,1,2024/02/09_12:46:08,JV,59.81815544
,,,,,,practice_main,0,3,3,1068,11,S,1,left,0.293840056,1,0,,,,,,,,,,,,,,,,,,,,,1,,,,,,,,,,,,,,,,,,,,,,,,,,,,,,,,,,,,,,,,,,,,,,43,149005,22,Female,1,2024/02/09_12:46:08,JV,59.81815544
,,,,,,practice_main,0,3,3,1068,,,,,,,,1,1,0,1,0,1,0.267632165,3,0,0,0,0,8,11,3,8,0,,,,1,,,,,,,,,,,,,,,,,,,,,,,,,,,,,,,,,,,,,,,,,,,,,,43,149005,22,Female,1,2024/02/09_12:46:08,JV,59.81815544
,,,,,240209_131804,PRACTICE,0,3,3,1068,,,,,,,,,,,,,,,,,,,,,,,,,,,,1,25,3,3,cue2.png,hard,A,4,1.451072895,0,744.7131758,746.1884074,,,,,,,,,,,,,,,,,,,,,,,,,,,,,,,,,,,43,149005,22,Female,1,2024/02/09_12:46:08,JV,59.81815544
1,./instructions/inst_prac_end/Slide56.png,right,115.3247143,762.5842537,877.908968,,,,,,,,,,,,,,,,,,,,,,,,,,,,,,,,,1,,,,,,,,,,,,,,,,,,,,,,,,,,,,,,,,,,,,,,,,,,,,,,43,149005,22,Female,1,2024/02/09_12:46:08,JV,59.81815544
1,./instructions/inst_test/Slide57.png,right,8.297329681,877.9874781,886.2848078,,,,,,,,,,,,,,,,,,,,,,,,,,,,,,,,,1,,,,,,,,,,,,,,,,,,,,,,,,,,,,,,,,,,,,,,,,,,,,,,43,149005,22,Female,1,2024/02/09_12:46:08,JV,59.81815544
,,,,,,test,1,1,1,1068,1,N,0,right,1.126394262,1,0,,,,,,,,,,,,,,,,,,,,,1,,,,,,,,,,,,,,,,,,,,,,,,,,,,,,,,,,,,,,,,,,,,,,43,149005,22,Female,1,2024/02/09_12:46:08,JV,59.81815544
,,,,,,test,1,1,1,1068,2,F,0,right,0.340097339,1,0,,,,,,,,,,,,,,,,,,,,,1,,,,,,,,,,,,,,,,,,,,,,,,,,,,,,,,,,,,,,,,,,,,,,43,149005,22,Female,1,2024/02/09_12:46:08,JV,59.81815544
,,,,,,test,1,1,1,1068,3,Q,0,right,0.42884348,1,0,,,,,,,,,,,,,,,,,,,,,1,,,,,,,,,,,,,,,,,,,,,,,,,,,,,,,,,,,,,,,,,,,,,,43,149005,22,Female,1,2024/02/09_12:46:08,JV,59.81815544
,,,,,,test,1,1,1,1068,4,N,0,right,0.383255447,1,0,,,,,,,,,,,,,,,,,,,,,1,,,,,,,,,,,,,,,,,,,,,,,,,,,,,,,,,,,,,,,,,,,,,,43,149005,22,Female,1,2024/02/09_12:46:08,JV,59.81815544
,,,,,,test,1,1,1,1068,5,N,1,left,0.325561335,1,0,,,,,,,,,,,,,,,,,,,,,1,,,,,,,,,,,,,,,,,,,,,,,,,,,,,,,,,,,,,,,,,,,,,,43,149005,22,Female,1,2024/02/09_12:46:08,JV,59.81815544
,,,,,,test,1,1,1,1068,6,S,0,right,0.312424498,1,0,,,,,,,,,,,,,,,,,,,,,1,,,,,,,,,,,,,,,,,,,,,,,,,,,,,,,,,,,,,,,,,,,,,,43,149005,22,Female,1,2024/02/09_12:46:08,JV,59.81815544
,,,,,,test,1,1,1,1068,7,Q,0,right,0.329998655,1,0,,,,,,,,,,,,,,,,,,,,,1,,,,,,,,,,,,,,,,,,,,,,,,,,,,,,,,,,,,,,,,,,,,,,43,149005,22,Female,1,2024/02/09_12:46:08,JV,59.81815544
,,,,,,test,1,1,1,1068,8,Q,1,left,0.380795991,1,0,,,,,,,,,,,,,,,,,,,,,1,,,,,,,,,,,,,,,,,,,,,,,,,,,,,,,,,,,,,,,,,,,,,,43,149005,22,Female,1,2024/02/09_12:46:08,JV,59.81815544
,,,,,,test,1,1,1,1068,9,F,0,right,0.384849612,1,0,,,,,,,,,,,,,,,,,,,,,1,,,,,,,,,,,,,,,,,,,,,,,,,,,,,,,,,,,,,,,,,,,,,,43,149005,22,Female,1,2024/02/09_12:46:08,JV,59.81815544
,,,,,,test,1,1,1,1068,10,S,0,right,0.526075931,1,0,,,,,,,,,,,,,,,,,,,,,1,,,,,,,,,,,,,,,,,,,,,,,,,,,,,,,,,,,,,,,,,,,,,,43,149005,22,Female,1,2024/02/09_12:46:08,JV,59.81815544
,,,,,,test,1,1,1,1068,11,S,1,left,0.294087316,1,0,,,,,,,,,,,,,,,,,,,,,1,,,,,,,,,,,,,,,,,,,,,,,,,,,,,,,,,,,,,,,,,,,,,,43,149005,22,Female,1,2024/02/09_12:46:08,JV,59.81815544
,,,,,,Test,1,1,1,1068,,,,,,,,1,1,0,1,0,1,0.439307624,3,0,0,0,0,8,11,3,8,0,,,,1,,,,,,,,,,,,,,,,,,,,,,,,,,,,,,,,,,,,,,,,,,,,,,43,149005,22,Female,1,2024/02/09_12:46:08,JV,59.81815544
,,,,,240209_132033,TEST,1,1,1,1068,,,,,,,,,,,,,,,,,,,,,,,,,,,,1,1,1,1,cue1.png,easy,A,2,2.518474694,0,891.4037446,893.9425263,,,,,,,,,,,,,,,,,,,,,,,,,,,,,,,,,,,43,149005,22,Female,1,2024/02/09_12:46:08,JV,59.81815544
,,,,,,test,1,2,3,1068,1,J,0,right,0.450149799,1,0,,,,,,,,,,,,,,,,,,,,,1,,,,,,,,,,,,,,,,,,,,,,,,,,,,,,,,,,,,,,,,,,,,,,43,149005,22,Female,1,2024/02/09_12:46:08,JV,59.81815544
,,,,,,test,1,2,3,1068,2,V,0,right,0.326407988,1,0,,,,,,,,,,,,,,,,,,,,,1,,,,,,,,,,,,,,,,,,,,,,,,,,,,,,,,,,,,,,,,,,,,,,43,149005,22,Female,1,2024/02/09_12:46:08,JV,59.81815544
,,,,,,test,1,2,3,1068,3,N,0,right,0.335362324,1,0,,,,,,,,,,,,,,,,,,,,,1,,,,,,,,,,,,,,,,,,,,,,,,,,,,,,,,,,,,,,,,,,,,,,43,149005,22,Female,1,2024/02/09_12:46:08,JV,59.81815544
,,,,,,test,1,2,3,1068,4,Q,0,right,0.513102626,1,0,,,,,,,,,,,,,,,,,,,,,1,,,,,,,,,,,,,,,,,,,,,,,,,,,,,,,,,,,,,,,,,,,,,,43,149005,22,Female,1,2024/02/09_12:46:08,JV,59.81815544
,,,,,,test,1,2,3,1068,5,Q,0,right,0.473388413,1,0,,,,,,,,,,,,,,,,,,,,,1,,,,,,,,,,,,,,,,,,,,,,,,,,,,,,,,,,,,,,,,,,,,,,43,149005,22,Female,1,2024/02/09_12:46:08,JV,59.81815544
,,,,,,test,1,2,3,1068,6,N,1,right,0.52370558,0,0,,,,,,,,,,,,,,,,,,,,,1,,,,,,,,,,,,,,,,,,,,,,,,,,,,,,,,,,,,,,,,,,,,,,43,149005,22,Female,1,2024/02/09_12:46:08,JV,59.81815544
,,,,,,test,1,2,3,1068,7,F,0,right,0.373042565,1,0,,,,,,,,,,,,,,,,,,,,,1,,,,,,,,,,,,,,,,,,,,,,,,,,,,,,,,,,,,,,,,,,,,,,43,149005,22,Female,1,2024/02/09_12:46:08,JV,59.81815544
,,,,,,test,1,2,3,1068,8,Q,1,right,0.357742539,0,0,,,,,,,,,,,,,,,,,,,,,1,,,,,,,,,,,,,,,,,,,,,,,,,,,,,,,,,,,,,,,,,,,,,,43,149005,22,Female,1,2024/02/09_12:46:08,JV,59.81815544
,,,,,,test,1,2,3,1068,9,N,1,right,0.342092676,0,0,,,,,,,,,,,,,,,,,,,,,1,,,,,,,,,,,,,,,,,,,,,,,,,,,,,,,,,,,,,,,,,,,,,,43,149005,22,Female,1,2024/02/09_12:46:08,JV,59.81815544
,,,,,,test,1,2,3,1068,10,C,0,right,0.23422532,1,0,,,,,,,,,,,,,,,,,,,,,1,,,,,,,,,,,,,,,,,,,,,,,,,,,,,,,,,,,,,,,,,,,,,,43,149005,22,Female,1,2024/02/09_12:46:08,JV,59.81815544
,,,,,,test,1,2,3,1068,11,C,0,right,0.301845516,1,0,,,,,,,,,,,,,,,,,,,,,1,,,,,,,,,,,,,,,,,,,,,,,,,,,,,,,,,,,,,,,,,,,,,,43,149005,22,Female,1,2024/02/09_12:46:08,JV,59.81815544
,,,,,,Test,1,2,3,1068,,,,,,,,0.5,0,0,1,0,1,0.384642304,0,0,0,0,0,8,8,3,8,0,,,,1,,,,,,,,,,,,,,,,,,,,,,,,,,,,,,,,,,,,,,,,,,,,,,43,149005,22,Female,1,2024/02/09_12:46:08,JV,59.81815544
,,,,,240209_132054,TEST,1,2,3,1068,,,,,,,,,,,,,,,,,,,,,,,,,,,,1,2,2,2,cue2.png,hard,A,5,1.50119195,0,913.7371561,915.2584402,,,,,,,,,,,,,,,,,,,,,,,,,,,,,,,,,,,43,149005,22,Female,1,2024/02/09_12:46:08,JV,59.81815544
,,,,,,test,1,3,1,1068,1,V,0,right,0.389431459,1,0,,,,,,,,,,,,,,,,,,,,,1,,,,,,,,,,,,,,,,,,,,,,,,,,,,,,,,,,,,,,,,,,,,,,43,149005,22,Female,1,2024/02/09_12:46:08,JV,59.81815544
,,,,,,test,1,3,1,1068,2,S,0,right,0.399963242,1,0,,,,,,,,,,,,,,,,,,,,,1,,,,,,,,,,,,,,,,,,,,,,,,,,,,,,,,,,,,,,,,,,,,,,43,149005,22,Female,1,2024/02/09_12:46:08,JV,59.81815544
,,,,,,test,1,3,1,1068,3,C,0,right,0.333868547,1,0,,,,,,,,,,,,,,,,,,,,,1,,,,,,,,,,,,,,,,,,,,,,,,,,,,,,,,,,,,,,,,,,,,,,43,149005,22,Female,1,2024/02/09_12:46:08,JV,59.81815544
,,,,,,test,1,3,1,1068,4,C,1,left,0.357839534,1,0,,,,,,,,,,,,,,,,,,,,,1,,,,,,,,,,,,,,,,,,,,,,,,,,,,,,,,,,,,,,,,,,,,,,43,149005,22,Female,1,2024/02/09_12:46:08,JV,59.81815544
,,,,,,test,1,3,1,1068,5,N,0,right,0.221940107,1,0,,,,,,,,,,,,,,,,,,,,,1,,,,,,,,,,,,,,,,,,,,,,,,,,,,,,,,,,,,,,,,,,,,,,43,149005,22,Female,1,2024/02/09_12:46:08,JV,59.81815544
,,,,,,test,1,3,1,1068,6,C,0,right,0.286695765,1,0,,,,,,,,,,,,,,,,,,,,,1,,,,,,,,,,,,,,,,,,,,,,,,,,,,,,,,,,,,,,,,,,,,,,43,149005,22,Female,1,2024/02/09_12:46:08,JV,59.81815544
,,,,,,test,1,3,1,1068,7,N,0,right,0.493702996,1,0,,,,,,,,,,,,,,,,,,,,,1,,,,,,,,,,,,,,,,,,,,,,,,,,,,,,,,,,,,,,,,,,,,,,43,149005,22,Female,1,2024/02/09_12:46:08,JV,59.81815544
,,,,,,test,1,3,1,1068,8,N,1,left,0.315037599,1,0,,,,,,,,,,,,,,,,,,,,,1,,,,,,,,,,,,,,,,,,,,,,,,,,,,,,,,,,,,,,,,,,,,,,43,149005,22,Female,1,2024/02/09_12:46:08,JV,59.81815544
,,,,,,test,1,3,1,1068,9,J,0,right,0.352952582,1,0,,,,,,,,,,,,,,,,,,,,,1,,,,,,,,,,,,,,,,,,,,,,,,,,,,,,,,,,,,,,,,,,,,,,43,149005,22,Female,1,2024/02/09_12:46:08,JV,59.81815544
,,,,,,test,1,3,1,1068,10,J,1,left,0.491015802,1,0,,,,,,,,,,,,,,,,,,,,,1,,,,,,,,,,,,,,,,,,,,,,,,,,,,,,,,,,,,,,,,,,,,,,43,149005,22,Female,1,2024/02/09_12:46:08,JV,59.81815544
,,,,,,test,1,3,1,1068,11,Q,0,right,0.37908332,1,0,,,,,,,,,,,,,,,,,,,,,1,,,,,,,,,,,,,,,,,,,,,,,,,,,,,,,,,,,,,,,,,,,,,,43,149005,22,Female,1,2024/02/09_12:46:08,JV,59.81815544
,,,,,,Test,1,3,1,1068,,,,,,,,1,1,0,1,0,1,0.365593723,3,0,0,0,0,8,11,3,8,0,,,,1,,,,,,,,,,,,,,,,,,,,,,,,,,,,,,,,,,,,,,,,,,,,,,43,149005,22,Female,1,2024/02/09_12:46:08,JV,59.81815544
,,,,,240209_132114,TEST,1,3,1,1068,,,,,,,,,,,,,,,,,,,,,,,,,,,,1,3,3,3,cue1.png,easy,A,4,1.183904692,0,934.4167888,935.6229183,,,,,,,,,,,,,,,,,,,,,,,,,,,,,,,,,,,43,149005,22,Female,1,2024/02/09_12:46:08,JV,59.81815544
,,,,,,test,1,4,3,1068,1,C,0,right,0.399261162,1,0,,,,,,,,,,,,,,,,,,,,,1,,,,,,,,,,,,,,,,,,,,,,,,,,,,,,,,,,,,,,,,,,,,,,43,149005,22,Female,1,2024/02/09_12:46:08,JV,59.81815544
,,,,,,test,1,4,3,1068,2,X,0,right,0.235879248,1,0,,,,,,,,,,,,,,,,,,,,,1,,,,,,,,,,,,,,,,,,,,,,,,,,,,,,,,,,,,,,,,,,,,,,43,149005,22,Female,1,2024/02/09_12:46:08,JV,59.81815544
,,,,,,test,1,4,3,1068,3,Q,0,right,0.173872655,1,0,,,,,,,,,,,,,,,,,,,,,1,,,,,,,,,,,,,,,,,,,,,,,,,,,,,,,,,,,,,,,,,,,,,,43,149005,22,Female,1,2024/02/09_12:46:08,JV,59.81815544
,,,,,,test,1,4,3,1068,4,Q,0,right,0.494612739,1,0,,,,,,,,,,,,,,,,,,,,,1,,,,,,,,,,,,,,,,,,,,,,,,,,,,,,,,,,,,,,,,,,,,,,43,149005,22,Female,1,2024/02/09_12:46:08,JV,59.81815544
,,,,,,test,1,4,3,1068,5,X,1,right,0.434329834,0,0,,,,,,,,,,,,,,,,,,,,,1,,,,,,,,,,,,,,,,,,,,,,,,,,,,,,,,,,,,,,,,,,,,,,43,149005,22,Female,1,2024/02/09_12:46:08,JV,59.81815544
,,,,,,test,1,4,3,1068,6,J,0,right,0.381840129,1,0,,,,,,,,,,,,,,,,,,,,,1,,,,,,,,,,,,,,,,,,,,,,,,,,,,,,,,,,,,,,,,,,,,,,43,149005,22,Female,1,2024/02/09_12:46:08,JV,59.81815544
,,,,,,test,1,4,3,1068,7,S,0,right,0.223736538,1,0,,,,,,,,,,,,,,,,,,,,,1,,,,,,,,,,,,,,,,,,,,,,,,,,,,,,,,,,,,,,,,,,,,,,43,149005,22,Female,1,2024/02/09_12:46:08,JV,59.81815544
,,,,,,test,1,4,3,1068,8,X,1,left,0.326551656,1,0,,,,,,,,,,,,,,,,,,,,,1,,,,,,,,,,,,,,,,,,,,,,,,,,,,,,,,,,,,,,,,,,,,,,43,149005,22,Female,1,2024/02/09_12:46:08,JV,59.81815544
,,,,,,test,1,4,3,1068,9,J,1,right,0.231198182,0,0,,,,,,,,,,,,,,,,,,,,,1,,,,,,,,,,,,,,,,,,,,,,,,,,,,,,,,,,,,,,,,,,,,,,43,149005,22,Female,1,2024/02/09_12:46:08,JV,59.81815544
,,,,,,test,1,4,3,1068,10,Q,0,right,0.334354284,1,0,,,,,,,,,,,,,,,,,,,,,1,,,,,,,,,,,,,,,,,,,,,,,,,,,,,,,,,,,,,,,,,,,,,,43,149005,22,Female,1,2024/02/09_12:46:08,JV,59.81815544
,,,,,,test,1,4,3,1068,11,F,0,right,0.323466083,1,0,,,,,,,,,,,,,,,,,,,,,1,,,,,,,,,,,,,,,,,,,,,,,,,,,,,,,,,,,,,,,,,,,,,,43,149005,22,Female,1,2024/02/09_12:46:08,JV,59.81815544
,,,,,,Test,1,4,3,1068,,,,,,,,0.833333333,0.333333333,0,1,0,1,0.323554774,1,0,0,0,0,8,9,3,8,0,,,,1,,,,,,,,,,,,,,,,,,,,,,,,,,,,,,,,,,,,,,,,,,,,,,43,149005,22,Female,1,2024/02/09_12:46:08,JV,59.81815544
,,,,,240209_132135,TEST,1,4,3,1068,,,,,,,,,,,,,,,,,,,,,,,,,,,,1,4,4,4,cue2.png,hard,A,3,1.837703008,0,954.5492522,956.4080259,,,,,,,,,,,,,,,,,,,,,,,,,,,,,,,,,,,43,149005,22,Female,1,2024/02/09_12:46:08,JV,59.81815544
,,,,,,test,1,5,3,1068,1,N,0,right,0.361076336,1,0,,,,,,,,,,,,,,,,,,,,,1,,,,,,,,,,,,,,,,,,,,,,,,,,,,,,,,,,,,,,,,,,,,,,43,149005,22,Female,1,2024/02/09_12:46:08,JV,59.81815544
,,,,,,test,1,5,3,1068,2,N,0,right,0.288760627,1,0,,,,,,,,,,,,,,,,,,,,,1,,,,,,,,,,,,,,,,,,,,,,,,,,,,,,,,,,,,,,,,,,,,,,43,149005,22,Female,1,2024/02/09_12:46:08,JV,59.81815544
,,,,,,test,1,5,3,1068,3,X,0,right,0.139183973,1,0,,,,,,,,,,,,,,,,,,,,,1,,,,,,,,,,,,,,,,,,,,,,,,,,,,,,,,,,,,,,,,,,,,,,43,149005,22,Female,1,2024/02/09_12:46:08,JV,59.81815544
,,,,,,test,1,5,3,1068,4,X,0,right,0.360122402,1,0,,,,,,,,,,,,,,,,,,,,,1,,,,,,,,,,,,,,,,,,,,,,,,,,,,,,,,,,,,,,,,,,,,,,43,149005,22,Female,1,2024/02/09_12:46:08,JV,59.81815544
,,,,,,test,1,5,3,1068,5,J,0,right,0.315952804,1,0,,,,,,,,,,,,,,,,,,,,,1,,,,,,,,,,,,,,,,,,,,,,,,,,,,,,,,,,,,,,,,,,,,,,43,149005,22,Female,1,2024/02/09_12:46:08,JV,59.81815544
,,,,,,test,1,5,3,1068,6,X,1,left,0.405589581,1,0,,,,,,,,,,,,,,,,,,,,,1,,,,,,,,,,,,,,,,,,,,,,,,,,,,,,,,,,,,,,,,,,,,,,43,149005,22,Female,1,2024/02/09_12:46:08,JV,59.81815544
,,,,,,test,1,5,3,1068,7,F,0,right,0.414726548,1,0,,,,,,,,,,,,,,,,,,,,,1,,,,,,,,,,,,,,,,,,,,,,,,,,,,,,,,,,,,,,,,,,,,,,43,149005,22,Female,1,2024/02/09_12:46:08,JV,59.81815544
,,,,,,test,1,5,3,1068,8,N,0,right,0.246123364,1,0,,,,,,,,,,,,,,,,,,,,,1,,,,,,,,,,,,,,,,,,,,,,,,,,,,,,,,,,,,,,,,,,,,,,43,149005,22,Female,1,2024/02/09_12:46:08,JV,59.81815544
,,,,,,test,1,5,3,1068,9,N,0,right,0.247371113,1,0,,,,,,,,,,,,,,,,,,,,,1,,,,,,,,,,,,,,,,,,,,,,,,,,,,,,,,,,,,,,,,,,,,,,43,149005,22,Female,1,2024/02/09_12:46:08,JV,59.81815544
,,,,,,test,1,5,3,1068,10,F,1,left,0.342887359,1,0,,,,,,,,,,,,,,,,,,,,,1,,,,,,,,,,,,,,,,,,,,,,,,,,,,,,,,,,,,,,,,,,,,,,43,149005,22,Female,1,2024/02/09_12:46:08,JV,59.81815544
,,,,,,test,1,5,3,1068,11,N,1,right,0.213257668,0,0,,,,,,,,,,,,,,,,,,,,,1,,,,,,,,,,,,,,,,,,,,,,,,,,,,,,,,,,,,,,,,,,,,,,43,149005,22,Female,1,2024/02/09_12:46:08,JV,59.81815544
,,,,,,Test,1,5,3,1068,,,,,,,,0.916666667,0.666666667,0,1,0,1,0.303186525,2,0,0,0,0,8,10,3,8,0,,,,1,,,,,,,,,,,,,,,,,,,,,,,,,,,,,,,,,,,,,,,,,,,,,,43,149005,22,Female,1,2024/02/09_12:46:08,JV,59.81815544
,,,,,240209_132155,TEST,1,5,3,1068,,,,,,,,,,,,,,,,,,,,,,,,,,,,1,5,5,5,cue2.png,hard,A,3,1.719241336,0,974.863132,976.6052699,,,,,,,,,,,,,,,,,,,,,,,,,,,,,,,,,,,43,149005,22,Female,1,2024/02/09_12:46:08,JV,59.81815544
,,,,,,test,1,6,1,1068,1,J,0,right,0.431670312,1,0,,,,,,,,,,,,,,,,,,,,,1,,,,,,,,,,,,,,,,,,,,,,,,,,,,,,,,,,,,,,,,,,,,,,43,149005,22,Female,1,2024/02/09_12:46:08,JV,59.81815544
,,,,,,test,1,6,1,1068,2,C,0,right,0.29436253,1,0,,,,,,,,,,,,,,,,,,,,,1,,,,,,,,,,,,,,,,,,,,,,,,,,,,,,,,,,,,,,,,,,,,,,43,149005,22,Female,1,2024/02/09_12:46:08,JV,59.81815544
,,,,,,test,1,6,1,1068,3,Q,0,right,0.375627854,1,0,,,,,,,,,,,,,,,,,,,,,1,,,,,,,,,,,,,,,,,,,,,,,,,,,,,,,,,,,,,,,,,,,,,,43,149005,22,Female,1,2024/02/09_12:46:08,JV,59.81815544
,,,,,,test,1,6,1,1068,4,X,0,right,0.458380642,1,0,,,,,,,,,,,,,,,,,,,,,1,,,,,,,,,,,,,,,,,,,,,,,,,,,,,,,,,,,,,,,,,,,,,,43,149005,22,Female,1,2024/02/09_12:46:08,JV,59.81815544
,,,,,,test,1,6,1,1068,5,V,0,right,0.346732123,1,0,,,,,,,,,,,,,,,,,,,,,1,,,,,,,,,,,,,,,,,,,,,,,,,,,,,,,,,,,,,,,,,,,,,,43,149005,22,Female,1,2024/02/09_12:46:08,JV,59.81815544
,,,,,,test,1,6,1,1068,6,V,1,left,0.368298184,1,0,,,,,,,,,,,,,,,,,,,,,1,,,,,,,,,,,,,,,,,,,,,,,,,,,,,,,,,,,,,,,,,,,,,,43,149005,22,Female,1,2024/02/09_12:46:08,JV,59.81815544
,,,,,,test,1,6,1,1068,7,C,0,right,0.330401643,1,0,,,,,,,,,,,,,,,,,,,,,1,,,,,,,,,,,,,,,,,,,,,,,,,,,,,,,,,,,,,,,,,,,,,,43,149005,22,Female,1,2024/02/09_12:46:08,JV,59.81815544
,,,,,,test,1,6,1,1068,8,C,1,left,0.319466825,1,0,,,,,,,,,,,,,,,,,,,,,1,,,,,,,,,,,,,,,,,,,,,,,,,,,,,,,,,,,,,,,,,,,,,,43,149005,22,Female,1,2024/02/09_12:46:08,JV,59.81815544
,,,,,,test,1,6,1,1068,9,V,0,right,0.274757547,1,0,,,,,,,,,,,,,,,,,,,,,1,,,,,,,,,,,,,,,,,,,,,,,,,,,,,,,,,,,,,,,,,,,,,,43,149005,22,Female,1,2024/02/09_12:46:08,JV,59.81815544
,,,,,,test,1,6,1,1068,10,V,1,left,0.351944341,1,0,,,,,,,,,,,,,,,,,,,,,1,,,,,,,,,,,,,,,,,,,,,,,,,,,,,,,,,,,,,,,,,,,,,,43,149005,22,Female,1,2024/02/09_12:46:08,JV,59.81815544
,,,,,,test,1,6,1,1068,11,X,0,right,0.272205205,1,0,,,,,,,,,,,,,,,,,,,,,1,,,,,,,,,,,,,,,,,,,,,,,,,,,,,,,,,,,,,,,,,,,,,,43,149005,22,Female,1,2024/02/09_12:46:08,JV,59.81815544
,,,,,,Test,1,6,1,1068,,,,,,,,1,1,0,1,0,1,0.347622473,3,0,0,0,0,8,11,3,8,0,,,,1,,,,,,,,,,,,,,,,,,,,,,,,,,,,,,,,,,,,,,,,,,,,,,43,149005,22,Female,1,2024/02/09_12:46:08,JV,59.81815544
