Instruction,Stimulus,Key,RT,START,END,Phase,Block,TrialN,NbackLevel,ISI,LetterN,Letter,Letter_isSame,Letter_Resp,Letter_RT,Letter_Accuracy,Letter_Timeout,Trial_A_measure,Trial_HR,Trial_FAR,Trial_CDR,Trial_MSR,Trial_ACC,Trial_RT,Trial_HitsCount,Trial_FAsCount,Trial_SameNoRespCount,Trial_DiffNoRespCount,Trial_NoRespCount,Trial_CDsCount,Trial_CorrectRespCount,Trial_SameLetterCount,Trial_DiffLetterCount,Trial_InvalidLetterCount,TrialCountCali,CaliEnd_A_measure,ISI_calibrated,Run,TrialIndex,TrialNumber_total,TrialNumber_valid,CueLearning,TrialDemandLearning,CueMapping,OnlineRating,OnlineRatingRT,OnlineRatingTimeOut,CueSTART,RatingSTART,OfflineRatingTimePoint,OfflineRatingQuesIndex,CueFigure,TrialDemand,OfflineRating,OfflineRatingRT,CueStart,OfflineRatingStart,PhaseType,CueLeft,CueDemandLeft,CueRight,CueDemandRight,Choice,ChoiceDemand,TaskDemand,ChoiceRT,ChoiceTimeOut,ChoiceSTART,CueCheck,CueDemandCheck,CorrectAnswer,Answer,AnswerDemand,AnswerRT,AnswerACC,AnswerTimeOut,CheckSTART,DemandRatingQuesIndex,QuesTLX,DemandLevel,DemandRating,DemandRatingRT,QuesStart,PID,SONA,Age,Gender,Run,TIME,EXPERIMENTER,frameRate,
1,./instructions/inst_begin/Slide2.png,right,32.16178377200413,0.11905826300062472,32.28084203500475,,,,,,,,,,,,,,,,,,,,,,,,,,,,,,,,,1,,,,,,,,,,,,,,,,,,,,,,,,,,,,,,,,,,,,,,,,,,,,,,104,145921,21,Female,1,2024/03/19_14:36:33,YZ,None,
2,./instructions/inst_begin/Slide3.png,right,10.962187377997907,32.31075008200423,43.27293746000214,,,,,,,,,,,,,,,,,,,,,,,,,,,,,,,,,1,,,,,,,,,,,,,,,,,,,,,,,,,,,,,,,,,,,,,,,,,,,,,,104,145921,21,Female,1,2024/03/19_14:36:33,YZ,None,
3,./instructions/inst_begin/Slide4.png,right,12.306814864001353,43.30218790000072,55.60900276400207,,,,,,,,,,,,,,,,,,,,,,,,,,,,,,,,,1,,,,,,,,,,,,,,,,,,,,,,,,,,,,,,,,,,,,,,,,,,,,,,104,145921,21,Female,1,2024/03/19_14:36:33,YZ,None,
1,./instructions/inst_prac_2/Slide6.png,right,14.578254765001475,55.646776483001304,70.22503124800278,,,,,,,,,,,,,,,,,,,,,,,,,,,,,,,,,1,,,,,,,,,,,,,,,,,,,,,,,,,,,,,,,,,,,,,,,,,,,,,,104,145921,21,Female,1,2024/03/19_14:36:33,YZ,None,
2,./instructions/inst_prac_2/Slide7.png,right,18.386454503001005,70.25445746300102,88.64091196600202,,,,,,,,,,,,,,,,,,,,,,,,,,,,,,,,,1,,,,,,,,,,,,,,,,,,,,,,,,,,,,,,,,,,,,,,,,,,,,,,104,145921,21,Female,1,2024/03/19_14:36:33,YZ,None,
3,./instructions/inst_prac_2/Slide8.png,right,12.018392229998426,88.67049688200495,100.68888911200338,,,,,,,,,,,,,,,,,,,,,,,,,,,,,,,,,1,,,,,,,,,,,,,,,,,,,,,,,,,,,,,,,,,,,,,,,,,,,,,,104,145921,21,Female,1,2024/03/19_14:36:33,YZ,None,
4,./instructions/inst_prac_2/Slide9.png,right,13.532159416005015,100.71658676399966,114.24874618000467,,,,,,,,,,,,,,,,,,,,,,,,,,,,,,,,,1,,,,,,,,,,,,,,,,,,,,,,,,,,,,,,,,,,,,,,,,,,,,,,104,145921,21,Female,1,2024/03/19_14:36:33,YZ,None,
5,./instructions/inst_prac_2/Slide10.png,right,2.9245163860032335,114.27631821500108,117.20083460100432,,,,,,,,,,,,,,,,,,,,,,,,,,,,,,,,,1,,,,,,,,,,,,,,,,,,,,,,,,,,,,,,,,,,,,,,,,,,,,,,104,145921,21,Female,1,2024/03/19_14:36:33,YZ,None,
6,./instructions/inst_prac_2/Slide11.png,right,4.812414476000413,117.22833411300235,122.04074858900276,,,,,,,,,,,,,,,,,,,,,,,,,,,,,,,,,1,,,,,,,,,,,,,,,,,,,,,,,,,,,,,,,,,,,,,,,,,,,,,,104,145921,21,Female,1,2024/03/19_14:36:33,YZ,None,
7,./instructions/inst_prac_2/Slide12.png,right,1.9582104900036938,122.06660402200214,124.02481451200583,,,,,,,,,,,,,,,,,,,,,,,,,,,,,,,,,1,,,,,,,,,,,,,,,,,,,,,,,,,,,,,,,,,,,,,,,,,,,,,,104,145921,21,Female,1,2024/03/19_14:36:33,YZ,None,
8,./instructions/inst_prac_2/Slide13.png,right,1.6855349890029174,124.05118620199937,125.73672119100229,,,,,,,,,,,,,,,,,,,,,,,,,,,,,,,,,1,,,,,,,,,,,,,,,,,,,,,,,,,,,,,,,,,,,,,,,,,,,,,,104,145921,21,Female,1,2024/03/19_14:36:33,YZ,None,
9,./instructions/inst_prac_2/Slide14.png,right,23.306760657993436,125.76605401400593,149.07281467199937,,,,,,,,,,,,,,,,,,,,,,,,,,,,,,,,,1,,,,,,,,,,,,,,,,,,,,,,,,,,,,,,,,,,,,,,,,,,,,,,104,145921,21,Female,1,2024/03/19_14:36:33,YZ,None,
10,./instructions/inst_prac_2/Slide15.png,right,21.507406666998577,149.101468603003,170.6088752700016,,,,,,,,,,,,,,,,,,,,,,,,,,,,,,,,,1,,,,,,,,,,,,,,,,,,,,,,,,,,,,,,,,,,,,,,,,,,,,,,104,145921,21,Female,1,2024/03/19_14:36:33,YZ,None,
,,,,,,practice,0,7,2,2583,1,J,0,left,4.720750874999794,0,0,,,,,,,,,,,,,,,,,,,,,1,,,,,,,,,,,,,,,,,,,,,,,,,,,,,,,,,,,,,,,,,,,,,,104,145921,21,Female,1,2024/03/19_14:36:33,YZ,None,
,,,,,,practice,0,7,2,2583,2,J,0,right,3.019163511999068,1,0,,,,,,,,,,,,,,,,,,,,,1,,,,,,,,,,,,,,,,,,,,,,,,,,,,,,,,,,,,,,,,,,,,,,104,145921,21,Female,1,2024/03/19_14:36:33,YZ,None,
,,,,,,practice,0,7,2,2583,3,J,1,left,1.1902141329992446,1,0,,,,,,,,,,,,,,,,,,,,,1,,,,,,,,,,,,,,,,,,,,,,,,,,,,,,,,,,,,,,,,,,,,,,104,145921,21,Female,1,2024/03/19_14:36:33,YZ,None,
,,,,,,practice,0,7,2,2583,4,J,1,left,1.731286848000309,1,0,,,,,,,,,,,,,,,,,,,,,1,,,,,,,,,,,,,,,,,,,,,,,,,,,,,,,,,,,,,,,,,,,,,,104,145921,21,Female,1,2024/03/19_14:36:33,YZ,None,
,,,,,,practice,0,7,2,2583,5,S,0,right,0.9450106680014869,1,0,,,,,,,,,,,,,,,,,,,,,1,,,,,,,,,,,,,,,,,,,,,,,,,,,,,,,,,,,,,,,,,,,,,,104,145921,21,Female,1,2024/03/19_14:36:33,YZ,None,
,,,,,,practice,0,7,2,2583,6,V,0,right,0.7335152360028587,1,0,,,,,,,,,,,,,,,,,,,,,1,,,,,,,,,,,,,,,,,,,,,,,,,,,,,,,,,,,,,,,,,,,,,,104,145921,21,Female,1,2024/03/19_14:36:33,YZ,None,
,,,,,,practice,0,7,2,2583,,,,,,,,0.9375,1.0,0.25,0.75,0.0,0.75,2.056656878667127,2,1,0,0,0,3,5,2,4,0,,,,1,,,,,,,,,,,,,,,,,,,,,,,,,,,,,,,,,,,,,,,,,,,,,,104,145921,21,Female,1,2024/03/19_14:36:33,YZ,None,
1,./instructions/inst_to_cali/Slide20.png,right,5.562904406004236,189.79789184100082,195.36079624700506,,,,,,,,,,,,,,,,,,,,,,,,,,,,,,,,,1,,,,,,,,,,,,,,,,,,,,,,,,,,,,,,,,,,,,,,,,,,,,,,104,145921,21,Female,1,2024/03/19_14:36:33,YZ,None,
1,./instructions/inst_cali/Slide22.png,right,17.36614940399886,195.3946732320037,212.76082263600256,,,,,,,,,,,,,,,,,,,,,,,,,,,,,,,,,1,,,,,,,,,,,,,,,,,,,,,,,,,,,,,,,,,,,,,,,,,,,,,,104,145921,21,Female,1,2024/03/19_14:36:33,YZ,None,
,,,,,,calibration,0,3,2,583,1,F,0,right,0.878462362998107,1,0,,,,,,,,,,,,,,,,,,,,,1,,,,,,,,,,,,,,,,,,,,,,,,,,,,,,,,,,,,,,,,,,,,,,104,145921,21,Female,1,2024/03/19_14:36:33,YZ,None,
,,,,,,calibration,0,3,2,583,2,S,0,right,0.8904868819954572,1,0,,,,,,,,,,,,,,,,,,,,,1,,,,,,,,,,,,,,,,,,,,,,,,,,,,,,,,,,,,,,,,,,,,,,104,145921,21,Female,1,2024/03/19_14:36:33,YZ,None,
,,,,,,calibration,0,3,2,583,3,V,0,right,0.600858038997103,1,0,,,,,,,,,,,,,,,,,,,,,1,,,,,,,,,,,,,,,,,,,,,,,,,,,,,,,,,,,,,,,,,,,,,,104,145921,21,Female,1,2024/03/19_14:36:33,YZ,None,
,,,,,,calibration,0,3,2,583,4,S,1,left,0.7891793849994428,1,0,,,,,,,,,,,,,,,,,,,,,1,,,,,,,,,,,,,,,,,,,,,,,,,,,,,,,,,,,,,,,,,,,,,,104,145921,21,Female,1,2024/03/19_14:36:33,YZ,None,
,,,,,,calibration,0,3,2,583,5,F,0,right,0.5635508859995753,1,0,,,,,,,,,,,,,,,,,,,,,1,,,,,,,,,,,,,,,,,,,,,,,,,,,,,,,,,,,,,,,,,,,,,,104,145921,21,Female,1,2024/03/19_14:36:33,YZ,None,
,,,,,,calibration,0,3,2,583,6,C,0,right,0.591494790998695,1,0,,,,,,,,,,,,,,,,,,,,,1,,,,,,,,,,,,,,,,,,,,,,,,,,,,,,,,,,,,,,,,,,,,,,104,145921,21,Female,1,2024/03/19_14:36:33,YZ,None,
,,,,,,calibration,0,3,2,583,7,Q,0,right,0.635531339001318,1,0,,,,,,,,,,,,,,,,,,,,,1,,,,,,,,,,,,,,,,,,,,,,,,,,,,,,,,,,,,,,,,,,,,,,104,145921,21,Female,1,2024/03/19_14:36:33,YZ,None,
,,,,,,calibration,0,3,2,583,8,C,1,left,0.7191695379951852,1,0,,,,,,,,,,,,,,,,,,,,,1,,,,,,,,,,,,,,,,,,,,,,,,,,,,,,,,,,,,,,,,,,,,,,104,145921,21,Female,1,2024/03/19_14:36:33,YZ,None,
,,,,,,calibration,0,3,2,583,9,V,0,right,0.6951209359976929,1,0,,,,,,,,,,,,,,,,,,,,,1,,,,,,,,,,,,,,,,,,,,,,,,,,,,,,,,,,,,,,,,,,,,,,104,145921,21,Female,1,2024/03/19_14:36:33,YZ,None,
,,,,,,calibration,0,3,2,583,10,C,1,right,0.7087228050004342,0,0,,,,,,,,,,,,,,,,,,,,,1,,,,,,,,,,,,,,,,,,,,,,,,,,,,,,,,,,,,,,,,,,,,,,104,145921,21,Female,1,2024/03/19_14:36:33,YZ,None,
,,,,,,calibration,0,3,2,583,11,V,1,right,0.5501077630033251,0,0,,,,,,,,,,,,,,,,,,,,,1,,,,,,,,,,,,,,,,,,,,,,,,,,,,,,,,,,,,,,,,,,,,,,104,145921,21,Female,1,2024/03/19_14:36:33,YZ,None,
,,,,,,calibration,0,3,2,583,12,J,0,left,0.6930997029994614,0,0,,,,,,,,,,,,,,,,,,,,,1,,,,,,,,,,,,,,,,,,,,,,,,,,,,,,,,,,,,,,,,,,,,,,104,145921,21,Female,1,2024/03/19_14:36:33,YZ,None,
,,,,,,calibration,0,3,2,583,13,Q,0,right,0.4898675600052229,1,0,,,,,,,,,,,,,,,,,,,,,1,,,,,,,,,,,,,,,,,,,,,,,,,,,,,,,,,,,,,,,,,,,,,,104,145921,21,Female,1,2024/03/19_14:36:33,YZ,None,
,,,,,,calibration,0,3,2,583,14,F,0,left,0.8827276880037971,0,0,,,,,,,,,,,,,,,,,,,,,1,,,,,,,,,,,,,,,,,,,,,,,,,,,,,,,,,,,,,,,,,,,,,,104,145921,21,Female,1,2024/03/19_14:36:33,YZ,None,
,,,,,,calibration,0,3,2,583,15,C,0,left,0.9913294840007438,0,0,,,,,,,,,,,,,,,,,,,,,1,,,,,,,,,,,,,,,,,,,,,,,,,,,,,,,,,,,,,,,,,,,,,,104,145921,21,Female,1,2024/03/19_14:36:33,YZ,None,
,,,,,,calibration,0,3,2,583,,,,,,,,0.6704545454545455,0.5,0.2727272727272727,0.7272727272727273,0.0,0.7272727272727273,0.7119806107997041,2,3,0,0,0,8,10,4,11,0,,,,1,,,,,,,,,,,,,,,,,,,,,,,,,,,,,,,,,,,,,,,,,,,,,,104,145921,21,Female,1,2024/03/19_14:36:33,YZ,None,
,,,,,,Calibration,0,,2,583,,,,,,,,,,,,,,,,,,,,,,,,,1,,,1,,,,,,,,,,,,,,,,,,,,,,,,,,,,,,,,,,,,,,,,,,,,,,104,145921,21,Female,1,2024/03/19_14:36:33,YZ,None,
,,,,,,calibration,0,10,2,679,1,C,0,right,0.9649954289998277,1,0,,,,,,,,,,,,,,,,,,,,,1,,,,,,,,,,,,,,,,,,,,,,,,,,,,,,,,,,,,,,,,,,,,,,104,145921,21,Female,1,2024/03/19_14:36:33,YZ,None,
,,,,,,calibration,0,10,2,679,2,Q,0,right,0.5413401320038247,1,0,,,,,,,,,,,,,,,,,,,,,1,,,,,,,,,,,,,,,,,,,,,,,,,,,,,,,,,,,,,,,,,,,,,,104,145921,21,Female,1,2024/03/19_14:36:33,YZ,None,
,,,,,,calibration,0,10,2,679,3,V,0,right,0.33148811900173314,1,0,,,,,,,,,,,,,,,,,,,,,1,,,,,,,,,,,,,,,,,,,,,,,,,,,,,,,,,,,,,,,,,,,,,,104,145921,21,Female,1,2024/03/19_14:36:33,YZ,None,
,,,,,,calibration,0,10,2,679,4,N,0,right,0.4955898460029857,1,0,,,,,,,,,,,,,,,,,,,,,1,,,,,,,,,,,,,,,,,,,,,,,,,,,,,,,,,,,,,,,,,,,,,,104,145921,21,Female,1,2024/03/19_14:36:33,YZ,None,
,,,,,,calibration,0,10,2,679,5,C,0,right,0.7565459709949209,1,0,,,,,,,,,,,,,,,,,,,,,1,,,,,,,,,,,,,,,,,,,,,,,,,,,,,,,,,,,,,,,,,,,,,,104,145921,21,Female,1,2024/03/19_14:36:33,YZ,None,
,,,,,,calibration,0,10,2,679,6,N,1,left,0.6236704490002012,1,0,,,,,,,,,,,,,,,,,,,,,1,,,,,,,,,,,,,,,,,,,,,,,,,,,,,,,,,,,,,,,,,,,,,,104,145921,21,Female,1,2024/03/19_14:36:33,YZ,None,
,,,,,,calibration,0,10,2,679,7,F,0,right,0.6512251849999302,1,0,,,,,,,,,,,,,,,,,,,,,1,,,,,,,,,,,,,,,,,,,,,,,,,,,,,,,,,,,,,,,,,,,,,,104,145921,21,Female,1,2024/03/19_14:36:33,YZ,None,
,,,,,,calibration,0,10,2,679,8,N,1,left,0.7109505529952003,1,0,,,,,,,,,,,,,,,,,,,,,1,,,,,,,,,,,,,,,,,,,,,,,,,,,,,,,,,,,,,,,,,,,,,,104,145921,21,Female,1,2024/03/19_14:36:33,YZ,None,
,,,,,,calibration,0,10,2,679,9,C,0,left,0.7570912480005063,0,0,,,,,,,,,,,,,,,,,,,,,1,,,,,,,,,,,,,,,,,,,,,,,,,,,,,,,,,,,,,,,,,,,,,,104,145921,21,Female,1,2024/03/19_14:36:33,YZ,None,
,,,,,,calibration,0,10,2,679,10,F,0,right,0.5127376240052399,1,0,,,,,,,,,,,,,,,,,,,,,1,,,,,,,,,,,,,,,,,,,,,,,,,,,,,,,,,,,,,,,,,,,,,,104,145921,21,Female,1,2024/03/19_14:36:33,YZ,None,
,,,,,,calibration,0,10,2,679,11,C,1,left,0.4953571000005468,1,0,,,,,,,,,,,,,,,,,,,,,1,,,,,,,,,,,,,,,,,,,,,,,,,,,,,,,,,,,,,,,,,,,,,,104,145921,21,Female,1,2024/03/19_14:36:33,YZ,None,
,,,,,,calibration,0,10,2,679,12,F,1,left,0.7062069140010863,1,0,,,,,,,,,,,,,,,,,,,,,1,,,,,,,,,,,,,,,,,,,,,,,,,,,,,,,,,,,,,,,,,,,,,,104,145921,21,Female,1,2024/03/19_14:36:33,YZ,None,
,,,,,,calibration,0,10,2,679,13,X,0,right,0.5346097329966142,1,0,,,,,,,,,,,,,,,,,,,,,1,,,,,,,,,,,,,,,,,,,,,,,,,,,,,,,,,,,,,,,,,,,,,,104,145921,21,Female,1,2024/03/19_14:36:33,YZ,None,
,,,,,,calibration,0,10,2,679,14,J,0,right,0.8901485959941056,1,0,,,,,,,,,,,,,,,,,,,,,1,,,,,,,,,,,,,,,,,,,,,,,,,,,,,,,,,,,,,,,,,,,,,,104,145921,21,Female,1,2024/03/19_14:36:33,YZ,None,
,,,,,,calibration,0,10,2,679,,,,,,,,0.975,1.0,0.1,0.9,0.0,0.9,0.6408540642140517,4,1,0,0,0,9,13,4,10,0,,,,1,,,,,,,,,,,,,,,,,,,,,,,,,,,,,,,,,,,,,,,,,,,,,,104,145921,21,Female,1,2024/03/19_14:36:33,YZ,None,
,,,,,,Calibration,0,,2,679,,,,,,,,,,,,,,,,,,,,,,,,,2,,,1,,,,,,,,,,,,,,,,,,,,,,,,,,,,,,,,,,,,,,,,,,,,,,104,145921,21,Female,1,2024/03/19_14:36:33,YZ,None,
,,,,,,calibration,0,17,2,583,1,J,0,right,0.48129465999954846,1,0,,,,,,,,,,,,,,,,,,,,,1,,,,,,,,,,,,,,,,,,,,,,,,,,,,,,,,,,,,,,,,,,,,,,104,145921,21,Female,1,2024/03/19_14:36:33,YZ,None,
,,,,,,calibration,0,17,2,583,2,C,0,right,0.4194841370044742,1,0,,,,,,,,,,,,,,,,,,,,,1,,,,,,,,,,,,,,,,,,,,,,,,,,,,,,,,,,,,,,,,,,,,,,104,145921,21,Female,1,2024/03/19_14:36:33,YZ,None,
,,,,,,calibration,0,17,2,583,3,J,1,left,0.681701827001234,1,0,,,,,,,,,,,,,,,,,,,,,1,,,,,,,,,,,,,,,,,,,,,,,,,,,,,,,,,,,,,,,,,,,,,,104,145921,21,Female,1,2024/03/19_14:36:33,YZ,None,
,,,,,,calibration,0,17,2,583,4,F,0,right,0.7575405269963085,1,0,,,,,,,,,,,,,,,,,,,,,1,,,,,,,,,,,,,,,,,,,,,,,,,,,,,,,,,,,,,,,,,,,,,,104,145921,21,Female,1,2024/03/19_14:36:33,YZ,None,
,,,,,,calibration,0,17,2,583,5,N,0,right,0.8528475650018663,1,0,,,,,,,,,,,,,,,,,,,,,1,,,,,,,,,,,,,,,,,,,,,,,,,,,,,,,,,,,,,,,,,,,,,,104,145921,21,Female,1,2024/03/19_14:36:33,YZ,None,
,,,,,,calibration,0,17,2,583,6,X,0,right,0.673663615998521,1,0,,,,,,,,,,,,,,,,,,,,,1,,,,,,,,,,,,,,,,,,,,,,,,,,,,,,,,,,,,,,,,,,,,,,104,145921,21,Female,1,2024/03/19_14:36:33,YZ,None,
,,,,,,calibration,0,17,2,583,7,N,1,left,0.7350098210008582,1,0,,,,,,,,,,,,,,,,,,,,,1,,,,,,,,,,,,,,,,,,,,,,,,,,,,,,,,,,,,,,,,,,,,,,104,145921,21,Female,1,2024/03/19_14:36:33,YZ,None,
,,,,,,calibration,0,17,2,583,8,Q,0,right,0.6084557509966544,1,0,,,,,,,,,,,,,,,,,,,,,1,,,,,,,,,,,,,,,,,,,,,,,,,,,,,,,,,,,,,,,,,,,,,,104,145921,21,Female,1,2024/03/19_14:36:33,YZ,None,
,,,,,,calibration,0,17,2,583,9,N,1,right,0.7404820020019542,0,0,,,,,,,,,,,,,,,,,,,,,1,,,,,,,,,,,,,,,,,,,,,,,,,,,,,,,,,,,,,,,,,,,,,,104,145921,21,Female,1,2024/03/19_14:36:33,YZ,None,
,,,,,,calibration,0,17,2,583,10,S,0,right,0.40614633099903585,1,0,,,,,,,,,,,,,,,,,,,,,1,,,,,,,,,,,,,,,,,,,,,,,,,,,,,,,,,,,,,,,,,,,,,,104,145921,21,Female,1,2024/03/19_14:36:33,YZ,None,
,,,,,,calibration,0,17,2,583,11,N,1,left,0.5572474850050639,1,0,,,,,,,,,,,,,,,,,,,,,1,,,,,,,,,,,,,,,,,,,,,,,,,,,,,,,,,,,,,,,,,,,,,,104,145921,21,Female,1,2024/03/19_14:36:33,YZ,None,
,,,,,,calibration,0,17,2,583,12,V,0,right,0.4251696939973044,1,0,,,,,,,,,,,,,,,,,,,,,1,,,,,,,,,,,,,,,,,,,,,,,,,,,,,,,,,,,,,,,,,,,,,,104,145921,21,Female,1,2024/03/19_14:36:33,YZ,None,
,,,,,,calibration,0,17,2,583,13,C,0,right,0.4956013039991376,1,0,,,,,,,,,,,,,,,,,,,,,1,,,,,,,,,,,,,,,,,,,,,,,,,,,,,,,,,,,,,,,,,,,,,,104,145921,21,Female,1,2024/03/19_14:36:33,YZ,None,
,,,,,,calibration,0,17,2,583,14,F,0,right,0.6975021890029893,1,0,,,,,,,,,,,,,,,,,,,,,1,,,,,,,,,,,,,,,,,,,,,,,,,,,,,,,,,,,,,,,,,,,,,,104,145921,21,Female,1,2024/03/19_14:36:33,YZ,None,
,,,,,,calibration,0,17,2,583,15,Q,0,right,0.42945669300388545,1,0,,,,,,,,,,,,,,,,,,,,,1,,,,,,,,,,,,,,,,,,,,,,,,,,,,,,,,,,,,,,,,,,,,,,104,145921,21,Female,1,2024/03/19_14:36:33,YZ,None,
,,,,,,calibration,0,17,2,583,,,,,,,,0.9375,0.75,0.0,1.0,0.0,1.0,0.5974402401339224,3,0,0,0,0,11,14,4,11,0,,,,1,,,,,,,,,,,,,,,,,,,,,,,,,,,,,,,,,,,,,,,,,,,,,,104,145921,21,Female,1,2024/03/19_14:36:33,YZ,None,
,,,,,,Calibration,0,,2,583,,,,,,,,,,,,,,,,,,,,,,,,,3,,,1,,,,,,,,,,,,,,,,,,,,,,,,,,,,,,,,,,,,,,,,,,,,,,104,145921,21,Female,1,2024/03/19_14:36:33,YZ,None,
,,,,,,calibration,0,32,2,500,1,V,0,right,0.4653161440000986,1,0,,,,,,,,,,,,,,,,,,,,,1,,,,,,,,,,,,,,,,,,,,,,,,,,,,,,,,,,,,,,,,,,,,,,104,145921,21,Female,1,2024/03/19_14:36:33,YZ,None,
,,,,,,calibration,0,32,2,500,2,S,0,right,0.2897898409937625,1,0,,,,,,,,,,,,,,,,,,,,,1,,,,,,,,,,,,,,,,,,,,,,,,,,,,,,,,,,,,,,,,,,,,,,104,145921,21,Female,1,2024/03/19_14:36:33,YZ,None,
,,,,,,calibration,0,32,2,500,3,J,0,right,0.5130281279998599,1,0,,,,,,,,,,,,,,,,,,,,,1,,,,,,,,,,,,,,,,,,,,,,,,,,,,,,,,,,,,,,,,,,,,,,104,145921,21,Female,1,2024/03/19_14:36:33,YZ,None,
,,,,,,calibration,0,32,2,500,4,Q,0,right,0.45871411899861414,1,0,,,,,,,,,,,,,,,,,,,,,1,,,,,,,,,,,,,,,,,,,,,,,,,,,,,,,,,,,,,,,,,,,,,,104,145921,21,Female,1,2024/03/19_14:36:33,YZ,None,
,,,,,,calibration,0,32,2,500,5,J,1,left,0.541907597995305,1,0,,,,,,,,,,,,,,,,,,,,,1,,,,,,,,,,,,,,,,,,,,,,,,,,,,,,,,,,,,,,,,,,,,,,104,145921,21,Female,1,2024/03/19_14:36:33,YZ,None,
,,,,,,calibration,0,32,2,500,6,Q,1,right,0.5351509110041661,0,0,,,,,,,,,,,,,,,,,,,,,1,,,,,,,,,,,,,,,,,,,,,,,,,,,,,,,,,,,,,,,,,,,,,,104,145921,21,Female,1,2024/03/19_14:36:33,YZ,None,
,,,,,,calibration,0,32,2,500,7,V,0,left,0.36906596399785485,0,0,,,,,,,,,,,,,,,,,,,,,1,,,,,,,,,,,,,,,,,,,,,,,,,,,,,,,,,,,,,,,,,,,,,,104,145921,21,Female,1,2024/03/19_14:36:33,YZ,None,
,,,,,,calibration,0,32,2,500,8,N,0,right,0.5650152470043395,1,0,,,,,,,,,,,,,,,,,,,,,1,,,,,,,,,,,,,,,,,,,,,,,,,,,,,,,,,,,,,,,,,,,,,,104,145921,21,Female,1,2024/03/19_14:36:33,YZ,None,
,,,,,,calibration,0,32,2,500,9,V,1,right,0.4345493240034557,0,0,,,,,,,,,,,,,,,,,,,,,1,,,,,,,,,,,,,,,,,,,,,,,,,,,,,,,,,,,,,,,,,,,,,,104,145921,21,Female,1,2024/03/19_14:36:33,YZ,None,
,,,,,,calibration,0,32,2,500,10,X,0,right,0.6115008889973979,1,0,,,,,,,,,,,,,,,,,,,,,1,,,,,,,,,,,,,,,,,,,,,,,,,,,,,,,,,,,,,,,,,,,,,,104,145921,21,Female,1,2024/03/19_14:36:33,YZ,None,
,,,,,,calibration,0,32,2,500,11,V,1,left,0.5127319969978998,1,0,,,,,,,,,,,,,,,,,,,,,1,,,,,,,,,,,,,,,,,,,,,,,,,,,,,,,,,,,,,,,,,,,,,,104,145921,21,Female,1,2024/03/19_14:36:33,YZ,None,
,,,,,,calibration,0,32,2,500,12,F,0,right,0.3710936520001269,1,0,,,,,,,,,,,,,,,,,,,,,1,,,,,,,,,,,,,,,,,,,,,,,,,,,,,,,,,,,,,,,,,,,,,,104,145921,21,Female,1,2024/03/19_14:36:33,YZ,None,
,,,,,,calibration,0,32,2,500,13,C,0,right,0.4642958530021133,1,0,,,,,,,,,,,,,,,,,,,,,1,,,,,,,,,,,,,,,,,,,,,,,,,,,,,,,,,,,,,,,,,,,,,,104,145921,21,Female,1,2024/03/19_14:36:33,YZ,None,
,,,,,,calibration,0,32,2,500,14,N,0,left,0.7718019300009473,0,0,,,,,,,,,,,,,,,,,,,,,1,,,,,,,,,,,,,,,,,,,,,,,,,,,,,,,,,,,,,,,,,,,,,,104,145921,21,Female,1,2024/03/19_14:36:33,YZ,None,
,,,,,,calibration,0,32,2,500,15,C,1,right,0.4371759360001306,0,0,,,,,,,,,,,,,,,,,,,,,1,,,,,,,,,,,,,,,,,,,,,,,,,,,,,,,,,,,,,,,,,,,,,,104,145921,21,Female,1,2024/03/19_14:36:33,YZ,None,
,,,,,,calibration,0,32,2,500,16,J,0,left,0.0,0,0,,,,,,,,,,,,,,,,,,,,,1,,,,,,,,,,,,,,,,,,,,,,,,,,,,,,,,,,,,,,,,,,,,,,104,145921,21,Female,1,2024/03/19_14:36:33,YZ,None,
,,,,,,calibration,0,32,2,500,,,,,,,,0.6113636363636364,0.4,0.2727272727272727,0.7272727272727273,0.0,0.7272727272727273,0.4588210958122545,2,3,0,0,0,8,10,5,11,0,,,,1,,,,,,,,,,,,,,,,,,,,,,,,,,,,,,,,,,,,,,,,,,,,,,104,145921,21,Female,1,2024/03/19_14:36:33,YZ,None,
,,,,,,Calibration,0,,2,500,,,,,,,,,,,,,,,,,,,,,,,,,4,,,1,,,,,,,,,,,,,,,,,,,,,,,,,,,,,,,,,,,,,,,,,,,,,,104,145921,21,Female,1,2024/03/19_14:36:33,YZ,None,
,,,,,,calibration,0,10,2,583,1,F,0,right,0.376456853999116,1,0,,,,,,,,,,,,,,,,,,,,,1,,,,,,,,,,,,,,,,,,,,,,,,,,,,,,,,,,,,,,,,,,,,,,104,145921,21,Female,1,2024/03/19_14:36:33,YZ,None,
,,,,,,calibration,0,10,2,583,2,V,0,right,0.22726381600659806,1,0,,,,,,,,,,,,,,,,,,,,,1,,,,,,,,,,,,,,,,,,,,,,,,,,,,,,,,,,,,,,,,,,,,,,104,145921,21,Female,1,2024/03/19_14:36:33,YZ,None,
,,,,,,calibration,0,10,2,583,3,S,0,right,0.23902842900133692,1,0,,,,,,,,,,,,,,,,,,,,,1,,,,,,,,,,,,,,,,,,,,,,,,,,,,,,,,,,,,,,,,,,,,,,104,145921,21,Female,1,2024/03/19_14:36:33,YZ,None,
,,,,,,calibration,0,10,2,583,4,N,0,right,0.6020055190019775,1,0,,,,,,,,,,,,,,,,,,,,,1,,,,,,,,,,,,,,,,,,,,,,,,,,,,,,,,,,,,,,,,,,,,,,104,145921,21,Female,1,2024/03/19_14:36:33,YZ,None,
,,,,,,calibration,0,10,2,583,5,V,0,right,0.476341522000439,1,0,,,,,,,,,,,,,,,,,,,,,1,,,,,,,,,,,,,,,,,,,,,,,,,,,,,,,,,,,,,,,,,,,,,,104,145921,21,Female,1,2024/03/19_14:36:33,YZ,None,
,,,,,,calibration,0,10,2,583,6,N,1,left,0.7989495929941768,1,0,,,,,,,,,,,,,,,,,,,,,1,,,,,,,,,,,,,,,,,,,,,,,,,,,,,,,,,,,,,,,,,,,,,,104,145921,21,Female,1,2024/03/19_14:36:33,YZ,None,
,,,,,,calibration,0,10,2,583,7,Q,0,right,0.5910566820020904,1,0,,,,,,,,,,,,,,,,,,,,,1,,,,,,,,,,,,,,,,,,,,,,,,,,,,,,,,,,,,,,,,,,,,,,104,145921,21,Female,1,2024/03/19_14:36:33,YZ,None,
,,,,,,calibration,0,10,2,583,8,N,1,left,1.3265907829991193,1,0,,,,,,,,,,,,,,,,,,,,,1,,,,,,,,,,,,,,,,,,,,,,,,,,,,,,,,,,,,,,,,,,,,,,104,145921,21,Female,1,2024/03/19_14:36:33,YZ,None,
,,,,,,calibration,0,10,2,583,9,S,0,right,0.45998805099952733,1,0,,,,,,,,,,,,,,,,,,,,,1,,,,,,,,,,,,,,,,,,,,,,,,,,,,,,,,,,,,,,,,,,,,,,104,145921,21,Female,1,2024/03/19_14:36:33,YZ,None,
,,,,,,calibration,0,10,2,583,10,N,1,right,0.6480684070047573,0,0,,,,,,,,,,,,,,,,,,,,,1,,,,,,,,,,,,,,,,,,,,,,,,,,,,,,,,,,,,,,,,,,,,,,104,145921,21,Female,1,2024/03/19_14:36:33,YZ,None,
,,,,,,calibration,0,10,2,583,11,C,0,right,1.2305685539977276,1,0,,,,,,,,,,,,,,,,,,,,,1,,,,,,,,,,,,,,,,,,,,,,,,,,,,,,,,,,,,,,,,,,,,,,104,145921,21,Female,1,2024/03/19_14:36:33,YZ,None,
,,,,,,calibration,0,10,2,583,12,S,0,left,0.8301622689978103,0,0,,,,,,,,,,,,,,,,,,,,,1,,,,,,,,,,,,,,,,,,,,,,,,,,,,,,,,,,,,,,,,,,,,,,104,145921,21,Female,1,2024/03/19_14:36:33,YZ,None,
,,,,,,calibration,0,10,2,583,13,C,1,left,0.9087046119966544,1,0,,,,,,,,,,,,,,,,,,,,,1,,,,,,,,,,,,,,,,,,,,,,,,,,,,,,,,,,,,,,,,,,,,,,104,145921,21,Female,1,2024/03/19_14:36:33,YZ,None,
,,,,,,calibration,0,10,2,583,14,Q,0,right,0.5698595899957581,1,0,,,,,,,,,,,,,,,,,,,,,1,,,,,,,,,,,,,,,,,,,,,,,,,,,,,,,,,,,,,,,,,,,,,,104,145921,21,Female,1,2024/03/19_14:36:33,YZ,None,
,,,,,,calibration,0,10,2,583,15,S,0,left,0.9052037229994312,0,0,,,,,,,,,,,,,,,,,,,,,1,,,,,,,,,,,,,,,,,,,,,,,,,,,,,,,,,,,,,,,,,,,,,,104,145921,21,Female,1,2024/03/19_14:36:33,YZ,None,
,,,,,,calibration,0,10,2,583,,,,,,,,0.8465909090909092,0.75,0.18181818181818182,0.8181818181818182,0.0,0.8181818181818181,0.679349893599768,3,2,0,0,0,9,12,4,11,0,,,,1,,,,,,,,,,,,,,,,,,,,,,,,,,,,,,,,,,,,,,,,,,,,,,104,145921,21,Female,1,2024/03/19_14:36:33,YZ,None,
,,,,,,Calibration,0,,2,583,,,,,,,,,,,,,,,,,,,,,,,,,5,,,1,,,,,,,,,,,,,,,,,,,,,,,,,,,,,,,,,,,,,,,,,,,,,,104,145921,21,Female,1,2024/03/19_14:36:33,YZ,None,
,,,,,,calibration,0,2,2,583,1,N,0,right,0.40486090700142086,1,0,,,,,,,,,,,,,,,,,,,,,1,,,,,,,,,,,,,,,,,,,,,,,,,,,,,,,,,,,,,,,,,,,,,,104,145921,21,Female,1,2024/03/19_14:36:33,YZ,None,
,,,,,,calibration,0,2,2,583,2,Q,0,right,0.45504906400310574,1,0,,,,,,,,,,,,,,,,,,,,,1,,,,,,,,,,,,,,,,,,,,,,,,,,,,,,,,,,,,,,,,,,,,,,104,145921,21,Female,1,2024/03/19_14:36:33,YZ,None,
,,,,,,calibration,0,2,2,583,3,N,1,left,0.7592251030000625,1,0,,,,,,,,,,,,,,,,,,,,,1,,,,,,,,,,,,,,,,,,,,,,,,,,,,,,,,,,,,,,,,,,,,,,104,145921,21,Female,1,2024/03/19_14:36:33,YZ,None,
,,,,,,calibration,0,2,2,583,4,Q,1,right,0.8723087129983469,0,0,,,,,,,,,,,,,,,,,,,,,1,,,,,,,,,,,,,,,,,,,,,,,,,,,,,,,,,,,,,,,,,,,,,,104,145921,21,Female,1,2024/03/19_14:36:33,YZ,None,
,,,,,,calibration,0,2,2,583,5,C,0,right,0.8182045020002988,1,0,,,,,,,,,,,,,,,,,,,,,1,,,,,,,,,,,,,,,,,,,,,,,,,,,,,,,,,,,,,,,,,,,,,,104,145921,21,Female,1,2024/03/19_14:36:33,YZ,None,
,,,,,,calibration,0,2,2,583,6,S,0,right,0.720098929006781,1,0,,,,,,,,,,,,,,,,,,,,,1,,,,,,,,,,,,,,,,,,,,,,,,,,,,,,,,,,,,,,,,,,,,,,104,145921,21,Female,1,2024/03/19_14:36:33,YZ,None,
,,,,,,calibration,0,2,2,583,7,J,0,right,0.68662769599905,1,0,,,,,,,,,,,,,,,,,,,,,1,,,,,,,,,,,,,,,,,,,,,,,,,,,,,,,,,,,,,,,,,,,,,,104,145921,21,Female,1,2024/03/19_14:36:33,YZ,None,
,,,,,,calibration,0,2,2,583,8,X,0,right,0.49794298100459855,1,0,,,,,,,,,,,,,,,,,,,,,1,,,,,,,,,,,,,,,,,,,,,,,,,,,,,,,,,,,,,,,,,,,,,,104,145921,21,Female,1,2024/03/19_14:36:33,YZ,None,
,,,,,,calibration,0,2,2,583,9,S,0,left,0.6790481880016159,0,0,,,,,,,,,,,,,,,,,,,,,1,,,,,,,,,,,,,,,,,,,,,,,,,,,,,,,,,,,,,,,,,,,,,,104,145921,21,Female,1,2024/03/19_14:36:33,YZ,None,
,,,,,,calibration,0,2,2,583,10,Q,0,right,0.5585471770027652,1,0,,,,,,,,,,,,,,,,,,,,,1,,,,,,,,,,,,,,,,,,,,,,,,,,,,,,,,,,,,,,,,,,,,,,104,145921,21,Female,1,2024/03/19_14:36:33,YZ,None,
,,,,,,calibration,0,2,2,583,11,S,1,left,0.8899577109987149,1,0,,,,,,,,,,,,,,,,,,,,,1,,,,,,,,,,,,,,,,,,,,,,,,,,,,,,,,,,,,,,,,,,,,,,104,145921,21,Female,1,2024/03/19_14:36:33,YZ,None,
,,,,,,calibration,0,2,2,583,12,X,0,right,0.5128435529986746,1,0,,,,,,,,,,,,,,,,,,,,,1,,,,,,,,,,,,,,,,,,,,,,,,,,,,,,,,,,,,,,,,,,,,,,104,145921,21,Female,1,2024/03/19_14:36:33,YZ,None,
,,,,,,calibration,0,2,2,583,13,S,1,right,0.8580183380036033,0,0,,,,,,,,,,,,,,,,,,,,,1,,,,,,,,,,,,,,,,,,,,,,,,,,,,,,,,,,,,,,,,,,,,,,104,145921,21,Female,1,2024/03/19_14:36:33,YZ,None,
,,,,,,calibration,0,2,2,583,14,N,0,right,0.6186377989943139,1,0,,,,,,,,,,,,,,,,,,,,,1,,,,,,,,,,,,,,,,,,,,,,,,,,,,,,,,,,,,,,,,,,,,,,104,145921,21,Female,1,2024/03/19_14:36:33,YZ,None,
,,,,,,calibration,0,2,2,583,15,S,1,left,0.5557923980013584,1,0,,,,,,,,,,,,,,,,,,,,,1,,,,,,,,,,,,,,,,,,,,,,,,,,,,,,,,,,,,,,,,,,,,,,104,145921,21,Female,1,2024/03/19_14:36:33,YZ,None,
,,,,,,calibration,0,2,2,583,,,,,,,,0.835,0.6,0.1,0.9,0.0,0.9,0.659144203934314,3,1,0,0,0,9,12,5,10,0,,,,1,,,,,,,,,,,,,,,,,,,,,,,,,,,,,,,,,,,,,,,,,,,,,,104,145921,21,Female,1,2024/03/19_14:36:33,YZ,None,
,,,,,,Calibration,0,,2,583,,,,,,,,,,,,,,,,,,,,,,,,,6,,,1,,,,,,,,,,,,,,,,,,,,,,,,,,,,,,,,,,,,,,,,,,,,,,104,145921,21,Female,1,2024/03/19_14:36:33,YZ,None,
,,,,,,calibration,0,23,2,583,1,X,0,right,0.44697060999897076,1,0,,,,,,,,,,,,,,,,,,,,,1,,,,,,,,,,,,,,,,,,,,,,,,,,,,,,,,,,,,,,,,,,,,,,104,145921,21,Female,1,2024/03/19_14:36:33,YZ,None,
,,,,,,calibration,0,23,2,583,2,Q,0,right,0.2589721260010265,1,0,,,,,,,,,,,,,,,,,,,,,1,,,,,,,,,,,,,,,,,,,,,,,,,,,,,,,,,,,,,,,,,,,,,,104,145921,21,Female,1,2024/03/19_14:36:33,YZ,None,
,,,,,,calibration,0,23,2,583,3,S,0,right,0.38041653899563244,1,0,,,,,,,,,,,,,,,,,,,,,1,,,,,,,,,,,,,,,,,,,,,,,,,,,,,,,,,,,,,,,,,,,,,,104,145921,21,Female,1,2024/03/19_14:36:33,YZ,None,
,,,,,,calibration,0,23,2,583,4,F,0,right,0.3834685260007973,1,0,,,,,,,,,,,,,,,,,,,,,1,,,,,,,,,,,,,,,,,,,,,,,,,,,,,,,,,,,,,,,,,,,,,,104,145921,21,Female,1,2024/03/19_14:36:33,YZ,None,
,,,,,,calibration,0,23,2,583,5,Q,0,left,0.7807690350018675,0,0,,,,,,,,,,,,,,,,,,,,,1,,,,,,,,,,,,,,,,,,,,,,,,,,,,,,,,,,,,,,,,,,,,,,104,145921,21,Female,1,2024/03/19_14:36:33,YZ,None,
,,,,,,calibration,0,23,2,583,6,S,0,right,0.3668330119980965,1,0,,,,,,,,,,,,,,,,,,,,,1,,,,,,,,,,,,,,,,,,,,,,,,,,,,,,,,,,,,,,,,,,,,,,104,145921,21,Female,1,2024/03/19_14:36:33,YZ,None,
,,,,,,calibration,0,23,2,583,7,Q,1,left,0.0,1,0,,,,,,,,,,,,,,,,,,,,,1,,,,,,,,,,,,,,,,,,,,,,,,,,,,,,,,,,,,,,,,,,,,,,104,145921,21,Female,1,2024/03/19_14:36:33,YZ,None,
,,,,,,calibration,0,23,2,583,8,S,1,left,0.38938031600264367,1,0,,,,,,,,,,,,,,,,,,,,,1,,,,,,,,,,,,,,,,,,,,,,,,,,,,,,,,,,,,,,,,,,,,,,104,145921,21,Female,1,2024/03/19_14:36:33,YZ,None,
,,,,,,calibration,0,23,2,583,9,C,0,right,0.5125333209944074,1,0,,,,,,,,,,,,,,,,,,,,,1,,,,,,,,,,,,,,,,,,,,,,,,,,,,,,,,,,,,,,,,,,,,,,104,145921,21,Female,1,2024/03/19_14:36:33,YZ,None,
,,,,,,calibration,0,23,2,583,10,N,0,right,0.4530197269996279,1,0,,,,,,,,,,,,,,,,,,,,,1,,,,,,,,,,,,,,,,,,,,,,,,,,,,,,,,,,,,,,,,,,,,,,104,145921,21,Female,1,2024/03/19_14:36:33,YZ,None,
,,,,,,calibration,0,23,2,583,11,J,0,right,0.5927592649968574,1,0,,,,,,,,,,,,,,,,,,,,,1,,,,,,,,,,,,,,,,,,,,,,,,,,,,,,,,,,,,,,,,,,,,,,104,145921,21,Female,1,2024/03/19_14:36:33,YZ,None,
,,,,,,calibration,0,23,2,583,12,C,0,left,0.5709954039994045,0,0,,,,,,,,,,,,,,,,,,,,,1,,,,,,,,,,,,,,,,,,,,,,,,,,,,,,,,,,,,,,,,,,,,,,104,145921,21,Female,1,2024/03/19_14:36:33,YZ,None,
,,,,,,calibration,0,23,2,583,13,J,1,right,0.2870713700031047,0,0,,,,,,,,,,,,,,,,,,,,,1,,,,,,,,,,,,,,,,,,,,,,,,,,,,,,,,,,,,,,,,,,,,,,104,145921,21,Female,1,2024/03/19_14:36:33,YZ,None,
,,,,,,calibration,0,23,2,583,14,C,1,right,0.36110426600498613,0,0,,,,,,,,,,,,,,,,,,,,,1,,,,,,,,,,,,,,,,,,,,,,,,,,,,,,,,,,,,,,,,,,,,,,104,145921,21,Female,1,2024/03/19_14:36:33,YZ,None,
,,,,,,calibration,0,23,2,583,15,X,0,right,1.007031678003841,1,0,,,,,,,,,,,,,,,,,,,,,1,,,,,,,,,,,,,,,,,,,,,,,,,,,,,,,,,,,,,,,,,,,,,,104,145921,21,Female,1,2024/03/19_14:36:33,YZ,None,
,,,,,,calibration,0,23,2,583,,,,,,,,0.7386363636363636,0.5,0.18181818181818182,0.8181818181818182,0.0,0.8181818181818181,0.45275501300008425,2,2,0,0,0,9,11,4,11,0,,,,1,,,,,,,,,,,,,,,,,,,,,,,,,,,,,,,,,,,,,,,,,,,,,,104,145921,21,Female,1,2024/03/19_14:36:33,YZ,None,
,,,,,,Calibration,0,,2,583,,,,,,,,,,,,,,,,,,,,,,,,,7,,,1,,,,,,,,,,,,,,,,,,,,,,,,,,,,,,,,,,,,,,,,,,,,,,104,145921,21,Female,1,2024/03/19_14:36:33,YZ,None,
,,,,,,calibration,0,32,2,679,1,N,0,right,0.35399581100500654,1,0,,,,,,,,,,,,,,,,,,,,,1,,,,,,,,,,,,,,,,,,,,,,,,,,,,,,,,,,,,,,,,,,,,,,104,145921,21,Female,1,2024/03/19_14:36:33,YZ,None,
,,,,,,calibration,0,32,2,679,2,N,0,right,0.22305461899668444,1,0,,,,,,,,,,,,,,,,,,,,,1,,,,,,,,,,,,,,,,,,,,,,,,,,,,,,,,,,,,,,,,,,,,,,104,145921,21,Female,1,2024/03/19_14:36:33,YZ,None,
,,,,,,calibration,0,32,2,679,3,C,0,right,0.3671435640062555,1,0,,,,,,,,,,,,,,,,,,,,,1,,,,,,,,,,,,,,,,,,,,,,,,,,,,,,,,,,,,,,,,,,,,,,104,145921,21,Female,1,2024/03/19_14:36:33,YZ,None,
,,,,,,calibration,0,32,2,679,4,N,1,left,0.47951871900295373,1,0,,,,,,,,,,,,,,,,,,,,,1,,,,,,,,,,,,,,,,,,,,,,,,,,,,,,,,,,,,,,,,,,,,,,104,145921,21,Female,1,2024/03/19_14:36:33,YZ,None,
,,,,,,calibration,0,32,2,679,5,F,0,right,0.4330140320016653,1,0,,,,,,,,,,,,,,,,,,,,,1,,,,,,,,,,,,,,,,,,,,,,,,,,,,,,,,,,,,,,,,,,,,,,104,145921,21,Female,1,2024/03/19_14:36:33,YZ,None,
,,,,,,calibration,0,32,2,679,6,N,1,left,0.4877559719971032,1,0,,,,,,,,,,,,,,,,,,,,,1,,,,,,,,,,,,,,,,,,,,,,,,,,,,,,,,,,,,,,,,,,,,,,104,145921,21,Female,1,2024/03/19_14:36:33,YZ,None,
,,,,,,calibration,0,32,2,679,7,F,1,right,0.3050984379951842,0,0,,,,,,,,,,,,,,,,,,,,,1,,,,,,,,,,,,,,,,,,,,,,,,,,,,,,,,,,,,,,,,,,,,,,104,145921,21,Female,1,2024/03/19_14:36:33,YZ,None,
,,,,,,calibration,0,32,2,679,8,J,0,right,0.806553578004241,1,0,,,,,,,,,,,,,,,,,,,,,1,,,,,,,,,,,,,,,,,,,,,,,,,,,,,,,,,,,,,,,,,,,,,,104,145921,21,Female,1,2024/03/19_14:36:33,YZ,None,
,,,,,,calibration,0,32,2,679,9,F,1,left,0.5846297550015152,1,0,,,,,,,,,,,,,,,,,,,,,1,,,,,,,,,,,,,,,,,,,,,,,,,,,,,,,,,,,,,,,,,,,,,,104,145921,21,Female,1,2024/03/19_14:36:33,YZ,None,
,,,,,,calibration,0,32,2,679,10,S,0,right,0.5430782640032703,1,0,,,,,,,,,,,,,,,,,,,,,1,,,,,,,,,,,,,,,,,,,,,,,,,,,,,,,,,,,,,,,,,,,,,,104,145921,21,Female,1,2024/03/19_14:36:33,YZ,None,
,,,,,,calibration,0,32,2,679,11,Q,0,right,0.4461888480000198,1,0,,,,,,,,,,,,,,,,,,,,,1,,,,,,,,,,,,,,,,,,,,,,,,,,,,,,,,,,,,,,,,,,,,,,104,145921,21,Female,1,2024/03/19_14:36:33,YZ,None,
,,,,,,calibration,0,32,2,679,12,F,0,left,0.5706343630008632,0,0,,,,,,,,,,,,,,,,,,,,,1,,,,,,,,,,,,,,,,,,,,,,,,,,,,,,,,,,,,,,,,,,,,,,104,145921,21,Female,1,2024/03/19_14:36:33,YZ,None,
,,,,,,calibration,0,32,2,679,13,V,0,right,0.4675918620050652,1,0,,,,,,,,,,,,,,,,,,,,,1,,,,,,,,,,,,,,,,,,,,,,,,,,,,,,,,,,,,,,,,,,,,,,104,145921,21,Female,1,2024/03/19_14:36:33,YZ,None,
,,,,,,calibration,0,32,2,679,14,J,0,right,0.830912459998217,1,0,,,,,,,,,,,,,,,,,,,,,1,,,,,,,,,,,,,,,,,,,,,,,,,,,,,,,,,,,,,,,,,,,,,,104,145921,21,Female,1,2024/03/19_14:36:33,YZ,None,
,,,,,,calibration,0,32,2,679,,,,,,,,0.8875,0.75,0.1,0.9,0.0,0.9,0.4927978775012889,3,1,0,0,0,9,12,4,10,0,,,,1,,,,,,,,,,,,,,,,,,,,,,,,,,,,,,,,,,,,,,,,,,,,,,104,145921,21,Female,1,2024/03/19_14:36:33,YZ,None,
,,,,,,Calibration,0,,2,679,,,,,,,,,,,,,,,,,,,,,,,,,8,,,1,,,,,,,,,,,,,,,,,,,,,,,,,,,,,,,,,,,,,,,,,,,,,,104,145921,21,Female,1,2024/03/19_14:36:33,YZ,None,
,,,,,,calibration,0,9,2,583,1,S,0,right,0.29584502200304996,1,0,,,,,,,,,,,,,,,,,,,,,1,,,,,,,,,,,,,,,,,,,,,,,,,,,,,,,,,,,,,,,,,,,,,,104,145921,21,Female,1,2024/03/19_14:36:33,YZ,None,
,,,,,,calibration,0,9,2,583,2,F,0,right,0.24917097800062038,1,0,,,,,,,,,,,,,,,,,,,,,1,,,,,,,,,,,,,,,,,,,,,,,,,,,,,,,,,,,,,,,,,,,,,,104,145921,21,Female,1,2024/03/19_14:36:33,YZ,None,
,,,,,,calibration,0,9,2,583,3,V,0,right,0.34391109900025185,1,0,,,,,,,,,,,,,,,,,,,,,1,,,,,,,,,,,,,,,,,,,,,,,,,,,,,,,,,,,,,,,,,,,,,,104,145921,21,Female,1,2024/03/19_14:36:33,YZ,None,
,,,,,,calibration,0,9,2,583,4,X,0,right,0.4081652849999955,1,0,,,,,,,,,,,,,,,,,,,,,1,,,,,,,,,,,,,,,,,,,,,,,,,,,,,,,,,,,,,,,,,,,,,,104,145921,21,Female,1,2024/03/19_14:36:33,YZ,None,
,,,,,,calibration,0,9,2,583,5,N,0,right,0.4654909060045611,1,0,,,,,,,,,,,,,,,,,,,,,1,,,,,,,,,,,,,,,,,,,,,,,,,,,,,,,,,,,,,,,,,,,,,,104,145921,21,Female,1,2024/03/19_14:36:33,YZ,None,
,,,,,,calibration,0,9,2,583,6,J,0,right,0.4508700700025656,1,0,,,,,,,,,,,,,,,,,,,,,1,,,,,,,,,,,,,,,,,,,,,,,,,,,,,,,,,,,,,,,,,,,,,,104,145921,21,Female,1,2024/03/19_14:36:33,YZ,None,
,,,,,,calibration,0,9,2,583,7,F,0,right,0.7481062060032855,1,0,,,,,,,,,,,,,,,,,,,,,1,,,,,,,,,,,,,,,,,,,,,,,,,,,,,,,,,,,,,,,,,,,,,,104,145921,21,Female,1,2024/03/19_14:36:33,YZ,None,
,,,,,,calibration,0,9,2,583,8,N,0,right,0.5808628190061427,1,0,,,,,,,,,,,,,,,,,,,,,1,,,,,,,,,,,,,,,,,,,,,,,,,,,,,,,,,,,,,,,,,,,,,,104,145921,21,Female,1,2024/03/19_14:36:33,YZ,None,
,,,,,,calibration,0,9,2,583,9,S,0,right,0.5239647609996609,1,0,,,,,,,,,,,,,,,,,,,,,1,,,,,,,,,,,,,,,,,,,,,,,,,,,,,,,,,,,,,,,,,,,,,,104,145921,21,Female,1,2024/03/19_14:36:33,YZ,None,
,,,,,,calibration,0,9,2,583,10,J,0,right,0.5395897990019876,1,0,,,,,,,,,,,,,,,,,,,,,1,,,,,,,,,,,,,,,,,,,,,,,,,,,,,,,,,,,,,,,,,,,,,,104,145921,21,Female,1,2024/03/19_14:36:33,YZ,None,
,,,,,,calibration,0,9,2,583,11,S,1,left,0.5331491570032085,1,0,,,,,,,,,,,,,,,,,,,,,1,,,,,,,,,,,,,,,,,,,,,,,,,,,,,,,,,,,,,,,,,,,,,,104,145921,21,Female,1,2024/03/19_14:36:33,YZ,None,
,,,,,,calibration,0,9,2,583,12,J,1,left,0.9335618129989598,1,0,,,,,,,,,,,,,,,,,,,,,1,,,,,,,,,,,,,,,,,,,,,,,,,,,,,,,,,,,,,,,,,,,,,,104,145921,21,Female,1,2024/03/19_14:36:33,YZ,None,
,,,,,,calibration,0,9,2,583,13,V,0,right,0.48666101200069534,1,0,,,,,,,,,,,,,,,,,,,,,1,,,,,,,,,,,,,,,,,,,,,,,,,,,,,,,,,,,,,,,,,,,,,,104,145921,21,Female,1,2024/03/19_14:36:33,YZ,None,
,,,,,,calibration,0,9,2,583,14,J,1,right,0.46345829399797367,0,0,,,,,,,,,,,,,,,,,,,,,1,,,,,,,,,,,,,,,,,,,,,,,,,,,,,,,,,,,,,,,,,,,,,,104,145921,21,Female,1,2024/03/19_14:36:33,YZ,None,
,,,,,,calibration,0,9,2,583,15,V,1,right,1.0607180049992166,0,0,,,,,,,,,,,,,,,,,,,,,1,,,,,,,,,,,,,,,,,,,,,,,,,,,,,,,,,,,,,,,,,,,,,,104,145921,21,Female,1,2024/03/19_14:36:33,YZ,None,
,,,,,,calibration,0,9,2,583,,,,,,,,0.875,0.5,0.0,1.0,0.0,1.0,0.5389016817348117,2,0,0,0,0,11,13,4,11,0,,,,1,,,,,,,,,,,,,,,,,,,,,,,,,,,,,,,,,,,,,,,,,,,,,,104,145921,21,Female,1,2024/03/19_14:36:33,YZ,None,
,,,,,,Calibration,0,,2,583,,,,,,,,,,,,,,,,,,,,,,,,,9,,,1,,,,,,,,,,,,,,,,,,,,,,,,,,,,,,,,,,,,,,,,,,,,,,104,145921,21,Female,1,2024/03/19_14:36:33,YZ,None,
,,,,,,calibration,0,10,2,500,1,N,0,right,0.37367322300269734,1,0,,,,,,,,,,,,,,,,,,,,,1,,,,,,,,,,,,,,,,,,,,,,,,,,,,,,,,,,,,,,,,,,,,,,104,145921,21,Female,1,2024/03/19_14:36:33,YZ,None,
,,,,,,calibration,0,10,2,500,2,C,0,right,0.34041033199900994,1,0,,,,,,,,,,,,,,,,,,,,,1,,,,,,,,,,,,,,,,,,,,,,,,,,,,,,,,,,,,,,,,,,,,,,104,145921,21,Female,1,2024/03/19_14:36:33,YZ,None,
,,,,,,calibration,0,10,2,500,3,S,0,right,0.4478982709988486,1,0,,,,,,,,,,,,,,,,,,,,,1,,,,,,,,,,,,,,,,,,,,,,,,,,,,,,,,,,,,,,,,,,,,,,104,145921,21,Female,1,2024/03/19_14:36:33,YZ,None,
,,,,,,calibration,0,10,2,500,4,C,1,left,0.7341971949936124,1,0,,,,,,,,,,,,,,,,,,,,,1,,,,,,,,,,,,,,,,,,,,,,,,,,,,,,,,,,,,,,,,,,,,,,104,145921,21,Female,1,2024/03/19_14:36:33,YZ,None,
,,,,,,calibration,0,10,2,500,5,N,0,right,0.5383858999994118,1,0,,,,,,,,,,,,,,,,,,,,,1,,,,,,,,,,,,,,,,,,,,,,,,,,,,,,,,,,,,,,,,,,,,,,104,145921,21,Female,1,2024/03/19_14:36:33,YZ,None,
,,,,,,calibration,0,10,2,500,6,V,0,right,0.9899151459976565,1,0,,,,,,,,,,,,,,,,,,,,,1,,,,,,,,,,,,,,,,,,,,,,,,,,,,,,,,,,,,,,,,,,,,,,104,145921,21,Female,1,2024/03/19_14:36:33,YZ,None,
,,,,,,calibration,0,10,2,500,7,Q,0,right,0.5122800400058622,1,0,,,,,,,,,,,,,,,,,,,,,1,,,,,,,,,,,,,,,,,,,,,,,,,,,,,,,,,,,,,,,,,,,,,,104,145921,21,Female,1,2024/03/19_14:36:33,YZ,None,
,,,,,,calibration,0,10,2,500,8,N,0,right,0.6642326780056464,1,0,,,,,,,,,,,,,,,,,,,,,1,,,,,,,,,,,,,,,,,,,,,,,,,,,,,,,,,,,,,,,,,,,,,,104,145921,21,Female,1,2024/03/19_14:36:33,YZ,None,
,,,,,,calibration,0,10,2,500,9,J,0,right,0.4358921230013948,1,0,,,,,,,,,,,,,,,,,,,,,1,,,,,,,,,,,,,,,,,,,,,,,,,,,,,,,,,,,,,,,,,,,,,,104,145921,21,Female,1,2024/03/19_14:36:33,YZ,None,
,,,,,,calibration,0,10,2,500,10,N,1,right,0.41744396399735706,0,0,,,,,,,,,,,,,,,,,,,,,1,,,,,,,,,,,,,,,,,,,,,,,,,,,,,,,,,,,,,,,,,,,,,,104,145921,21,Female,1,2024/03/19_14:36:33,YZ,None,
,,,,,,calibration,0,10,2,500,11,V,0,left,0.0,0,0,,,,,,,,,,,,,,,,,,,,,1,,,,,,,,,,,,,,,,,,,,,,,,,,,,,,,,,,,,,,,,,,,,,,104,145921,21,Female,1,2024/03/19_14:36:33,YZ,None,
,,,,,,calibration,0,10,2,500,12,C,0,right,0.7149228249982116,1,0,,,,,,,,,,,,,,,,,,,,,1,,,,,,,,,,,,,,,,,,,,,,,,,,,,,,,,,,,,,,,,,,,,,,104,145921,21,Female,1,2024/03/19_14:36:33,YZ,None,
,,,,,,calibration,0,10,2,500,13,F,0,right,0.42527280299691483,1,0,,,,,,,,,,,,,,,,,,,,,1,,,,,,,,,,,,,,,,,,,,,,,,,,,,,,,,,,,,,,,,,,,,,,104,145921,21,Female,1,2024/03/19_14:36:33,YZ,None,
,,,,,,calibration,0,10,2,500,14,C,1,right,0.5246862650019466,0,0,,,,,,,,,,,,,,,,,,,,,1,,,,,,,,,,,,,,,,,,,,,,,,,,,,,,,,,,,,,,,,,,,,,,104,145921,21,Female,1,2024/03/19_14:36:33,YZ,None,
,,,,,,calibration,0,10,2,500,15,F,1,left,0.6393359749999945,1,0,,,,,,,,,,,,,,,,,,,,,1,,,,,,,,,,,,,,,,,,,,,,,,,,,,,,,,,,,,,,,,,,,,,,104,145921,21,Female,1,2024/03/19_14:36:33,YZ,None,
,,,,,,calibration,0,10,2,500,16,J,0,right,0.5844279169978108,1,0,,,,,,,,,,,,,,,,,,,,,1,,,,,,,,,,,,,,,,,,,,,,,,,,,,,,,,,,,,,,,,,,,,,,104,145921,21,Female,1,2024/03/19_14:36:33,YZ,None,
,,,,,,calibration,0,10,2,500,,,,,,,,0.8125,0.5,0.08333333333333333,0.9166666666666666,0.0,0.9166666666666666,0.5214359160622735,2,1,0,0,0,11,13,4,12,0,,,,1,,,,,,,,,,,,,,,,,,,,,,,,,,,,,,,,,,,,,,,,,,,,,,104,145921,21,Female,1,2024/03/19_14:36:33,YZ,None,
,,,,,,Calibration,0,,2,500,,,,,,,,,,,,,,,,,,,,,,,,,10,,,1,,,,,,,,,,,,,,,,,,,,,,,,,,,,,,,,,,,,,,,,,,,,,,104,145921,21,Female,1,2024/03/19_14:36:33,YZ,None,
,,,,,,calibration,0,31,2,500,1,V,0,right,0.1975995579996379,1,0,,,,,,,,,,,,,,,,,,,,,1,,,,,,,,,,,,,,,,,,,,,,,,,,,,,,,,,,,,,,,,,,,,,,104,145921,21,Female,1,2024/03/19_14:36:33,YZ,None,
,,,,,,calibration,0,31,2,500,2,N,0,right,0.20981065700470936,1,0,,,,,,,,,,,,,,,,,,,,,1,,,,,,,,,,,,,,,,,,,,,,,,,,,,,,,,,,,,,,,,,,,,,,104,145921,21,Female,1,2024/03/19_14:36:33,YZ,None,
,,,,,,calibration,0,31,2,500,3,F,0,right,0.7326350340008503,1,0,,,,,,,,,,,,,,,,,,,,,1,,,,,,,,,,,,,,,,,,,,,,,,,,,,,,,,,,,,,,,,,,,,,,104,145921,21,Female,1,2024/03/19_14:36:33,YZ,None,
,,,,,,calibration,0,31,2,500,4,N,1,right,0.6249700359985582,0,0,,,,,,,,,,,,,,,,,,,,,1,,,,,,,,,,,,,,,,,,,,,,,,,,,,,,,,,,,,,,,,,,,,,,104,145921,21,Female,1,2024/03/19_14:36:33,YZ,None,
,,,,,,calibration,0,31,2,500,5,S,0,right,0.7238156640014495,1,0,,,,,,,,,,,,,,,,,,,,,1,,,,,,,,,,,,,,,,,,,,,,,,,,,,,,,,,,,,,,,,,,,,,,104,145921,21,Female,1,2024/03/19_14:36:33,YZ,None,
,,,,,,calibration,0,31,2,500,6,Q,0,right,0.5873039580037585,1,0,,,,,,,,,,,,,,,,,,,,,1,,,,,,,,,,,,,,,,,,,,,,,,,,,,,,,,,,,,,,,,,,,,,,104,145921,21,Female,1,2024/03/19_14:36:33,YZ,None,
,,,,,,calibration,0,31,2,500,7,N,0,left,0.66293027500069,0,0,,,,,,,,,,,,,,,,,,,,,1,,,,,,,,,,,,,,,,,,,,,,,,,,,,,,,,,,,,,,,,,,,,,,104,145921,21,Female,1,2024/03/19_14:36:33,YZ,None,
,,,,,,calibration,0,31,2,500,8,Q,1,right,0.4208518009982072,0,0,,,,,,,,,,,,,,,,,,,,,1,,,,,,,,,,,,,,,,,,,,,,,,,,,,,,,,,,,,,,,,,,,,,,104,145921,21,Female,1,2024/03/19_14:36:33,YZ,None,
,,,,,,calibration,0,31,2,500,9,J,0,right,0.46361655699729454,1,0,,,,,,,,,,,,,,,,,,,,,1,,,,,,,,,,,,,,,,,,,,,,,,,,,,,,,,,,,,,,,,,,,,,,104,145921,21,Female,1,2024/03/19_14:36:33,YZ,None,
,,,,,,calibration,0,31,2,500,10,Q,1,left,0.5273352829972282,1,0,,,,,,,,,,,,,,,,,,,,,1,,,,,,,,,,,,,,,,,,,,,,,,,,,,,,,,,,,,,,,,,,,,,,104,145921,21,Female,1,2024/03/19_14:36:33,YZ,None,
,,,,,,calibration,0,31,2,500,11,J,1,right,0.41856600400205934,0,0,,,,,,,,,,,,,,,,,,,,,1,,,,,,,,,,,,,,,,,,,,,,,,,,,,,,,,,,,,,,,,,,,,,,104,145921,21,Female,1,2024/03/19_14:36:33,YZ,None,
,,,,,,calibration,0,31,2,500,12,X,0,right,0.7008823860014672,1,0,,,,,,,,,,,,,,,,,,,,,1,,,,,,,,,,,,,,,,,,,,,,,,,,,,,,,,,,,,,,,,,,,,,,104,145921,21,Female,1,2024/03/19_14:36:33,YZ,None,
,,,,,,calibration,0,31,2,500,13,S,0,right,0.7419279899986577,1,0,,,,,,,,,,,,,,,,,,,,,1,,,,,,,,,,,,,,,,,,,,,,,,,,,,,,,,,,,,,,,,,,,,,,104,145921,21,Female,1,2024/03/19_14:36:33,YZ,None,
,,,,,,calibration,0,31,2,500,14,Q,0,right,0.5368913709971821,1,0,,,,,,,,,,,,,,,,,,,,,1,,,,,,,,,,,,,,,,,,,,,,,,,,,,,,,,,,,,,,,,,,,,,,104,145921,21,Female,1,2024/03/19_14:36:33,YZ,None,
,,,,,,calibration,0,31,2,500,15,S,1,left,0.5126594190005562,1,0,,,,,,,,,,,,,,,,,,,,,1,,,,,,,,,,,,,,,,,,,,,,,,,,,,,,,,,,,,,,,,,,,,,,104,145921,21,Female,1,2024/03/19_14:36:33,YZ,None,
,,,,,,calibration,0,31,2,500,16,J,0,right,0.5754690020039561,1,0,,,,,,,,,,,,,,,,,,,,,1,,,,,,,,,,,,,,,,,,,,,,,,,,,,,,,,,,,,,,,,,,,,,,104,145921,21,Female,1,2024/03/19_14:36:33,YZ,None,
,,,,,,calibration,0,31,2,500,,,,,,,,0.7704545454545455,0.4,0.09090909090909091,0.9090909090909091,0.0,0.9090909090909091,0.5398290621878914,2,1,0,0,0,10,12,5,11,0,,,,1,,,,,,,,,,,,,,,,,,,,,,,,,,,,,,,,,,,,,,,,,,,,,,104,145921,21,Female,1,2024/03/19_14:36:33,YZ,None,
,,,,,,Calibration,0,,2,500,,,,,,,,,,,,,,,,,,,,,,,,,11,,,1,,,,,,,,,,,,,,,,,,,,,,,,,,,,,,,,,,,,,,,,,,,,,,104,145921,21,Female,1,2024/03/19_14:36:33,YZ,None,
,,,,,,calibration,0,21,2,500,1,Q,0,right,0.4674939950054977,1,0,,,,,,,,,,,,,,,,,,,,,1,,,,,,,,,,,,,,,,,,,,,,,,,,,,,,,,,,,,,,,,,,,,,,104,145921,21,Female,1,2024/03/19_14:36:33,YZ,None,
,,,,,,calibration,0,21,2,500,2,C,0,right,0.32669965700188186,1,0,,,,,,,,,,,,,,,,,,,,,1,,,,,,,,,,,,,,,,,,,,,,,,,,,,,,,,,,,,,,,,,,,,,,104,145921,21,Female,1,2024/03/19_14:36:33,YZ,None,
,,,,,,calibration,0,21,2,500,3,Q,1,left,0.686864957002399,1,0,,,,,,,,,,,,,,,,,,,,,1,,,,,,,,,,,,,,,,,,,,,,,,,,,,,,,,,,,,,,,,,,,,,,104,145921,21,Female,1,2024/03/19_14:36:33,YZ,None,
,,,,,,calibration,0,21,2,500,4,S,0,right,0.7472810779945576,1,0,,,,,,,,,,,,,,,,,,,,,1,,,,,,,,,,,,,,,,,,,,,,,,,,,,,,,,,,,,,,,,,,,,,,104,145921,21,Female,1,2024/03/19_14:36:33,YZ,None,
,,,,,,calibration,0,21,2,500,5,Q,1,right,0.640350492001744,0,0,,,,,,,,,,,,,,,,,,,,,1,,,,,,,,,,,,,,,,,,,,,,,,,,,,,,,,,,,,,,,,,,,,,,104,145921,21,Female,1,2024/03/19_14:36:33,YZ,None,
,,,,,,calibration,0,21,2,500,6,N,0,right,0.8225153090024833,1,0,,,,,,,,,,,,,,,,,,,,,1,,,,,,,,,,,,,,,,,,,,,,,,,,,,,,,,,,,,,,,,,,,,,,104,145921,21,Female,1,2024/03/19_14:36:33,YZ,None,
,,,,,,calibration,0,21,2,500,7,F,0,right,0.5402296160027618,1,0,,,,,,,,,,,,,,,,,,,,,1,,,,,,,,,,,,,,,,,,,,,,,,,,,,,,,,,,,,,,,,,,,,,,104,145921,21,Female,1,2024/03/19_14:36:33,YZ,None,
,,,,,,calibration,0,21,2,500,8,V,0,right,0.5128136190032819,1,0,,,,,,,,,,,,,,,,,,,,,1,,,,,,,,,,,,,,,,,,,,,,,,,,,,,,,,,,,,,,,,,,,,,,104,145921,21,Female,1,2024/03/19_14:36:33,YZ,None,
,,,,,,calibration,0,21,2,500,9,X,0,right,0.46109186700050486,1,0,,,,,,,,,,,,,,,,,,,,,1,,,,,,,,,,,,,,,,,,,,,,,,,,,,,,,,,,,,,,,,,,,,,,104,145921,21,Female,1,2024/03/19_14:36:33,YZ,None,
,,,,,,calibration,0,21,2,500,10,V,1,left,0.5893856650000089,1,0,,,,,,,,,,,,,,,,,,,,,1,,,,,,,,,,,,,,,,,,,,,,,,,,,,,,,,,,,,,,,,,,,,,,104,145921,21,Female,1,2024/03/19_14:36:33,YZ,None,
,,,,,,calibration,0,21,2,500,11,X,1,left,nan,0,1,,,,,,,,,,,,,,,,,,,,,1,,,,,,,,,,,,,,,,,,,,,,,,,,,,,,,,,,,,,,,,,,,,,,104,145921,21,Female,1,2024/03/19_14:36:33,YZ,None,
,,,,,,calibration,0,21,2,500,12,C,0,right,0.7242688400001498,1,0,,,,,,,,,,,,,,,,,,,,,1,,,,,,,,,,,,,,,,,,,,,,,,,,,,,,,,,,,,,,,,,,,,,,104,145921,21,Female,1,2024/03/19_14:36:33,YZ,None,
,,,,,,calibration,0,21,2,500,13,X,1,left,0.8686853039980633,1,0,,,,,,,,,,,,,,,,,,,,,1,,,,,,,,,,,,,,,,,,,,,,,,,,,,,,,,,,,,,,,,,,,,,,104,145921,21,Female,1,2024/03/19_14:36:33,YZ,None,
,,,,,,calibration,0,21,2,500,14,S,0,right,0.5612788619982894,1,0,,,,,,,,,,,,,,,,,,,,,1,,,,,,,,,,,,,,,,,,,,,,,,,,,,,,,,,,,,,,,,,,,,,,104,145921,21,Female,1,2024/03/19_14:36:33,YZ,None,
,,,,,,calibration,0,21,2,500,15,V,0,right,0.7415611619944684,1,0,,,,,,,,,,,,,,,,,,,,,1,,,,,,,,,,,,,,,,,,,,,,,,,,,,,,,,,,,,,,,,,,,,,,104,145921,21,Female,1,2024/03/19_14:36:33,YZ,None,
,,,,,,calibration,0,21,2,500,16,N,0,right,0.9701561330002733,1,0,,,,,,,,,,,,,,,,,,,,,1,,,,,,,,,,,,,,,,,,,,,,,,,,,,,,,,,,,,,,,,,,,,,,104,145921,21,Female,1,2024/03/19_14:36:33,YZ,None,
,,,,,,calibration,0,21,2,500,,,,,,,,0.9,0.6,0.0,1.0,0.0625,0.9375,0.6440451037337577,3,0,1,0,1,11,14,5,11,0,,,,1,,,,,,,,,,,,,,,,,,,,,,,,,,,,,,,,,,,,,,,,,,,,,,104,145921,21,Female,1,2024/03/19_14:36:33,YZ,None,
,,,,,,Calibration,0,,2,500,,,,,,,,,,,,,,,,,,,,,,,,,12,,,1,,,,,,,,,,,,,,,,,,,,,,,,,,,,,,,,,,,,,,,,,,,,,,104,145921,21,Female,1,2024/03/19_14:36:33,YZ,None,
,,,,,,calibration,0,18,2,426,1,S,0,right,0.4001051789964549,1,0,,,,,,,,,,,,,,,,,,,,,1,,,,,,,,,,,,,,,,,,,,,,,,,,,,,,,,,,,,,,,,,,,,,,104,145921,21,Female,1,2024/03/19_14:36:33,YZ,None,
,,,,,,calibration,0,18,2,426,2,N,0,right,0.2945728949998738,1,0,,,,,,,,,,,,,,,,,,,,,1,,,,,,,,,,,,,,,,,,,,,,,,,,,,,,,,,,,,,,,,,,,,,,104,145921,21,Female,1,2024/03/19_14:36:33,YZ,None,
,,,,,,calibration,0,18,2,426,3,F,0,right,0.2409993530018255,1,0,,,,,,,,,,,,,,,,,,,,,1,,,,,,,,,,,,,,,,,,,,,,,,,,,,,,,,,,,,,,,,,,,,,,104,145921,21,Female,1,2024/03/19_14:36:33,YZ,None,
,,,,,,calibration,0,18,2,426,4,N,1,right,0.26549518299725605,0,0,,,,,,,,,,,,,,,,,,,,,1,,,,,,,,,,,,,,,,,,,,,,,,,,,,,,,,,,,,,,,,,,,,,,104,145921,21,Female,1,2024/03/19_14:36:33,YZ,None,
,,,,,,calibration,0,18,2,426,5,J,0,left,0.13503188399772625,0,0,,,,,,,,,,,,,,,,,,,,,1,,,,,,,,,,,,,,,,,,,,,,,,,,,,,,,,,,,,,,,,,,,,,,104,145921,21,Female,1,2024/03/19_14:36:33,YZ,None,
,,,,,,calibration,0,18,2,426,6,N,1,left,0.6116952079973998,1,0,,,,,,,,,,,,,,,,,,,,,1,,,,,,,,,,,,,,,,,,,,,,,,,,,,,,,,,,,,,,,,,,,,,,104,145921,21,Female,1,2024/03/19_14:36:33,YZ,None,
,,,,,,calibration,0,18,2,426,7,C,0,right,0.5978624199997284,1,0,,,,,,,,,,,,,,,,,,,,,1,,,,,,,,,,,,,,,,,,,,,,,,,,,,,,,,,,,,,,,,,,,,,,104,145921,21,Female,1,2024/03/19_14:36:33,YZ,None,
,,,,,,calibration,0,18,2,426,8,J,0,right,0.4821899199960171,1,0,,,,,,,,,,,,,,,,,,,,,1,,,,,,,,,,,,,,,,,,,,,,,,,,,,,,,,,,,,,,,,,,,,,,104,145921,21,Female,1,2024/03/19_14:36:33,YZ,None,
,,,,,,calibration,0,18,2,426,9,C,1,left,0.4484286449951469,1,0,,,,,,,,,,,,,,,,,,,,,1,,,,,,,,,,,,,,,,,,,,,,,,,,,,,,,,,,,,,,,,,,,,,,104,145921,21,Female,1,2024/03/19_14:36:33,YZ,None,
,,,,,,calibration,0,18,2,426,10,S,0,right,0.4409341560021858,1,0,,,,,,,,,,,,,,,,,,,,,1,,,,,,,,,,,,,,,,,,,,,,,,,,,,,,,,,,,,,,,,,,,,,,104,145921,21,Female,1,2024/03/19_14:36:33,YZ,None,
,,,,,,calibration,0,18,2,426,11,N,0,right,nan,0,1,,,,,,,,,,,,,,,,,,,,,1,,,,,,,,,,,,,,,,,,,,,,,,,,,,,,,,,,,,,,,,,,,,,,104,145921,21,Female,1,2024/03/19_14:36:33,YZ,None,
,,,,,,calibration,0,18,2,426,12,X,0,right,0.8909346950022154,1,0,,,,,,,,,,,,,,,,,,,,,1,,,,,,,,,,,,,,,,,,,,,,,,,,,,,,,,,,,,,,,,,,,,,,104,145921,21,Female,1,2024/03/19_14:36:33,YZ,None,
,,,,,,calibration,0,18,2,426,13,Q,0,right,0.25194738499703817,1,0,,,,,,,,,,,,,,,,,,,,,1,,,,,,,,,,,,,,,,,,,,,,,,,,,,,,,,,,,,,,,,,,,,,,104,145921,21,Female,1,2024/03/19_14:36:33,YZ,None,
,,,,,,calibration,0,18,2,426,14,X,1,right,0.42551992399967276,0,0,,,,,,,,,,,,,,,,,,,,,1,,,,,,,,,,,,,,,,,,,,,,,,,,,,,,,,,,,,,,,,,,,,,,104,145921,21,Female,1,2024/03/19_14:36:33,YZ,None,
,,,,,,calibration,0,18,2,426,15,J,0,right,0.49209275099565275,1,0,,,,,,,,,,,,,,,,,,,,,1,,,,,,,,,,,,,,,,,,,,,,,,,,,,,,,,,,,,,,,,,,,,,,104,145921,21,Female,1,2024/03/19_14:36:33,YZ,None,
,,,,,,calibration,0,18,2,426,16,X,1,left,0.5984105549941887,1,0,,,,,,,,,,,,,,,,,,,,,1,,,,,,,,,,,,,,,,,,,,,,,,,,,,,,,,,,,,,,,,,,,,,,104,145921,21,Female,1,2024/03/19_14:36:33,YZ,None,
,,,,,,calibration,0,18,2,426,17,S,0,right,0.5123979630006943,1,0,,,,,,,,,,,,,,,,,,,,,1,,,,,,,,,,,,,,,,,,,,,,,,,,,,,,,,,,,,,,,,,,,,,,104,145921,21,Female,1,2024/03/19_14:36:33,YZ,None,
,,,,,,calibration,0,18,2,426,,,,,,,,0.8458333333333333,0.6,0.08333333333333333,0.9090909090909091,0.058823529411764705,0.8578431372549019,0.4430386322483173,3,1,0,1,1,10,13,5,12,0,,,,1,,,,,,,,,,,,,,,,,,,,,,,,,,,,,,,,,,,,,,,,,,,,,,104,145921,21,Female,1,2024/03/19_14:36:33,YZ,None,
,,,,,,Calibration,0,,2,426,,,,,,,,,,,,,,,,,,,,,,,,,13,,,1,,,,,,,,,,,,,,,,,,,,,,,,,,,,,,,,,,,,,,,,,,,,,,104,145921,21,Female,1,2024/03/19_14:36:33,YZ,None,
,,,,,,calibration,0,22,2,426,1,F,0,right,0.2620281380004599,1,0,,,,,,,,,,,,,,,,,,,,,1,,,,,,,,,,,,,,,,,,,,,,,,,,,,,,,,,,,,,,,,,,,,,,104,145921,21,Female,1,2024/03/19_14:36:33,YZ,None,
,,,,,,calibration,0,22,2,426,2,Q,0,right,0.22546535099536413,1,0,,,,,,,,,,,,,,,,,,,,,1,,,,,,,,,,,,,,,,,,,,,,,,,,,,,,,,,,,,,,,,,,,,,,104,145921,21,Female,1,2024/03/19_14:36:33,YZ,None,
,,,,,,calibration,0,22,2,426,3,N,0,right,0.4119117640002514,1,0,,,,,,,,,,,,,,,,,,,,,1,,,,,,,,,,,,,,,,,,,,,,,,,,,,,,,,,,,,,,,,,,,,,,104,145921,21,Female,1,2024/03/19_14:36:33,YZ,None,
,,,,,,calibration,0,22,2,426,4,Q,1,right,0.8740277130054892,0,0,,,,,,,,,,,,,,,,,,,,,1,,,,,,,,,,,,,,,,,,,,,,,,,,,,,,,,,,,,,,,,,,,,,,104,145921,21,Female,1,2024/03/19_14:36:33,YZ,None,
,,,,,,calibration,0,22,2,426,5,V,0,right,0.48952048199862475,1,0,,,,,,,,,,,,,,,,,,,,,1,,,,,,,,,,,,,,,,,,,,,,,,,,,,,,,,,,,,,,,,,,,,,,104,145921,21,Female,1,2024/03/19_14:36:33,YZ,None,
,,,,,,calibration,0,22,2,426,6,Q,1,left,0.826175518996024,1,0,,,,,,,,,,,,,,,,,,,,,1,,,,,,,,,,,,,,,,,,,,,,,,,,,,,,,,,,,,,,,,,,,,,,104,145921,21,Female,1,2024/03/19_14:36:33,YZ,None,
,,,,,,calibration,0,22,2,426,7,C,0,right,0.5132352150030783,1,0,,,,,,,,,,,,,,,,,,,,,1,,,,,,,,,,,,,,,,,,,,,,,,,,,,,,,,,,,,,,,,,,,,,,104,145921,21,Female,1,2024/03/19_14:36:33,YZ,None,
,,,,,,calibration,0,22,2,426,8,N,0,right,0.41237453799840296,1,0,,,,,,,,,,,,,,,,,,,,,1,,,,,,,,,,,,,,,,,,,,,,,,,,,,,,,,,,,,,,,,,,,,,,104,145921,21,Female,1,2024/03/19_14:36:33,YZ,None,
,,,,,,calibration,0,22,2,426,9,V,0,right,0.44363553899893304,1,0,,,,,,,,,,,,,,,,,,,,,1,,,,,,,,,,,,,,,,,,,,,,,,,,,,,,,,,,,,,,,,,,,,,,104,145921,21,Female,1,2024/03/19_14:36:33,YZ,None,
,,,,,,calibration,0,22,2,426,10,X,0,right,0.48355651600286365,1,0,,,,,,,,,,,,,,,,,,,,,1,,,,,,,,,,,,,,,,,,,,,,,,,,,,,,,,,,,,,,,,,,,,,,104,145921,21,Female,1,2024/03/19_14:36:33,YZ,None,
,,,,,,calibration,0,22,2,426,11,S,0,right,nan,0,1,,,,,,,,,,,,,,,,,,,,,1,,,,,,,,,,,,,,,,,,,,,,,,,,,,,,,,,,,,,,,,,,,,,,104,145921,21,Female,1,2024/03/19_14:36:33,YZ,None,
,,,,,,calibration,0,22,2,426,12,X,1,right,0.3659200559995952,0,0,,,,,,,,,,,,,,,,,,,,,1,,,,,,,,,,,,,,,,,,,,,,,,,,,,,,,,,,,,,,,,,,,,,,104,145921,21,Female,1,2024/03/19_14:36:33,YZ,None,
,,,,,,calibration,0,22,2,426,13,S,1,right,0.3999354760017013,0,0,,,,,,,,,,,,,,,,,,,,,1,,,,,,,,,,,,,,,,,,,,,,,,,,,,,,,,,,,,,,,,,,,,,,104,145921,21,Female,1,2024/03/19_14:36:33,YZ,None,
,,,,,,calibration,0,22,2,426,14,V,0,right,0.42381816700071795,1,0,,,,,,,,,,,,,,,,,,,,,1,,,,,,,,,,,,,,,,,,,,,,,,,,,,,,,,,,,,,,,,,,,,,,104,145921,21,Female,1,2024/03/19_14:36:33,YZ,None,
,,,,,,calibration,0,22,2,426,15,J,0,right,0.43962401400494855,1,0,,,,,,,,,,,,,,,,,,,,,1,,,,,,,,,,,,,,,,,,,,,,,,,,,,,,,,,,,,,,,,,,,,,,104,145921,21,Female,1,2024/03/19_14:36:33,YZ,None,
,,,,,,calibration,0,22,2,426,16,V,1,right,0.45500298499973724,0,0,,,,,,,,,,,,,,,,,,,,,1,,,,,,,,,,,,,,,,,,,,,,,,,,,,,,,,,,,,,,,,,,,,,,104,145921,21,Female,1,2024/03/19_14:36:33,YZ,None,
,,,,,,calibration,0,22,2,426,17,S,0,left,0.0,0,0,,,,,,,,,,,,,,,,,,,,,1,,,,,,,,,,,,,,,,,,,,,,,,,,,,,,,,,,,,,,,,,,,,,,104,145921,21,Female,1,2024/03/19_14:36:33,YZ,None,
,,,,,,calibration,0,22,2,426,,,,,,,,0.675,0.2,0.08333333333333333,0.9090909090909091,0.058823529411764705,0.8578431372549019,0.439139467062887,1,1,0,1,1,10,11,5,12,0,,,,1,,,,,,,,,,,,,,,,,,,,,,,,,,,,,,,,,,,,,,,,,,,,,,104,145921,21,Female,1,2024/03/19_14:36:33,YZ,None,
,,,,,,Calibration,0,,2,426,,,,,,,,,,,,,,,,,,,,,,,,,14,,,1,,,,,,,,,,,,,,,,,,,,,,,,,,,,,,,,,,,,,,,,,,,,,,104,145921,21,Female,1,2024/03/19_14:36:33,YZ,None,
,,,,,,calibration,0,28,2,500,1,N,0,right,0.33530436800356256,1,0,,,,,,,,,,,,,,,,,,,,,1,,,,,,,,,,,,,,,,,,,,,,,,,,,,,,,,,,,,,,,,,,,,,,104,145921,21,Female,1,2024/03/19_14:36:33,YZ,None,
,,,,,,calibration,0,28,2,500,2,C,0,right,0.3267005930028972,1,0,,,,,,,,,,,,,,,,,,,,,1,,,,,,,,,,,,,,,,,,,,,,,,,,,,,,,,,,,,,,,,,,,,,,104,145921,21,Female,1,2024/03/19_14:36:33,YZ,None,
,,,,,,calibration,0,28,2,500,3,S,0,right,0.3693225250026444,1,0,,,,,,,,,,,,,,,,,,,,,1,,,,,,,,,,,,,,,,,,,,,,,,,,,,,,,,,,,,,,,,,,,,,,104,145921,21,Female,1,2024/03/19_14:36:33,YZ,None,
,,,,,,calibration,0,28,2,500,4,C,1,left,0.5127165770027204,1,0,,,,,,,,,,,,,,,,,,,,,1,,,,,,,,,,,,,,,,,,,,,,,,,,,,,,,,,,,,,,,,,,,,,,104,145921,21,Female,1,2024/03/19_14:36:33,YZ,None,
,,,,,,calibration,0,28,2,500,5,S,1,left,0.9308337870024843,1,0,,,,,,,,,,,,,,,,,,,,,1,,,,,,,,,,,,,,,,,,,,,,,,,,,,,,,,,,,,,,,,,,,,,,104,145921,21,Female,1,2024/03/19_14:36:33,YZ,None,
,,,,,,calibration,0,28,2,500,6,F,0,right,0.4864459479940706,1,0,,,,,,,,,,,,,,,,,,,,,1,,,,,,,,,,,,,,,,,,,,,,,,,,,,,,,,,,,,,,,,,,,,,,104,145921,21,Female,1,2024/03/19_14:36:33,YZ,None,
,,,,,,calibration,0,28,2,500,7,X,0,right,0.8831442880036775,1,0,,,,,,,,,,,,,,,,,,,,,1,,,,,,,,,,,,,,,,,,,,,,,,,,,,,,,,,,,,,,,,,,,,,,104,145921,21,Female,1,2024/03/19_14:36:33,YZ,None,
,,,,,,calibration,0,28,2,500,8,F,1,left,0.7243085579975741,1,0,,,,,,,,,,,,,,,,,,,,,1,,,,,,,,,,,,,,,,,,,,,,,,,,,,,,,,,,,,,,,,,,,,,,104,145921,21,Female,1,2024/03/19_14:36:33,YZ,None,
,,,,,,calibration,0,28,2,500,9,S,0,right,0.5129140190038015,1,0,,,,,,,,,,,,,,,,,,,,,1,,,,,,,,,,,,,,,,,,,,,,,,,,,,,,,,,,,,,,,,,,,,,,104,145921,21,Female,1,2024/03/19_14:36:33,YZ,None,
,,,,,,calibration,0,28,2,500,10,X,0,right,0.9987496059984551,1,0,,,,,,,,,,,,,,,,,,,,,1,,,,,,,,,,,,,,,,,,,,,,,,,,,,,,,,,,,,,,,,,,,,,,104,145921,21,Female,1,2024/03/19_14:36:33,YZ,None,
,,,,,,calibration,0,28,2,500,11,S,1,left,0.6910521300014807,1,0,,,,,,,,,,,,,,,,,,,,,1,,,,,,,,,,,,,,,,,,,,,,,,,,,,,,,,,,,,,,,,,,,,,,104,145921,21,Female,1,2024/03/19_14:36:33,YZ,None,
,,,,,,calibration,0,28,2,500,12,V,0,right,0.5674407090045861,1,0,,,,,,,,,,,,,,,,,,,,,1,,,,,,,,,,,,,,,,,,,,,,,,,,,,,,,,,,,,,,,,,,,,,,104,145921,21,Female,1,2024/03/19_14:36:33,YZ,None,
,,,,,,calibration,0,28,2,500,13,N,0,left,0.6212505119983689,0,0,,,,,,,,,,,,,,,,,,,,,1,,,,,,,,,,,,,,,,,,,,,,,,,,,,,,,,,,,,,,,,,,,,,,104,145921,21,Female,1,2024/03/19_14:36:33,YZ,None,
,,,,,,calibration,0,28,2,500,14,V,1,right,0.5297972870030208,0,0,,,,,,,,,,,,,,,,,,,,,1,,,,,,,,,,,,,,,,,,,,,,,,,,,,,,,,,,,,,,,,,,,,,,104,145921,21,Female,1,2024/03/19_14:36:33,YZ,None,
,,,,,,calibration,0,28,2,500,15,X,0,left,0.6668050950029283,0,0,,,,,,,,,,,,,,,,,,,,,1,,,,,,,,,,,,,,,,,,,,,,,,,,,,,,,,,,,,,,,,,,,,,,104,145921,21,Female,1,2024/03/19_14:36:33,YZ,None,
,,,,,,calibration,0,28,2,500,16,S,0,left,nan,0,1,,,,,,,,,,,,,,,,,,,,,1,,,,,,,,,,,,,,,,,,,,,,,,,,,,,,,,,,,,,,,,,,,,,,104,145921,21,Female,1,2024/03/19_14:36:33,YZ,None,
,,,,,,calibration,0,28,2,500,,,,,,,,0.8681818181818182,0.8,0.18181818181818182,0.8,0.0625,0.7556818181818181,0.6104524001348182,4,2,0,1,1,8,12,5,11,0,,,,1,,,,,,,,,,,,,,,,,,,,,,,,,,,,,,,,,,,,,,,,,,,,,,104,145921,21,Female,1,2024/03/19_14:36:33,YZ,None,
,,,,,,Calibration,0,,2,500,,,,,,,,,,,,,,,,,,,,,,,,,15,,,1,,,,,,,,,,,,,,,,,,,,,,,,,,,,,,,,,,,,,,,,,,,,,,104,145921,21,Female,1,2024/03/19_14:36:33,YZ,None,
,,,,,,CALIBRATION,0,,,,,,,,,,,,,,,,,,,,,,,,,,,,15,0.8681818181818182,500,1,,,,,,,,,,,,,,,,,,,,,,,,,,,,,,,,,,,,,,,,,,,,,,104,145921,21,Female,1,2024/03/19_14:36:33,YZ,None,
1,./instructions/inst_prac_1/Slide24.png,right,9.536624663000111,507.52831320000405,517.0649378630042,,,,,,,,,,,,,,,,,,,,,,,,,,,,,,,,,1,,,,,,,,,,,,,,,,,,,,,,,,,,,,,,,,,,,,,,,,,,,,,,104,145921,21,Female,1,2024/03/19_14:36:33,YZ,None,
2,./instructions/inst_prac_1/Slide25.png,right,2.041914248999092,517.0948755860009,519.136789835,,,,,,,,,,,,,,,,,,,,,,,,,,,,,,,,,1,,,,,,,,,,,,,,,,,,,,,,,,,,,,,,,,,,,,,,,,,,,,,,104,145921,21,Female,1,2024/03/19_14:36:33,YZ,None,
3,./instructions/inst_prac_1/Slide26.png,right,1.290882787994633,519.1657634940057,520.4566462820003,,,,,,,,,,,,,,,,,,,,,,,,,,,,,,,,,1,,,,,,,,,,,,,,,,,,,,,,,,,,,,,,,,,,,,,,,,,,,,,,104,145921,21,Female,1,2024/03/19_14:36:33,YZ,None,
4,./instructions/inst_prac_1/Slide27.png,right,1.059196174996032,520.4856036730052,521.5447998480013,,,,,,,,,,,,,,,,,,,,,,,,,,,,,,,,,1,,,,,,,,,,,,,,,,,,,,,,,,,,,,,,,,,,,,,,,,,,,,,,104,145921,21,Female,1,2024/03/19_14:36:33,YZ,None,
5,./instructions/inst_prac_1/Slide28.png,right,0.7960246889997507,521.5728046479999,522.3688293369996,,,,,,,,,,,,,,,,,,,,,,,,,,,,,,,,,1,,,,,,,,,,,,,,,,,,,,,,,,,,,,,,,,,,,,,,,,,,,,,,104,145921,21,Female,1,2024/03/19_14:36:33,YZ,None,
6,./instructions/inst_prac_1/Slide29.png,right,4.730808057000104,522.3981471389998,527.1289551959999,,,,,,,,,,,,,,,,,,,,,,,,,,,,,,,,,1,,,,,,,,,,,,,,,,,,,,,,,,,,,,,,,,,,,,,,,,,,,,,,104,145921,21,Female,1,2024/03/19_14:36:33,YZ,None,
7,./instructions/inst_prac_1/Slide30.png,right,2.9943261010048445,527.1585400559998,530.1528661570046,,,,,,,,,,,,,,,,,,,,,,,,,,,,,,,,,1,,,,,,,,,,,,,,,,,,,,,,,,,,,,,,,,,,,,,,,,,,,,,,104,145921,21,Female,1,2024/03/19_14:36:33,YZ,None,
,,,,,,practice,0,31,1,1250,1,F,0,right,2.54573694300052,1,0,,,,,,,,,,,,,,,,,,,,,1,,,,,,,,,,,,,,,,,,,,,,,,,,,,,,,,,,,,,,,,,,,,,,104,145921,21,Female,1,2024/03/19_14:36:33,YZ,None,
,,,,,,practice,0,31,1,1250,2,F,1,left,1.647863108002639,1,0,,,,,,,,,,,,,,,,,,,,,1,,,,,,,,,,,,,,,,,,,,,,,,,,,,,,,,,,,,,,,,,,,,,,104,145921,21,Female,1,2024/03/19_14:36:33,YZ,None,
,,,,,,practice,0,31,1,1250,3,Q,0,right,0.8239268690012977,1,0,,,,,,,,,,,,,,,,,,,,,1,,,,,,,,,,,,,,,,,,,,,,,,,,,,,,,,,,,,,,,,,,,,,,104,145921,21,Female,1,2024/03/19_14:36:33,YZ,None,
,,,,,,practice,0,31,1,1250,4,Q,1,left,0.7820458099959069,1,0,,,,,,,,,,,,,,,,,,,,,1,,,,,,,,,,,,,,,,,,,,,,,,,,,,,,,,,,,,,,,,,,,,,,104,145921,21,Female,1,2024/03/19_14:36:33,YZ,None,
,,,,,,practice,0,31,1,1250,5,N,0,right,1.2077369949984131,1,0,,,,,,,,,,,,,,,,,,,,,1,,,,,,,,,,,,,,,,,,,,,,,,,,,,,,,,,,,,,,,,,,,,,,104,145921,21,Female,1,2024/03/19_14:36:33,YZ,None,
,,,,,,practice,0,31,1,1250,6,X,0,right,1.5438252380045014,1,0,,,,,,,,,,,,,,,,,,,,,1,,,,,,,,,,,,,,,,,,,,,,,,,,,,,,,,,,,,,,,,,,,,,,104,145921,21,Female,1,2024/03/19_14:36:33,YZ,None,
,,,,,,practice,0,31,1,1250,7,N,0,right,0.747245020000264,1,0,,,,,,,,,,,,,,,,,,,,,1,,,,,,,,,,,,,,,,,,,,,,,,,,,,,,,,,,,,,,,,,,,,,,104,145921,21,Female,1,2024/03/19_14:36:33,YZ,None,
,,,,,,practice,0,31,1,1250,8,J,0,right,0.8212286160051008,1,0,,,,,,,,,,,,,,,,,,,,,1,,,,,,,,,,,,,,,,,,,,,,,,,,,,,,,,,,,,,,,,,,,,,,104,145921,21,Female,1,2024/03/19_14:36:33,YZ,None,
,,,,,,practice,0,31,1,1250,9,J,1,left,0.5950547330066911,1,0,,,,,,,,,,,,,,,,,,,,,1,,,,,,,,,,,,,,,,,,,,,,,,,,,,,,,,,,,,,,,,,,,,,,104,145921,21,Female,1,2024/03/19_14:36:33,YZ,None,
,,,,,,practice,0,31,1,1250,10,Q,0,right,0.4750167239981238,1,0,,,,,,,,,,,,,,,,,,,,,1,,,,,,,,,,,,,,,,,,,,,,,,,,,,,,,,,,,,,,,,,,,,,,104,145921,21,Female,1,2024/03/19_14:36:33,YZ,None,
,,,,,,practice,0,31,1,1250,,,,,,,,1.0,1.0,0.0,1.0,0.0,1.0,1.1189680056013458,3,0,0,0,0,7,10,3,7,0,,,,1,,,,,,,,,,,,,,,,,,,,,,,,,,,,,,,,,,,,,,,,,,,,,,104,145921,21,Female,1,2024/03/19_14:36:33,YZ,None,
1,./instructions/inst_prac_1_next/Slide35.png,right,1.3627581219989224,551.8781172680028,553.2408753900017,,,,,,,,,,,,,,,,,,,,,,,,,,,,,,,,,1,,,,,,,,,,,,,,,,,,,,,,,,,,,,,,,,,,,,,,,,,,,,,,104,145921,21,Female,1,2024/03/19_14:36:33,YZ,None,
,,,,,,practice,0,20,1,500,1,X,0,right,0.4838897049994557,1,0,,,,,,,,,,,,,,,,,,,,,1,,,,,,,,,,,,,,,,,,,,,,,,,,,,,,,,,,,,,,,,,,,,,,104,145921,21,Female,1,2024/03/19_14:36:33,YZ,None,
,,,,,,practice,0,20,1,500,2,S,0,right,0.43196346100012306,1,0,,,,,,,,,,,,,,,,,,,,,1,,,,,,,,,,,,,,,,,,,,,,,,,,,,,,,,,,,,,,,,,,,,,,104,145921,21,Female,1,2024/03/19_14:36:33,YZ,None,
,,,,,,practice,0,20,1,500,3,S,1,left,0.47216389399545733,1,0,,,,,,,,,,,,,,,,,,,,,1,,,,,,,,,,,,,,,,,,,,,,,,,,,,,,,,,,,,,,,,,,,,,,104,145921,21,Female,1,2024/03/19_14:36:33,YZ,None,
,,,,,,practice,0,20,1,500,4,C,0,right,0.448024749995966,1,0,,,,,,,,,,,,,,,,,,,,,1,,,,,,,,,,,,,,,,,,,,,,,,,,,,,,,,,,,,,,,,,,,,,,104,145921,21,Female,1,2024/03/19_14:36:33,YZ,None,
,,,,,,practice,0,20,1,500,5,C,1,left,0.544372750002367,1,0,,,,,,,,,,,,,,,,,,,,,1,,,,,,,,,,,,,,,,,,,,,,,,,,,,,,,,,,,,,,,,,,,,,,104,145921,21,Female,1,2024/03/19_14:36:33,YZ,None,
,,,,,,practice,0,20,1,500,6,Q,0,right,0.7959867950048647,1,0,,,,,,,,,,,,,,,,,,,,,1,,,,,,,,,,,,,,,,,,,,,,,,,,,,,,,,,,,,,,,,,,,,,,104,145921,21,Female,1,2024/03/19_14:36:33,YZ,None,
,,,,,,practice,0,20,1,500,7,N,0,right,0.5136158810055349,1,0,,,,,,,,,,,,,,,,,,,,,1,,,,,,,,,,,,,,,,,,,,,,,,,,,,,,,,,,,,,,,,,,,,,,104,145921,21,Female,1,2024/03/19_14:36:33,YZ,None,
,,,,,,practice,0,20,1,500,8,J,0,right,0.3996378049996565,1,0,,,,,,,,,,,,,,,,,,,,,1,,,,,,,,,,,,,,,,,,,,,,,,,,,,,,,,,,,,,,,,,,,,,,104,145921,21,Female,1,2024/03/19_14:36:33,YZ,None,
,,,,,,practice,0,20,1,500,9,X,0,right,0.45785286200407427,1,0,,,,,,,,,,,,,,,,,,,,,1,,,,,,,,,,,,,,,,,,,,,,,,,,,,,,,,,,,,,,,,,,,,,,104,145921,21,Female,1,2024/03/19_14:36:33,YZ,None,
,,,,,,practice,0,20,1,500,10,C,0,right,0.46581192099984037,1,0,,,,,,,,,,,,,,,,,,,,,1,,,,,,,,,,,,,,,,,,,,,,,,,,,,,,,,,,,,,,,,,,,,,,104,145921,21,Female,1,2024/03/19_14:36:33,YZ,None,
,,,,,,practice,0,20,1,500,11,C,1,left,0.4962773189981817,1,0,,,,,,,,,,,,,,,,,,,,,1,,,,,,,,,,,,,,,,,,,,,,,,,,,,,,,,,,,,,,,,,,,,,,104,145921,21,Female,1,2024/03/19_14:36:33,YZ,None,
,,,,,,practice,0,20,1,500,12,N,0,right,0.4277455370029202,1,0,,,,,,,,,,,,,,,,,,,,,1,,,,,,,,,,,,,,,,,,,,,,,,,,,,,,,,,,,,,,,,,,,,,,104,145921,21,Female,1,2024/03/19_14:36:33,YZ,None,
,,,,,,practice,0,20,1,500,13,N,1,left,0.5228139239989105,1,0,,,,,,,,,,,,,,,,,,,,,1,,,,,,,,,,,,,,,,,,,,,,,,,,,,,,,,,,,,,,,,,,,,,,104,145921,21,Female,1,2024/03/19_14:36:33,YZ,None,
,,,,,,practice,0,20,1,500,14,V,0,right,0.4194343420022051,1,0,,,,,,,,,,,,,,,,,,,,,1,,,,,,,,,,,,,,,,,,,,,,,,,,,,,,,,,,,,,,,,,,,,,,104,145921,21,Female,1,2024/03/19_14:36:33,YZ,None,
,,,,,,practice,0,20,1,500,15,V,1,left,0.5597168449967285,1,0,,,,,,,,,,,,,,,,,,,,,1,,,,,,,,,,,,,,,,,,,,,,,,,,,,,,,,,,,,,,,,,,,,,,104,145921,21,Female,1,2024/03/19_14:36:33,YZ,None,
,,,,,,practice,0,20,1,500,16,C,0,right,0.39277357699756976,1,0,,,,,,,,,,,,,,,,,,,,,1,,,,,,,,,,,,,,,,,,,,,,,,,,,,,,,,,,,,,,,,,,,,,,104,145921,21,Female,1,2024/03/19_14:36:33,YZ,None,
,,,,,,practice,0,20,1,500,,,,,,,,1.0,1.0,0.0,1.0,0.0,1.0,0.48950508550024097,5,0,0,0,0,11,16,5,11,0,,,,1,,,,,,,,,,,,,,,,,,,,,,,,,,,,,,,,,,,,,,,,,,,,,,104,145921,21,Female,1,2024/03/19_14:36:33,YZ,None,
,,,,,,practice,0,28,1,500,1,V,0,right,0.3591368940033135,1,0,,,,,,,,,,,,,,,,,,,,,1,,,,,,,,,,,,,,,,,,,,,,,,,,,,,,,,,,,,,,,,,,,,,,104,145921,21,Female,1,2024/03/19_14:36:33,YZ,None,
,,,,,,practice,0,28,1,500,2,V,1,left,0.5294415820026188,1,0,,,,,,,,,,,,,,,,,,,,,1,,,,,,,,,,,,,,,,,,,,,,,,,,,,,,,,,,,,,,,,,,,,,,104,145921,21,Female,1,2024/03/19_14:36:33,YZ,None,
,,,,,,practice,0,28,1,500,3,J,0,right,0.6360983939957805,1,0,,,,,,,,,,,,,,,,,,,,,1,,,,,,,,,,,,,,,,,,,,,,,,,,,,,,,,,,,,,,,,,,,,,,104,145921,21,Female,1,2024/03/19_14:36:33,YZ,None,
,,,,,,practice,0,28,1,500,4,C,0,right,0.42358421300014015,1,0,,,,,,,,,,,,,,,,,,,,,1,,,,,,,,,,,,,,,,,,,,,,,,,,,,,,,,,,,,,,,,,,,,,,104,145921,21,Female,1,2024/03/19_14:36:33,YZ,None,
,,,,,,practice,0,28,1,500,5,F,0,right,0.5765322770021157,1,0,,,,,,,,,,,,,,,,,,,,,1,,,,,,,,,,,,,,,,,,,,,,,,,,,,,,,,,,,,,,,,,,,,,,104,145921,21,Female,1,2024/03/19_14:36:33,YZ,None,
,,,,,,practice,0,28,1,500,6,F,1,left,0.6923399610022898,1,0,,,,,,,,,,,,,,,,,,,,,1,,,,,,,,,,,,,,,,,,,,,,,,,,,,,,,,,,,,,,,,,,,,,,104,145921,21,Female,1,2024/03/19_14:36:33,YZ,None,
,,,,,,practice,0,28,1,500,7,C,0,right,0.4495222149998881,1,0,,,,,,,,,,,,,,,,,,,,,1,,,,,,,,,,,,,,,,,,,,,,,,,,,,,,,,,,,,,,,,,,,,,,104,145921,21,Female,1,2024/03/19_14:36:33,YZ,None,
,,,,,,practice,0,28,1,500,8,C,1,right,0.33515899700432783,0,0,,,,,,,,,,,,,,,,,,,,,1,,,,,,,,,,,,,,,,,,,,,,,,,,,,,,,,,,,,,,,,,,,,,,104,145921,21,Female,1,2024/03/19_14:36:33,YZ,None,
,,,,,,practice,0,28,1,500,9,X,0,right,0.5054248000014923,1,0,,,,,,,,,,,,,,,,,,,,,1,,,,,,,,,,,,,,,,,,,,,,,,,,,,,,,,,,,,,,,,,,,,,,104,145921,21,Female,1,2024/03/19_14:36:33,YZ,None,
,,,,,,practice,0,28,1,500,10,X,1,left,0.4602331529968069,1,0,,,,,,,,,,,,,,,,,,,,,1,,,,,,,,,,,,,,,,,,,,,,,,,,,,,,,,,,,,,,,,,,,,,,104,145921,21,Female,1,2024/03/19_14:36:33,YZ,None,
,,,,,,practice,0,28,1,500,11,Q,0,right,0.42783119100204203,1,0,,,,,,,,,,,,,,,,,,,,,1,,,,,,,,,,,,,,,,,,,,,,,,,,,,,,,,,,,,,,,,,,,,,,104,145921,21,Female,1,2024/03/19_14:36:33,YZ,None,
,,,,,,practice,0,28,1,500,12,J,0,right,0.49059560800378677,1,0,,,,,,,,,,,,,,,,,,,,,1,,,,,,,,,,,,,,,,,,,,,,,,,,,,,,,,,,,,,,,,,,,,,,104,145921,21,Female,1,2024/03/19_14:36:33,YZ,None,
,,,,,,practice,0,28,1,500,13,V,0,right,0.5639845640034764,1,0,,,,,,,,,,,,,,,,,,,,,1,,,,,,,,,,,,,,,,,,,,,,,,,,,,,,,,,,,,,,,,,,,,,,104,145921,21,Female,1,2024/03/19_14:36:33,YZ,None,
,,,,,,practice,0,28,1,500,14,N,0,right,0.47963219600205775,1,0,,,,,,,,,,,,,,,,,,,,,1,,,,,,,,,,,,,,,,,,,,,,,,,,,,,,,,,,,,,,,,,,,,,,104,145921,21,Female,1,2024/03/19_14:36:33,YZ,None,
,,,,,,practice,0,28,1,500,15,N,1,left,0.608131246000994,1,0,,,,,,,,,,,,,,,,,,,,,1,,,,,,,,,,,,,,,,,,,,,,,,,,,,,,,,,,,,,,,,,,,,,,104,145921,21,Female,1,2024/03/19_14:36:33,YZ,None,
,,,,,,practice,0,28,1,500,16,Q,0,right,0.42508186499617295,1,0,,,,,,,,,,,,,,,,,,,,,1,,,,,,,,,,,,,,,,,,,,,,,,,,,,,,,,,,,,,,,,,,,,,,104,145921,21,Female,1,2024/03/19_14:36:33,YZ,None,
,,,,,,practice,0,28,1,500,,,,,,,,0.95,0.8,0.0,1.0,0.0,1.0,0.49767057225108147,4,0,0,0,0,11,15,5,11,0,,,,1,,,,,,,,,,,,,,,,,,,,,,,,,,,,,,,,,,,,,,,,,,,,,,104,145921,21,Female,1,2024/03/19_14:36:33,YZ,None,
1,./instructions/inst_prac_3/Slide37.png,right,9.62777580999682,589.9572283860034,599.5850041960002,,,,,,,,,,,,,,,,,,,,,,,,,,,,,,,,,1,,,,,,,,,,,,,,,,,,,,,,,,,,,,,,,,,,,,,,,,,,,,,,104,145921,21,Female,1,2024/03/19_14:36:33,YZ,None,
2,./instructions/inst_prac_3/Slide38.png,right,1.643542826997873,599.6131544500022,601.2566972770001,,,,,,,,,,,,,,,,,,,,,,,,,,,,,,,,,1,,,,,,,,,,,,,,,,,,,,,,,,,,,,,,,,,,,,,,,,,,,,,,104,145921,21,Female,1,2024/03/19_14:36:33,YZ,None,
3,./instructions/inst_prac_3/Slide39.png,right,0.9019516289990861,601.282881005005,602.1848326340041,,,,,,,,,,,,,,,,,,,,,,,,,,,,,,,,,1,,,,,,,,,,,,,,,,,,,,,,,,,,,,,,,,,,,,,,,,,,,,,,104,145921,21,Female,1,2024/03/19_14:36:33,YZ,None,
4,./instructions/inst_prac_3/Slide40.png,right,0.8987698959972477,602.2140992030036,603.1128690990008,,,,,,,,,,,,,,,,,,,,,,,,,,,,,,,,,1,,,,,,,,,,,,,,,,,,,,,,,,,,,,,,,,,,,,,,,,,,,,,,104,145921,21,Female,1,2024/03/19_14:36:33,YZ,None,
5,./instructions/inst_prac_3/Slide41.png,right,4.579105269003776,603.1418554449992,607.720960714003,,,,,,,,,,,,,,,,,,,,,,,,,,,,,,,,,1,,,,,,,,,,,,,,,,,,,,,,,,,,,,,,,,,,,,,,,,,,,,,,104,145921,21,Female,1,2024/03/19_14:36:33,YZ,None,
6,./instructions/inst_prac_3/Slide42.png,right,2.9946469440037617,607.7502054729994,610.7448524170031,,,,,,,,,,,,,,,,,,,,,,,,,,,,,,,,,1,,,,,,,,,,,,,,,,,,,,,,,,,,,,,,,,,,,,,,,,,,,,,,104,145921,21,Female,1,2024/03/19_14:36:33,YZ,None,
7,./instructions/inst_prac_3/Slide43.png,right,1.604834089994256,610.7720889270058,612.3769230170001,,,,,,,,,,,,,,,,,,,,,,,,,,,,,,,,,1,,,,,,,,,,,,,,,,,,,,,,,,,,,,,,,,,,,,,,,,,,,,,,104,145921,21,Female,1,2024/03/19_14:36:33,YZ,None,
8,./instructions/inst_prac_3/Slide44.png,right,1.8807114320006804,612.4000092770002,614.2807207090009,,,,,,,,,,,,,,,,,,,,,,,,,,,,,,,,,1,,,,,,,,,,,,,,,,,,,,,,,,,,,,,,,,,,,,,,,,,,,,,,104,145921,21,Female,1,2024/03/19_14:36:33,YZ,None,
,,,,,,practice,0,19,3,788,1,C,0,right,1.433395128005941,1,0,,,,,,,,,,,,,,,,,,,,,1,,,,,,,,,,,,,,,,,,,,,,,,,,,,,,,,,,,,,,,,,,,,,,104,145921,21,Female,1,2024/03/19_14:36:33,YZ,None,
,,,,,,practice,0,19,3,788,2,F,0,right,1.3869910020002862,1,0,,,,,,,,,,,,,,,,,,,,,1,,,,,,,,,,,,,,,,,,,,,,,,,,,,,,,,,,,,,,,,,,,,,,104,145921,21,Female,1,2024/03/19_14:36:33,YZ,None,
,,,,,,practice,0,19,3,788,3,Q,0,right,0.5236055559944361,1,0,,,,,,,,,,,,,,,,,,,,,1,,,,,,,,,,,,,,,,,,,,,,,,,,,,,,,,,,,,,,,,,,,,,,104,145921,21,Female,1,2024/03/19_14:36:33,YZ,None,
,,,,,,practice,0,19,3,788,4,C,1,left,0.7977123059972655,1,0,,,,,,,,,,,,,,,,,,,,,1,,,,,,,,,,,,,,,,,,,,,,,,,,,,,,,,,,,,,,,,,,,,,,104,145921,21,Female,1,2024/03/19_14:36:33,YZ,None,
,,,,,,practice,0,19,3,788,5,Q,0,right,1.0310657209993224,1,0,,,,,,,,,,,,,,,,,,,,,1,,,,,,,,,,,,,,,,,,,,,,,,,,,,,,,,,,,,,,,,,,,,,,104,145921,21,Female,1,2024/03/19_14:36:33,YZ,None,
,,,,,,practice,0,19,3,788,6,J,0,right,1.2019575690064812,1,0,,,,,,,,,,,,,,,,,,,,,1,,,,,,,,,,,,,,,,,,,,,,,,,,,,,,,,,,,,,,,,,,,,,,104,145921,21,Female,1,2024/03/19_14:36:33,YZ,None,
,,,,,,practice,0,19,3,788,7,X,0,right,0.6703831600025296,1,0,,,,,,,,,,,,,,,,,,,,,1,,,,,,,,,,,,,,,,,,,,,,,,,,,,,,,,,,,,,,,,,,,,,,104,145921,21,Female,1,2024/03/19_14:36:33,YZ,None,
,,,,,,practice,0,19,3,788,8,Q,1,left,0.805801040994993,1,0,,,,,,,,,,,,,,,,,,,,,1,,,,,,,,,,,,,,,,,,,,,,,,,,,,,,,,,,,,,,,,,,,,,,104,145921,21,Female,1,2024/03/19_14:36:33,YZ,None,
,,,,,,practice,0,19,3,788,9,J,1,left,0.9630835170028149,1,0,,,,,,,,,,,,,,,,,,,,,1,,,,,,,,,,,,,,,,,,,,,,,,,,,,,,,,,,,,,,,,,,,,,,104,145921,21,Female,1,2024/03/19_14:36:33,YZ,None,
,,,,,,practice,0,19,3,788,10,N,0,right,0.7735825139970984,1,0,,,,,,,,,,,,,,,,,,,,,1,,,,,,,,,,,,,,,,,,,,,,,,,,,,,,,,,,,,,,,,,,,,,,104,145921,21,Female,1,2024/03/19_14:36:33,YZ,None,
,,,,,,practice,0,19,3,788,11,S,0,right,1.0911807770025916,1,0,,,,,,,,,,,,,,,,,,,,,1,,,,,,,,,,,,,,,,,,,,,,,,,,,,,,,,,,,,,,,,,,,,,,104,145921,21,Female,1,2024/03/19_14:36:33,YZ,None,
,,,,,,practice,0,19,3,788,12,J,1,left,2.20910555300361,1,0,,,,,,,,,,,,,,,,,,,,,1,,,,,,,,,,,,,,,,,,,,,,,,,,,,,,,,,,,,,,,,,,,,,,104,145921,21,Female,1,2024/03/19_14:36:33,YZ,None,
,,,,,,practice,0,19,3,788,13,S,0,right,1.7082321220004815,1,0,,,,,,,,,,,,,,,,,,,,,1,,,,,,,,,,,,,,,,,,,,,,,,,,,,,,,,,,,,,,,,,,,,,,104,145921,21,Female,1,2024/03/19_14:36:33,YZ,None,
,,,,,,practice,0,19,3,788,,,,,,,,1.0,1.0,0.0,1.0,0.0,1.0,1.1227766127698346,4,0,0,0,0,9,13,4,9,0,,,,1,,,,,,,,,,,,,,,,,,,,,,,,,,,,,,,,,,,,,,,,,,,,,,104,145921,21,Female,1,2024/03/19_14:36:33,YZ,None,
1,./instructions/inst_prac_3_next/Slide49.png,right,3.328120853002474,642.5686265650002,645.8967474180026,,,,,,,,,,,,,,,,,,,,,,,,,,,,,,,,,1,,,,,,,,,,,,,,,,,,,,,,,,,,,,,,,,,,,,,,,,,,,,,,104,145921,21,Female,1,2024/03/19_14:36:33,YZ,None,
,,,,,,practice,0,20,3,500,1,S,0,right,0.37717221299681114,1,0,,,,,,,,,,,,,,,,,,,,,1,,,,,,,,,,,,,,,,,,,,,,,,,,,,,,,,,,,,,,,,,,,,,,104,145921,21,Female,1,2024/03/19_14:36:33,YZ,None,
,,,,,,practice,0,20,3,500,2,S,0,right,0.6332756269985111,1,0,,,,,,,,,,,,,,,,,,,,,1,,,,,,,,,,,,,,,,,,,,,,,,,,,,,,,,,,,,,,,,,,,,,,104,145921,21,Female,1,2024/03/19_14:36:33,YZ,None,
,,,,,,practice,0,20,3,500,3,C,0,right,0.6792787529993802,1,0,,,,,,,,,,,,,,,,,,,,,1,,,,,,,,,,,,,,,,,,,,,,,,,,,,,,,,,,,,,,,,,,,,,,104,145921,21,Female,1,2024/03/19_14:36:33,YZ,None,
,,,,,,practice,0,20,3,500,4,S,1,left,0.5285203849998652,1,0,,,,,,,,,,,,,,,,,,,,,1,,,,,,,,,,,,,,,,,,,,,,,,,,,,,,,,,,,,,,,,,,,,,,104,145921,21,Female,1,2024/03/19_14:36:33,YZ,None,
,,,,,,practice,0,20,3,500,5,S,1,left,1.428080780999153,1,0,,,,,,,,,,,,,,,,,,,,,1,,,,,,,,,,,,,,,,,,,,,,,,,,,,,,,,,,,,,,,,,,,,,,104,145921,21,Female,1,2024/03/19_14:36:33,YZ,None,
,,,,,,practice,0,20,3,500,6,V,0,right,0.8042977150034858,1,0,,,,,,,,,,,,,,,,,,,,,1,,,,,,,,,,,,,,,,,,,,,,,,,,,,,,,,,,,,,,,,,,,,,,104,145921,21,Female,1,2024/03/19_14:36:33,YZ,None,
,,,,,,practice,0,20,3,500,7,N,0,right,1.22412149199954,1,0,,,,,,,,,,,,,,,,,,,,,1,,,,,,,,,,,,,,,,,,,,,,,,,,,,,,,,,,,,,,,,,,,,,,104,145921,21,Female,1,2024/03/19_14:36:33,YZ,None,
,,,,,,practice,0,20,3,500,8,X,0,right,1.137210729000799,1,0,,,,,,,,,,,,,,,,,,,,,1,,,,,,,,,,,,,,,,,,,,,,,,,,,,,,,,,,,,,,,,,,,,,,104,145921,21,Female,1,2024/03/19_14:36:33,YZ,None,
,,,,,,practice,0,20,3,500,9,N,0,left,0.9830092169941054,0,0,,,,,,,,,,,,,,,,,,,,,1,,,,,,,,,,,,,,,,,,,,,,,,,,,,,,,,,,,,,,,,,,,,,,104,145921,21,Female,1,2024/03/19_14:36:33,YZ,None,
,,,,,,practice,0,20,3,500,10,N,1,left,1.9411250529956305,1,0,,,,,,,,,,,,,,,,,,,,,1,,,,,,,,,,,,,,,,,,,,,,,,,,,,,,,,,,,,,,,,,,,,,,104,145921,21,Female,1,2024/03/19_14:36:33,YZ,None,
,,,,,,practice,0,20,3,500,11,F,0,right,1.3403048700056388,1,0,,,,,,,,,,,,,,,,,,,,,1,,,,,,,,,,,,,,,,,,,,,,,,,,,,,,,,,,,,,,,,,,,,,,104,145921,21,Female,1,2024/03/19_14:36:33,YZ,None,
,,,,,,practice,0,20,3,500,12,S,0,right,1.5606770980011788,1,0,,,,,,,,,,,,,,,,,,,,,1,,,,,,,,,,,,,,,,,,,,,,,,,,,,,,,,,,,,,,,,,,,,,,104,145921,21,Female,1,2024/03/19_14:36:33,YZ,None,
,,,,,,practice,0,20,3,500,13,N,1,left,1.473981093004113,1,0,,,,,,,,,,,,,,,,,,,,,1,,,,,,,,,,,,,,,,,,,,,,,,,,,,,,,,,,,,,,,,,,,,,,104,145921,21,Female,1,2024/03/19_14:36:33,YZ,None,
,,,,,,practice,0,20,3,500,14,S,0,right,1.168986032003886,1,0,,,,,,,,,,,,,,,,,,,,,1,,,,,,,,,,,,,,,,,,,,,,,,,,,,,,,,,,,,,,,,,,,,,,104,145921,21,Female,1,2024/03/19_14:36:33,YZ,None,
,,,,,,practice,0,20,3,500,15,V,0,right,1.7960786420007935,1,0,,,,,,,,,,,,,,,,,,,,,1,,,,,,,,,,,,,,,,,,,,,,,,,,,,,,,,,,,,,,,,,,,,,,104,145921,21,Female,1,2024/03/19_14:36:33,YZ,None,
,,,,,,practice,0,20,3,500,16,C,0,right,2.2688357590013766,1,0,,,,,,,,,,,,,,,,,,,,,1,,,,,,,,,,,,,,,,,,,,,,,,,,,,,,,,,,,,,,,,,,,,,,104,145921,21,Female,1,2024/03/19_14:36:33,YZ,None,
,,,,,,practice,0,20,3,500,,,,,,,,0.9791666666666666,1.0,0.08333333333333333,0.9166666666666666,0.0,0.9166666666666666,1.2090597161877668,4,1,0,0,0,11,15,4,12,0,,,,1,,,,,,,,,,,,,,,,,,,,,,,,,,,,,,,,,,,,,,,,,,,,,,104,145921,21,Female,1,2024/03/19_14:36:33,YZ,None,
,,,,,,practice,0,27,3,500,1,S,0,right,0.8910059210029431,1,0,,,,,,,,,,,,,,,,,,,,,1,,,,,,,,,,,,,,,,,,,,,,,,,,,,,,,,,,,,,,,,,,,,,,104,145921,21,Female,1,2024/03/19_14:36:33,YZ,None,
,,,,,,practice,0,27,3,500,2,F,0,right,1.015439308997884,1,0,,,,,,,,,,,,,,,,,,,,,1,,,,,,,,,,,,,,,,,,,,,,,,,,,,,,,,,,,,,,,,,,,,,,104,145921,21,Female,1,2024/03/19_14:36:33,YZ,None,
,,,,,,practice,0,27,3,500,3,Q,0,right,0.9926504210015992,1,0,,,,,,,,,,,,,,,,,,,,,1,,,,,,,,,,,,,,,,,,,,,,,,,,,,,,,,,,,,,,,,,,,,,,104,145921,21,Female,1,2024/03/19_14:36:33,YZ,None,
,,,,,,practice,0,27,3,500,4,F,0,left,1.5443055739960982,0,0,,,,,,,,,,,,,,,,,,,,,1,,,,,,,,,,,,,,,,,,,,,,,,,,,,,,,,,,,,,,,,,,,,,,104,145921,21,Female,1,2024/03/19_14:36:33,YZ,None,
,,,,,,practice,0,27,3,500,5,F,1,right,1.238240692000545,0,0,,,,,,,,,,,,,,,,,,,,,1,,,,,,,,,,,,,,,,,,,,,,,,,,,,,,,,,,,,,,,,,,,,,,104,145921,21,Female,1,2024/03/19_14:36:33,YZ,None,
,,,,,,practice,0,27,3,500,6,C,0,right,2.5963695629980066,1,0,,,,,,,,,,,,,,,,,,,,,1,,,,,,,,,,,,,,,,,,,,,,,,,,,,,,,,,,,,,,,,,,,,,,104,145921,21,Female,1,2024/03/19_14:36:33,YZ,None,
,,,,,,practice,0,27,3,500,7,S,0,right,2.372242453995568,1,0,,,,,,,,,,,,,,,,,,,,,1,,,,,,,,,,,,,,,,,,,,,,,,,,,,,,,,,,,,,,,,,,,,,,104,145921,21,Female,1,2024/03/19_14:36:33,YZ,None,
,,,,,,practice,0,27,3,500,8,F,1,left,1.8407707430014852,1,0,,,,,,,,,,,,,,,,,,,,,1,,,,,,,,,,,,,,,,,,,,,,,,,,,,,,,,,,,,,,,,,,,,,,104,145921,21,Female,1,2024/03/19_14:36:33,YZ,None,
,,,,,,practice,0,27,3,500,9,X,0,right,0.923554018001596,1,0,,,,,,,,,,,,,,,,,,,,,1,,,,,,,,,,,,,,,,,,,,,,,,,,,,,,,,,,,,,,,,,,,,,,104,145921,21,Female,1,2024/03/19_14:36:33,YZ,None,
,,,,,,practice,0,27,3,500,10,V,0,right,2.2309075689991005,1,0,,,,,,,,,,,,,,,,,,,,,1,,,,,,,,,,,,,,,,,,,,,,,,,,,,,,,,,,,,,,,,,,,,,,104,145921,21,Female,1,2024/03/19_14:36:33,YZ,None,
,,,,,,practice,0,27,3,500,11,C,0,right,2.540105407999363,1,0,,,,,,,,,,,,,,,,,,,,,1,,,,,,,,,,,,,,,,,,,,,,,,,,,,,,,,,,,,,,,,,,,,,,104,145921,21,Female,1,2024/03/19_14:36:33,YZ,None,
,,,,,,practice,0,27,3,500,12,F,0,left,1.7685203689979971,0,0,,,,,,,,,,,,,,,,,,,,,1,,,,,,,,,,,,,,,,,,,,,,,,,,,,,,,,,,,,,,,,,,,,,,104,145921,21,Female,1,2024/03/19_14:36:33,YZ,None,
,,,,,,practice,0,27,3,500,13,N,0,right,1.073238108001533,1,0,,,,,,,,,,,,,,,,,,,,,1,,,,,,,,,,,,,,,,,,,,,,,,,,,,,,,,,,,,,,,,,,,,,,104,145921,21,Female,1,2024/03/19_14:36:33,YZ,None,
,,,,,,practice,0,27,3,500,14,C,1,right,2.5044848140023532,0,0,,,,,,,,,,,,,,,,,,,,,1,,,,,,,,,,,,,,,,,,,,,,,,,,,,,,,,,,,,,,,,,,,,,,104,145921,21,Female,1,2024/03/19_14:36:33,YZ,None,
,,,,,,practice,0,27,3,500,15,F,1,left,2.3431116709980415,1,0,,,,,,,,,,,,,,,,,,,,,1,,,,,,,,,,,,,,,,,,,,,,,,,,,,,,,,,,,,,,,,,,,,,,104,145921,21,Female,1,2024/03/19_14:36:33,YZ,None,
,,,,,,practice,0,27,3,500,16,J,0,right,1.4038690000015777,1,0,,,,,,,,,,,,,,,,,,,,,1,,,,,,,,,,,,,,,,,,,,,,,,,,,,,,,,,,,,,,,,,,,,,,104,145921,21,Female,1,2024/03/19_14:36:33,YZ,None,
,,,,,,practice,0,27,3,500,,,,,,,,0.75,0.5,0.16666666666666666,0.8333333333333334,0.0,0.8333333333333334,1.7049259771247307,2,2,0,0,0,10,12,4,12,0,,,,1,,,,,,,,,,,,,,,,,,,,,,,,,,,,,,,,,,,,,,,,,,,,,,104,145921,21,Female,1,2024/03/19_14:36:33,YZ,None,
1,./instructions/inst_prac_main/Slide51.png,right,2.5088236080046045,713.4199410729998,715.9287646810044,,,,,,,,,,,,,,,,,,,,,,,,,,,,,,,,,1,,,,,,,,,,,,,,,,,,,,,,,,,,,,,,,,,,,,,,,,,,,,,,104,145921,21,Female,1,2024/03/19_14:36:33,YZ,None,
2,./instructions/inst_prac_main/Slide52.png,right,11.194556441005261,715.9583906129992,727.1529470540045,,,,,,,,,,,,,,,,,,,,,,,,,,,,,,,,,1,,,,,,,,,,,,,,,,,,,,,,,,,,,,,,,,,,,,,,,,,,,,,,104,145921,21,Female,1,2024/03/19_14:36:33,YZ,None,
1,./instructions/inst_prac_main/Slide53.png,left,7.818550210002286,727.1823165189999,735.0008667290022,,,,,,,,,,,,,,,,,,,,,,,,,,,,,,,,,1,,,,,,,,,,,,,,,,,,,,,,,,,,,,,,,,,,,,,,,,,,,,,,104,145921,21,Female,1,2024/03/19_14:36:33,YZ,None,
2,./instructions/inst_prac_main/Slide52.png,right,3.8974307930038776,735.023397762001,738.9208285550048,,,,,,,,,,,,,,,,,,,,,,,,,,,,,,,,,1,,,,,,,,,,,,,,,,,,,,,,,,,,,,,,,,,,,,,,,,,,,,,,104,145921,21,Female,1,2024/03/19_14:36:33,YZ,None,
1,./instructions/inst_prac_main/Slide53.png,left,1.4687145950010745,738.9481467580044,740.4168613530055,,,,,,,,,,,,,,,,,,,,,,,,,,,,,,,,,1,,,,,,,,,,,,,,,,,,,,,,,,,,,,,,,,,,,,,,,,,,,,,,104,145921,21,Female,1,2024/03/19_14:36:33,YZ,None,
0,./instructions/inst_prac_main/Slide52.png,left,0.2004202919997624,740.4458848100039,740.6463051020037,,,,,,,,,,,,,,,,,,,,,,,,,,,,,,,,,1,,,,,,,,,,,,,,,,,,,,,,,,,,,,,,,,,,,,,,,,,,,,,,104,145921,21,Female,1,2024/03/19_14:36:33,YZ,None,
-1,./instructions/inst_prac_main/Slide51.png,left,0.20042495800589677,740.6652613810002,740.8656863390061,,,,,,,,,,,,,,,,,,,,,,,,,,,,,,,,,1,,,,,,,,,,,,,,,,,,,,,,,,,,,,,,,,,,,,,,,,,,,,,,104,145921,21,Female,1,2024/03/19_14:36:33,YZ,None,
-2,./instructions/inst_prac_main/Slide54.png,left,0.2003953140010708,740.8884851850016,741.0888804990027,,,,,,,,,,,,,,,,,,,,,,,,,,,,,,,,,1,,,,,,,,,,,,,,,,,,,,,,,,,,,,,,,,,,,,,,,,,,,,,,104,145921,21,Female,1,2024/03/19_14:36:33,YZ,None,
-3,./instructions/inst_prac_main/Slide53.png,left,0.200432475998241,741.1117338710028,741.312166347001,,,,,,,,,,,,,,,,,,,,,,,,,,,,,,,,,1,,,,,,,,,,,,,,,,,,,,,,,,,,,,,,,,,,,,,,,,,,,,,,104,145921,21,Female,1,2024/03/19_14:36:33,YZ,None,
-2,./instructions/inst_prac_main/Slide52.png,right,2.3782090349995997,741.3344941510004,743.712703186,,,,,,,,,,,,,,,,,,,,,,,,,,,,,,,,,1,,,,,,,,,,,,,,,,,,,,,,,,,,,,,,,,,,,,,,,,,,,,,,104,145921,21,Female,1,2024/03/19_14:36:33,YZ,None,
-1,./instructions/inst_prac_main/Slide53.png,right,5.889548496001225,743.7352232260018,749.6247717220031,,,,,,,,,,,,,,,,,,,,,,,,,,,,,,,,,1,,,,,,,,,,,,,,,,,,,,,,,,,,,,,,,,,,,,,,,,,,,,,,104,145921,21,Female,1,2024/03/19_14:36:33,YZ,None,
0,./instructions/inst_prac_main/Slide54.png,right,0.20036437700036913,749.6544959860039,749.8548603630043,,,,,,,,,,,,,,,,,,,,,,,,,,,,,,,,,1,,,,,,,,,,,,,,,,,,,,,,,,,,,,,,,,,,,,,,,,,,,,,,104,145921,21,Female,1,2024/03/19_14:36:33,YZ,None,
1,./instructions/inst_prac_main/Slide51.png,right,0.2003731520017027,749.8737347780043,750.074107930006,,,,,,,,,,,,,,,,,,,,,,,,,,,,,,,,,1,,,,,,,,,,,,,,,,,,,,,,,,,,,,,,,,,,,,,,,,,,,,,,104,145921,21,Female,1,2024/03/19_14:36:33,YZ,None,
2,./instructions/inst_prac_main/Slide52.png,right,0.20051738600159297,750.0979779210029,750.2984953070045,,,,,,,,,,,,,,,,,,,,,,,,,,,,,,,,,1,,,,,,,,,,,,,,,,,,,,,,,,,,,,,,,,,,,,,,,,,,,,,,104,145921,21,Female,1,2024/03/19_14:36:33,YZ,None,
3,./instructions/inst_prac_main/Slide53.png,right,0.20046900199668016,750.3210054600058,750.5214744620025,,,,,,,,,,,,,,,,,,,,,,,,,,,,,,,,,1,,,,,,,,,,,,,,,,,,,,,,,,,,,,,,,,,,,,,,,,,,,,,,104,145921,21,Female,1,2024/03/19_14:36:33,YZ,None,
2,./instructions/inst_prac_main/Slide54.png,left,1.4238140209999983,750.5451078520055,751.9689218730055,,,,,,,,,,,,,,,,,,,,,,,,,,,,,,,,,1,,,,,,,,,,,,,,,,,,,,,,,,,,,,,,,,,,,,,,,,,,,,,,104,145921,21,Female,1,2024/03/19_14:36:33,YZ,None,
1,./instructions/inst_prac_main/Slide53.png,left,0.6257174249985837,751.991103832006,752.6168212570046,,,,,,,,,,,,,,,,,,,,,,,,,,,,,,,,,1,,,,,,,,,,,,,,,,,,,,,,,,,,,,,,,,,,,,,,,,,,,,,,104,145921,21,Female,1,2024/03/19_14:36:33,YZ,None,
2,./instructions/inst_prac_main/Slide52.png,right,1.1296195359973353,752.6390999400028,753.7687194760001,,,,,,,,,,,,,,,,,,,,,,,,,,,,,,,,,1,,,,,,,,,,,,,,,,,,,,,,,,,,,,,,,,,,,,,,,,,,,,,,104,145921,21,Female,1,2024/03/19_14:36:33,YZ,None,
1,./instructions/inst_prac_main/Slide53.png,left,4.4188444090032135,753.7980800930018,758.216924502005,,,,,,,,,,,,,,,,,,,,,,,,,,,,,,,,,1,,,,,,,,,,,,,,,,,,,,,,,,,,,,,,,,,,,,,,,,,,,,,,104,145921,21,Female,1,2024/03/19_14:36:33,YZ,None,
0,./instructions/inst_prac_main/Slide52.png,left,0.20078469500003848,758.2454314679999,758.4462161629999,,,,,,,,,,,,,,,,,,,,,,,,,,,,,,,,,1,,,,,,,,,,,,,,,,,,,,,,,,,,,,,,,,,,,,,,,,,,,,,,104,145921,21,Female,1,2024/03/19_14:36:33,YZ,None,
-1,./instructions/inst_prac_main/Slide51.png,left,0.20030629000393674,758.4652410449999,758.6655473350038,,,,,,,,,,,,,,,,,,,,,,,,,,,,,,,,,1,,,,,,,,,,,,,,,,,,,,,,,,,,,,,,,,,,,,,,,,,,,,,,104,145921,21,Female,1,2024/03/19_14:36:33,YZ,None,
-2,./instructions/inst_prac_main/Slide54.png,left,0.7840071390019148,758.6889500809993,759.4729572200013,,,,,,,,,,,,,,,,,,,,,,,,,,,,,,,,,1,,,,,,,,,,,,,,,,,,,,,,,,,,,,,,,,,,,,,,,,,,,,,,104,145921,21,Female,1,2024/03/19_14:36:33,YZ,None,
-3,./instructions/inst_prac_main/Slide53.png,left,2.6265134280038183,759.5024889330016,762.1290023610054,,,,,,,,,,,,,,,,,,,,,,,,,,,,,,,,,1,,,,,,,,,,,,,,,,,,,,,,,,,,,,,,,,,,,,,,,,,,,,,,104,145921,21,Female,1,2024/03/19_14:36:33,YZ,None,
-2,./instructions/inst_prac_main/Slide52.png,right,1.3373821210043388,762.1514518240001,763.4888339450044,,,,,,,,,,,,,,,,,,,,,,,,,,,,,,,,,1,,,,,,,,,,,,,,,,,,,,,,,,,,,,,,,,,,,,,,,,,,,,,,104,145921,21,Female,1,2024/03/19_14:36:33,YZ,None,
-1,./instructions/inst_prac_main/Slide53.png,right,0.6848631699976977,763.5158754740041,764.2007386440018,,,,,,,,,,,,,,,,,,,,,,,,,,,,,,,,,1,,,,,,,,,,,,,,,,,,,,,,,,,,,,,,,,,,,,,,,,,,,,,,104,145921,21,Female,1,2024/03/19_14:36:33,YZ,None,
0,./instructions/inst_prac_main/Slide54.png,right,10.282894381001825,764.2299786549993,774.5128730360011,,,,,,,,,,,,,,,,,,,,,,,,,,,,,,,,,1,,,,,,,,,,,,,,,,,,,,,,,,,,,,,,,,,,,,,,,,,,,,,,104,145921,21,Female,1,2024/03/19_14:36:33,YZ,None,
1,./instructions/inst_prac_main/Slide51.png,right,1.9581597079959465,774.5386058100048,776.4967655180008,,,,,,,,,,,,,,,,,,,,,,,,,,,,,,,,,1,,,,,,,,,,,,,,,,,,,,,,,,,,,,,,,,,,,,,,,,,,,,,,104,145921,21,Female,1,2024/03/19_14:36:33,YZ,None,
2,./instructions/inst_prac_main/Slide52.png,right,3.107733826000185,776.5250536240055,779.6327874500057,,,,,,,,,,,,,,,,,,,,,,,,,,,,,,,,,1,,,,,,,,,,,,,,,,,,,,,,,,,,,,,,,,,,,,,,,,,,,,,,104,145921,21,Female,1,2024/03/19_14:36:33,YZ,None,
3,./instructions/inst_prac_main/Slide53.png,right,1.0679131629949552,779.6607102910057,780.7286234540006,,,,,,,,,,,,,,,,,,,,,,,,,,,,,,,,,1,,,,,,,,,,,,,,,,,,,,,,,,,,,,,,,,,,,,,,,,,,,,,,104,145921,21,Female,1,2024/03/19_14:36:33,YZ,None,
4,./instructions/inst_prac_main/Slide54.png,right,1.146838000000571,780.7580343490044,781.904872349005,,,,,,,,,,,,,,,,,,,,,,,,,,,,,,,,,1,,,,,,,,,,,,,,,,,,,,,,,,,,,,,,,,,,,,,,,,,,,,,,104,145921,21,Female,1,2024/03/19_14:36:33,YZ,None,
,,,,,,practice_main,0,1,1,500,1,N,0,None,nan,0,1,,,,,,,,,,,,,,,,,,,,,1,,,,,,,,,,,,,,,,,,,,,,,,,,,,,,,,,,,,,,,,,,,,,,104,145921,21,Female,1,2024/03/19_14:36:33,YZ,None,
,,,,,,practice_main,0,1,1,500,2,S,0,right,0.530962389006163,1,0,,,,,,,,,,,,,,,,,,,,,1,,,,,,,,,,,,,,,,,,,,,,,,,,,,,,,,,,,,,,,,,,,,,,104,145921,21,Female,1,2024/03/19_14:36:33,YZ,None,
,,,,,,practice_main,0,1,1,500,3,V,0,right,0.3663550990022486,1,0,,,,,,,,,,,,,,,,,,,,,1,,,,,,,,,,,,,,,,,,,,,,,,,,,,,,,,,,,,,,,,,,,,,,104,145921,21,Female,1,2024/03/19_14:36:33,YZ,None,
,,,,,,practice_main,0,1,1,500,4,J,0,right,0.4874668750053388,1,0,,,,,,,,,,,,,,,,,,,,,1,,,,,,,,,,,,,,,,,,,,,,,,,,,,,,,,,,,,,,,,,,,,,,104,145921,21,Female,1,2024/03/19_14:36:33,YZ,None,
,,,,,,practice_main,0,1,1,500,5,C,0,right,0.39956036399962613,1,0,,,,,,,,,,,,,,,,,,,,,1,,,,,,,,,,,,,,,,,,,,,,,,,,,,,,,,,,,,,,,,,,,,,,104,145921,21,Female,1,2024/03/19_14:36:33,YZ,None,
,,,,,,practice_main,0,1,1,500,6,C,1,left,0.46760594599618344,1,0,,,,,,,,,,,,,,,,,,,,,1,,,,,,,,,,,,,,,,,,,,,,,,,,,,,,,,,,,,,,,,,,,,,,104,145921,21,Female,1,2024/03/19_14:36:33,YZ,None,
,,,,,,practice_main,0,1,1,500,7,J,0,right,0.4464617690027808,1,0,,,,,,,,,,,,,,,,,,,,,1,,,,,,,,,,,,,,,,,,,,,,,,,,,,,,,,,,,,,,,,,,,,,,104,145921,21,Female,1,2024/03/19_14:36:33,YZ,None,
,,,,,,practice_main,0,1,1,500,8,J,1,left,0.7748559920000844,1,0,,,,,,,,,,,,,,,,,,,,,1,,,,,,,,,,,,,,,,,,,,,,,,,,,,,,,,,,,,,,,,,,,,,,104,145921,21,Female,1,2024/03/19_14:36:33,YZ,None,
,,,,,,practice_main,0,1,1,500,9,S,0,right,0.7729838450031821,1,0,,,,,,,,,,,,,,,,,,,,,1,,,,,,,,,,,,,,,,,,,,,,,,,,,,,,,,,,,,,,,,,,,,,,104,145921,21,Female,1,2024/03/19_14:36:33,YZ,None,
,,,,,,practice_main,0,1,1,500,10,C,0,right,0.4178954099988914,1,0,,,,,,,,,,,,,,,,,,,,,1,,,,,,,,,,,,,,,,,,,,,,,,,,,,,,,,,,,,,,,,,,,,,,104,145921,21,Female,1,2024/03/19_14:36:33,YZ,None,
,,,,,,practice_main,0,1,1,500,11,C,1,left,0.5467554049973842,1,0,,,,,,,,,,,,,,,,,,,,,1,,,,,,,,,,,,,,,,,,,,,,,,,,,,,,,,,,,,,,,,,,,,,,104,145921,21,Female,1,2024/03/19_14:36:33,YZ,None,
,,,,,,practice_main,0,1,1,500,12,X,0,right,0.4938571500024409,1,0,,,,,,,,,,,,,,,,,,,,,1,,,,,,,,,,,,,,,,,,,,,,,,,,,,,,,,,,,,,,,,,,,,,,104,145921,21,Female,1,2024/03/19_14:36:33,YZ,None,
,,,,,,practice_main,0,1,1,500,13,J,0,right,0.5244608930006507,1,0,,,,,,,,,,,,,,,,,,,,,1,,,,,,,,,,,,,,,,,,,,,,,,,,,,,,,,,,,,,,,,,,,,,,104,145921,21,Female,1,2024/03/19_14:36:33,YZ,None,
,,,,,,practice_main,0,1,1,500,14,J,1,left,0.5357979649998015,1,0,,,,,,,,,,,,,,,,,,,,,1,,,,,,,,,,,,,,,,,,,,,,,,,,,,,,,,,,,,,,,,,,,,,,104,145921,21,Female,1,2024/03/19_14:36:33,YZ,None,
,,,,,,practice_main,0,1,1,500,15,X,0,right,0.4732316559966421,1,0,,,,,,,,,,,,,,,,,,,,,1,,,,,,,,,,,,,,,,,,,,,,,,,,,,,,,,,,,,,,,,,,,,,,104,145921,21,Female,1,2024/03/19_14:36:33,YZ,None,
,,,,,,practice_main,0,1,1,500,16,J,0,right,0.4274013630056288,1,0,,,,,,,,,,,,,,,,,,,,,1,,,,,,,,,,,,,,,,,,,,,,,,,,,,,,,,,,,,,,,,,,,,,,104,145921,21,Female,1,2024/03/19_14:36:33,YZ,None,
,,,,,,practice_main,0,1,1,500,,,,,,,,1.0,1.0,0.0,1.0,0.0625,0.9375,0.5110434747344698,4,0,0,1,1,11,15,4,12,0,,,,1,,,,,,,,,,,,,,,,,,,,,,,,,,,,,,,,,,,,,,,,,,,,,,104,145921,21,Female,1,2024/03/19_14:36:33,YZ,None,
,,,,,240319_164203,PRACTICE,0,1,1,500,,,,,,,,,,,,,,,,,,,,,,,,,,,,1,11,1,1,cue2.png,easy,B,56,1.1593571859993972,0,784.974894936,786.1596583680002,,,,,,,,,,,,,,,,,,,,,,,,,,,,,,,,,,,104,145921,21,Female,1,2024/03/19_14:36:33,YZ,None,
,,,,,,practice_main,0,2,3,500,1,F,0,right,0.7572286360009457,1,0,,,,,,,,,,,,,,,,,,,,,1,,,,,,,,,,,,,,,,,,,,,,,,,,,,,,,,,,,,,,,,,,,,,,104,145921,21,Female,1,2024/03/19_14:36:33,YZ,None,
,,,,,,practice_main,0,2,3,500,2,C,0,right,0.4668271859991364,1,0,,,,,,,,,,,,,,,,,,,,,1,,,,,,,,,,,,,,,,,,,,,,,,,,,,,,,,,,,,,,,,,,,,,,104,145921,21,Female,1,2024/03/19_14:36:33,YZ,None,
,,,,,,practice_main,0,2,3,500,3,X,0,right,0.4956143279996468,1,0,,,,,,,,,,,,,,,,,,,,,1,,,,,,,,,,,,,,,,,,,,,,,,,,,,,,,,,,,,,,,,,,,,,,104,145921,21,Female,1,2024/03/19_14:36:33,YZ,None,
,,,,,,practice_main,0,2,3,500,4,S,0,left,0.9096173549987725,0,0,,,,,,,,,,,,,,,,,,,,,1,,,,,,,,,,,,,,,,,,,,,,,,,,,,,,,,,,,,,,,,,,,,,,104,145921,21,Female,1,2024/03/19_14:36:33,YZ,None,
,,,,,,practice_main,0,2,3,500,5,C,1,right,0.7438956959958887,0,0,,,,,,,,,,,,,,,,,,,,,1,,,,,,,,,,,,,,,,,,,,,,,,,,,,,,,,,,,,,,,,,,,,,,104,145921,21,Female,1,2024/03/19_14:36:33,YZ,None,
,,,,,,practice_main,0,2,3,500,6,F,0,right,nan,0,1,,,,,,,,,,,,,,,,,,,,,1,,,,,,,,,,,,,,,,,,,,,,,,,,,,,,,,,,,,,,,,,,,,,,104,145921,21,Female,1,2024/03/19_14:36:33,YZ,None,
,,,,,,practice_main,0,2,3,500,7,X,0,right,nan,0,1,,,,,,,,,,,,,,,,,,,,,1,,,,,,,,,,,,,,,,,,,,,,,,,,,,,,,,,,,,,,,,,,,,,,104,145921,21,Female,1,2024/03/19_14:36:33,YZ,None,
,,,,,,practice_main,0,2,3,500,8,N,0,right,nan,0,1,,,,,,,,,,,,,,,,,,,,,1,,,,,,,,,,,,,,,,,,,,,,,,,,,,,,,,,,,,,,,,,,,,,,104,145921,21,Female,1,2024/03/19_14:36:33,YZ,None,
,,,,,,practice_main,0,2,3,500,9,F,1,left,0.8987632760035922,1,0,,,,,,,,,,,,,,,,,,,,,1,,,,,,,,,,,,,,,,,,,,,,,,,,,,,,,,,,,,,,,,,,,,,,104,145921,21,Female,1,2024/03/19_14:36:33,YZ,None,
,,,,,,practice_main,0,2,3,500,10,S,0,right,0.9910058059977018,1,0,,,,,,,,,,,,,,,,,,,,,1,,,,,,,,,,,,,,,,,,,,,,,,,,,,,,,,,,,,,,,,,,,,,,104,145921,21,Female,1,2024/03/19_14:36:33,YZ,None,
,,,,,,practice_main,0,2,3,500,11,S,0,left,0.6354923280014191,0,0,,,,,,,,,,,,,,,,,,,,,1,,,,,,,,,,,,,,,,,,,,,,,,,,,,,,,,,,,,,,,,,,,,,,104,145921,21,Female,1,2024/03/19_14:36:33,YZ,None,
,,,,,,practice_main,0,2,3,500,12,F,1,right,0.7100216490071034,0,0,,,,,,,,,,,,,,,,,,,,,1,,,,,,,,,,,,,,,,,,,,,,,,,,,,,,,,,,,,,,,,,,,,,,104,145921,21,Female,1,2024/03/19_14:36:33,YZ,None,
,,,,,,practice_main,0,2,3,500,13,X,0,right,0.758463172998745,1,0,,,,,,,,,,,,,,,,,,,,,1,,,,,,,,,,,,,,,,,,,,,,,,,,,,,,,,,,,,,,,,,,,,,,104,145921,21,Female,1,2024/03/19_14:36:33,YZ,None,
,,,,,,practice_main,0,2,3,500,14,J,0,right,0.8684681249942514,1,0,,,,,,,,,,,,,,,,,,,,,1,,,,,,,,,,,,,,,,,,,,,,,,,,,,,,,,,,,,,,,,,,,,,,104,145921,21,Female,1,2024/03/19_14:36:33,YZ,None,
,,,,,,practice_main,0,2,3,500,15,F,1,left,0.725368042003538,1,0,,,,,,,,,,,,,,,,,,,,,1,,,,,,,,,,,,,,,,,,,,,,,,,,,,,,,,,,,,,,,,,,,,,,104,145921,21,Female,1,2024/03/19_14:36:33,YZ,None,
,,,,,,practice_main,0,2,3,500,16,Q,0,right,0.5566946249964531,1,0,,,,,,,,,,,,,,,,,,,,,1,,,,,,,,,,,,,,,,,,,,,,,,,,,,,,,,,,,,,,,,,,,,,,104,145921,21,Female,1,2024/03/19_14:36:33,YZ,None,
,,,,,,practice_main,0,2,3,500,,,,,,,,0.75,0.5,0.16666666666666666,0.7777777777777778,0.1875,0.6458333333333334,0.7321123249997842,2,2,0,3,3,7,9,4,12,0,,,,1,,,,,,,,,,,,,,,,,,,,,,,,,,,,,,,,,,,,,,,,,,,,,,104,145921,21,Female,1,2024/03/19_14:36:33,YZ,None,
,,,,,240319_164234,PRACTICE,0,2,3,500,,,,,,,,,,,,,,,,,,,,,,,,,,,,1,41,2,2,cue1.png,hard,B,75,1.0721804119966691,0,812.389745242006,813.4778395310059,,,,,,,,,,,,,,,,,,,,,,,,,,,,,,,,,,,104,145921,21,Female,1,2024/03/19_14:36:33,YZ,None,
,,,,,,practice_main,0,3,3,500,1,S,0,right,0.6817900580062997,1,0,,,,,,,,,,,,,,,,,,,,,1,,,,,,,,,,,,,,,,,,,,,,,,,,,,,,,,,,,,,,,,,,,,,,104,145921,21,Female,1,2024/03/19_14:36:33,YZ,None,
,,,,,,practice_main,0,3,3,500,2,J,0,right,0.3163780569957453,1,0,,,,,,,,,,,,,,,,,,,,,1,,,,,,,,,,,,,,,,,,,,,,,,,,,,,,,,,,,,,,,,,,,,,,104,145921,21,Female,1,2024/03/19_14:36:33,YZ,None,
,,,,,,practice_main,0,3,3,500,3,J,0,right,nan,0,1,,,,,,,,,,,,,,,,,,,,,1,,,,,,,,,,,,,,,,,,,,,,,,,,,,,,,,,,,,,,,,,,,,,,104,145921,21,Female,1,2024/03/19_14:36:33,YZ,None,
,,,,,,practice_main,0,3,3,500,4,X,0,right,0.5758292919999803,1,0,,,,,,,,,,,,,,,,,,,,,1,,,,,,,,,,,,,,,,,,,,,,,,,,,,,,,,,,,,,,,,,,,,,,104,145921,21,Female,1,2024/03/19_14:36:33,YZ,None,
,,,,,,practice_main,0,3,3,500,5,N,0,right,0.9754937370016705,1,0,,,,,,,,,,,,,,,,,,,,,1,,,,,,,,,,,,,,,,,,,,,,,,,,,,,,,,,,,,,,,,,,,,,,104,145921,21,Female,1,2024/03/19_14:36:33,YZ,None,
,,,,,,practice_main,0,3,3,500,6,J,1,left,0.9184132169975783,1,0,,,,,,,,,,,,,,,,,,,,,1,,,,,,,,,,,,,,,,,,,,,,,,,,,,,,,,,,,,,,,,,,,,,,104,145921,21,Female,1,2024/03/19_14:36:33,YZ,None,
,,,,,,practice_main,0,3,3,500,7,Q,0,right,0.788279900996713,1,0,,,,,,,,,,,,,,,,,,,,,1,,,,,,,,,,,,,,,,,,,,,,,,,,,,,,,,,,,,,,,,,,,,,,104,145921,21,Female,1,2024/03/19_14:36:33,YZ,None,
,,,,,,practice_main,0,3,3,500,8,N,1,right,0.9716669469999033,0,0,,,,,,,,,,,,,,,,,,,,,1,,,,,,,,,,,,,,,,,,,,,,,,,,,,,,,,,,,,,,,,,,,,,,104,145921,21,Female,1,2024/03/19_14:36:33,YZ,None,
,,,,,,practice_main,0,3,3,500,9,V,0,right,0.9561979840000276,1,0,,,,,,,,,,,,,,,,,,,,,1,,,,,,,,,,,,,,,,,,,,,,,,,,,,,,,,,,,,,,,,,,,,,,104,145921,21,Female,1,2024/03/19_14:36:33,YZ,None,
,,,,,,practice_main,0,3,3,500,10,V,0,right,nan,0,1,,,,,,,,,,,,,,,,,,,,,1,,,,,,,,,,,,,,,,,,,,,,,,,,,,,,,,,,,,,,,,,,,,,,104,145921,21,Female,1,2024/03/19_14:36:33,YZ,None,
,,,,,,practice_main,0,3,3,500,11,N,1,right,nan,0,1,,,,,,,,,,,,,,,,,,,,,1,,,,,,,,,,,,,,,,,,,,,,,,,,,,,,,,,,,,,,,,,,,,,,104,145921,21,Female,1,2024/03/19_14:36:33,YZ,None,
,,,,,,practice_main,0,3,3,500,12,C,0,right,nan,0,1,,,,,,,,,,,,,,,,,,,,,1,,,,,,,,,,,,,,,,,,,,,,,,,,,,,,,,,,,,,,,,,,,,,,104,145921,21,Female,1,2024/03/19_14:36:33,YZ,None,
,,,,,,practice_main,0,3,3,500,13,V,1,right,nan,0,1,,,,,,,,,,,,,,,,,,,,,1,,,,,,,,,,,,,,,,,,,,,,,,,,,,,,,,,,,,,,,,,,,,,,104,145921,21,Female,1,2024/03/19_14:36:33,YZ,None,
,,,,,,practice_main,0,3,3,500,14,N,1,right,nan,0,1,,,,,,,,,,,,,,,,,,,,,1,,,,,,,,,,,,,,,,,,,,,,,,,,,,,,,,,,,,,,,,,,,,,,104,145921,21,Female,1,2024/03/19_14:36:33,YZ,None,
,,,,,,practice_main,0,3,3,500,15,Q,0,right,nan,0,1,,,,,,,,,,,,,,,,,,,,,1,,,,,,,,,,,,,,,,,,,,,,,,,,,,,,,,,,,,,,,,,,,,,,104,145921,21,Female,1,2024/03/19_14:36:33,YZ,None,
,,,,,,practice_main,0,3,3,500,16,Q,0,left,0.0,0,0,,,,,,,,,,,,,,,,,,,,,1,,,,,,,,,,,,,,,,,,,,,,,,,,,,,,,,,,,,,,,,,,,,,,104,145921,21,Female,1,2024/03/19_14:36:33,YZ,None,
,,,,,,practice_main,0,3,3,500,,,,,,,,0.6636363636363636,0.2,0.09090909090909091,0.8571428571428571,0.4375,0.47159090909090906,0.6871165769997687,1,1,3,4,7,6,7,5,11,0,,,,1,,,,,,,,,,,,,,,,,,,,,,,,,,,,,,,,,,,,,,,,,,,,,,104,145921,21,Female,1,2024/03/19_14:36:33,YZ,None,
,,,,,240319_164306,PRACTICE,0,3,3,500,,,,,,,,,,,,,,,,,,,,,,,,,,,,1,24,3,3,cue1.png,hard,B,76,1.1818579559985665,0,843.595099820006,844.7938335360013,,,,,,,,,,,,,,,,,,,,,,,,,,,,,,,,,,,104,145921,21,Female,1,2024/03/19_14:36:33,YZ,None,
1,./instructions/inst_prac_end/Slide56.png,right,18.009368049999466,874.0955216660004,892.1048897159999,,,,,,,,,,,,,,,,,,,,,,,,,,,,,,,,,1,,,,,,,,,,,,,,,,,,,,,,,,,,,,,,,,,,,,,,,,,,,,,,104,145921,21,Female,1,2024/03/19_14:36:33,YZ,None,
1,./instructions/inst_test/Slide57.png,right,32.382470797005226,892.138454038999,924.5209248360043,,,,,,,,,,,,,,,,,,,,,,,,,,,,,,,,,1,,,,,,,,,,,,,,,,,,,,,,,,,,,,,,,,,,,,,,,,,,,,,,104,145921,21,Female,1,2024/03/19_14:36:33,YZ,None,
,,,,,,test,1,1,1,500,1,J,0,right,0.5668360260024201,1,0,,,,,,,,,,,,,,,,,,,,,1,,,,,,,,,,,,,,,,,,,,,,,,,,,,,,,,,,,,,,,,,,,,,,104,145921,21,Female,1,2024/03/19_14:36:33,YZ,None,
,,,,,,test,1,1,1,500,2,C,0,right,0.3823167459995602,1,0,,,,,,,,,,,,,,,,,,,,,1,,,,,,,,,,,,,,,,,,,,,,,,,,,,,,,,,,,,,,,,,,,,,,104,145921,21,Female,1,2024/03/19_14:36:33,YZ,None,
,,,,,,test,1,1,1,500,3,V,0,right,0.3827882830009912,1,0,,,,,,,,,,,,,,,,,,,,,1,,,,,,,,,,,,,,,,,,,,,,,,,,,,,,,,,,,,,,,,,,,,,,104,145921,21,Female,1,2024/03/19_14:36:33,YZ,None,
,,,,,,test,1,1,1,500,4,Q,0,right,0.37156635399878724,1,0,,,,,,,,,,,,,,,,,,,,,1,,,,,,,,,,,,,,,,,,,,,,,,,,,,,,,,,,,,,,,,,,,,,,104,145921,21,Female,1,2024/03/19_14:36:33,YZ,None,
,,,,,,test,1,1,1,500,5,Q,1,left,0.5307743599987589,1,0,,,,,,,,,,,,,,,,,,,,,1,,,,,,,,,,,,,,,,,,,,,,,,,,,,,,,,,,,,,,,,,,,,,,104,145921,21,Female,1,2024/03/19_14:36:33,YZ,None,
,,,,,,test,1,1,1,500,6,F,0,right,0.43828879600187065,1,0,,,,,,,,,,,,,,,,,,,,,1,,,,,,,,,,,,,,,,,,,,,,,,,,,,,,,,,,,,,,,,,,,,,,104,145921,21,Female,1,2024/03/19_14:36:33,YZ,None,
,,,,,,test,1,1,1,500,7,F,1,left,0.4071351370002958,1,0,,,,,,,,,,,,,,,,,,,,,1,,,,,,,,,,,,,,,,,,,,,,,,,,,,,,,,,,,,,,,,,,,,,,104,145921,21,Female,1,2024/03/19_14:36:33,YZ,None,
,,,,,,test,1,1,1,500,8,Q,0,right,0.39197621699713636,1,0,,,,,,,,,,,,,,,,,,,,,1,,,,,,,,,,,,,,,,,,,,,,,,,,,,,,,,,,,,,,,,,,,,,,104,145921,21,Female,1,2024/03/19_14:36:33,YZ,None,
,,,,,,test,1,1,1,500,9,Q,1,right,0.354143988006399,0,0,,,,,,,,,,,,,,,,,,,,,1,,,,,,,,,,,,,,,,,,,,,,,,,,,,,,,,,,,,,,,,,,,,,,104,145921,21,Female,1,2024/03/19_14:36:33,YZ,None,
,,,,,,test,1,1,1,500,10,X,0,right,0.6082657019942417,1,0,,,,,,,,,,,,,,,,,,,,,1,,,,,,,,,,,,,,,,,,,,,,,,,,,,,,,,,,,,,,,,,,,,,,104,145921,21,Female,1,2024/03/19_14:36:33,YZ,None,
,,,,,,test,1,1,1,500,11,F,0,right,0.9801504589995602,1,0,,,,,,,,,,,,,,,,,,,,,1,,,,,,,,,,,,,,,,,,,,,,,,,,,,,,,,,,,,,,,,,,,,,,104,145921,21,Female,1,2024/03/19_14:36:33,YZ,None,
,,,,,,test,1,1,1,500,12,Q,0,right,0.4179692409961717,1,0,,,,,,,,,,,,,,,,,,,,,1,,,,,,,,,,,,,,,,,,,,,,,,,,,,,,,,,,,,,,,,,,,,,,104,145921,21,Female,1,2024/03/19_14:36:33,YZ,None,
,,,,,,test,1,1,1,500,13,Q,1,left,0.5259946130026947,1,0,,,,,,,,,,,,,,,,,,,,,1,,,,,,,,,,,,,,,,,,,,,,,,,,,,,,,,,,,,,,,,,,,,,,104,145921,21,Female,1,2024/03/19_14:36:33,YZ,None,
,,,,,,test,1,1,1,500,14,J,0,right,0.5124384020018624,1,0,,,,,,,,,,,,,,,,,,,,,1,,,,,,,,,,,,,,,,,,,,,,,,,,,,,,,,,,,,,,,,,,,,,,104,145921,21,Female,1,2024/03/19_14:36:33,YZ,None,
,,,,,,test,1,1,1,500,15,X,0,right,0.7420350379979936,1,0,,,,,,,,,,,,,,,,,,,,,1,,,,,,,,,,,,,,,,,,,,,,,,,,,,,,,,,,,,,,,,,,,,,,104,145921,21,Female,1,2024/03/19_14:36:33,YZ,None,
,,,,,,test,1,1,1,500,16,F,0,right,0.44159684300393565,1,0,,,,,,,,,,,,,,,,,,,,,1,,,,,,,,,,,,,,,,,,,,,,,,,,,,,,,,,,,,,,,,,,,,,,104,145921,21,Female,1,2024/03/19_14:36:33,YZ,None,
,,,,,,Test,1,1,1,500,,,,,,,,0.9375,0.75,0.0,1.0,0.0,1.0,0.5033922628126675,3,0,0,0,0,12,15,4,12,0,,,,1,,,,,,,,,,,,,,,,,,,,,,,,,,,,,,,,,,,,,,,,,,,,,,104,145921,21,Female,1,2024/03/19_14:36:33,YZ,None,
,,,,,240319_164427,TEST,1,1,1,500,,,,,,,,,,,,,,,,,,,,,,,,,,,,1,1,1,1,cue2.png,easy,B,53,0.9516563009965466,0,929.5806634649998,930.5484092350016,,,,,,,,,,,,,,,,,,,,,,,,,,,,,,,,,,,104,145921,21,Female,1,2024/03/19_14:36:33,YZ,None,
,,,,,,test,1,2,3,500,1,Q,0,right,0.47288832000049297,1,0,,,,,,,,,,,,,,,,,,,,,1,,,,,,,,,,,,,,,,,,,,,,,,,,,,,,,,,,,,,,,,,,,,,,104,145921,21,Female,1,2024/03/19_14:36:33,YZ,None,
,,,,,,test,1,2,3,500,2,Q,0,right,0.7139197030046489,1,0,,,,,,,,,,,,,,,,,,,,,1,,,,,,,,,,,,,,,,,,,,,,,,,,,,,,,,,,,,,,,,,,,,,,104,145921,21,Female,1,2024/03/19_14:36:33,YZ,None,
,,,,,,test,1,2,3,500,3,J,0,right,0.8250642960047117,1,0,,,,,,,,,,,,,,,,,,,,,1,,,,,,,,,,,,,,,,,,,,,,,,,,,,,,,,,,,,,,,,,,,,,,104,145921,21,Female,1,2024/03/19_14:36:33,YZ,None,
,,,,,,test,1,2,3,500,4,Q,1,left,0.5688754779985175,1,0,,,,,,,,,,,,,,,,,,,,,1,,,,,,,,,,,,,,,,,,,,,,,,,,,,,,,,,,,,,,,,,,,,,,104,145921,21,Female,1,2024/03/19_14:36:33,YZ,None,
,,,,,,test,1,2,3,500,5,S,0,right,0.6842191949981498,1,0,,,,,,,,,,,,,,,,,,,,,1,,,,,,,,,,,,,,,,,,,,,,,,,,,,,,,,,,,,,,,,,,,,,,104,145921,21,Female,1,2024/03/19_14:36:33,YZ,None,
,,,,,,test,1,2,3,500,6,V,0,right,0.8776801529966178,1,0,,,,,,,,,,,,,,,,,,,,,1,,,,,,,,,,,,,,,,,,,,,,,,,,,,,,,,,,,,,,,,,,,,,,104,145921,21,Female,1,2024/03/19_14:36:33,YZ,None,
,,,,,,test,1,2,3,500,7,Q,1,right,0.8656860269984463,0,0,,,,,,,,,,,,,,,,,,,,,1,,,,,,,,,,,,,,,,,,,,,,,,,,,,,,,,,,,,,,,,,,,,,,104,145921,21,Female,1,2024/03/19_14:36:33,YZ,None,
,,,,,,test,1,2,3,500,8,C,0,left,0.5579189950003638,0,0,,,,,,,,,,,,,,,,,,,,,1,,,,,,,,,,,,,,,,,,,,,,,,,,,,,,,,,,,,,,,,,,,,,,104,145921,21,Female,1,2024/03/19_14:36:33,YZ,None,
,,,,,,test,1,2,3,500,9,J,0,right,0.6263888559988118,1,0,,,,,,,,,,,,,,,,,,,,,1,,,,,,,,,,,,,,,,,,,,,,,,,,,,,,,,,,,,,,,,,,,,,,104,145921,21,Female,1,2024/03/19_14:36:33,YZ,None,
,,,,,,test,1,2,3,500,10,S,0,right,nan,0,1,,,,,,,,,,,,,,,,,,,,,1,,,,,,,,,,,,,,,,,,,,,,,,,,,,,,,,,,,,,,,,,,,,,,104,145921,21,Female,1,2024/03/19_14:36:33,YZ,None,
,,,,,,test,1,2,3,500,11,C,1,right,0.7586495709983865,0,0,,,,,,,,,,,,,,,,,,,,,1,,,,,,,,,,,,,,,,,,,,,,,,,,,,,,,,,,,,,,,,,,,,,,104,145921,21,Female,1,2024/03/19_14:36:33,YZ,None,
,,,,,,test,1,2,3,500,12,J,1,right,nan,0,1,,,,,,,,,,,,,,,,,,,,,1,,,,,,,,,,,,,,,,,,,,,,,,,,,,,,,,,,,,,,,,,,,,,,104,145921,21,Female,1,2024/03/19_14:36:33,YZ,None,
,,,,,,test,1,2,3,500,13,V,0,right,0.7140660940058297,1,0,,,,,,,,,,,,,,,,,,,,,1,,,,,,,,,,,,,,,,,,,,,,,,,,,,,,,,,,,,,,,,,,,,,,104,145921,21,Female,1,2024/03/19_14:36:33,YZ,None,
,,,,,,test,1,2,3,500,14,Q,0,left,0.8737132839960395,0,0,,,,,,,,,,,,,,,,,,,,,1,,,,,,,,,,,,,,,,,,,,,,,,,,,,,,,,,,,,,,,,,,,,,,104,145921,21,Female,1,2024/03/19_14:36:33,YZ,None,
,,,,,,test,1,2,3,500,15,S,0,left,nan,0,1,,,,,,,,,,,,,,,,,,,,,1,,,,,,,,,,,,,,,,,,,,,,,,,,,,,,,,,,,,,,,,,,,,,,104,145921,21,Female,1,2024/03/19_14:36:33,YZ,None,
,,,,,,test,1,2,3,500,16,V,1,left,nan,0,1,,,,,,,,,,,,,,,,,,,,,1,,,,,,,,,,,,,,,,,,,,,,,,,,,,,,,,,,,,,,,,,,,,,,104,145921,21,Female,1,2024/03/19_14:36:33,YZ,None,
,,,,,,Test,1,2,3,500,,,,,,,,0.5272727272727272,0.2,0.18181818181818182,0.7777777777777778,0.25,0.5681818181818181,0.711589164333418,1,2,2,2,4,7,8,5,11,0,,,,1,,,,,,,,,,,,,,,,,,,,,,,,,,,,,,,,,,,,,,,,,,,,,,104,145921,21,Female,1,2024/03/19_14:36:33,YZ,None,
,,,,,240319_164458,TEST,1,2,3,500,,,,,,,,,,,,,,,,,,,,,,,,,,,,1,2,2,2,cue1.png,hard,B,46,1.1569005720011774,0,956.182733984002,957.3597850270016,,,,,,,,,,,,,,,,,,,,,,,,,,,,,,,,,,,104,145921,21,Female,1,2024/03/19_14:36:33,YZ,None,
,,,,,,test,1,3,3,500,1,F,0,right,0.7079335789967445,1,0,,,,,,,,,,,,,,,,,,,,,1,,,,,,,,,,,,,,,,,,,,,,,,,,,,,,,,,,,,,,,,,,,,,,104,145921,21,Female,1,2024/03/19_14:36:33,YZ,None,
,,,,,,test,1,3,3,500,2,F,0,right,nan,0,1,,,,,,,,,,,,,,,,,,,,,1,,,,,,,,,,,,,,,,,,,,,,,,,,,,,,,,,,,,,,,,,,,,,,104,145921,21,Female,1,2024/03/19_14:36:33,YZ,None,
,,,,,,test,1,3,3,500,3,Q,0,right,0.0,1,0,,,,,,,,,,,,,,,,,,,,,1,,,,,,,,,,,,,,,,,,,,,,,,,,,,,,,,,,,,,,,,,,,,,,104,145921,21,Female,1,2024/03/19_14:36:33,YZ,None,
