Instruction,Stimulus,Key,RT,START,END,Phase,Block,TrialN,NbackLevel,ISI,LetterN,Letter,Letter_isSame,Letter_Resp,Letter_RT,Letter_Accuracy,Letter_Timeout,Trial_A_measure,Trial_HR,Trial_FAR,Trial_CDR,Trial_MSR,Trial_ACC,Trial_RT,Trial_HitsCount,Trial_FAsCount,Trial_SameNoRespCount,Trial_DiffNoRespCount,Trial_NoRespCount,Trial_CDsCount,Trial_CorrectRespCount,Trial_SameLetterCount,Trial_DiffLetterCount,Trial_InvalidLetterCount,TrialCountCali,CaliEnd_A_measure,ISI_calibrated,Run,TrialIndex,TrialNumber_total,TrialNumber_valid,CueLearning,TrialDemandLearning,CueMapping,OnlineRating,OnlineRatingRT,OnlineRatingTimeOut,CueSTART,RatingSTART,OfflineRatingTimePoint,OfflineRatingQuesIndex,CueFigure,TrialDemand,OfflineRating,OfflineRatingRT,CueStart,OfflineRatingStart,PhaseType,CueLeft,CueDemandLeft,CueRight,CueDemandRight,Choice,ChoiceDemand,TaskDemand,ChoiceRT,ChoiceTimeOut,ChoiceSTART,CueCheck,CueDemandCheck,CorrectAnswer,Answer,AnswerDemand,AnswerRT,AnswerACC,AnswerTimeOut,CheckSTART,DemandRatingQuesIndex,QuesTLX,DemandLevel,DemandRating,DemandRatingRT,QuesStart,PID,SONA,Age,Gender,Run,TIME,EXPERIMENTER,frameRate,
1,./instructions/inst_begin/Slide2.png,right,17.81598089900217,0.11102455999935046,17.92700545900152,,,,,,,,,,,,,,,,,,,,,,,,,,,,,,,,,1,,,,,,,,,,,,,,,,,,,,,,,,,,,,,,,,,,,,,,,,,,,,,,72,157027,20,Female,1,2024/02/20_15:56:00,YZ,None,
2,./instructions/inst_begin/Slide3.png,right,11.490815241006203,17.956252928997856,29.44706817000406,,,,,,,,,,,,,,,,,,,,,,,,,,,,,,,,,1,,,,,,,,,,,,,,,,,,,,,,,,,,,,,,,,,,,,,,,,,,,,,,72,157027,20,Female,1,2024/02/20_15:56:00,YZ,None,
3,./instructions/inst_begin/Slide4.png,right,8.45050466498651,29.47651381501055,37.92701847999706,,,,,,,,,,,,,,,,,,,,,,,,,,,,,,,,,1,,,,,,,,,,,,,,,,,,,,,,,,,,,,,,,,,,,,,,,,,,,,,,72,157027,20,Female,1,2024/02/20_15:56:00,YZ,None,
1,./instructions/inst_prac_2/Slide6.png,right,19.634501711989287,37.95660328801023,57.591104999999516,,,,,,,,,,,,,,,,,,,,,,,,,,,,,,,,,1,,,,,,,,,,,,,,,,,,,,,,,,,,,,,,,,,,,,,,,,,,,,,,72,157027,20,Female,1,2024/02/20_15:56:00,YZ,None,
2,./instructions/inst_prac_2/Slide7.png,right,11.828290410994668,57.618784839010914,69.44707525000558,,,,,,,,,,,,,,,,,,,,,,,,,,,,,,,,,1,,,,,,,,,,,,,,,,,,,,,,,,,,,,,,,,,,,,,,,,,,,,,,72,157027,20,Female,1,2024/02/20_15:56:00,YZ,None,
3,./instructions/inst_prac_2/Slide8.png,right,14.506847992000985,69.4762755210104,83.98312351301138,,,,,,,,,,,,,,,,,,,,,,,,,,,,,,,,,1,,,,,,,,,,,,,,,,,,,,,,,,,,,,,,,,,,,,,,,,,,,,,,72,157027,20,Female,1,2024/02/20_15:56:00,YZ,None,
4,./instructions/inst_prac_2/Slide9.png,right,2.9150270230020396,84.01198080000177,86.9270078230038,,,,,,,,,,,,,,,,,,,,,,,,,,,,,,,,,1,,,,,,,,,,,,,,,,,,,,,,,,,,,,,,,,,,,,,,,,,,,,,,72,157027,20,Female,1,2024/02/20_15:56:00,YZ,None,
5,./instructions/inst_prac_2/Slide10.png,right,1.9711056780070066,86.95573530399997,88.92684098200698,,,,,,,,,,,,,,,,,,,,,,,,,,,,,,,,,1,,,,,,,,,,,,,,,,,,,,,,,,,,,,,,,,,,,,,,,,,,,,,,72,157027,20,Female,1,2024/02/20_15:56:00,YZ,None,
6,./instructions/inst_prac_2/Slide11.png,right,3.395475697994698,88.95548057901033,92.35095627700503,,,,,,,,,,,,,,,,,,,,,,,,,,,,,,,,,1,,,,,,,,,,,,,,,,,,,,,,,,,,,,,,,,,,,,,,,,,,,,,,72,157027,20,Female,1,2024/02/20_15:56:00,YZ,None,
7,./instructions/inst_prac_2/Slide12.png,right,1.2932246109994594,92.37770289300533,93.6709275040048,,,,,,,,,,,,,,,,,,,,,,,,,,,,,,,,,1,,,,,,,,,,,,,,,,,,,,,,,,,,,,,,,,,,,,,,,,,,,,,,72,157027,20,Female,1,2024/02/20_15:56:00,YZ,None,
8,./instructions/inst_prac_2/Slide13.png,right,1.09493117700913,93.69605301199772,94.79098418900685,,,,,,,,,,,,,,,,,,,,,,,,,,,,,,,,,1,,,,,,,,,,,,,,,,,,,,,,,,,,,,,,,,,,,,,,,,,,,,,,72,157027,20,Female,1,2024/02/20_15:56:00,YZ,None,
9,./instructions/inst_prac_2/Slide14.png,right,11.154884260991821,94.82013898401055,105.97502324500238,,,,,,,,,,,,,,,,,,,,,,,,,,,,,,,,,1,,,,,,,,,,,,,,,,,,,,,,,,,,,,,,,,,,,,,,,,,,,,,,72,157027,20,Female,1,2024/02/20_15:56:00,YZ,None,
10,./instructions/inst_prac_2/Slide15.png,right,6.491371862997767,106.00365971300926,112.49503157600702,,,,,,,,,,,,,,,,,,,,,,,,,,,,,,,,,1,,,,,,,,,,,,,,,,,,,,,,,,,,,,,,,,,,,,,,,,,,,,,,72,157027,20,Female,1,2024/02/20_15:56:00,YZ,None,
,,,,,,practice,0,34,2,2583,1,J,0,right,2.3544864659925224,1,0,,,,,,,,,,,,,,,,,,,,,1,,,,,,,,,,,,,,,,,,,,,,,,,,,,,,,,,,,,,,,,,,,,,,72,157027,20,Female,1,2024/02/20_15:56:00,YZ,None,
,,,,,,practice,0,34,2,2583,2,C,0,right,3.1380952680046903,1,0,,,,,,,,,,,,,,,,,,,,,1,,,,,,,,,,,,,,,,,,,,,,,,,,,,,,,,,,,,,,,,,,,,,,72,157027,20,Female,1,2024/02/20_15:56:00,YZ,None,
,,,,,,practice,0,34,2,2583,3,J,1,left,1.3332184000028064,1,0,,,,,,,,,,,,,,,,,,,,,1,,,,,,,,,,,,,,,,,,,,,,,,,,,,,,,,,,,,,,,,,,,,,,72,157027,20,Female,1,2024/02/20_15:56:00,YZ,None,
,,,,,,practice,0,34,2,2583,4,V,0,right,0.6513314049952896,1,0,,,,,,,,,,,,,,,,,,,,,1,,,,,,,,,,,,,,,,,,,,,,,,,,,,,,,,,,,,,,,,,,,,,,72,157027,20,Female,1,2024/02/20_15:56:00,YZ,None,
,,,,,,practice,0,34,2,2583,5,Q,0,right,0.9210730609920574,1,0,,,,,,,,,,,,,,,,,,,,,1,,,,,,,,,,,,,,,,,,,,,,,,,,,,,,,,,,,,,,,,,,,,,,72,157027,20,Female,1,2024/02/20_15:56:00,YZ,None,
,,,,,,practice,0,34,2,2583,6,V,1,left,0.7797286529967096,1,0,,,,,,,,,,,,,,,,,,,,,1,,,,,,,,,,,,,,,,,,,,,,,,,,,,,,,,,,,,,,,,,,,,,,72,157027,20,Female,1,2024/02/20_15:56:00,YZ,None,
,,,,,,practice,0,34,2,2583,,,,,,,,1.0,1.0,0.0,1.0,0.0,1.0,1.5296555421640126,2,0,0,0,0,4,6,2,4,0,,,,1,,,,,,,,,,,,,,,,,,,,,,,,,,,,,,,,,,,,,,,,,,,,,,72,157027,20,Female,1,2024/02/20_15:56:00,YZ,None,
1,./instructions/inst_to_cali/Slide20.png,right,11.209494397000526,128.02969102600764,139.23918542300817,,,,,,,,,,,,,,,,,,,,,,,,,,,,,,,,,1,,,,,,,,,,,,,,,,,,,,,,,,,,,,,,,,,,,,,,,,,,,,,,72,157027,20,Female,1,2024/02/20_15:56:00,YZ,None,
1,./instructions/inst_cali/Slide22.png,right,13.287041996998596,139.27218198600167,152.55922398300027,,,,,,,,,,,,,,,,,,,,,,,,,,,,,,,,,1,,,,,,,,,,,,,,,,,,,,,,,,,,,,,,,,,,,,,,,,,,,,,,72,157027,20,Female,1,2024/02/20_15:56:00,YZ,None,
,,,,,,calibration,0,35,2,583,1,J,0,right,1.794011068996042,1,0,,,,,,,,,,,,,,,,,,,,,1,,,,,,,,,,,,,,,,,,,,,,,,,,,,,,,,,,,,,,,,,,,,,,72,157027,20,Female,1,2024/02/20_15:56:00,YZ,None,
,,,,,,calibration,0,35,2,583,2,Q,0,right,1.2749701209977502,1,0,,,,,,,,,,,,,,,,,,,,,1,,,,,,,,,,,,,,,,,,,,,,,,,,,,,,,,,,,,,,,,,,,,,,72,157027,20,Female,1,2024/02/20_15:56:00,YZ,None,
,,,,,,calibration,0,35,2,583,3,S,0,right,0.6917451699991943,1,0,,,,,,,,,,,,,,,,,,,,,1,,,,,,,,,,,,,,,,,,,,,,,,,,,,,,,,,,,,,,,,,,,,,,72,157027,20,Female,1,2024/02/20_15:56:00,YZ,None,
,,,,,,calibration,0,35,2,583,4,Q,1,left,0.9578442499914672,1,0,,,,,,,,,,,,,,,,,,,,,1,,,,,,,,,,,,,,,,,,,,,,,,,,,,,,,,,,,,,,,,,,,,,,72,157027,20,Female,1,2024/02/20_15:56:00,YZ,None,
,,,,,,calibration,0,35,2,583,5,J,0,right,1.1923392669996247,1,0,,,,,,,,,,,,,,,,,,,,,1,,,,,,,,,,,,,,,,,,,,,,,,,,,,,,,,,,,,,,,,,,,,,,72,157027,20,Female,1,2024/02/20_15:56:00,YZ,None,
,,,,,,calibration,0,35,2,583,6,N,0,right,0.9077639369934332,1,0,,,,,,,,,,,,,,,,,,,,,1,,,,,,,,,,,,,,,,,,,,,,,,,,,,,,,,,,,,,,,,,,,,,,72,157027,20,Female,1,2024/02/20_15:56:00,YZ,None,
,,,,,,calibration,0,35,2,583,7,Q,0,left,0.6979640539939282,0,0,,,,,,,,,,,,,,,,,,,,,1,,,,,,,,,,,,,,,,,,,,,,,,,,,,,,,,,,,,,,,,,,,,,,72,157027,20,Female,1,2024/02/20_15:56:00,YZ,None,
,,,,,,calibration,0,35,2,583,8,N,1,left,1.7489516780042322,1,0,,,,,,,,,,,,,,,,,,,,,1,,,,,,,,,,,,,,,,,,,,,,,,,,,,,,,,,,,,,,,,,,,,,,72,157027,20,Female,1,2024/02/20_15:56:00,YZ,None,
,,,,,,calibration,0,35,2,583,9,Q,1,left,1.1921274670021376,1,0,,,,,,,,,,,,,,,,,,,,,1,,,,,,,,,,,,,,,,,,,,,,,,,,,,,,,,,,,,,,,,,,,,,,72,157027,20,Female,1,2024/02/20_15:56:00,YZ,None,
,,,,,,calibration,0,35,2,583,10,F,0,right,0.8278895419934997,1,0,,,,,,,,,,,,,,,,,,,,,1,,,,,,,,,,,,,,,,,,,,,,,,,,,,,,,,,,,,,,,,,,,,,,72,157027,20,Female,1,2024/02/20_15:56:00,YZ,None,
,,,,,,calibration,0,35,2,583,11,S,0,right,nan,0,1,,,,,,,,,,,,,,,,,,,,,1,,,,,,,,,,,,,,,,,,,,,,,,,,,,,,,,,,,,,,,,,,,,,,72,157027,20,Female,1,2024/02/20_15:56:00,YZ,None,
,,,,,,calibration,0,35,2,583,12,Q,0,left,0.9139456609991612,0,0,,,,,,,,,,,,,,,,,,,,,1,,,,,,,,,,,,,,,,,,,,,,,,,,,,,,,,,,,,,,,,,,,,,,72,157027,20,Female,1,2024/02/20_15:56:00,YZ,None,
,,,,,,calibration,0,35,2,583,13,S,1,right,1.074555988991051,0,0,,,,,,,,,,,,,,,,,,,,,1,,,,,,,,,,,,,,,,,,,,,,,,,,,,,,,,,,,,,,,,,,,,,,72,157027,20,Female,1,2024/02/20_15:56:00,YZ,None,
,,,,,,calibration,0,35,2,583,14,C,0,right,1.6983502239891095,1,0,,,,,,,,,,,,,,,,,,,,,1,,,,,,,,,,,,,,,,,,,,,,,,,,,,,,,,,,,,,,,,,,,,,,72,157027,20,Female,1,2024/02/20_15:56:00,YZ,None,
,,,,,,calibration,0,35,2,583,15,X,0,right,0.7304573770088609,1,0,,,,,,,,,,,,,,,,,,,,,1,,,,,,,,,,,,,,,,,,,,,,,,,,,,,,,,,,,,,,,,,,,,,,72,157027,20,Female,1,2024/02/20_15:56:00,YZ,None,
,,,,,,calibration,0,35,2,583,,,,,,,,0.8465909090909092,0.75,0.18181818181818182,0.8,0.06666666666666667,0.7515151515151515,1.1216368432828208,3,2,0,1,1,8,11,4,11,0,,,,1,,,,,,,,,,,,,,,,,,,,,,,,,,,,,,,,,,,,,,,,,,,,,,72,157027,20,Female,1,2024/02/20_15:56:00,YZ,None,
,,,,,,Calibration,0,,2,583,,,,,,,,,,,,,,,,,,,,,,,,,1,,,1,,,,,,,,,,,,,,,,,,,,,,,,,,,,,,,,,,,,,,,,,,,,,,72,157027,20,Female,1,2024/02/20_15:56:00,YZ,None,
,,,,,,calibration,0,36,2,583,1,S,0,right,1.3882536930032074,1,0,,,,,,,,,,,,,,,,,,,,,1,,,,,,,,,,,,,,,,,,,,,,,,,,,,,,,,,,,,,,,,,,,,,,72,157027,20,Female,1,2024/02/20_15:56:00,YZ,None,
,,,,,,calibration,0,36,2,583,2,Q,0,right,0.4932125439954689,1,0,,,,,,,,,,,,,,,,,,,,,1,,,,,,,,,,,,,,,,,,,,,,,,,,,,,,,,,,,,,,,,,,,,,,72,157027,20,Female,1,2024/02/20_15:56:00,YZ,None,
,,,,,,calibration,0,36,2,583,3,C,0,right,1.158864724013256,1,0,,,,,,,,,,,,,,,,,,,,,1,,,,,,,,,,,,,,,,,,,,,,,,,,,,,,,,,,,,,,,,,,,,,,72,157027,20,Female,1,2024/02/20_15:56:00,YZ,None,
,,,,,,calibration,0,36,2,583,4,Q,1,left,0.9473751309997169,1,0,,,,,,,,,,,,,,,,,,,,,1,,,,,,,,,,,,,,,,,,,,,,,,,,,,,,,,,,,,,,,,,,,,,,72,157027,20,Female,1,2024/02/20_15:56:00,YZ,None,
,,,,,,calibration,0,36,2,583,5,N,0,right,1.9917902980087092,1,0,,,,,,,,,,,,,,,,,,,,,1,,,,,,,,,,,,,,,,,,,,,,,,,,,,,,,,,,,,,,,,,,,,,,72,157027,20,Female,1,2024/02/20_15:56:00,YZ,None,
,,,,,,calibration,0,36,2,583,6,X,0,right,1.6414786569948774,1,0,,,,,,,,,,,,,,,,,,,,,1,,,,,,,,,,,,,,,,,,,,,,,,,,,,,,,,,,,,,,,,,,,,,,72,157027,20,Female,1,2024/02/20_15:56:00,YZ,None,
,,,,,,calibration,0,36,2,583,7,F,0,right,0.7951200059906114,1,0,,,,,,,,,,,,,,,,,,,,,1,,,,,,,,,,,,,,,,,,,,,,,,,,,,,,,,,,,,,,,,,,,,,,72,157027,20,Female,1,2024/02/20_15:56:00,YZ,None,
,,,,,,calibration,0,36,2,583,8,S,0,right,nan,0,1,,,,,,,,,,,,,,,,,,,,,1,,,,,,,,,,,,,,,,,,,,,,,,,,,,,,,,,,,,,,,,,,,,,,72,157027,20,Female,1,2024/02/20_15:56:00,YZ,None,
,,,,,,calibration,0,36,2,583,9,F,1,right,0.3186681060033152,0,0,,,,,,,,,,,,,,,,,,,,,1,,,,,,,,,,,,,,,,,,,,,,,,,,,,,,,,,,,,,,,,,,,,,,72,157027,20,Female,1,2024/02/20_15:56:00,YZ,None,
,,,,,,calibration,0,36,2,583,10,V,0,left,0.2237059879989829,0,0,,,,,,,,,,,,,,,,,,,,,1,,,,,,,,,,,,,,,,,,,,,,,,,,,,,,,,,,,,,,,,,,,,,,72,157027,20,Female,1,2024/02/20_15:56:00,YZ,None,
,,,,,,calibration,0,36,2,583,11,C,0,right,0.760295836997102,1,0,,,,,,,,,,,,,,,,,,,,,1,,,,,,,,,,,,,,,,,,,,,,,,,,,,,,,,,,,,,,,,,,,,,,72,157027,20,Female,1,2024/02/20_15:56:00,YZ,None,
,,,,,,calibration,0,36,2,583,12,V,1,left,1.1292790720035555,1,0,,,,,,,,,,,,,,,,,,,,,1,,,,,,,,,,,,,,,,,,,,,,,,,,,,,,,,,,,,,,,,,,,,,,72,157027,20,Female,1,2024/02/20_15:56:00,YZ,None,
,,,,,,calibration,0,36,2,583,13,C,1,left,0.7588057160028256,1,0,,,,,,,,,,,,,,,,,,,,,1,,,,,,,,,,,,,,,,,,,,,,,,,,,,,,,,,,,,,,,,,,,,,,72,157027,20,Female,1,2024/02/20_15:56:00,YZ,None,
,,,,,,calibration,0,36,2,583,14,F,0,right,0.9618210890039336,1,0,,,,,,,,,,,,,,,,,,,,,1,,,,,,,,,,,,,,,,,,,,,,,,,,,,,,,,,,,,,,,,,,,,,,72,157027,20,Female,1,2024/02/20_15:56:00,YZ,None,
,,,,,,calibration,0,36,2,583,15,C,1,left,0.9807992080022814,1,0,,,,,,,,,,,,,,,,,,,,,1,,,,,,,,,,,,,,,,,,,,,,,,,,,,,,,,,,,,,,,,,,,,,,72,157027,20,Female,1,2024/02/20_15:56:00,YZ,None,
,,,,,,calibration,0,36,2,583,,,,,,,,0.905,0.8,0.1,0.8888888888888888,0.06666666666666667,0.8333333333333334,0.9678192906441316,4,1,0,1,1,8,12,5,10,0,,,,1,,,,,,,,,,,,,,,,,,,,,,,,,,,,,,,,,,,,,,,,,,,,,,72,157027,20,Female,1,2024/02/20_15:56:00,YZ,None,
,,,,,,Calibration,0,,2,583,,,,,,,,,,,,,,,,,,,,,,,,,2,,,1,,,,,,,,,,,,,,,,,,,,,,,,,,,,,,,,,,,,,,,,,,,,,,72,157027,20,Female,1,2024/02/20_15:56:00,YZ,None,
,,,,,,calibration,0,17,2,500,1,V,0,None,nan,0,1,,,,,,,,,,,,,,,,,,,,,1,,,,,,,,,,,,,,,,,,,,,,,,,,,,,,,,,,,,,,,,,,,,,,72,157027,20,Female,1,2024/02/20_15:56:00,YZ,None,
,,,,,,calibration,0,17,2,500,2,V,0,right,0.872015597007703,1,0,,,,,,,,,,,,,,,,,,,,,1,,,,,,,,,,,,,,,,,,,,,,,,,,,,,,,,,,,,,,,,,,,,,,72,157027,20,Female,1,2024/02/20_15:56:00,YZ,None,
,,,,,,calibration,0,17,2,500,3,V,1,left,0.6644377869961318,1,0,,,,,,,,,,,,,,,,,,,,,1,,,,,,,,,,,,,,,,,,,,,,,,,,,,,,,,,,,,,,,,,,,,,,72,157027,20,Female,1,2024/02/20_15:56:00,YZ,None,
,,,,,,calibration,0,17,2,500,4,V,1,left,0.5119841819978319,1,0,,,,,,,,,,,,,,,,,,,,,1,,,,,,,,,,,,,,,,,,,,,,,,,,,,,,,,,,,,,,,,,,,,,,72,157027,20,Female,1,2024/02/20_15:56:00,YZ,None,
,,,,,,calibration,0,17,2,500,5,S,0,right,0.5657445840042783,1,0,,,,,,,,,,,,,,,,,,,,,1,,,,,,,,,,,,,,,,,,,,,,,,,,,,,,,,,,,,,,,,,,,,,,72,157027,20,Female,1,2024/02/20_15:56:00,YZ,None,
,,,,,,calibration,0,17,2,500,6,J,0,right,nan,0,1,,,,,,,,,,,,,,,,,,,,,1,,,,,,,,,,,,,,,,,,,,,,,,,,,,,,,,,,,,,,,,,,,,,,72,157027,20,Female,1,2024/02/20_15:56:00,YZ,None,
,,,,,,calibration,0,17,2,500,7,X,0,right,0.8821651489997748,1,0,,,,,,,,,,,,,,,,,,,,,1,,,,,,,,,,,,,,,,,,,,,,,,,,,,,,,,,,,,,,,,,,,,,,72,157027,20,Female,1,2024/02/20_15:56:00,YZ,None,
,,,,,,calibration,0,17,2,500,8,C,0,right,nan,0,1,,,,,,,,,,,,,,,,,,,,,1,,,,,,,,,,,,,,,,,,,,,,,,,,,,,,,,,,,,,,,,,,,,,,72,157027,20,Female,1,2024/02/20_15:56:00,YZ,None,
,,,,,,calibration,0,17,2,500,9,X,1,right,0.0,0,0,,,,,,,,,,,,,,,,,,,,,1,,,,,,,,,,,,,,,,,,,,,,,,,,,,,,,,,,,,,,,,,,,,,,72,157027,20,Female,1,2024/02/20_15:56:00,YZ,None,
,,,,,,calibration,0,17,2,500,10,F,0,left,0.19346043998666573,0,0,,,,,,,,,,,,,,,,,,,,,1,,,,,,,,,,,,,,,,,,,,,,,,,,,,,,,,,,,,,,,,,,,,,,72,157027,20,Female,1,2024/02/20_15:56:00,YZ,None,
,,,,,,calibration,0,17,2,500,11,C,0,right,0.3597691390023101,1,0,,,,,,,,,,,,,,,,,,,,,1,,,,,,,,,,,,,,,,,,,,,,,,,,,,,,,,,,,,,,,,,,,,,,72,157027,20,Female,1,2024/02/20_15:56:00,YZ,None,
,,,,,,calibration,0,17,2,500,12,F,1,right,0.7144661210040795,0,0,,,,,,,,,,,,,,,,,,,,,1,,,,,,,,,,,,,,,,,,,,,,,,,,,,,,,,,,,,,,,,,,,,,,72,157027,20,Female,1,2024/02/20_15:56:00,YZ,None,
,,,,,,calibration,0,17,2,500,13,Q,0,left,0.7919200969918165,0,0,,,,,,,,,,,,,,,,,,,,,1,,,,,,,,,,,,,,,,,,,,,,,,,,,,,,,,,,,,,,,,,,,,,,72,157027,20,Female,1,2024/02/20_15:56:00,YZ,None,
,,,,,,calibration,0,17,2,500,14,N,0,left,nan,0,1,,,,,,,,,,,,,,,,,,,,,1,,,,,,,,,,,,,,,,,,,,,,,,,,,,,,,,,,,,,,,,,,,,,,72,157027,20,Female,1,2024/02/20_15:56:00,YZ,None,
,,,,,,calibration,0,17,2,500,15,C,0,left,0.9969365430006292,0,0,,,,,,,,,,,,,,,,,,,,,1,,,,,,,,,,,,,,,,,,,,,,,,,,,,,,,,,,,,,,,,,,,,,,72,157027,20,Female,1,2024/02/20_15:56:00,YZ,None,
,,,,,,calibration,0,17,2,500,16,F,0,left,0.7256123679981101,0,0,,,,,,,,,,,,,,,,,,,,,1,,,,,,,,,,,,,,,,,,,,,,,,,,,,,,,,,,,,,,,,,,,,,,72,157027,20,Female,1,2024/02/20_15:56:00,YZ,None,
,,,,,,calibration,0,17,2,500,,,,,,,,0.625,0.5,0.3333333333333333,0.5,0.25,0.41666666666666674,0.6065426672491109,2,4,0,4,4,4,6,4,12,0,,,,1,,,,,,,,,,,,,,,,,,,,,,,,,,,,,,,,,,,,,,,,,,,,,,72,157027,20,Female,1,2024/02/20_15:56:00,YZ,None,
,,,,,,Calibration,0,,2,500,,,,,,,,,,,,,,,,,,,,,,,,,3,,,1,,,,,,,,,,,,,,,,,,,,,,,,,,,,,,,,,,,,,,,,,,,,,,72,157027,20,Female,1,2024/02/20_15:56:00,YZ,None,
,,,,,,calibration,0,1,2,583,1,Q,0,right,0.8244179530011024,1,0,,,,,,,,,,,,,,,,,,,,,1,,,,,,,,,,,,,,,,,,,,,,,,,,,,,,,,,,,,,,,,,,,,,,72,157027,20,Female,1,2024/02/20_15:56:00,YZ,None,
,,,,,,calibration,0,1,2,583,2,V,0,right,0.6143512540002121,1,0,,,,,,,,,,,,,,,,,,,,,1,,,,,,,,,,,,,,,,,,,,,,,,,,,,,,,,,,,,,,,,,,,,,,72,157027,20,Female,1,2024/02/20_15:56:00,YZ,None,
,,,,,,calibration,0,1,2,583,3,Q,1,left,0.47983411099994555,1,0,,,,,,,,,,,,,,,,,,,,,1,,,,,,,,,,,,,,,,,,,,,,,,,,,,,,,,,,,,,,,,,,,,,,72,157027,20,Female,1,2024/02/20_15:56:00,YZ,None,
,,,,,,calibration,0,1,2,583,4,N,0,right,0.6589432740001939,1,0,,,,,,,,,,,,,,,,,,,,,1,,,,,,,,,,,,,,,,,,,,,,,,,,,,,,,,,,,,,,,,,,,,,,72,157027,20,Female,1,2024/02/20_15:56:00,YZ,None,
,,,,,,calibration,0,1,2,583,5,J,0,right,1.0778002539882436,1,0,,,,,,,,,,,,,,,,,,,,,1,,,,,,,,,,,,,,,,,,,,,,,,,,,,,,,,,,,,,,,,,,,,,,72,157027,20,Female,1,2024/02/20_15:56:00,YZ,None,
,,,,,,calibration,0,1,2,583,6,S,0,right,1.0592832869879203,1,0,,,,,,,,,,,,,,,,,,,,,1,,,,,,,,,,,,,,,,,,,,,,,,,,,,,,,,,,,,,,,,,,,,,,72,157027,20,Female,1,2024/02/20_15:56:00,YZ,None,
,,,,,,calibration,0,1,2,583,7,N,0,right,1.439323793994845,1,0,,,,,,,,,,,,,,,,,,,,,1,,,,,,,,,,,,,,,,,,,,,,,,,,,,,,,,,,,,,,,,,,,,,,72,157027,20,Female,1,2024/02/20_15:56:00,YZ,None,
,,,,,,calibration,0,1,2,583,8,F,0,right,1.1976419779966818,1,0,,,,,,,,,,,,,,,,,,,,,1,,,,,,,,,,,,,,,,,,,,,,,,,,,,,,,,,,,,,,,,,,,,,,72,157027,20,Female,1,2024/02/20_15:56:00,YZ,None,
,,,,,,calibration,0,1,2,583,9,N,1,left,1.383577206011978,1,0,,,,,,,,,,,,,,,,,,,,,1,,,,,,,,,,,,,,,,,,,,,,,,,,,,,,,,,,,,,,,,,,,,,,72,157027,20,Female,1,2024/02/20_15:56:00,YZ,None,
,,,,,,calibration,0,1,2,583,10,C,0,right,0.6136126819910714,1,0,,,,,,,,,,,,,,,,,,,,,1,,,,,,,,,,,,,,,,,,,,,,,,,,,,,,,,,,,,,,,,,,,,,,72,157027,20,Female,1,2024/02/20_15:56:00,YZ,None,
,,,,,,calibration,0,1,2,583,11,N,1,left,0.7579272580042016,1,0,,,,,,,,,,,,,,,,,,,,,1,,,,,,,,,,,,,,,,,,,,,,,,,,,,,,,,,,,,,,,,,,,,,,72,157027,20,Female,1,2024/02/20_15:56:00,YZ,None,
,,,,,,calibration,0,1,2,583,12,C,1,left,1.1305779190006433,1,0,,,,,,,,,,,,,,,,,,,,,1,,,,,,,,,,,,,,,,,,,,,,,,,,,,,,,,,,,,,,,,,,,,,,72,157027,20,Female,1,2024/02/20_15:56:00,YZ,None,
,,,,,,calibration,0,1,2,583,13,V,0,right,0.614244445998338,1,0,,,,,,,,,,,,,,,,,,,,,1,,,,,,,,,,,,,,,,,,,,,,,,,,,,,,,,,,,,,,,,,,,,,,72,157027,20,Female,1,2024/02/20_15:56:00,YZ,None,
,,,,,,calibration,0,1,2,583,14,N,0,right,0.8912130990065634,1,0,,,,,,,,,,,,,,,,,,,,,1,,,,,,,,,,,,,,,,,,,,,,,,,,,,,,,,,,,,,,,,,,,,,,72,157027,20,Female,1,2024/02/20_15:56:00,YZ,None,
,,,,,,calibration,0,1,2,583,15,F,0,right,0.9739547210047022,1,0,,,,,,,,,,,,,,,,,,,,,1,,,,,,,,,,,,,,,,,,,,,,,,,,,,,,,,,,,,,,,,,,,,,,72,157027,20,Female,1,2024/02/20_15:56:00,YZ,None,
,,,,,,calibration,0,1,2,583,,,,,,,,1.0,1.0,0.0,1.0,0.0,1.0,0.9144468823991095,4,0,0,0,0,11,15,4,11,0,,,,1,,,,,,,,,,,,,,,,,,,,,,,,,,,,,,,,,,,,,,,,,,,,,,72,157027,20,Female,1,2024/02/20_15:56:00,YZ,None,
,,,,,,Calibration,0,,2,583,,,,,,,,,,,,,,,,,,,,,,,,,4,,,1,,,,,,,,,,,,,,,,,,,,,,,,,,,,,,,,,,,,,,,,,,,,,,72,157027,20,Female,1,2024/02/20_15:56:00,YZ,None,
,,,,,,calibration,0,25,2,500,1,X,0,right,0.5972589509910904,1,0,,,,,,,,,,,,,,,,,,,,,1,,,,,,,,,,,,,,,,,,,,,,,,,,,,,,,,,,,,,,,,,,,,,,72,157027,20,Female,1,2024/02/20_15:56:00,YZ,None,
,,,,,,calibration,0,25,2,500,2,Q,0,right,0.3468758140079444,1,0,,,,,,,,,,,,,,,,,,,,,1,,,,,,,,,,,,,,,,,,,,,,,,,,,,,,,,,,,,,,,,,,,,,,72,157027,20,Female,1,2024/02/20_15:56:00,YZ,None,
,,,,,,calibration,0,25,2,500,3,X,1,left,0.6237429619941395,1,0,,,,,,,,,,,,,,,,,,,,,1,,,,,,,,,,,,,,,,,,,,,,,,,,,,,,,,,,,,,,,,,,,,,,72,157027,20,Female,1,2024/02/20_15:56:00,YZ,None,
,,,,,,calibration,0,25,2,500,4,Q,1,right,0.38209505399572663,0,0,,,,,,,,,,,,,,,,,,,,,1,,,,,,,,,,,,,,,,,,,,,,,,,,,,,,,,,,,,,,,,,,,,,,72,157027,20,Female,1,2024/02/20_15:56:00,YZ,None,
,,,,,,calibration,0,25,2,500,5,F,0,right,0.7128871660097502,1,0,,,,,,,,,,,,,,,,,,,,,1,,,,,,,,,,,,,,,,,,,,,,,,,,,,,,,,,,,,,,,,,,,,,,72,157027,20,Female,1,2024/02/20_15:56:00,YZ,None,
,,,,,,calibration,0,25,2,500,6,Q,1,left,0.6723025440005586,1,0,,,,,,,,,,,,,,,,,,,,,1,,,,,,,,,,,,,,,,,,,,,,,,,,,,,,,,,,,,,,,,,,,,,,72,157027,20,Female,1,2024/02/20_15:56:00,YZ,None,
,,,,,,calibration,0,25,2,500,7,C,0,right,0.5645646779885283,1,0,,,,,,,,,,,,,,,,,,,,,1,,,,,,,,,,,,,,,,,,,,,,,,,,,,,,,,,,,,,,,,,,,,,,72,157027,20,Female,1,2024/02/20_15:56:00,YZ,None,
,,,,,,calibration,0,25,2,500,8,S,0,right,nan,0,1,,,,,,,,,,,,,,,,,,,,,1,,,,,,,,,,,,,,,,,,,,,,,,,,,,,,,,,,,,,,,,,,,,,,72,157027,20,Female,1,2024/02/20_15:56:00,YZ,None,
,,,,,,calibration,0,25,2,500,9,J,0,right,0.6305888530041557,1,0,,,,,,,,,,,,,,,,,,,,,1,,,,,,,,,,,,,,,,,,,,,,,,,,,,,,,,,,,,,,,,,,,,,,72,157027,20,Female,1,2024/02/20_15:56:00,YZ,None,
,,,,,,calibration,0,25,2,500,10,V,0,right,0.4705090819916222,1,0,,,,,,,,,,,,,,,,,,,,,1,,,,,,,,,,,,,,,,,,,,,,,,,,,,,,,,,,,,,,,,,,,,,,72,157027,20,Female,1,2024/02/20_15:56:00,YZ,None,
,,,,,,calibration,0,25,2,500,11,J,1,left,0.7463134680001531,1,0,,,,,,,,,,,,,,,,,,,,,1,,,,,,,,,,,,,,,,,,,,,,,,,,,,,,,,,,,,,,,,,,,,,,72,157027,20,Female,1,2024/02/20_15:56:00,YZ,None,
,,,,,,calibration,0,25,2,500,12,V,1,left,0.5729262149980059,1,0,,,,,,,,,,,,,,,,,,,,,1,,,,,,,,,,,,,,,,,,,,,,,,,,,,,,,,,,,,,,,,,,,,,,72,157027,20,Female,1,2024/02/20_15:56:00,YZ,None,
,,,,,,calibration,0,25,2,500,13,Q,0,right,0.4898430110042682,1,0,,,,,,,,,,,,,,,,,,,,,1,,,,,,,,,,,,,,,,,,,,,,,,,,,,,,,,,,,,,,,,,,,,,,72,157027,20,Female,1,2024/02/20_15:56:00,YZ,None,
,,,,,,calibration,0,25,2,500,14,S,0,right,0.6654590409889352,1,0,,,,,,,,,,,,,,,,,,,,,1,,,,,,,,,,,,,,,,,,,,,,,,,,,,,,,,,,,,,,,,,,,,,,72,157027,20,Female,1,2024/02/20_15:56:00,YZ,None,
,,,,,,calibration,0,25,2,500,15,N,0,left,0.5310960100032389,0,0,,,,,,,,,,,,,,,,,,,,,1,,,,,,,,,,,,,,,,,,,,,,,,,,,,,,,,,,,,,,,,,,,,,,72,157027,20,Female,1,2024/02/20_15:56:00,YZ,None,
,,,,,,calibration,0,25,2,500,16,Q,0,left,0.44666322399280034,0,0,,,,,,,,,,,,,,,,,,,,,1,,,,,,,,,,,,,,,,,,,,,,,,,,,,,,,,,,,,,,,,,,,,,,72,157027,20,Female,1,2024/02/20_15:56:00,YZ,None,
,,,,,,calibration,0,25,2,500,,,,,,,,0.8681818181818182,0.8,0.18181818181818182,0.8,0.0625,0.7556818181818181,0.5635417381980612,4,2,0,1,1,8,12,5,11,0,,,,1,,,,,,,,,,,,,,,,,,,,,,,,,,,,,,,,,,,,,,,,,,,,,,72,157027,20,Female,1,2024/02/20_15:56:00,YZ,None,
,,,,,,Calibration,0,,2,500,,,,,,,,,,,,,,,,,,,,,,,,,5,,,1,,,,,,,,,,,,,,,,,,,,,,,,,,,,,,,,,,,,,,,,,,,,,,72,157027,20,Female,1,2024/02/20_15:56:00,YZ,None,
,,,,,,calibration,0,11,2,426,1,J,0,None,nan,0,1,,,,,,,,,,,,,,,,,,,,,1,,,,,,,,,,,,,,,,,,,,,,,,,,,,,,,,,,,,,,,,,,,,,,72,157027,20,Female,1,2024/02/20_15:56:00,YZ,None,
,,,,,,calibration,0,11,2,426,2,Q,0,right,0.7922277339966968,1,0,,,,,,,,,,,,,,,,,,,,,1,,,,,,,,,,,,,,,,,,,,,,,,,,,,,,,,,,,,,,,,,,,,,,72,157027,20,Female,1,2024/02/20_15:56:00,YZ,None,
,,,,,,calibration,0,11,2,426,3,J,1,left,0.5394345570093719,1,0,,,,,,,,,,,,,,,,,,,,,1,,,,,,,,,,,,,,,,,,,,,,,,,,,,,,,,,,,,,,,,,,,,,,72,157027,20,Female,1,2024/02/20_15:56:00,YZ,None,
,,,,,,calibration,0,11,2,426,4,F,0,right,0.39617291500326246,1,0,,,,,,,,,,,,,,,,,,,,,1,,,,,,,,,,,,,,,,,,,,,,,,,,,,,,,,,,,,,,,,,,,,,,72,157027,20,Female,1,2024/02/20_15:56:00,YZ,None,
,,,,,,calibration,0,11,2,426,5,X,0,right,nan,0,1,,,,,,,,,,,,,,,,,,,,,1,,,,,,,,,,,,,,,,,,,,,,,,,,,,,,,,,,,,,,,,,,,,,,72,157027,20,Female,1,2024/02/20_15:56:00,YZ,None,
,,,,,,calibration,0,11,2,426,6,F,1,right,0.1553405960003147,0,0,,,,,,,,,,,,,,,,,,,,,1,,,,,,,,,,,,,,,,,,,,,,,,,,,,,,,,,,,,,,,,,,,,,,72,157027,20,Female,1,2024/02/20_15:56:00,YZ,None,
,,,,,,calibration,0,11,2,426,7,V,0,left,0.0,0,0,,,,,,,,,,,,,,,,,,,,,1,,,,,,,,,,,,,,,,,,,,,,,,,,,,,,,,,,,,,,,,,,,,,,72,157027,20,Female,1,2024/02/20_15:56:00,YZ,None,
,,,,,,calibration,0,11,2,426,8,F,1,left,0.5312943149911007,1,0,,,,,,,,,,,,,,,,,,,,,1,,,,,,,,,,,,,,,,,,,,,,,,,,,,,,,,,,,,,,,,,,,,,,72,157027,20,Female,1,2024/02/20_15:56:00,YZ,None,
,,,,,,calibration,0,11,2,426,9,J,0,right,0.669524425000418,1,0,,,,,,,,,,,,,,,,,,,,,1,,,,,,,,,,,,,,,,,,,,,,,,,,,,,,,,,,,,,,,,,,,,,,72,157027,20,Female,1,2024/02/20_15:56:00,YZ,None,
,,,,,,calibration,0,11,2,426,10,X,0,left,0.640481374997762,0,0,,,,,,,,,,,,,,,,,,,,,1,,,,,,,,,,,,,,,,,,,,,,,,,,,,,,,,,,,,,,,,,,,,,,72,157027,20,Female,1,2024/02/20_15:56:00,YZ,None,
,,,,,,calibration,0,11,2,426,11,C,0,left,nan,0,1,,,,,,,,,,,,,,,,,,,,,1,,,,,,,,,,,,,,,,,,,,,,,,,,,,,,,,,,,,,,,,,,,,,,72,157027,20,Female,1,2024/02/20_15:56:00,YZ,None,
,,,,,,calibration,0,11,2,426,12,S,0,left,nan,0,1,,,,,,,,,,,,,,,,,,,,,1,,,,,,,,,,,,,,,,,,,,,,,,,,,,,,,,,,,,,,,,,,,,,,72,157027,20,Female,1,2024/02/20_15:56:00,YZ,None,
,,,,,,calibration,0,11,2,426,13,X,0,right,0.9413847490068292,1,0,,,,,,,,,,,,,,,,,,,,,1,,,,,,,,,,,,,,,,,,,,,,,,,,,,,,,,,,,,,,,,,,,,,,72,157027,20,Female,1,2024/02/20_15:56:00,YZ,None,
,,,,,,calibration,0,11,2,426,14,S,1,left,0.526184660004219,1,0,,,,,,,,,,,,,,,,,,,,,1,,,,,,,,,,,,,,,,,,,,,,,,,,,,,,,,,,,,,,,,,,,,,,72,157027,20,Female,1,2024/02/20_15:56:00,YZ,None,
,,,,,,calibration,0,11,2,426,15,J,0,right,0.6478882560040802,1,0,,,,,,,,,,,,,,,,,,,,,1,,,,,,,,,,,,,,,,,,,,,,,,,,,,,,,,,,,,,,,,,,,,,,72,157027,20,Female,1,2024/02/20_15:56:00,YZ,None,
,,,,,,calibration,0,11,2,426,16,V,0,left,0.8313143839914119,0,0,,,,,,,,,,,,,,,,,,,,,1,,,,,,,,,,,,,,,,,,,,,,,,,,,,,,,,,,,,,,,,,,,,,,72,157027,20,Female,1,2024/02/20_15:56:00,YZ,None,
,,,,,,calibration,0,11,2,426,17,J,1,left,nan,0,1,,,,,,,,,,,,,,,,,,,,,1,,,,,,,,,,,,,,,,,,,,,,,,,,,,,,,,,,,,,,,,,,,,,,72,157027,20,Female,1,2024/02/20_15:56:00,YZ,None,
,,,,,,calibration,0,11,2,426,,,,,,,,0.7375,0.6,0.25,0.625,0.29411764705882354,0.45588235294117646,0.5559373305004556,3,3,1,4,5,5,8,5,12,0,,,,1,,,,,,,,,,,,,,,,,,,,,,,,,,,,,,,,,,,,,,,,,,,,,,72,157027,20,Female,1,2024/02/20_15:56:00,YZ,None,
,,,,,,Calibration,0,,2,426,,,,,,,,,,,,,,,,,,,,,,,,,6,,,1,,,,,,,,,,,,,,,,,,,,,,,,,,,,,,,,,,,,,,,,,,,,,,72,157027,20,Female,1,2024/02/20_15:56:00,YZ,None,
,,,,,,calibration,0,4,2,500,1,Q,0,None,nan,0,1,,,,,,,,,,,,,,,,,,,,,1,,,,,,,,,,,,,,,,,,,,,,,,,,,,,,,,,,,,,,,,,,,,,,72,157027,20,Female,1,2024/02/20_15:56:00,YZ,None,
,,,,,,calibration,0,4,2,500,2,C,0,right,0.5126483649946749,1,0,,,,,,,,,,,,,,,,,,,,,1,,,,,,,,,,,,,,,,,,,,,,,,,,,,,,,,,,,,,,,,,,,,,,72,157027,20,Female,1,2024/02/20_15:56:00,YZ,None,
,,,,,,calibration,0,4,2,500,3,Q,1,left,0.48721578999538906,1,0,,,,,,,,,,,,,,,,,,,,,1,,,,,,,,,,,,,,,,,,,,,,,,,,,,,,,,,,,,,,,,,,,,,,72,157027,20,Female,1,2024/02/20_15:56:00,YZ,None,
,,,,,,calibration,0,4,2,500,4,F,0,right,0.5780370690044947,1,0,,,,,,,,,,,,,,,,,,,,,1,,,,,,,,,,,,,,,,,,,,,,,,,,,,,,,,,,,,,,,,,,,,,,72,157027,20,Female,1,2024/02/20_15:56:00,YZ,None,
,,,,,,calibration,0,4,2,500,5,S,0,right,nan,0,1,,,,,,,,,,,,,,,,,,,,,1,,,,,,,,,,,,,,,,,,,,,,,,,,,,,,,,,,,,,,,,,,,,,,72,157027,20,Female,1,2024/02/20_15:56:00,YZ,None,
,,,,,,calibration,0,4,2,500,6,F,1,right,0.49739982398750726,0,0,,,,,,,,,,,,,,,,,,,,,1,,,,,,,,,,,,,,,,,,,,,,,,,,,,,,,,,,,,,,,,,,,,,,72,157027,20,Female,1,2024/02/20_15:56:00,YZ,None,
,,,,,,calibration,0,4,2,500,7,J,0,right,0.7361872499895981,1,0,,,,,,,,,,,,,,,,,,,,,1,,,,,,,,,,,,,,,,,,,,,,,,,,,,,,,,,,,,,,,,,,,,,,72,157027,20,Female,1,2024/02/20_15:56:00,YZ,None,
,,,,,,calibration,0,4,2,500,8,F,1,left,0.5645975569932489,1,0,,,,,,,,,,,,,,,,,,,,,1,,,,,,,,,,,,,,,,,,,,,,,,,,,,,,,,,,,,,,,,,,,,,,72,157027,20,Female,1,2024/02/20_15:56:00,YZ,None,
,,,,,,calibration,0,4,2,500,9,N,0,right,0.4713832419947721,1,0,,,,,,,,,,,,,,,,,,,,,1,,,,,,,,,,,,,,,,,,,,,,,,,,,,,,,,,,,,,,,,,,,,,,72,157027,20,Female,1,2024/02/20_15:56:00,YZ,None,
,,,,,,calibration,0,4,2,500,10,F,1,left,0.7431328929960728,1,0,,,,,,,,,,,,,,,,,,,,,1,,,,,,,,,,,,,,,,,,,,,,,,,,,,,,,,,,,,,,,,,,,,,,72,157027,20,Female,1,2024/02/20_15:56:00,YZ,None,
,,,,,,calibration,0,4,2,500,11,C,0,right,0.5611474629986333,1,0,,,,,,,,,,,,,,,,,,,,,1,,,,,,,,,,,,,,,,,,,,,,,,,,,,,,,,,,,,,,,,,,,,,,72,157027,20,Female,1,2024/02/20_15:56:00,YZ,None,
,,,,,,calibration,0,4,2,500,12,Q,0,right,0.5755433890008135,1,0,,,,,,,,,,,,,,,,,,,,,1,,,,,,,,,,,,,,,,,,,,,,,,,,,,,,,,,,,,,,,,,,,,,,72,157027,20,Female,1,2024/02/20_15:56:00,YZ,None,
,,,,,,calibration,0,4,2,500,13,C,1,left,0.6362366969988216,1,0,,,,,,,,,,,,,,,,,,,,,1,,,,,,,,,,,,,,,,,,,,,,,,,,,,,,,,,,,,,,,,,,,,,,72,157027,20,Female,1,2024/02/20_15:56:00,YZ,None,
,,,,,,calibration,0,4,2,500,14,V,0,right,0.4077348100108793,1,0,,,,,,,,,,,,,,,,,,,,,1,,,,,,,,,,,,,,,,,,,,,,,,,,,,,,,,,,,,,,,,,,,,,,72,157027,20,Female,1,2024/02/20_15:56:00,YZ,None,
,,,,,,calibration,0,4,2,500,15,X,0,right,0.7814455930056283,1,0,,,,,,,,,,,,,,,,,,,,,1,,,,,,,,,,,,,,,,,,,,,,,,,,,,,,,,,,,,,,,,,,,,,,72,157027,20,Female,1,2024/02/20_15:56:00,YZ,None,
,,,,,,calibration,0,4,2,500,16,C,0,left,0.39048057699983474,0,0,,,,,,,,,,,,,,,,,,,,,1,,,,,,,,,,,,,,,,,,,,,,,,,,,,,,,,,,,,,,,,,,,,,,72,157027,20,Female,1,2024/02/20_15:56:00,YZ,None,
,,,,,,calibration,0,4,2,500,,,,,,,,0.9090909090909091,0.8,0.09090909090909091,0.8888888888888888,0.125,0.7840909090909091,0.5673707513550263,4,1,0,2,2,8,12,5,11,0,,,,1,,,,,,,,,,,,,,,,,,,,,,,,,,,,,,,,,,,,,,,,,,,,,,72,157027,20,Female,1,2024/02/20_15:56:00,YZ,None,
,,,,,,Calibration,0,,2,500,,,,,,,,,,,,,,,,,,,,,,,,,7,,,1,,,,,,,,,,,,,,,,,,,,,,,,,,,,,,,,,,,,,,,,,,,,,,72,157027,20,Female,1,2024/02/20_15:56:00,YZ,None,
,,,,,,calibration,0,31,2,426,1,V,0,right,0.6968690590001643,1,0,,,,,,,,,,,,,,,,,,,,,1,,,,,,,,,,,,,,,,,,,,,,,,,,,,,,,,,,,,,,,,,,,,,,72,157027,20,Female,1,2024/02/20_15:56:00,YZ,None,
,,,,,,calibration,0,31,2,426,2,J,0,right,0.639990987998317,1,0,,,,,,,,,,,,,,,,,,,,,1,,,,,,,,,,,,,,,,,,,,,,,,,,,,,,,,,,,,,,,,,,,,,,72,157027,20,Female,1,2024/02/20_15:56:00,YZ,None,
,,,,,,calibration,0,31,2,426,3,V,1,left,0.4562331670022104,1,0,,,,,,,,,,,,,,,,,,,,,1,,,,,,,,,,,,,,,,,,,,,,,,,,,,,,,,,,,,,,,,,,,,,,72,157027,20,Female,1,2024/02/20_15:56:00,YZ,None,
,,,,,,calibration,0,31,2,426,4,J,1,right,0.3688759119977476,0,0,,,,,,,,,,,,,,,,,,,,,1,,,,,,,,,,,,,,,,,,,,,,,,,,,,,,,,,,,,,,,,,,,,,,72,157027,20,Female,1,2024/02/20_15:56:00,YZ,None,
,,,,,,calibration,0,31,2,426,5,C,0,right,0.6507212650030851,1,0,,,,,,,,,,,,,,,,,,,,,1,,,,,,,,,,,,,,,,,,,,,,,,,,,,,,,,,,,,,,,,,,,,,,72,157027,20,Female,1,2024/02/20_15:56:00,YZ,None,
,,,,,,calibration,0,31,2,426,6,S,0,right,0.6967689180019079,1,0,,,,,,,,,,,,,,,,,,,,,1,,,,,,,,,,,,,,,,,,,,,,,,,,,,,,,,,,,,,,,,,,,,,,72,157027,20,Female,1,2024/02/20_15:56:00,YZ,None,
,,,,,,calibration,0,31,2,426,7,Q,0,left,0.5655612050031777,0,0,,,,,,,,,,,,,,,,,,,,,1,,,,,,,,,,,,,,,,,,,,,,,,,,,,,,,,,,,,,,,,,,,,,,72,157027,20,Female,1,2024/02/20_15:56:00,YZ,None,
,,,,,,calibration,0,31,2,426,8,F,0,right,0.541971526996349,1,0,,,,,,,,,,,,,,,,,,,,,1,,,,,,,,,,,,,,,,,,,,,,,,,,,,,,,,,,,,,,,,,,,,,,72,157027,20,Female,1,2024/02/20_15:56:00,YZ,None,
,,,,,,calibration,0,31,2,426,9,Q,1,left,0.42125054899952374,1,0,,,,,,,,,,,,,,,,,,,,,1,,,,,,,,,,,,,,,,,,,,,,,,,,,,,,,,,,,,,,,,,,,,,,72,157027,20,Female,1,2024/02/20_15:56:00,YZ,None,
,,,,,,calibration,0,31,2,426,10,V,0,right,0.4501208550063893,1,0,,,,,,,,,,,,,,,,,,,,,1,,,,,,,,,,,,,,,,,,,,,,,,,,,,,,,,,,,,,,,,,,,,,,72,157027,20,Female,1,2024/02/20_15:56:00,YZ,None,
,,,,,,calibration,0,31,2,426,11,C,0,right,0.8030841190047795,1,0,,,,,,,,,,,,,,,,,,,,,1,,,,,,,,,,,,,,,,,,,,,,,,,,,,,,,,,,,,,,,,,,,,,,72,157027,20,Female,1,2024/02/20_15:56:00,YZ,None,
,,,,,,calibration,0,31,2,426,12,S,0,right,0.764941519999411,1,0,,,,,,,,,,,,,,,,,,,,,1,,,,,,,,,,,,,,,,,,,,,,,,,,,,,,,,,,,,,,,,,,,,,,72,157027,20,Female,1,2024/02/20_15:56:00,YZ,None,
,,,,,,calibration,0,31,2,426,13,J,0,right,0.71440723699925,1,0,,,,,,,,,,,,,,,,,,,,,1,,,,,,,,,,,,,,,,,,,,,,,,,,,,,,,,,,,,,,,,,,,,,,72,157027,20,Female,1,2024/02/20_15:56:00,YZ,None,
,,,,,,calibration,0,31,2,426,14,S,1,left,0.7246622210077476,1,0,,,,,,,,,,,,,,,,,,,,,1,,,,,,,,,,,,,,,,,,,,,,,,,,,,,,,,,,,,,,,,,,,,,,72,157027,20,Female,1,2024/02/20_15:56:00,YZ,None,
,,,,,,calibration,0,31,2,426,15,X,0,right,0.3438841349998256,1,0,,,,,,,,,,,,,,,,,,,,,1,,,,,,,,,,,,,,,,,,,,,,,,,,,,,,,,,,,,,,,,,,,,,,72,157027,20,Female,1,2024/02/20_15:56:00,YZ,None,
,,,,,,calibration,0,31,2,426,16,V,0,right,0.6074495320062852,1,0,,,,,,,,,,,,,,,,,,,,,1,,,,,,,,,,,,,,,,,,,,,,,,,,,,,,,,,,,,,,,,,,,,,,72,157027,20,Female,1,2024/02/20_15:56:00,YZ,None,
,,,,,,calibration,0,31,2,426,17,X,1,left,0.7019164569937857,1,0,,,,,,,,,,,,,,,,,,,,,1,,,,,,,,,,,,,,,,,,,,,,,,,,,,,,,,,,,,,,,,,,,,,,72,157027,20,Female,1,2024/02/20_15:56:00,YZ,None,
,,,,,,calibration,0,31,2,426,,,,,,,,0.9125000000000001,0.8,0.08333333333333333,0.9166666666666666,0.0,0.9166666666666666,0.5969828627070562,4,1,0,0,0,11,15,5,12,0,,,,1,,,,,,,,,,,,,,,,,,,,,,,,,,,,,,,,,,,,,,,,,,,,,,72,157027,20,Female,1,2024/02/20_15:56:00,YZ,None,
,,,,,,Calibration,0,,2,426,,,,,,,,,,,,,,,,,,,,,,,,,8,,,1,,,,,,,,,,,,,,,,,,,,,,,,,,,,,,,,,,,,,,,,,,,,,,72,157027,20,Female,1,2024/02/20_15:56:00,YZ,None,
,,,,,,calibration,0,1,2,361,1,V,0,right,0.7987574580038199,1,0,,,,,,,,,,,,,,,,,,,,,1,,,,,,,,,,,,,,,,,,,,,,,,,,,,,,,,,,,,,,,,,,,,,,72,157027,20,Female,1,2024/02/20_15:56:00,YZ,None,
,,,,,,calibration,0,1,2,361,2,J,0,right,0.2844725150062004,1,0,,,,,,,,,,,,,,,,,,,,,1,,,,,,,,,,,,,,,,,,,,,,,,,,,,,,,,,,,,,,,,,,,,,,72,157027,20,Female,1,2024/02/20_15:56:00,YZ,None,
,,,,,,calibration,0,1,2,361,3,N,0,right,0.6993690109957242,1,0,,,,,,,,,,,,,,,,,,,,,1,,,,,,,,,,,,,,,,,,,,,,,,,,,,,,,,,,,,,,,,,,,,,,72,157027,20,Female,1,2024/02/20_15:56:00,YZ,None,
,,,,,,calibration,0,1,2,361,4,J,1,left,0.4608661340025719,1,0,,,,,,,,,,,,,,,,,,,,,1,,,,,,,,,,,,,,,,,,,,,,,,,,,,,,,,,,,,,,,,,,,,,,72,157027,20,Female,1,2024/02/20_15:56:00,YZ,None,
,,,,,,calibration,0,1,2,361,5,N,1,left,0.6125167650025105,1,0,,,,,,,,,,,,,,,,,,,,,1,,,,,,,,,,,,,,,,,,,,,,,,,,,,,,,,,,,,,,,,,,,,,,72,157027,20,Female,1,2024/02/20_15:56:00,YZ,None,
,,,,,,calibration,0,1,2,361,6,X,0,right,0.3342913960077567,1,0,,,,,,,,,,,,,,,,,,,,,1,,,,,,,,,,,,,,,,,,,,,,,,,,,,,,,,,,,,,,,,,,,,,,72,157027,20,Female,1,2024/02/20_15:56:00,YZ,None,
,,,,,,calibration,0,1,2,361,7,S,0,right,0.5307360059960047,1,0,,,,,,,,,,,,,,,,,,,,,1,,,,,,,,,,,,,,,,,,,,,,,,,,,,,,,,,,,,,,,,,,,,,,72,157027,20,Female,1,2024/02/20_15:56:00,YZ,None,
,,,,,,calibration,0,1,2,361,8,N,0,left,0.5416363320109667,0,0,,,,,,,,,,,,,,,,,,,,,1,,,,,,,,,,,,,,,,,,,,,,,,,,,,,,,,,,,,,,,,,,,,,,72,157027,20,Female,1,2024/02/20_15:56:00,YZ,None,
,,,,,,calibration,0,1,2,361,9,V,0,left,nan,0,1,,,,,,,,,,,,,,,,,,,,,1,,,,,,,,,,,,,,,,,,,,,,,,,,,,,,,,,,,,,,,,,,,,,,72,157027,20,Female,1,2024/02/20_15:56:00,YZ,None,
,,,,,,calibration,0,1,2,361,10,N,1,right,0.7257107899931725,0,0,,,,,,,,,,,,,,,,,,,,,1,,,,,,,,,,,,,,,,,,,,,,,,,,,,,,,,,,,,,,,,,,,,,,72,157027,20,Female,1,2024/02/20_15:56:00,YZ,None,
,,,,,,calibration,0,1,2,361,11,V,1,left,0.6729055360046914,1,0,,,,,,,,,,,,,,,,,,,,,1,,,,,,,,,,,,,,,,,,,,,,,,,,,,,,,,,,,,,,,,,,,,,,72,157027,20,Female,1,2024/02/20_15:56:00,YZ,None,
,,,,,,calibration,0,1,2,361,12,F,0,right,0.621923737009638,1,0,,,,,,,,,,,,,,,,,,,,,1,,,,,,,,,,,,,,,,,,,,,,,,,,,,,,,,,,,,,,,,,,,,,,72,157027,20,Female,1,2024/02/20_15:56:00,YZ,None,
,,,,,,calibration,0,1,2,361,13,V,1,right,0.5234530229936354,0,0,,,,,,,,,,,,,,,,,,,,,1,,,,,,,,,,,,,,,,,,,,,,,,,,,,,,,,,,,,,,,,,,,,,,72,157027,20,Female,1,2024/02/20_15:56:00,YZ,None,
,,,,,,calibration,0,1,2,361,14,C,0,right,0.888650171997142,1,0,,,,,,,,,,,,,,,,,,,,,1,,,,,,,,,,,,,,,,,,,,,,,,,,,,,,,,,,,,,,,,,,,,,,72,157027,20,Female,1,2024/02/20_15:56:00,YZ,None,
,,,,,,calibration,0,1,2,361,15,V,1,left,0.36377826999523677,1,0,,,,,,,,,,,,,,,,,,,,,1,,,,,,,,,,,,,,,,,,,,,,,,,,,,,,,,,,,,,,,,,,,,,,72,157027,20,Female,1,2024/02/20_15:56:00,YZ,None,
,,,,,,calibration,0,1,2,361,16,S,0,right,0.56560563200037,1,0,,,,,,,,,,,,,,,,,,,,,1,,,,,,,,,,,,,,,,,,,,,,,,,,,,,,,,,,,,,,,,,,,,,,72,157027,20,Female,1,2024/02/20_15:56:00,YZ,None,
,,,,,,calibration,0,1,2,361,17,N,0,right,nan,0,1,,,,,,,,,,,,,,,,,,,,,1,,,,,,,,,,,,,,,,,,,,,,,,,,,,,,,,,,,,,,,,,,,,,,72,157027,20,Female,1,2024/02/20_15:56:00,YZ,None,
,,,,,,calibration,0,1,2,361,18,J,0,right,nan,0,1,,,,,,,,,,,,,,,,,,,,,1,,,,,,,,,,,,,,,,,,,,,,,,,,,,,,,,,,,,,,,,,,,,,,72,157027,20,Female,1,2024/02/20_15:56:00,YZ,None,
,,,,,,calibration,0,1,2,361,,,,,,,,0.8680555555555555,0.6666666666666666,0.08333333333333333,0.8888888888888888,0.16666666666666666,0.75,0.5749781851346294,4,1,0,3,3,8,12,6,12,0,,,,1,,,,,,,,,,,,,,,,,,,,,,,,,,,,,,,,,,,,,,,,,,,,,,72,157027,20,Female,1,2024/02/20_15:56:00,YZ,None,
,,,,,,Calibration,0,,2,361,,,,,,,,,,,,,,,,,,,,,,,,,9,,,1,,,,,,,,,,,,,,,,,,,,,,,,,,,,,,,,,,,,,,,,,,,,,,72,157027,20,Female,1,2024/02/20_15:56:00,YZ,None,
,,,,,,calibration,0,34,2,303,1,Q,0,None,nan,0,1,,,,,,,,,,,,,,,,,,,,,1,,,,,,,,,,,,,,,,,,,,,,,,,,,,,,,,,,,,,,,,,,,,,,72,157027,20,Female,1,2024/02/20_15:56:00,YZ,None,
,,,,,,calibration,0,34,2,303,2,F,0,None,nan,0,1,,,,,,,,,,,,,,,,,,,,,1,,,,,,,,,,,,,,,,,,,,,,,,,,,,,,,,,,,,,,,,,,,,,,72,157027,20,Female,1,2024/02/20_15:56:00,YZ,None,
,,,,,,calibration,0,34,2,303,3,S,0,None,nan,0,1,,,,,,,,,,,,,,,,,,,,,1,,,,,,,,,,,,,,,,,,,,,,,,,,,,,,,,,,,,,,,,,,,,,,72,157027,20,Female,1,2024/02/20_15:56:00,YZ,None,
,,,,,,calibration,0,34,2,303,4,Q,0,left,0.5795624759921338,0,0,,,,,,,,,,,,,,,,,,,,,1,,,,,,,,,,,,,,,,,,,,,,,,,,,,,,,,,,,,,,,,,,,,,,72,157027,20,Female,1,2024/02/20_15:56:00,YZ,None,
,,,,,,calibration,0,34,2,303,5,J,0,left,nan,0,1,,,,,,,,,,,,,,,,,,,,,1,,,,,,,,,,,,,,,,,,,,,,,,,,,,,,,,,,,,,,,,,,,,,,72,157027,20,Female,1,2024/02/20_15:56:00,YZ,None,
,,,,,,calibration,0,34,2,303,6,Q,1,left,0.5921340130007593,1,0,,,,,,,,,,,,,,,,,,,,,1,,,,,,,,,,,,,,,,,,,,,,,,,,,,,,,,,,,,,,,,,,,,,,72,157027,20,Female,1,2024/02/20_15:56:00,YZ,None,
,,,,,,calibration,0,34,2,303,7,J,1,right,0.5882643310033018,0,0,,,,,,,,,,,,,,,,,,,,,1,,,,,,,,,,,,,,,,,,,,,,,,,,,,,,,,,,,,,,,,,,,,,,72,157027,20,Female,1,2024/02/20_15:56:00,YZ,None,
,,,,,,calibration,0,34,2,303,8,V,0,right,0.4459163819992682,1,0,,,,,,,,,,,,,,,,,,,,,1,,,,,,,,,,,,,,,,,,,,,,,,,,,,,,,,,,,,,,,,,,,,,,72,157027,20,Female,1,2024/02/20_15:56:00,YZ,None,
,,,,,,calibration,0,34,2,303,9,J,1,left,0.5695452579966513,1,0,,,,,,,,,,,,,,,,,,,,,1,,,,,,,,,,,,,,,,,,,,,,,,,,,,,,,,,,,,,,,,,,,,,,72,157027,20,Female,1,2024/02/20_15:56:00,YZ,None,
,,,,,,calibration,0,34,2,303,10,V,1,left,0.6917125020117965,1,0,,,,,,,,,,,,,,,,,,,,,1,,,,,,,,,,,,,,,,,,,,,,,,,,,,,,,,,,,,,,,,,,,,,,72,157027,20,Female,1,2024/02/20_15:56:00,YZ,None,
,,,,,,calibration,0,34,2,303,11,N,0,right,0.6053810510056792,1,0,,,,,,,,,,,,,,,,,,,,,1,,,,,,,,,,,,,,,,,,,,,,,,,,,,,,,,,,,,,,,,,,,,,,72,157027,20,Female,1,2024/02/20_15:56:00,YZ,None,
,,,,,,calibration,0,34,2,303,12,V,1,left,0.4499041109957034,1,0,,,,,,,,,,,,,,,,,,,,,1,,,,,,,,,,,,,,,,,,,,,,,,,,,,,,,,,,,,,,,,,,,,,,72,157027,20,Female,1,2024/02/20_15:56:00,YZ,None,
,,,,,,calibration,0,34,2,303,13,X,0,right,0.4641847559978487,1,0,,,,,,,,,,,,,,,,,,,,,1,,,,,,,,,,,,,,,,,,,,,,,,,,,,,,,,,,,,,,,,,,,,,,72,157027,20,Female,1,2024/02/20_15:56:00,YZ,None,
,,,,,,calibration,0,34,2,303,14,C,0,right,0.863750891003292,1,0,,,,,,,,,,,,,,,,,,,,,1,,,,,,,,,,,,,,,,,,,,,,,,,,,,,,,,,,,,,,,,,,,,,,72,157027,20,Female,1,2024/02/20_15:56:00,YZ,None,
,,,,,,calibration,0,34,2,303,15,X,1,left,0.8081427709985292,1,0,,,,,,,,,,,,,,,,,,,,,1,,,,,,,,,,,,,,,,,,,,,,,,,,,,,,,,,,,,,,,,,,,,,,72,157027,20,Female,1,2024/02/20_15:56:00,YZ,None,
,,,,,,calibration,0,34,2,303,16,F,0,right,0.3708021920028841,1,0,,,,,,,,,,,,,,,,,,,,,1,,,,,,,,,,,,,,,,,,,,,,,,,,,,,,,,,,,,,,,,,,,,,,72,157027,20,Female,1,2024/02/20_15:56:00,YZ,None,
,,,,,,calibration,0,34,2,303,17,V,0,left,0.4103089900017949,0,0,,,,,,,,,,,,,,,,,,,,,1,,,,,,,,,,,,,,,,,,,,,,,,,,,,,,,,,,,,,,,,,,,,,,72,157027,20,Female,1,2024/02/20_15:56:00,YZ,None,
,,,,,,calibration,0,34,2,303,18,S,0,right,0.523429959997884,1,0,,,,,,,,,,,,,,,,,,,,,1,,,,,,,,,,,,,,,,,,,,,,,,,,,,,,,,,,,,,,,,,,,,,,72,157027,20,Female,1,2024/02/20_15:56:00,YZ,None,
,,,,,,calibration,0,34,2,303,19,J,0,right,nan,0,1,,,,,,,,,,,,,,,,,,,,,1,,,,,,,,,,,,,,,,,,,,,,,,,,,,,,,,,,,,,,,,,,,,,,72,157027,20,Female,1,2024/02/20_15:56:00,YZ,None,
,,,,,,calibration,0,34,2,303,,,,,,,,0.8942307692307693,0.8333333333333334,0.15384615384615385,0.75,0.2631578947368421,0.582995951417004,0.5687885488576805,5,2,0,5,5,6,11,6,13,0,,,,1,,,,,,,,,,,,,,,,,,,,,,,,,,,,,,,,,,,,,,,,,,,,,,72,157027,20,Female,1,2024/02/20_15:56:00,YZ,None,
,,,,,,Calibration,0,,2,303,,,,,,,,,,,,,,,,,,,,,,,,,10,,,1,,,,,,,,,,,,,,,,,,,,,,,,,,,,,,,,,,,,,,,,,,,,,,72,157027,20,Female,1,2024/02/20_15:56:00,YZ,None,
,,,,,,calibration,0,34,2,250,1,N,0,right,0.516788421999081,1,0,,,,,,,,,,,,,,,,,,,,,1,,,,,,,,,,,,,,,,,,,,,,,,,,,,,,,,,,,,,,,,,,,,,,72,157027,20,Female,1,2024/02/20_15:56:00,YZ,None,
,,,,,,calibration,0,34,2,250,2,V,0,right,0.3114219459966989,1,0,,,,,,,,,,,,,,,,,,,,,1,,,,,,,,,,,,,,,,,,,,,,,,,,,,,,,,,,,,,,,,,,,,,,72,157027,20,Female,1,2024/02/20_15:56:00,YZ,None,
,,,,,,calibration,0,34,2,250,3,J,0,right,0.38860566999937873,1,0,,,,,,,,,,,,,,,,,,,,,1,,,,,,,,,,,,,,,,,,,,,,,,,,,,,,,,,,,,,,,,,,,,,,72,157027,20,Female,1,2024/02/20_15:56:00,YZ,None,
,,,,,,calibration,0,34,2,250,4,X,0,right,0.48814571399998385,1,0,,,,,,,,,,,,,,,,,,,,,1,,,,,,,,,,,,,,,,,,,,,,,,,,,,,,,,,,,,,,,,,,,,,,72,157027,20,Female,1,2024/02/20_15:56:00,YZ,None,
,,,,,,calibration,0,34,2,250,5,V,0,right,0.7928595630073687,1,0,,,,,,,,,,,,,,,,,,,,,1,,,,,,,,,,,,,,,,,,,,,,,,,,,,,,,,,,,,,,,,,,,,,,72,157027,20,Female,1,2024/02/20_15:56:00,YZ,None,
,,,,,,calibration,0,34,2,250,6,X,1,left,0.745144128013635,1,0,,,,,,,,,,,,,,,,,,,,,1,,,,,,,,,,,,,,,,,,,,,,,,,,,,,,,,,,,,,,,,,,,,,,72,157027,20,Female,1,2024/02/20_15:56:00,YZ,None,
,,,,,,calibration,0,34,2,250,7,J,0,right,0.10946836799848825,1,0,,,,,,,,,,,,,,,,,,,,,1,,,,,,,,,,,,,,,,,,,,,,,,,,,,,,,,,,,,,,,,,,,,,,72,157027,20,Female,1,2024/02/20_15:56:00,YZ,None,
,,,,,,calibration,0,34,2,250,8,S,0,right,0.5748766340111615,1,0,,,,,,,,,,,,,,,,,,,,,1,,,,,,,,,,,,,,,,,,,,,,,,,,,,,,,,,,,,,,,,,,,,,,72,157027,20,Female,1,2024/02/20_15:56:00,YZ,None,
,,,,,,calibration,0,34,2,250,9,V,0,right,0.9103092610021122,1,0,,,,,,,,,,,,,,,,,,,,,1,,,,,,,,,,,,,,,,,,,,,,,,,,,,,,,,,,,,,,,,,,,,,,72,157027,20,Female,1,2024/02/20_15:56:00,YZ,None,
,,,,,,calibration,0,34,2,250,10,S,1,left,0.3792401440005051,1,0,,,,,,,,,,,,,,,,,,,,,1,,,,,,,,,,,,,,,,,,,,,,,,,,,,,,,,,,,,,,,,,,,,,,72,157027,20,Female,1,2024/02/20_15:56:00,YZ,None,
,,,,,,calibration,0,34,2,250,11,Q,0,right,0.42837139300536364,1,0,,,,,,,,,,,,,,,,,,,,,1,,,,,,,,,,,,,,,,,,,,,,,,,,,,,,,,,,,,,,,,,,,,,,72,157027,20,Female,1,2024/02/20_15:56:00,YZ,None,
,,,,,,calibration,0,34,2,250,12,X,0,right,0.671181653990061,1,0,,,,,,,,,,,,,,,,,,,,,1,,,,,,,,,,,,,,,,,,,,,,,,,,,,,,,,,,,,,,,,,,,,,,72,157027,20,Female,1,2024/02/20_15:56:00,YZ,None,
,,,,,,calibration,0,34,2,250,13,J,0,right,0.4753394819999812,1,0,,,,,,,,,,,,,,,,,,,,,1,,,,,,,,,,,,,,,,,,,,,,,,,,,,,,,,,,,,,,,,,,,,,,72,157027,20,Female,1,2024/02/20_15:56:00,YZ,None,
,,,,,,calibration,0,34,2,250,14,Q,0,right,nan,0,1,,,,,,,,,,,,,,,,,,,,,1,,,,,,,,,,,,,,,,,,,,,,,,,,,,,,,,,,,,,,,,,,,,,,72,157027,20,Female,1,2024/02/20_15:56:00,YZ,None,
,,,,,,calibration,0,34,2,250,15,S,0,right,0.5965807989996392,1,0,,,,,,,,,,,,,,,,,,,,,1,,,,,,,,,,,,,,,,,,,,,,,,,,,,,,,,,,,,,,,,,,,,,,72,157027,20,Female,1,2024/02/20_15:56:00,YZ,None,
,,,,,,calibration,0,34,2,250,16,Q,1,right,0.5586634239880368,0,0,,,,,,,,,,,,,,,,,,,,,1,,,,,,,,,,,,,,,,,,,,,,,,,,,,,,,,,,,,,,,,,,,,,,72,157027,20,Female,1,2024/02/20_15:56:00,YZ,None,
,,,,,,calibration,0,34,2,250,17,S,1,left,0.44243648400879465,1,0,,,,,,,,,,,,,,,,,,,,,1,,,,,,,,,,,,,,,,,,,,,,,,,,,,,,,,,,,,,,,,,,,,,,72,157027,20,Female,1,2024/02/20_15:56:00,YZ,None,
,,,,,,calibration,0,34,2,250,18,C,0,right,0.16445729200495407,1,0,,,,,,,,,,,,,,,,,,,,,1,,,,,,,,,,,,,,,,,,,,,,,,,,,,,,,,,,,,,,,,,,,,,,72,157027,20,Female,1,2024/02/20_15:56:00,YZ,None,
,,,,,,calibration,0,34,2,250,19,S,1,left,0.681977395011927,1,0,,,,,,,,,,,,,,,,,,,,,1,,,,,,,,,,,,,,,,,,,,,,,,,,,,,,,,,,,,,,,,,,,,,,72,157027,20,Female,1,2024/02/20_15:56:00,YZ,None,
,,,,,,calibration,0,34,2,250,20,J,0,right,0.2546158600016497,1,0,,,,,,,,,,,,,,,,,,,,,1,,,,,,,,,,,,,,,,,,,,,,,,,,,,,,,,,,,,,,,,,,,,,,72,157027,20,Female,1,2024/02/20_15:56:00,YZ,None,
,,,,,,calibration,0,34,2,250,,,,,,,,0.95,0.8,0.0,1.0,0.05,0.95,0.49949913858099054,4,0,0,1,1,14,18,5,15,0,,,,1,,,,,,,,,,,,,,,,,,,,,,,,,,,,,,,,,,,,,,,,,,,,,,72,157027,20,Female,1,2024/02/20_15:56:00,YZ,None,
,,,,,,Calibration,0,,2,250,,,,,,,,,,,,,,,,,,,,,,,,,11,,,1,,,,,,,,,,,,,,,,,,,,,,,,,,,,,,,,,,,,,,,,,,,,,,72,157027,20,Female,1,2024/02/20_15:56:00,YZ,None,
,,,,,,calibration,0,36,2,202,1,Q,0,right,0.4790846899995813,1,0,,,,,,,,,,,,,,,,,,,,,1,,,,,,,,,,,,,,,,,,,,,,,,,,,,,,,,,,,,,,,,,,,,,,72,157027,20,Female,1,2024/02/20_15:56:00,YZ,None,
,,,,,,calibration,0,36,2,202,2,X,0,right,0.6749701020016801,1,0,,,,,,,,,,,,,,,,,,,,,1,,,,,,,,,,,,,,,,,,,,,,,,,,,,,,,,,,,,,,,,,,,,,,72,157027,20,Female,1,2024/02/20_15:56:00,YZ,None,
,,,,,,calibration,0,36,2,202,3,F,0,right,0.4070814570004586,1,0,,,,,,,,,,,,,,,,,,,,,1,,,,,,,,,,,,,,,,,,,,,,,,,,,,,,,,,,,,,,,,,,,,,,72,157027,20,Female,1,2024/02/20_15:56:00,YZ,None,
,,,,,,calibration,0,36,2,202,4,N,0,right,0.6148527970071882,1,0,,,,,,,,,,,,,,,,,,,,,1,,,,,,,,,,,,,,,,,,,,,,,,,,,,,,,,,,,,,,,,,,,,,,72,157027,20,Female,1,2024/02/20_15:56:00,YZ,None,
,,,,,,calibration,0,36,2,202,5,J,0,right,0.4192318800050998,1,0,,,,,,,,,,,,,,,,,,,,,1,,,,,,,,,,,,,,,,,,,,,,,,,,,,,,,,,,,,,,,,,,,,,,72,157027,20,Female,1,2024/02/20_15:56:00,YZ,None,
,,,,,,calibration,0,36,2,202,6,V,0,right,0.5616998820041772,1,0,,,,,,,,,,,,,,,,,,,,,1,,,,,,,,,,,,,,,,,,,,,,,,,,,,,,,,,,,,,,,,,,,,,,72,157027,20,Female,1,2024/02/20_15:56:00,YZ,None,
,,,,,,calibration,0,36,2,202,7,J,1,left,0.6385485490027349,1,0,,,,,,,,,,,,,,,,,,,,,1,,,,,,,,,,,,,,,,,,,,,,,,,,,,,,,,,,,,,,,,,,,,,,72,157027,20,Female,1,2024/02/20_15:56:00,YZ,None,
,,,,,,calibration,0,36,2,202,8,V,1,right,0.17577755100501236,0,0,,,,,,,,,,,,,,,,,,,,,1,,,,,,,,,,,,,,,,,,,,,,,,,,,,,,,,,,,,,,,,,,,,,,72,157027,20,Female,1,2024/02/20_15:56:00,YZ,None,
,,,,,,calibration,0,36,2,202,9,Q,0,left,0.08480178999889176,0,0,,,,,,,,,,,,,,,,,,,,,1,,,,,,,,,,,,,,,,,,,,,,,,,,,,,,,,,,,,,,,,,,,,,,72,157027,20,Female,1,2024/02/20_15:56:00,YZ,None,
,,,,,,calibration,0,36,2,202,10,V,1,left,nan,0,1,,,,,,,,,,,,,,,,,,,,,1,,,,,,,,,,,,,,,,,,,,,,,,,,,,,,,,,,,,,,,,,,,,,,72,157027,20,Female,1,2024/02/20_15:56:00,YZ,None,
,,,,,,calibration,0,36,2,202,11,S,0,right,0.010959538005408831,1,0,,,,,,,,,,,,,,,,,,,,,1,,,,,,,,,,,,,,,,,,,,,,,,,,,,,,,,,,,,,,,,,,,,,,72,157027,20,Female,1,2024/02/20_15:56:00,YZ,None,
,,,,,,calibration,0,36,2,202,12,F,0,right,0.9388566859997809,1,0,,,,,,,,,,,,,,,,,,,,,1,,,,,,,,,,,,,,,,,,,,,,,,,,,,,,,,,,,,,,,,,,,,,,72,157027,20,Female,1,2024/02/20_15:56:00,YZ,None,
,,,,,,calibration,0,36,2,202,13,S,1,left,0.491586179996375,1,0,,,,,,,,,,,,,,,,,,,,,1,,,,,,,,,,,,,,,,,,,,,,,,,,,,,,,,,,,,,,,,,,,,,,72,157027,20,Female,1,2024/02/20_15:56:00,YZ,None,
,,,,,,calibration,0,36,2,202,14,J,0,right,0.4423466529988218,1,0,,,,,,,,,,,,,,,,,,,,,1,,,,,,,,,,,,,,,,,,,,,,,,,,,,,,,,,,,,,,,,,,,,,,72,157027,20,Female,1,2024/02/20_15:56:00,YZ,None,
,,,,,,calibration,0,36,2,202,15,S,1,left,0.8597935119905742,1,0,,,,,,,,,,,,,,,,,,,,,1,,,,,,,,,,,,,,,,,,,,,,,,,,,,,,,,,,,,,,,,,,,,,,72,157027,20,Female,1,2024/02/20_15:56:00,YZ,None,
,,,,,,calibration,0,36,2,202,16,F,0,right,0.33659869999974035,1,0,,,,,,,,,,,,,,,,,,,,,1,,,,,,,,,,,,,,,,,,,,,,,,,,,,,,,,,,,,,,,,,,,,,,72,157027,20,Female,1,2024/02/20_15:56:00,YZ,None,
,,,,,,calibration,0,36,2,202,17,Q,0,right,0.5808023709978443,1,0,,,,,,,,,,,,,,,,,,,,,1,,,,,,,,,,,,,,,,,,,,,,,,,,,,,,,,,,,,,,,,,,,,,,72,157027,20,Female,1,2024/02/20_15:56:00,YZ,None,
,,,,,,calibration,0,36,2,202,18,V,0,right,0.5648480489908252,1,0,,,,,,,,,,,,,,,,,,,,,1,,,,,,,,,,,,,,,,,,,,,,,,,,,,,,,,,,,,,,,,,,,,,,72,157027,20,Female,1,2024/02/20_15:56:00,YZ,None,
,,,,,,calibration,0,36,2,202,19,C,0,right,0.581126810007845,1,0,,,,,,,,,,,,,,,,,,,,,1,,,,,,,,,,,,,,,,,,,,,,,,,,,,,,,,,,,,,,,,,,,,,,72,157027,20,Female,1,2024/02/20_15:56:00,YZ,None,
,,,,,,calibration,0,36,2,202,20,V,1,left,0.6036508859979222,1,0,,,,,,,,,,,,,,,,,,,,,1,,,,,,,,,,,,,,,,,,,,,,,,,,,,,,,,,,,,,,,,,,,,,,72,157027,20,Female,1,2024/02/20_15:56:00,YZ,None,
,,,,,,calibration,0,36,2,202,21,S,0,left,0.4722666250017937,0,0,,,,,,,,,,,,,,,,,,,,,1,,,,,,,,,,,,,,,,,,,,,,,,,,,,,,,,,,,,,,,,,,,,,,72,157027,20,Female,1,2024/02/20_15:56:00,YZ,None,
,,,,,,calibration,0,36,2,202,,,,,,,,0.8388888888888889,0.6666666666666666,0.13333333333333333,0.8666666666666667,0.047619047619047616,0.819047619047619,0.4969442354005878,4,2,1,0,1,13,17,6,15,0,,,,1,,,,,,,,,,,,,,,,,,,,,,,,,,,,,,,,,,,,,,,,,,,,,,72,157027,20,Female,1,2024/02/20_15:56:00,YZ,None,
,,,,,,Calibration,0,,2,202,,,,,,,,,,,,,,,,,,,,,,,,,12,,,1,,,,,,,,,,,,,,,,,,,,,,,,,,,,,,,,,,,,,,,,,,,,,,72,157027,20,Female,1,2024/02/20_15:56:00,YZ,None,
,,,,,,calibration,0,19,2,202,1,J,0,right,0.4159663649916183,1,0,,,,,,,,,,,,,,,,,,,,,1,,,,,,,,,,,,,,,,,,,,,,,,,,,,,,,,,,,,,,,,,,,,,,72,157027,20,Female,1,2024/02/20_15:56:00,YZ,None,
,,,,,,calibration,0,19,2,202,2,V,0,right,0.808751630000188,1,0,,,,,,,,,,,,,,,,,,,,,1,,,,,,,,,,,,,,,,,,,,,,,,,,,,,,,,,,,,,,,,,,,,,,72,157027,20,Female,1,2024/02/20_15:56:00,YZ,None,
,,,,,,calibration,0,19,2,202,3,C,0,right,0.605076136009302,1,0,,,,,,,,,,,,,,,,,,,,,1,,,,,,,,,,,,,,,,,,,,,,,,,,,,,,,,,,,,,,,,,,,,,,72,157027,20,Female,1,2024/02/20_15:56:00,YZ,None,
,,,,,,calibration,0,19,2,202,4,J,0,right,0.9918328909989214,1,0,,,,,,,,,,,,,,,,,,,,,1,,,,,,,,,,,,,,,,,,,,,,,,,,,,,,,,,,,,,,,,,,,,,,72,157027,20,Female,1,2024/02/20_15:56:00,YZ,None,
,,,,,,calibration,0,19,2,202,5,C,1,left,0.42290335000143386,1,0,,,,,,,,,,,,,,,,,,,,,1,,,,,,,,,,,,,,,,,,,,,,,,,,,,,,,,,,,,,,,,,,,,,,72,157027,20,Female,1,2024/02/20_15:56:00,YZ,None,
,,,,,,calibration,0,19,2,202,6,J,1,left,0.663225132986554,1,0,,,,,,,,,,,,,,,,,,,,,1,,,,,,,,,,,,,,,,,,,,,,,,,,,,,,,,,,,,,,,,,,,,,,72,157027,20,Female,1,2024/02/20_15:56:00,YZ,None,
,,,,,,calibration,0,19,2,202,7,S,0,right,0.5574942069943063,1,0,,,,,,,,,,,,,,,,,,,,,1,,,,,,,,,,,,,,,,,,,,,,,,,,,,,,,,,,,,,,,,,,,,,,72,157027,20,Female,1,2024/02/20_15:56:00,YZ,None,
,,,,,,calibration,0,19,2,202,8,Q,0,right,0.6578183469973737,1,0,,,,,,,,,,,,,,,,,,,,,1,,,,,,,,,,,,,,,,,,,,,,,,,,,,,,,,,,,,,,,,,,,,,,72,157027,20,Female,1,2024/02/20_15:56:00,YZ,None,
,,,,,,calibration,0,19,2,202,9,F,0,right,0.5197675630042795,1,0,,,,,,,,,,,,,,,,,,,,,1,,,,,,,,,,,,,,,,,,,,,,,,,,,,,,,,,,,,,,,,,,,,,,72,157027,20,Female,1,2024/02/20_15:56:00,YZ,None,
,,,,,,calibration,0,19,2,202,10,V,0,right,0.576604865011177,1,0,,,,,,,,,,,,,,,,,,,,,1,,,,,,,,,,,,,,,,,,,,,,,,,,,,,,,,,,,,,,,,,,,,,,72,157027,20,Female,1,2024/02/20_15:56:00,YZ,None,
,,,,,,calibration,0,19,2,202,11,J,0,right,0.6052784259954933,1,0,,,,,,,,,,,,,,,,,,,,,1,,,,,,,,,,,,,,,,,,,,,,,,,,,,,,,,,,,,,,,,,,,,,,72,157027,20,Female,1,2024/02/20_15:56:00,YZ,None,
,,,,,,calibration,0,19,2,202,12,C,0,right,0.7421643410052639,1,0,,,,,,,,,,,,,,,,,,,,,1,,,,,,,,,,,,,,,,,,,,,,,,,,,,,,,,,,,,,,,,,,,,,,72,157027,20,Female,1,2024/02/20_15:56:00,YZ,None,
,,,,,,calibration,0,19,2,202,13,J,1,left,0.5127155879890779,1,0,,,,,,,,,,,,,,,,,,,,,1,,,,,,,,,,,,,,,,,,,,,,,,,,,,,,,,,,,,,,,,,,,,,,72,157027,20,Female,1,2024/02/20_15:56:00,YZ,None,
,,,,,,calibration,0,19,2,202,14,S,0,right,0.29727964600897394,1,0,,,,,,,,,,,,,,,,,,,,,1,,,,,,,,,,,,,,,,,,,,,,,,,,,,,,,,,,,,,,,,,,,,,,72,157027,20,Female,1,2024/02/20_15:56:00,YZ,None,
,,,,,,calibration,0,19,2,202,15,J,1,left,0.6934287839976605,1,0,,,,,,,,,,,,,,,,,,,,,1,,,,,,,,,,,,,,,,,,,,,,,,,,,,,,,,,,,,,,,,,,,,,,72,157027,20,Female,1,2024/02/20_15:56:00,YZ,None,
,,,,,,calibration,0,19,2,202,16,Q,0,right,0.5468808519945014,1,0,,,,,,,,,,,,,,,,,,,,,1,,,,,,,,,,,,,,,,,,,,,,,,,,,,,,,,,,,,,,,,,,,,,,72,157027,20,Female,1,2024/02/20_15:56:00,YZ,None,
,,,,,,calibration,0,19,2,202,17,N,0,right,0.41806915200140793,1,0,,,,,,,,,,,,,,,,,,,,,1,,,,,,,,,,,,,,,,,,,,,,,,,,,,,,,,,,,,,,,,,,,,,,72,157027,20,Female,1,2024/02/20_15:56:00,YZ,None,
,,,,,,calibration,0,19,2,202,18,Q,1,left,0.7524504590110155,1,0,,,,,,,,,,,,,,,,,,,,,1,,,,,,,,,,,,,,,,,,,,,,,,,,,,,,,,,,,,,,,,,,,,,,72,157027,20,Female,1,2024/02/20_15:56:00,YZ,None,
,,,,,,calibration,0,19,2,202,19,N,1,right,0.3748038959893165,0,0,,,,,,,,,,,,,,,,,,,,,1,,,,,,,,,,,,,,,,,,,,,,,,,,,,,,,,,,,,,,,,,,,,,,72,157027,20,Female,1,2024/02/20_15:56:00,YZ,None,
,,,,,,calibration,0,19,2,202,20,V,0,right,0.5236950580001576,1,0,,,,,,,,,,,,,,,,,,,,,1,,,,,,,,,,,,,,,,,,,,,,,,,,,,,,,,,,,,,,,,,,,,,,72,157027,20,Female,1,2024/02/20_15:56:00,YZ,None,
,,,,,,calibration,0,19,2,202,21,N,1,left,0.5127372569986619,1,0,,,,,,,,,,,,,,,,,,,,,1,,,,,,,,,,,,,,,,,,,,,,,,,,,,,,,,,,,,,,,,,,,,,,72,157027,20,Female,1,2024/02/20_15:56:00,YZ,None,
,,,,,,calibration,0,19,2,202,,,,,,,,0.9642857142857143,0.8571428571428571,0.0,1.0,0.0,1.0,0.5809020926660325,6,0,0,0,0,14,20,7,14,0,,,,1,,,,,,,,,,,,,,,,,,,,,,,,,,,,,,,,,,,,,,,,,,,,,,72,157027,20,Female,1,2024/02/20_15:56:00,YZ,None,
,,,,,,Calibration,0,,2,202,,,,,,,,,,,,,,,,,,,,,,,,,13,,,1,,,,,,,,,,,,,,,,,,,,,,,,,,,,,,,,,,,,,,,,,,,,,,72,157027,20,Female,1,2024/02/20_15:56:00,YZ,None,
,,,,,,calibration,0,29,2,159,1,Q,0,right,0.9190933109930484,1,0,,,,,,,,,,,,,,,,,,,,,1,,,,,,,,,,,,,,,,,,,,,,,,,,,,,,,,,,,,,,,,,,,,,,72,157027,20,Female,1,2024/02/20_15:56:00,YZ,None,
,,,,,,calibration,0,29,2,159,2,X,0,right,0.3784453219996067,1,0,,,,,,,,,,,,,,,,,,,,,1,,,,,,,,,,,,,,,,,,,,,,,,,,,,,,,,,,,,,,,,,,,,,,72,157027,20,Female,1,2024/02/20_15:56:00,YZ,None,
,,,,,,calibration,0,29,2,159,3,N,0,right,0.5742781050066696,1,0,,,,,,,,,,,,,,,,,,,,,1,,,,,,,,,,,,,,,,,,,,,,,,,,,,,,,,,,,,,,,,,,,,,,72,157027,20,Female,1,2024/02/20_15:56:00,YZ,None,
,,,,,,calibration,0,29,2,159,4,S,0,right,0.5399818799924105,1,0,,,,,,,,,,,,,,,,,,,,,1,,,,,,,,,,,,,,,,,,,,,,,,,,,,,,,,,,,,,,,,,,,,,,72,157027,20,Female,1,2024/02/20_15:56:00,YZ,None,
,,,,,,calibration,0,29,2,159,5,Q,0,right,0.4589090950030368,1,0,,,,,,,,,,,,,,,,,,,,,1,,,,,,,,,,,,,,,,,,,,,,,,,,,,,,,,,,,,,,,,,,,,,,72,157027,20,Female,1,2024/02/20_15:56:00,YZ,None,
,,,,,,calibration,0,29,2,159,6,S,1,left,0.4848421469941968,1,0,,,,,,,,,,,,,,,,,,,,,1,,,,,,,,,,,,,,,,,,,,,,,,,,,,,,,,,,,,,,,,,,,,,,72,157027,20,Female,1,2024/02/20_15:56:00,YZ,None,
,,,,,,calibration,0,29,2,159,7,N,0,right,0.4554283449979266,1,0,,,,,,,,,,,,,,,,,,,,,1,,,,,,,,,,,,,,,,,,,,,,,,,,,,,,,,,,,,,,,,,,,,,,72,157027,20,Female,1,2024/02/20_15:56:00,YZ,None,
,,,,,,calibration,0,29,2,159,8,F,0,right,0.7627497439971194,1,0,,,,,,,,,,,,,,,,,,,,,1,,,,,,,,,,,,,,,,,,,,,,,,,,,,,,,,,,,,,,,,,,,,,,72,157027,20,Female,1,2024/02/20_15:56:00,YZ,None,
,,,,,,calibration,0,29,2,159,9,S,0,left,0.6771754509973107,0,0,,,,,,,,,,,,,,,,,,,,,1,,,,,,,,,,,,,,,,,,,,,,,,,,,,,,,,,,,,,,,,,,,,,,72,157027,20,Female,1,2024/02/20_15:56:00,YZ,None,
,,,,,,calibration,0,29,2,159,10,F,1,right,0.21408093800710049,0,0,,,,,,,,,,,,,,,,,,,,,1,,,,,,,,,,,,,,,,,,,,,,,,,,,,,,,,,,,,,,,,,,,,,,72,157027,20,Female,1,2024/02/20_15:56:00,YZ,None,
,,,,,,calibration,0,29,2,159,11,S,1,left,0.6847693140007323,1,0,,,,,,,,,,,,,,,,,,,,,1,,,,,,,,,,,,,,,,,,,,,,,,,,,,,,,,,,,,,,,,,,,,,,72,157027,20,Female,1,2024/02/20_15:56:00,YZ,None,
,,,,,,calibration,0,29,2,159,12,C,0,right,0.3423316580010578,1,0,,,,,,,,,,,,,,,,,,,,,1,,,,,,,,,,,,,,,,,,,,,,,,,,,,,,,,,,,,,,,,,,,,,,72,157027,20,Female,1,2024/02/20_15:56:00,YZ,None,
,,,,,,calibration,0,29,2,159,13,S,1,left,0.4134229979972588,1,0,,,,,,,,,,,,,,,,,,,,,1,,,,,,,,,,,,,,,,,,,,,,,,,,,,,,,,,,,,,,,,,,,,,,72,157027,20,Female,1,2024/02/20_15:56:00,YZ,None,
,,,,,,calibration,0,29,2,159,14,C,1,right,0.35648854900500737,0,0,,,,,,,,,,,,,,,,,,,,,1,,,,,,,,,,,,,,,,,,,,,,,,,,,,,,,,,,,,,,,,,,,,,,72,157027,20,Female,1,2024/02/20_15:56:00,YZ,None,
,,,,,,calibration,0,29,2,159,15,X,0,left,0.0,0,0,,,,,,,,,,,,,,,,,,,,,1,,,,,,,,,,,,,,,,,,,,,,,,,,,,,,,,,,,,,,,,,,,,,,72,157027,20,Female,1,2024/02/20_15:56:00,YZ,None,
,,,,,,calibration,0,29,2,159,16,V,0,right,0.8812438890017802,1,0,,,,,,,,,,,,,,,,,,,,,1,,,,,,,,,,,,,,,,,,,,,,,,,,,,,,,,,,,,,,,,,,,,,,72,157027,20,Female,1,2024/02/20_15:56:00,YZ,None,
,,,,,,calibration,0,29,2,159,17,C,0,right,nan,0,1,,,,,,,,,,,,,,,,,,,,,1,,,,,,,,,,,,,,,,,,,,,,,,,,,,,,,,,,,,,,,,,,,,,,72,157027,20,Female,1,2024/02/20_15:56:00,YZ,None,
,,,,,,calibration,0,29,2,159,18,V,1,right,nan,0,1,,,,,,,,,,,,,,,,,,,,,1,,,,,,,,,,,,,,,,,,,,,,,,,,,,,,,,,,,,,,,,,,,,,,72,157027,20,Female,1,2024/02/20_15:56:00,YZ,None,
,,,,,,calibration,0,29,2,159,19,Q,0,right,nan,0,1,,,,,,,,,,,,,,,,,,,,,1,,,,,,,,,,,,,,,,,,,,,,,,,,,,,,,,,,,,,,,,,,,,,,72,157027,20,Female,1,2024/02/20_15:56:00,YZ,None,
,,,,,,calibration,0,29,2,159,20,F,0,right,nan,0,1,,,,,,,,,,,,,,,,,,,,,1,,,,,,,,,,,,,,,,,,,,,,,,,,,,,,,,,,,,,,,,,,,,,,72,157027,20,Female,1,2024/02/20_15:56:00,YZ,None,
,,,,,,calibration,0,29,2,159,21,J,0,right,0.369010195005103,1,0,,,,,,,,,,,,,,,,,,,,,1,,,,,,,,,,,,,,,,,,,,,,,,,,,,,,,,,,,,,,,,,,,,,,72,157027,20,Female,1,2024/02/20_15:56:00,YZ,None,
,,,,,,calibration,0,29,2,159,22,S,0,right,0.8627700390061364,1,0,,,,,,,,,,,,,,,,,,,,,1,,,,,,,,,,,,,,,,,,,,,,,,,,,,,,,,,,,,,,,,,,,,,,72,157027,20,Female,1,2024/02/20_15:56:00,YZ,None,
,,,,,,calibration,0,29,2,159,,,,,,,,0.78125,0.5,0.125,0.8461538461538461,0.18181818181818182,0.6931818181818181,0.5208344988891945,3,2,1,3,4,11,14,6,16,0,,,,1,,,,,,,,,,,,,,,,,,,,,,,,,,,,,,,,,,,,,,,,,,,,,,72,157027,20,Female,1,2024/02/20_15:56:00,YZ,None,
,,,,,,Calibration,0,,2,159,,,,,,,,,,,,,,,,,,,,,,,,,14,,,1,,,,,,,,,,,,,,,,,,,,,,,,,,,,,,,,,,,,,,,,,,,,,,72,157027,20,Female,1,2024/02/20_15:56:00,YZ,None,
,,,,,,calibration,0,7,2,159,1,X,0,right,0.6167715419869637,1,0,,,,,,,,,,,,,,,,,,,,,1,,,,,,,,,,,,,,,,,,,,,,,,,,,,,,,,,,,,,,,,,,,,,,72,157027,20,Female,1,2024/02/20_15:56:00,YZ,None,
,,,,,,calibration,0,7,2,159,2,Q,0,right,0.22118482500081882,1,0,,,,,,,,,,,,,,,,,,,,,1,,,,,,,,,,,,,,,,,,,,,,,,,,,,,,,,,,,,,,,,,,,,,,72,157027,20,Female,1,2024/02/20_15:56:00,YZ,None,
,,,,,,calibration,0,7,2,159,3,C,0,right,0.40117891199770384,1,0,,,,,,,,,,,,,,,,,,,,,1,,,,,,,,,,,,,,,,,,,,,,,,,,,,,,,,,,,,,,,,,,,,,,72,157027,20,Female,1,2024/02/20_15:56:00,YZ,None,
,,,,,,calibration,0,7,2,159,4,F,0,right,0.37689786800183356,1,0,,,,,,,,,,,,,,,,,,,,,1,,,,,,,,,,,,,,,,,,,,,,,,,,,,,,,,,,,,,,,,,,,,,,72,157027,20,Female,1,2024/02/20_15:56:00,YZ,None,
,,,,,,calibration,0,7,2,159,5,Q,0,right,0.644562315006624,1,0,,,,,,,,,,,,,,,,,,,,,1,,,,,,,,,,,,,,,,,,,,,,,,,,,,,,,,,,,,,,,,,,,,,,72,157027,20,Female,1,2024/02/20_15:56:00,YZ,None,
,,,,,,calibration,0,7,2,159,6,V,0,right,0.6078104290063493,1,0,,,,,,,,,,,,,,,,,,,,,1,,,,,,,,,,,,,,,,,,,,,,,,,,,,,,,,,,,,,,,,,,,,,,72,157027,20,Female,1,2024/02/20_15:56:00,YZ,None,
,,,,,,calibration,0,7,2,159,7,S,0,right,0.6429785649961559,1,0,,,,,,,,,,,,,,,,,,,,,1,,,,,,,,,,,,,,,,,,,,,,,,,,,,,,,,,,,,,,,,,,,,,,72,157027,20,Female,1,2024/02/20_15:56:00,YZ,None,
,,,,,,calibration,0,7,2,159,8,V,1,left,0.6081270989961922,1,0,,,,,,,,,,,,,,,,,,,,,1,,,,,,,,,,,,,,,,,,,,,,,,,,,,,,,,,,,,,,,,,,,,,,72,157027,20,Female,1,2024/02/20_15:56:00,YZ,None,
,,,,,,calibration,0,7,2,159,9,S,1,right,0.2546000829897821,0,0,,,,,,,,,,,,,,,,,,,,,1,,,,,,,,,,,,,,,,,,,,,,,,,,,,,,,,,,,,,,,,,,,,,,72,157027,20,Female,1,2024/02/20_15:56:00,YZ,None,
,,,,,,calibration,0,7,2,159,10,Q,0,right,0.5635883710056078,1,0,,,,,,,,,,,,,,,,,,,,,1,,,,,,,,,,,,,,,,,,,,,,,,,,,,,,,,,,,,,,,,,,,,,,72,157027,20,Female,1,2024/02/20_15:56:00,YZ,None,
,,,,,,calibration,0,7,2,159,11,S,1,left,0.47800623800139874,1,0,,,,,,,,,,,,,,,,,,,,,1,,,,,,,,,,,,,,,,,,,,,,,,,,,,,,,,,,,,,,,,,,,,,,72,157027,20,Female,1,2024/02/20_15:56:00,YZ,None,
,,,,,,calibration,0,7,2,159,12,V,0,right,0.3860458800045308,1,0,,,,,,,,,,,,,,,,,,,,,1,,,,,,,,,,,,,,,,,,,,,,,,,,,,,,,,,,,,,,,,,,,,,,72,157027,20,Female,1,2024/02/20_15:56:00,YZ,None,
,,,,,,calibration,0,7,2,159,13,F,0,left,0.4637644890026422,0,0,,,,,,,,,,,,,,,,,,,,,1,,,,,,,,,,,,,,,,,,,,,,,,,,,,,,,,,,,,,,,,,,,,,,72,157027,20,Female,1,2024/02/20_15:56:00,YZ,None,
,,,,,,calibration,0,7,2,159,14,S,0,left,0.5733097549964441,0,0,,,,,,,,,,,,,,,,,,,,,1,,,,,,,,,,,,,,,,,,,,,,,,,,,,,,,,,,,,,,,,,,,,,,72,157027,20,Female,1,2024/02/20_15:56:00,YZ,None,
,,,,,,calibration,0,7,2,159,15,J,0,right,0.35205334599595517,1,0,,,,,,,,,,,,,,,,,,,,,1,,,,,,,,,,,,,,,,,,,,,,,,,,,,,,,,,,,,,,,,,,,,,,72,157027,20,Female,1,2024/02/20_15:56:00,YZ,None,
,,,,,,calibration,0,7,2,159,16,S,1,left,0.6120495119976113,1,0,,,,,,,,,,,,,,,,,,,,,1,,,,,,,,,,,,,,,,,,,,,,,,,,,,,,,,,,,,,,,,,,,,,,72,157027,20,Female,1,2024/02/20_15:56:00,YZ,None,
,,,,,,calibration,0,7,2,159,17,N,0,right,0.4440715140081011,1,0,,,,,,,,,,,,,,,,,,,,,1,,,,,,,,,,,,,,,,,,,,,,,,,,,,,,,,,,,,,,,,,,,,,,72,157027,20,Female,1,2024/02/20_15:56:00,YZ,None,
,,,,,,calibration,0,7,2,159,18,S,1,left,0.6368602930015186,1,0,,,,,,,,,,,,,,,,,,,,,1,,,,,,,,,,,,,,,,,,,,,,,,,,,,,,,,,,,,,,,,,,,,,,72,157027,20,Female,1,2024/02/20_15:56:00,YZ,None,
,,,,,,calibration,0,7,2,159,19,F,0,right,0.48600912000983953,1,0,,,,,,,,,,,,,,,,,,,,,1,,,,,,,,,,,,,,,,,,,,,,,,,,,,,,,,,,,,,,,,,,,,,,72,157027,20,Female,1,2024/02/20_15:56:00,YZ,None,
,,,,,,calibration,0,7,2,159,20,N,0,right,nan,0,1,,,,,,,,,,,,,,,,,,,,,1,,,,,,,,,,,,,,,,,,,,,,,,,,,,,,,,,,,,,,,,,,,,,,72,157027,20,Female,1,2024/02/20_15:56:00,YZ,None,
,,,,,,calibration,0,7,2,159,21,F,1,left,0.5007400640024571,1,0,,,,,,,,,,,,,,,,,,,,,1,,,,,,,,,,,,,,,,,,,,,,,,,,,,,,,,,,,,,,,,,,,,,,72,157027,20,Female,1,2024/02/20_15:56:00,YZ,None,
,,,,,,calibration,0,7,2,159,22,Q,0,right,0.3833489259995986,1,0,,,,,,,,,,,,,,,,,,,,,1,,,,,,,,,,,,,,,,,,,,,,,,,,,,,,,,,,,,,,,,,,,,,,72,157027,20,Female,1,2024/02/20_15:56:00,YZ,None,
,,,,,,calibration,0,7,2,159,,,,,,,,0.90625,0.8333333333333334,0.125,0.8666666666666667,0.045454545454545456,0.8295454545454546,0.48828376885752994,5,2,0,1,1,13,18,6,16,0,,,,1,,,,,,,,,,,,,,,,,,,,,,,,,,,,,,,,,,,,,,,,,,,,,,72,157027,20,Female,1,2024/02/20_15:56:00,YZ,None,
,,,,,,Calibration,0,,2,159,,,,,,,,,,,,,,,,,,,,,,,,,15,,,1,,,,,,,,,,,,,,,,,,,,,,,,,,,,,,,,,,,,,,,,,,,,,,72,157027,20,Female,1,2024/02/20_15:56:00,YZ,None,
,,,,,,CALIBRATION,0,,,,,,,,,,,,,,,,,,,,,,,,,,,,15,0.90625,159,1,,,,,,,,,,,,,,,,,,,,,,,,,,,,,,,,,,,,,,,,,,,,,,72,157027,20,Female,1,2024/02/20_15:56:00,YZ,None,
1,./instructions/inst_prac_1/Slide24.png,right,9.266657009007758,518.0444259939977,527.3110830030055,,,,,,,,,,,,,,,,,,,,,,,,,,,,,,,,,1,,,,,,,,,,,,,,,,,,,,,,,,,,,,,,,,,,,,,,,,,,,,,,72,157027,20,Female,1,2024/02/20_15:56:00,YZ,None,
2,./instructions/inst_prac_1/Slide25.png,right,2.291104385993094,527.3399567010056,529.6310610869987,,,,,,,,,,,,,,,,,,,,,,,,,,,,,,,,,1,,,,,,,,,,,,,,,,,,,,,,,,,,,,,,,,,,,,,,,,,,,,,,72,157027,20,Female,1,2024/02/20_15:56:00,YZ,None,
3,./instructions/inst_prac_1/Slide26.png,right,1.315564128002734,529.6596030670044,530.9751671950071,,,,,,,,,,,,,,,,,,,,,,,,,,,,,,,,,1,,,,,,,,,,,,,,,,,,,,,,,,,,,,,,,,,,,,,,,,,,,,,,72,157027,20,Female,1,2024/02/20_15:56:00,YZ,None,
4,./instructions/inst_prac_1/Slide27.png,right,1.4430614080047235,531.0039723189984,532.4470337270031,,,,,,,,,,,,,,,,,,,,,,,,,,,,,,,,,1,,,,,,,,,,,,,,,,,,,,,,,,,,,,,,,,,,,,,,,,,,,,,,72,157027,20,Female,1,2024/02/20_15:56:00,YZ,None,
5,./instructions/inst_prac_1/Slide28.png,right,1.0997483910032315,532.4753354520071,533.5750838430104,,,,,,,,,,,,,,,,,,,,,,,,,,,,,,,,,1,,,,,,,,,,,,,,,,,,,,,,,,,,,,,,,,,,,,,,,,,,,,,,72,157027,20,Female,1,2024/02/20_15:56:00,YZ,None,
6,./instructions/inst_prac_1/Slide29.png,right,1.9184753300069133,533.6005902350007,535.5190655650076,,,,,,,,,,,,,,,,,,,,,,,,,,,,,,,,,1,,,,,,,,,,,,,,,,,,,,,,,,,,,,,,,,,,,,,,,,,,,,,,72,157027,20,Female,1,2024/02/20_15:56:00,YZ,None,
7,./instructions/inst_prac_1/Slide30.png,right,10.139504816994304,535.5476077670028,545.6871125839971,,,,,,,,,,,,,,,,,,,,,,,,,,,,,,,,,1,,,,,,,,,,,,,,,,,,,,,,,,,,,,,,,,,,,,,,,,,,,,,,72,157027,20,Female,1,2024/02/20_15:56:00,YZ,None,
,,,,,,practice,0,18,1,1250,1,X,0,right,4.537500931008253,1,0,,,,,,,,,,,,,,,,,,,,,1,,,,,,,,,,,,,,,,,,,,,,,,,,,,,,,,,,,,,,,,,,,,,,72,157027,20,Female,1,2024/02/20_15:56:00,YZ,None,
,,,,,,practice,0,18,1,1250,2,X,1,left,1.266145098998095,1,0,,,,,,,,,,,,,,,,,,,,,1,,,,,,,,,,,,,,,,,,,,,,,,,,,,,,,,,,,,,,,,,,,,,,72,157027,20,Female,1,2024/02/20_15:56:00,YZ,None,
,,,,,,practice,0,18,1,1250,3,F,0,right,0.6291226570028812,1,0,,,,,,,,,,,,,,,,,,,,,1,,,,,,,,,,,,,,,,,,,,,,,,,,,,,,,,,,,,,,,,,,,,,,72,157027,20,Female,1,2024/02/20_15:56:00,YZ,None,
,,,,,,practice,0,18,1,1250,4,N,0,right,0.671035060993745,1,0,,,,,,,,,,,,,,,,,,,,,1,,,,,,,,,,,,,,,,,,,,,,,,,,,,,,,,,,,,,,,,,,,,,,72,157027,20,Female,1,2024/02/20_15:56:00,YZ,None,
,,,,,,practice,0,18,1,1250,5,F,0,right,0.8391361999965739,1,0,,,,,,,,,,,,,,,,,,,,,1,,,,,,,,,,,,,,,,,,,,,,,,,,,,,,,,,,,,,,,,,,,,,,72,157027,20,Female,1,2024/02/20_15:56:00,YZ,None,
,,,,,,practice,0,18,1,1250,6,Q,0,right,0.4988631290034391,1,0,,,,,,,,,,,,,,,,,,,,,1,,,,,,,,,,,,,,,,,,,,,,,,,,,,,,,,,,,,,,,,,,,,,,72,157027,20,Female,1,2024/02/20_15:56:00,YZ,None,
,,,,,,practice,0,18,1,1250,7,Q,1,left,0.7205299219931476,1,0,,,,,,,,,,,,,,,,,,,,,1,,,,,,,,,,,,,,,,,,,,,,,,,,,,,,,,,,,,,,,,,,,,,,72,157027,20,Female,1,2024/02/20_15:56:00,YZ,None,
,,,,,,practice,0,18,1,1250,8,V,0,right,0.5924498310050694,1,0,,,,,,,,,,,,,,,,,,,,,1,,,,,,,,,,,,,,,,,,,,,,,,,,,,,,,,,,,,,,,,,,,,,,72,157027,20,Female,1,2024/02/20_15:56:00,YZ,None,
,,,,,,practice,0,18,1,1250,9,F,0,right,0.621248816998559,1,0,,,,,,,,,,,,,,,,,,,,,1,,,,,,,,,,,,,,,,,,,,,,,,,,,,,,,,,,,,,,,,,,,,,,72,157027,20,Female,1,2024/02/20_15:56:00,YZ,None,
,,,,,,practice,0,18,1,1250,10,F,1,left,0.6173867639881792,1,0,,,,,,,,,,,,,,,,,,,,,1,,,,,,,,,,,,,,,,,,,,,,,,,,,,,,,,,,,,,,,,,,,,,,72,157027,20,Female,1,2024/02/20_15:56:00,YZ,None,
,,,,,,practice,0,18,1,1250,,,,,,,,1.0,1.0,0.0,1.0,0.0,1.0,1.0993418410987943,3,0,0,0,0,7,10,3,7,0,,,,1,,,,,,,,,,,,,,,,,,,,,,,,,,,,,,,,,,,,,,,,,,,,,,72,157027,20,Female,1,2024/02/20_15:56:00,YZ,None,
1,./instructions/inst_prac_1_next/Slide35.png,right,5.073095514002489,567.1981013360055,572.271196850008,,,,,,,,,,,,,,,,,,,,,,,,,,,,,,,,,1,,,,,,,,,,,,,,,,,,,,,,,,,,,,,,,,,,,,,,,,,,,,,,72,157027,20,Female,1,2024/02/20_15:56:00,YZ,None,
,,,,,,practice,0,18,1,159,1,S,0,right,1.3751218599936692,1,0,,,,,,,,,,,,,,,,,,,,,1,,,,,,,,,,,,,,,,,,,,,,,,,,,,,,,,,,,,,,,,,,,,,,72,157027,20,Female,1,2024/02/20_15:56:00,YZ,None,
,,,,,,practice,0,18,1,159,2,S,1,left,0.6122948870033724,1,0,,,,,,,,,,,,,,,,,,,,,1,,,,,,,,,,,,,,,,,,,,,,,,,,,,,,,,,,,,,,,,,,,,,,72,157027,20,Female,1,2024/02/20_15:56:00,YZ,None,
,,,,,,practice,0,18,1,159,3,N,0,right,0.5099145469866926,1,0,,,,,,,,,,,,,,,,,,,,,1,,,,,,,,,,,,,,,,,,,,,,,,,,,,,,,,,,,,,,,,,,,,,,72,157027,20,Female,1,2024/02/20_15:56:00,YZ,None,
,,,,,,practice,0,18,1,159,4,Q,0,right,0.6407274709927151,1,0,,,,,,,,,,,,,,,,,,,,,1,,,,,,,,,,,,,,,,,,,,,,,,,,,,,,,,,,,,,,,,,,,,,,72,157027,20,Female,1,2024/02/20_15:56:00,YZ,None,
,,,,,,practice,0,18,1,159,5,Q,1,left,0.4219663580006454,1,0,,,,,,,,,,,,,,,,,,,,,1,,,,,,,,,,,,,,,,,,,,,,,,,,,,,,,,,,,,,,,,,,,,,,72,157027,20,Female,1,2024/02/20_15:56:00,YZ,None,
,,,,,,practice,0,18,1,159,6,V,0,right,0.4319957349944161,1,0,,,,,,,,,,,,,,,,,,,,,1,,,,,,,,,,,,,,,,,,,,,,,,,,,,,,,,,,,,,,,,,,,,,,72,157027,20,Female,1,2024/02/20_15:56:00,YZ,None,
,,,,,,practice,0,18,1,159,7,V,1,left,0.508969859991339,1,0,,,,,,,,,,,,,,,,,,,,,1,,,,,,,,,,,,,,,,,,,,,,,,,,,,,,,,,,,,,,,,,,,,,,72,157027,20,Female,1,2024/02/20_15:56:00,YZ,None,
,,,,,,practice,0,18,1,159,8,Q,0,right,0.50181666201388,1,0,,,,,,,,,,,,,,,,,,,,,1,,,,,,,,,,,,,,,,,,,,,,,,,,,,,,,,,,,,,,,,,,,,,,72,157027,20,Female,1,2024/02/20_15:56:00,YZ,None,
,,,,,,practice,0,18,1,159,9,X,0,right,0.6799099219933851,1,0,,,,,,,,,,,,,,,,,,,,,1,,,,,,,,,,,,,,,,,,,,,,,,,,,,,,,,,,,,,,,,,,,,,,72,157027,20,Female,1,2024/02/20_15:56:00,YZ,None,
,,,,,,practice,0,18,1,159,10,X,1,left,0.6544910040101968,1,0,,,,,,,,,,,,,,,,,,,,,1,,,,,,,,,,,,,,,,,,,,,,,,,,,,,,,,,,,,,,,,,,,,,,72,157027,20,Female,1,2024/02/20_15:56:00,YZ,None,
,,,,,,practice,0,18,1,159,11,V,0,right,0.5960936640040018,1,0,,,,,,,,,,,,,,,,,,,,,1,,,,,,,,,,,,,,,,,,,,,,,,,,,,,,,,,,,,,,,,,,,,,,72,157027,20,Female,1,2024/02/20_15:56:00,YZ,None,
,,,,,,practice,0,18,1,159,12,Q,0,right,1.2287822790094651,1,0,,,,,,,,,,,,,,,,,,,,,1,,,,,,,,,,,,,,,,,,,,,,,,,,,,,,,,,,,,,,,,,,,,,,72,157027,20,Female,1,2024/02/20_15:56:00,YZ,None,
,,,,,,practice,0,18,1,159,13,S,0,right,0.4955584230046952,1,0,,,,,,,,,,,,,,,,,,,,,1,,,,,,,,,,,,,,,,,,,,,,,,,,,,,,,,,,,,,,,,,,,,,,72,157027,20,Female,1,2024/02/20_15:56:00,YZ,None,
,,,,,,practice,0,18,1,159,14,N,0,right,0.6785166949994164,1,0,,,,,,,,,,,,,,,,,,,,,1,,,,,,,,,,,,,,,,,,,,,,,,,,,,,,,,,,,,,,,,,,,,,,72,157027,20,Female,1,2024/02/20_15:56:00,YZ,None,
,,,,,,practice,0,18,1,159,15,N,1,left,0.511503112007631,1,0,,,,,,,,,,,,,,,,,,,,,1,,,,,,,,,,,,,,,,,,,,,,,,,,,,,,,,,,,,,,,,,,,,,,72,157027,20,Female,1,2024/02/20_15:56:00,YZ,None,
,,,,,,practice,0,18,1,159,16,F,0,right,0.5893235560070025,1,0,,,,,,,,,,,,,,,,,,,,,1,,,,,,,,,,,,,,,,,,,,,,,,,,,,,,,,,,,,,,,,,,,,,,72,157027,20,Female,1,2024/02/20_15:56:00,YZ,None,
,,,,,,practice,0,18,1,159,17,X,0,right,0.5780611060035881,1,0,,,,,,,,,,,,,,,,,,,,,1,,,,,,,,,,,,,,,,,,,,,,,,,,,,,,,,,,,,,,,,,,,,,,72,157027,20,Female,1,2024/02/20_15:56:00,YZ,None,
,,,,,,practice,0,18,1,159,18,X,1,left,0.5173826230020495,1,0,,,,,,,,,,,,,,,,,,,,,1,,,,,,,,,,,,,,,,,,,,,,,,,,,,,,,,,,,,,,,,,,,,,,72,157027,20,Female,1,2024/02/20_15:56:00,YZ,None,
,,,,,,practice,0,18,1,159,19,C,0,right,0.5242950829997426,1,0,,,,,,,,,,,,,,,,,,,,,1,,,,,,,,,,,,,,,,,,,,,,,,,,,,,,,,,,,,,,,,,,,,,,72,157027,20,Female,1,2024/02/20_15:56:00,YZ,None,
,,,,,,practice,0,18,1,159,20,V,0,right,1.3084810199943604,1,0,,,,,,,,,,,,,,,,,,,,,1,,,,,,,,,,,,,,,,,,,,,,,,,,,,,,,,,,,,,,,,,,,,,,72,157027,20,Female,1,2024/02/20_15:56:00,YZ,None,
,,,,,,practice,0,18,1,159,21,C,0,right,0.581942546996288,1,0,,,,,,,,,,,,,,,,,,,,,1,,,,,,,,,,,,,,,,,,,,,,,,,,,,,,,,,,,,,,,,,,,,,,72,157027,20,Female,1,2024/02/20_15:56:00,YZ,None,
,,,,,,practice,0,18,1,159,22,C,1,left,0.918063628996606,1,0,,,,,,,,,,,,,,,,,,,,,1,,,,,,,,,,,,,,,,,,,,,,,,,,,,,,,,,,,,,,,,,,,,,,72,157027,20,Female,1,2024/02/20_15:56:00,YZ,None,
,,,,,,practice,0,18,1,159,,,,,,,,1.0,1.0,0.0,1.0,0.0,1.0,0.6756914565002344,7,0,0,0,0,15,22,7,15,0,,,,1,,,,,,,,,,,,,,,,,,,,,,,,,,,,,,,,,,,,,,,,,,,,,,72,157027,20,Female,1,2024/02/20_15:56:00,YZ,None,
,,,,,,practice,0,16,1,159,1,S,0,right,0.780956458998844,1,0,,,,,,,,,,,,,,,,,,,,,1,,,,,,,,,,,,,,,,,,,,,,,,,,,,,,,,,,,,,,,,,,,,,,72,157027,20,Female,1,2024/02/20_15:56:00,YZ,None,
,,,,,,practice,0,16,1,159,2,N,0,right,1.412509087997023,1,0,,,,,,,,,,,,,,,,,,,,,1,,,,,,,,,,,,,,,,,,,,,,,,,,,,,,,,,,,,,,,,,,,,,,72,157027,20,Female,1,2024/02/20_15:56:00,YZ,None,
,,,,,,practice,0,16,1,159,3,N,1,left,0.5972962180094328,1,0,,,,,,,,,,,,,,,,,,,,,1,,,,,,,,,,,,,,,,,,,,,,,,,,,,,,,,,,,,,,,,,,,,,,72,157027,20,Female,1,2024/02/20_15:56:00,YZ,None,
,,,,,,practice,0,16,1,159,4,Q,0,right,0.45255830300447997,1,0,,,,,,,,,,,,,,,,,,,,,1,,,,,,,,,,,,,,,,,,,,,,,,,,,,,,,,,,,,,,,,,,,,,,72,157027,20,Female,1,2024/02/20_15:56:00,YZ,None,
,,,,,,practice,0,16,1,159,5,Q,1,left,0.5366084790002787,1,0,,,,,,,,,,,,,,,,,,,,,1,,,,,,,,,,,,,,,,,,,,,,,,,,,,,,,,,,,,,,,,,,,,,,72,157027,20,Female,1,2024/02/20_15:56:00,YZ,None,
,,,,,,practice,0,16,1,159,6,C,0,right,0.6285372320126044,1,0,,,,,,,,,,,,,,,,,,,,,1,,,,,,,,,,,,,,,,,,,,,,,,,,,,,,,,,,,,,,,,,,,,,,72,157027,20,Female,1,2024/02/20_15:56:00,YZ,None,
,,,,,,practice,0,16,1,159,7,C,1,left,0.5654424920066958,1,0,,,,,,,,,,,,,,,,,,,,,1,,,,,,,,,,,,,,,,,,,,,,,,,,,,,,,,,,,,,,,,,,,,,,72,157027,20,Female,1,2024/02/20_15:56:00,YZ,None,
,,,,,,practice,0,16,1,159,8,Q,0,right,0.5975831300020218,1,0,,,,,,,,,,,,,,,,,,,,,1,,,,,,,,,,,,,,,,,,,,,,,,,,,,,,,,,,,,,,,,,,,,,,72,157027,20,Female,1,2024/02/20_15:56:00,YZ,None,
,,,,,,practice,0,16,1,159,9,V,0,right,0.7090830670058494,1,0,,,,,,,,,,,,,,,,,,,,,1,,,,,,,,,,,,,,,,,,,,,,,,,,,,,,,,,,,,,,,,,,,,,,72,157027,20,Female,1,2024/02/20_15:56:00,YZ,None,
,,,,,,practice,0,16,1,159,10,S,0,right,0.614032148005208,1,0,,,,,,,,,,,,,,,,,,,,,1,,,,,,,,,,,,,,,,,,,,,,,,,,,,,,,,,,,,,,,,,,,,,,72,157027,20,Female,1,2024/02/20_15:56:00,YZ,None,
,,,,,,practice,0,16,1,159,11,F,0,right,0.564983147996827,1,0,,,,,,,,,,,,,,,,,,,,,1,,,,,,,,,,,,,,,,,,,,,,,,,,,,,,,,,,,,,,,,,,,,,,72,157027,20,Female,1,2024/02/20_15:56:00,YZ,None,
,,,,,,practice,0,16,1,159,12,F,1,left,0.49257576699892525,1,0,,,,,,,,,,,,,,,,,,,,,1,,,,,,,,,,,,,,,,,,,,,,,,,,,,,,,,,,,,,,,,,,,,,,72,157027,20,Female,1,2024/02/20_15:56:00,YZ,None,
,,,,,,practice,0,16,1,159,13,C,0,right,0.523993866998353,1,0,,,,,,,,,,,,,,,,,,,,,1,,,,,,,,,,,,,,,,,,,,,,,,,,,,,,,,,,,,,,,,,,,,,,72,157027,20,Female,1,2024/02/20_15:56:00,YZ,None,
,,,,,,practice,0,16,1,159,14,C,1,left,0.5591733769979328,1,0,,,,,,,,,,,,,,,,,,,,,1,,,,,,,,,,,,,,,,,,,,,,,,,,,,,,,,,,,,,,,,,,,,,,72,157027,20,Female,1,2024/02/20_15:56:00,YZ,None,
,,,,,,practice,0,16,1,159,15,J,0,right,0.535945426003309,1,0,,,,,,,,,,,,,,,,,,,,,1,,,,,,,,,,,,,,,,,,,,,,,,,,,,,,,,,,,,,,,,,,,,,,72,157027,20,Female,1,2024/02/20_15:56:00,YZ,None,
,,,,,,practice,0,16,1,159,16,J,1,left,0.5138509490061551,1,0,,,,,,,,,,,,,,,,,,,,,1,,,,,,,,,,,,,,,,,,,,,,,,,,,,,,,,,,,,,,,,,,,,,,72,157027,20,Female,1,2024/02/20_15:56:00,YZ,None,
,,,,,,practice,0,16,1,159,17,Q,0,right,0.6060756980004953,1,0,,,,,,,,,,,,,,,,,,,,,1,,,,,,,,,,,,,,,,,,,,,,,,,,,,,,,,,,,,,,,,,,,,,,72,157027,20,Female,1,2024/02/20_15:56:00,YZ,None,
,,,,,,practice,0,16,1,159,18,X,0,right,0.4607804739935091,1,0,,,,,,,,,,,,,,,,,,,,,1,,,,,,,,,,,,,,,,,,,,,,,,,,,,,,,,,,,,,,,,,,,,,,72,157027,20,Female,1,2024/02/20_15:56:00,YZ,None,
,,,,,,practice,0,16,1,159,19,F,0,right,0.5327375110064168,1,0,,,,,,,,,,,,,,,,,,,,,1,,,,,,,,,,,,,,,,,,,,,,,,,,,,,,,,,,,,,,,,,,,,,,72,157027,20,Female,1,2024/02/20_15:56:00,YZ,None,
,,,,,,practice,0,16,1,159,20,Q,0,right,0.5173294709966285,1,0,,,,,,,,,,,,,,,,,,,,,1,,,,,,,,,,,,,,,,,,,,,,,,,,,,,,,,,,,,,,,,,,,,,,72,157027,20,Female,1,2024/02/20_15:56:00,YZ,None,
,,,,,,practice,0,16,1,159,21,V,0,right,0.4285790549911326,1,0,,,,,,,,,,,,,,,,,,,,,1,,,,,,,,,,,,,,,,,,,,,,,,,,,,,,,,,,,,,,,,,,,,,,72,157027,20,Female,1,2024/02/20_15:56:00,YZ,None,
,,,,,,practice,0,16,1,159,22,V,1,left,0.5845194840076147,1,0,,,,,,,,,,,,,,,,,,,,,1,,,,,,,,,,,,,,,,,,,,,,,,,,,,,,,,,,,,,,,,,,,,,,72,157027,20,Female,1,2024/02/20_15:56:00,YZ,None,
,,,,,,practice,0,16,1,159,,,,,,,,1.0,1.0,0.0,1.0,0.0,1.0,0.6006886746836244,7,0,0,0,0,15,22,7,15,0,,,,1,,,,,,,,,,,,,,,,,,,,,,,,,,,,,,,,,,,,,,,,,,,,,,72,157027,20,Female,1,2024/02/20_15:56:00,YZ,None,
1,./instructions/inst_prac_3/Slide37.png,right,7.545851795002818,627.4773500160081,635.023201811011,,,,,,,,,,,,,,,,,,,,,,,,,,,,,,,,,1,,,,,,,,,,,,,,,,,,,,,,,,,,,,,,,,,,,,,,,,,,,,,,72,157027,20,Female,1,2024/02/20_15:56:00,YZ,None,
2,./instructions/inst_prac_3/Slide38.png,right,1.5629102140082978,635.0520745719987,636.614984786007,,,,,,,,,,,,,,,,,,,,,,,,,,,,,,,,,1,,,,,,,,,,,,,,,,,,,,,,,,,,,,,,,,,,,,,,,,,,,,,,72,157027,20,Female,1,2024/02/20_15:56:00,YZ,None,
3,./instructions/inst_prac_3/Slide39.png,right,0.6697261500085006,636.6412867140025,637.311012864011,,,,,,,,,,,,,,,,,,,,,,,,,,,,,,,,,1,,,,,,,,,,,,,,,,,,,,,,,,,,,,,,,,,,,,,,,,,,,,,,72,157027,20,Female,1,2024/02/20_15:56:00,YZ,None,
4,./instructions/inst_prac_3/Slide40.png,right,0.8355425499903504,637.3394508830097,638.174993433,,,,,,,,,,,,,,,,,,,,,,,,,,,,,,,,,1,,,,,,,,,,,,,,,,,,,,,,,,,,,,,,,,,,,,,,,,,,,,,,72,157027,20,Female,1,2024/02/20_15:56:00,YZ,None,
5,./instructions/inst_prac_3/Slide41.png,right,1.2272838850039989,638.2038079729973,639.4310918580013,,,,,,,,,,,,,,,,,,,,,,,,,,,,,,,,,1,,,,,,,,,,,,,,,,,,,,,,,,,,,,,,,,,,,,,,,,,,,,,,72,157027,20,Female,1,2024/02/20_15:56:00,YZ,None,
6,./instructions/inst_prac_3/Slide42.png,right,0.7936290280049434,639.453435909003,640.247064937008,,,,,,,,,,,,,,,,,,,,,,,,,,,,,,,,,1,,,,,,,,,,,,,,,,,,,,,,,,,,,,,,,,,,,,,,,,,,,,,,72,157027,20,Female,1,2024/02/20_15:56:00,YZ,None,
7,./instructions/inst_prac_3/Slide43.png,right,0.20035933300096076,640.2760644520022,640.4764237850031,,,,,,,,,,,,,,,,,,,,,,,,,,,,,,,,,1,,,,,,,,,,,,,,,,,,,,,,,,,,,,,,,,,,,,,,,,,,,,,,72,157027,20,Female,1,2024/02/20_15:56:00,YZ,None,
8,./instructions/inst_prac_3/Slide44.png,right,1.7796105649904348,640.4994473170082,642.2790578819986,,,,,,,,,,,,,,,,,,,,,,,,,,,,,,,,,1,,,,,,,,,,,,,,,,,,,,,,,,,,,,,,,,,,,,,,,,,,,,,,72,157027,20,Female,1,2024/02/20_15:56:00,YZ,None,
,,,,,,practice,0,30,3,788,1,X,0,right,3.8389925849915016,1,0,,,,,,,,,,,,,,,,,,,,,1,,,,,,,,,,,,,,,,,,,,,,,,,,,,,,,,,,,,,,,,,,,,,,72,157027,20,Female,1,2024/02/20_15:56:00,YZ,None,
,,,,,,practice,0,30,3,788,2,V,0,right,0.6461438120022649,1,0,,,,,,,,,,,,,,,,,,,,,1,,,,,,,,,,,,,,,,,,,,,,,,,,,,,,,,,,,,,,,,,,,,,,72,157027,20,Female,1,2024/02/20_15:56:00,YZ,None,
,,,,,,practice,0,30,3,788,3,C,0,right,0.3973342460085405,1,0,,,,,,,,,,,,,,,,,,,,,1,,,,,,,,,,,,,,,,,,,,,,,,,,,,,,,,,,,,,,,,,,,,,,72,157027,20,Female,1,2024/02/20_15:56:00,YZ,None,
,,,,,,practice,0,30,3,788,4,X,1,left,0.6823584049998317,1,0,,,,,,,,,,,,,,,,,,,,,1,,,,,,,,,,,,,,,,,,,,,,,,,,,,,,,,,,,,,,,,,,,,,,72,157027,20,Female,1,2024/02/20_15:56:00,YZ,None,
,,,,,,practice,0,30,3,788,5,F,0,right,0.6609514089941513,1,0,,,,,,,,,,,,,,,,,,,,,1,,,,,,,,,,,,,,,,,,,,,,,,,,,,,,,,,,,,,,,,,,,,,,72,157027,20,Female,1,2024/02/20_15:56:00,YZ,None,
,,,,,,practice,0,30,3,788,6,C,1,left,1.9867039050004678,1,0,,,,,,,,,,,,,,,,,,,,,1,,,,,,,,,,,,,,,,,,,,,,,,,,,,,,,,,,,,,,,,,,,,,,72,157027,20,Female,1,2024/02/20_15:56:00,YZ,None,
,,,,,,practice,0,30,3,788,7,F,0,right,0.6632254979922436,1,0,,,,,,,,,,,,,,,,,,,,,1,,,,,,,,,,,,,,,,,,,,,,,,,,,,,,,,,,,,,,,,,,,,,,72,157027,20,Female,1,2024/02/20_15:56:00,YZ,None,
,,,,,,practice,0,30,3,788,8,V,0,right,0.5618653560086386,1,0,,,,,,,,,,,,,,,,,,,,,1,,,,,,,,,,,,,,,,,,,,,,,,,,,,,,,,,,,,,,,,,,,,,,72,157027,20,Female,1,2024/02/20_15:56:00,YZ,None,
,,,,,,practice,0,30,3,788,9,N,0,right,0.6094084479991579,1,0,,,,,,,,,,,,,,,,,,,,,1,,,,,,,,,,,,,,,,,,,,,,,,,,,,,,,,,,,,,,,,,,,,,,72,157027,20,Female,1,2024/02/20_15:56:00,YZ,None,
,,,,,,practice,0,30,3,788,10,X,0,right,0.5962574549921555,1,0,,,,,,,,,,,,,,,,,,,,,1,,,,,,,,,,,,,,,,,,,,,,,,,,,,,,,,,,,,,,,,,,,,,,72,157027,20,Female,1,2024/02/20_15:56:00,YZ,None,
,,,,,,practice,0,30,3,788,11,V,1,left,0.5572156840062235,1,0,,,,,,,,,,,,,,,,,,,,,1,,,,,,,,,,,,,,,,,,,,,,,,,,,,,,,,,,,,,,,,,,,,,,72,157027,20,Female,1,2024/02/20_15:56:00,YZ,None,
,,,,,,practice,0,30,3,788,12,X,0,right,0.6160138599952916,1,0,,,,,,,,,,,,,,,,,,,,,1,,,,,,,,,,,,,,,,,,,,,,,,,,,,,,,,,,,,,,,,,,,,,,72,157027,20,Female,1,2024/02/20_15:56:00,YZ,None,
,,,,,,practice,0,30,3,788,13,X,1,left,0.7540037600119831,1,0,,,,,,,,,,,,,,,,,,,,,1,,,,,,,,,,,,,,,,,,,,,,,,,,,,,,,,,,,,,,,,,,,,,,72,157027,20,Female,1,2024/02/20_15:56:00,YZ,None,
,,,,,,practice,0,30,3,788,,,,,,,,1.0,1.0,0.0,1.0,0.0,1.0,0.9669595710001886,4,0,0,0,0,9,13,4,9,0,,,,1,,,,,,,,,,,,,,,,,,,,,,,,,,,,,,,,,,,,,,,,,,,,,,72,157027,20,Female,1,2024/02/20_15:56:00,YZ,None,
1,./instructions/inst_prac_3_next/Slide49.png,right,5.9051689240004634,668.4939699990064,674.3991389230068,,,,,,,,,,,,,,,,,,,,,,,,,,,,,,,,,1,,,,,,,,,,,,,,,,,,,,,,,,,,,,,,,,,,,,,,,,,,,,,,72,157027,20,Female,1,2024/02/20_15:56:00,YZ,None,
,,,,,,practice,0,34,3,159,1,F,0,right,1.1162286400067387,1,0,,,,,,,,,,,,,,,,,,,,,1,,,,,,,,,,,,,,,,,,,,,,,,,,,,,,,,,,,,,,,,,,,,,,72,157027,20,Female,1,2024/02/20_15:56:00,YZ,None,
,,,,,,practice,0,34,3,159,2,C,0,right,0.32861207200039644,1,0,,,,,,,,,,,,,,,,,,,,,1,,,,,,,,,,,,,,,,,,,,,,,,,,,,,,,,,,,,,,,,,,,,,,72,157027,20,Female,1,2024/02/20_15:56:00,YZ,None,
,,,,,,practice,0,34,3,159,3,F,0,right,0.6525760410004295,1,0,,,,,,,,,,,,,,,,,,,,,1,,,,,,,,,,,,,,,,,,,,,,,,,,,,,,,,,,,,,,,,,,,,,,72,157027,20,Female,1,2024/02/20_15:56:00,YZ,None,
,,,,,,practice,0,34,3,159,4,V,0,right,1.2890865969966399,1,0,,,,,,,,,,,,,,,,,,,,,1,,,,,,,,,,,,,,,,,,,,,,,,,,,,,,,,,,,,,,,,,,,,,,72,157027,20,Female,1,2024/02/20_15:56:00,YZ,None,
,,,,,,practice,0,34,3,159,5,V,0,right,1.2452082890085876,1,0,,,,,,,,,,,,,,,,,,,,,1,,,,,,,,,,,,,,,,,,,,,,,,,,,,,,,,,,,,,,,,,,,,,,72,157027,20,Female,1,2024/02/20_15:56:00,YZ,None,
,,,,,,practice,0,34,3,159,6,F,1,left,2.684973394992994,1,0,,,,,,,,,,,,,,,,,,,,,1,,,,,,,,,,,,,,,,,,,,,,,,,,,,,,,,,,,,,,,,,,,,,,72,157027,20,Female,1,2024/02/20_15:56:00,YZ,None,
,,,,,,practice,0,34,3,159,7,S,0,right,1.111483221000526,1,0,,,,,,,,,,,,,,,,,,,,,1,,,,,,,,,,,,,,,,,,,,,,,,,,,,,,,,,,,,,,,,,,,,,,72,157027,20,Female,1,2024/02/20_15:56:00,YZ,None,
,,,,,,practice,0,34,3,159,8,V,1,left,0.6716681109974161,1,0,,,,,,,,,,,,,,,,,,,,,1,,,,,,,,,,,,,,,,,,,,,,,,,,,,,,,,,,,,,,,,,,,,,,72,157027,20,Female,1,2024/02/20_15:56:00,YZ,None,
,,,,,,practice,0,34,3,159,9,S,0,right,1.6449970190005843,1,0,,,,,,,,,,,,,,,,,,,,,1,,,,,,,,,,,,,,,,,,,,,,,,,,,,,,,,,,,,,,,,,,,,,,72,157027,20,Female,1,2024/02/20_15:56:00,YZ,None,
,,,,,,practice,0,34,3,159,10,S,1,left,0.5208564849890536,1,0,,,,,,,,,,,,,,,,,,,,,1,,,,,,,,,,,,,,,,,,,,,,,,,,,,,,,,,,,,,,,,,,,,,,72,157027,20,Female,1,2024/02/20_15:56:00,YZ,None,
,,,,,,practice,0,34,3,159,11,V,1,right,2.6338735760073178,0,0,,,,,,,,,,,,,,,,,,,,,1,,,,,,,,,,,,,,,,,,,,,,,,,,,,,,,,,,,,,,,,,,,,,,72,157027,20,Female,1,2024/02/20_15:56:00,YZ,None,
,,,,,,practice,0,34,3,159,12,J,0,right,0.6239024370006518,1,0,,,,,,,,,,,,,,,,,,,,,1,,,,,,,,,,,,,,,,,,,,,,,,,,,,,,,,,,,,,,,,,,,,,,72,157027,20,Female,1,2024/02/20_15:56:00,YZ,None,
,,,,,,practice,0,34,3,159,13,Q,0,right,3.1465805990010267,1,0,,,,,,,,,,,,,,,,,,,,,1,,,,,,,,,,,,,,,,,,,,,,,,,,,,,,,,,,,,,,,,,,,,,,72,157027,20,Female,1,2024/02/20_15:56:00,YZ,None,
,,,,,,practice,0,34,3,159,14,C,0,right,1.2268071259895805,1,0,,,,,,,,,,,,,,,,,,,,,1,,,,,,,,,,,,,,,,,,,,,,,,,,,,,,,,,,,,,,,,,,,,,,72,157027,20,Female,1,2024/02/20_15:56:00,YZ,None,
,,,,,,practice,0,34,3,159,15,V,0,right,2.07403706900368,1,0,,,,,,,,,,,,,,,,,,,,,1,,,,,,,,,,,,,,,,,,,,,,,,,,,,,,,,,,,,,,,,,,,,,,72,157027,20,Female,1,2024/02/20_15:56:00,YZ,None,
,,,,,,practice,0,34,3,159,16,Q,1,left,0.5084445940010482,1,0,,,,,,,,,,,,,,,,,,,,,1,,,,,,,,,,,,,,,,,,,,,,,,,,,,,,,,,,,,,,,,,,,,,,72,157027,20,Female,1,2024/02/20_15:56:00,YZ,None,
,,,,,,practice,0,34,3,159,17,V,0,right,3.581605393992504,1,0,,,,,,,,,,,,,,,,,,,,,1,,,,,,,,,,,,,,,,,,,,,,,,,,,,,,,,,,,,,,,,,,,,,,72,157027,20,Female,1,2024/02/20_15:56:00,YZ,None,
,,,,,,practice,0,34,3,159,18,N,0,right,0.9577442769950721,1,0,,,,,,,,,,,,,,,,,,,,,1,,,,,,,,,,,,,,,,,,,,,,,,,,,,,,,,,,,,,,,,,,,,,,72,157027,20,Female,1,2024/02/20_15:56:00,YZ,None,
,,,,,,practice,0,34,3,159,19,J,0,right,2.5167974239884643,1,0,,,,,,,,,,,,,,,,,,,,,1,,,,,,,,,,,,,,,,,,,,,,,,,,,,,,,,,,,,,,,,,,,,,,72,157027,20,Female,1,2024/02/20_15:56:00,YZ,None,
,,,,,,practice,0,34,3,159,20,Q,0,left,0.7568481839989545,0,0,,,,,,,,,,,,,,,,,,,,,1,,,,,,,,,,,,,,,,,,,,,,,,,,,,,,,,,,,,,,,,,,,,,,72,157027,20,Female,1,2024/02/20_15:56:00,YZ,None,
,,,,,,practice,0,34,3,159,21,F,0,right,0.6496311869996134,1,0,,,,,,,,,,,,,,,,,,,,,1,,,,,,,,,,,,,,,,,,,,,,,,,,,,,,,,,,,,,,,,,,,,,,72,157027,20,Female,1,2024/02/20_15:56:00,YZ,None,
,,,,,,practice,0,34,3,159,22,J,1,right,0.998550656993757,0,0,,,,,,,,,,,,,,,,,,,,,1,,,,,,,,,,,,,,,,,,,,,,,,,,,,,,,,,,,,,,,,,,,,,,72,157027,20,Female,1,2024/02/20_15:56:00,YZ,None,
,,,,,,practice,0,34,3,159,,,,,,,,0.8802083333333333,0.6666666666666666,0.0625,0.9375,0.0,0.9375,1.4063869269984108,4,1,0,0,0,15,19,6,16,0,,,,1,,,,,,,,,,,,,,,,,,,,,,,,,,,,,,,,,,,,,,,,,,,,,,72,157027,20,Female,1,2024/02/20_15:56:00,YZ,None,
,,,,,,practice,0,35,3,159,1,V,0,right,1.056595116009703,1,0,,,,,,,,,,,,,,,,,,,,,1,,,,,,,,,,,,,,,,,,,,,,,,,,,,,,,,,,,,,,,,,,,,,,72,157027,20,Female,1,2024/02/20_15:56:00,YZ,None,
,,,,,,practice,0,35,3,159,2,J,0,right,0.3436276989959879,1,0,,,,,,,,,,,,,,,,,,,,,1,,,,,,,,,,,,,,,,,,,,,,,,,,,,,,,,,,,,,,,,,,,,,,72,157027,20,Female,1,2024/02/20_15:56:00,YZ,None,
,,,,,,practice,0,35,3,159,3,S,0,right,0.3385602030029986,1,0,,,,,,,,,,,,,,,,,,,,,1,,,,,,,,,,,,,,,,,,,,,,,,,,,,,,,,,,,,,,,,,,,,,,72,157027,20,Female,1,2024/02/20_15:56:00,YZ,None,
,,,,,,practice,0,35,3,159,4,C,0,right,2.144753471002332,1,0,,,,,,,,,,,,,,,,,,,,,1,,,,,,,,,,,,,,,,,,,,,,,,,,,,,,,,,,,,,,,,,,,,,,72,157027,20,Female,1,2024/02/20_15:56:00,YZ,None,
,,,,,,practice,0,35,3,159,5,Q,0,right,2.802377330008312,1,0,,,,,,,,,,,,,,,,,,,,,1,,,,,,,,,,,,,,,,,,,,,,,,,,,,,,,,,,,,,,,,,,,,,,72,157027,20,Female,1,2024/02/20_15:56:00,YZ,None,
,,,,,,practice,0,35,3,159,6,S,1,left,0.7043914989917539,1,0,,,,,,,,,,,,,,,,,,,,,1,,,,,,,,,,,,,,,,,,,,,,,,,,,,,,,,,,,,,,,,,,,,,,72,157027,20,Female,1,2024/02/20_15:56:00,YZ,None,
,,,,,,practice,0,35,3,159,7,Q,0,right,4.028616235998925,1,0,,,,,,,,,,,,,,,,,,,,,1,,,,,,,,,,,,,,,,,,,,,,,,,,,,,,,,,,,,,,,,,,,,,,72,157027,20,Female,1,2024/02/20_15:56:00,YZ,None,
,,,,,,practice,0,35,3,159,8,Q,1,left,0.7254220350005198,1,0,,,,,,,,,,,,,,,,,,,,,1,,,,,,,,,,,,,,,,,,,,,,,,,,,,,,,,,,,,,,,,,,,,,,72,157027,20,Female,1,2024/02/20_15:56:00,YZ,None,
,,,,,,practice,0,35,3,159,9,X,0,right,0.7324539839901263,1,0,,,,,,,,,,,,,,,,,,,,,1,,,,,,,,,,,,,,,,,,,,,,,,,,,,,,,,,,,,,,,,,,,,,,72,157027,20,Female,1,2024/02/20_15:56:00,YZ,None,
,,,,,,practice,0,35,3,159,10,S,0,left,2.1926506189920474,0,0,,,,,,,,,,,,,,,,,,,,,1,,,,,,,,,,,,,,,,,,,,,,,,,,,,,,,,,,,,,,,,,,,,,,72,157027,20,Female,1,2024/02/20_15:56:00,YZ,None,
,,,,,,practice,0,35,3,159,11,F,0,right,5.696206630993402,1,0,,,,,,,,,,,,,,,,,,,,,1,,,,,,,,,,,,,,,,,,,,,,,,,,,,,,,,,,,,,,,,,,,,,,72,157027,20,Female,1,2024/02/20_15:56:00,YZ,None,
,,,,,,practice,0,35,3,159,12,X,1,right,0.8472452399873873,0,0,,,,,,,,,,,,,,,,,,,,,1,,,,,,,,,,,,,,,,,,,,,,,,,,,,,,,,,,,,,,,,,,,,,,72,157027,20,Female,1,2024/02/20_15:56:00,YZ,None,
,,,,,,practice,0,35,3,159,13,N,0,right,3.2767827579955338,1,0,,,,,,,,,,,,,,,,,,,,,1,,,,,,,,,,,,,,,,,,,,,,,,,,,,,,,,,,,,,,,,,,,,,,72,157027,20,Female,1,2024/02/20_15:56:00,YZ,None,
,,,,,,practice,0,35,3,159,14,F,1,left,1.908633019993431,1,0,,,,,,,,,,,,,,,,,,,,,1,,,,,,,,,,,,,,,,,,,,,,,,,,,,,,,,,,,,,,,,,,,,,,72,157027,20,Female,1,2024/02/20_15:56:00,YZ,None,
,,,,,,practice,0,35,3,159,15,X,1,left,0.9043418769870186,1,0,,,,,,,,,,,,,,,,,,,,,1,,,,,,,,,,,,,,,,,,,,,,,,,,,,,,,,,,,,,,,,,,,,,,72,157027,20,Female,1,2024/02/20_15:56:00,YZ,None,
,,,,,,practice,0,35,3,159,16,C,0,right,1.4763786289986456,1,0,,,,,,,,,,,,,,,,,,,,,1,,,,,,,,,,,,,,,,,,,,,,,,,,,,,,,,,,,,,,,,,,,,,,72,157027,20,Female,1,2024/02/20_15:56:00,YZ,None,
,,,,,,practice,0,35,3,159,17,X,0,right,1.2954099659982603,1,0,,,,,,,,,,,,,,,,,,,,,1,,,,,,,,,,,,,,,,,,,,,,,,,,,,,,,,,,,,,,,,,,,,,,72,157027,20,Female,1,2024/02/20_15:56:00,YZ,None,
,,,,,,practice,0,35,3,159,18,X,1,left,1.0263052039954346,1,0,,,,,,,,,,,,,,,,,,,,,1,,,,,,,,,,,,,,,,,,,,,,,,,,,,,,,,,,,,,,,,,,,,,,72,157027,20,Female,1,2024/02/20_15:56:00,YZ,None,
,,,,,,practice,0,35,3,159,19,F,0,right,2.5249657220119843,1,0,,,,,,,,,,,,,,,,,,,,,1,,,,,,,,,,,,,,,,,,,,,,,,,,,,,,,,,,,,,,,,,,,,,,72,157027,20,Female,1,2024/02/20_15:56:00,YZ,None,
,,,,,,practice,0,35,3,159,20,F,0,right,1.8404018959990935,1,0,,,,,,,,,,,,,,,,,,,,,1,,,,,,,,,,,,,,,,,,,,,,,,,,,,,,,,,,,,,,,,,,,,,,72,157027,20,Female,1,2024/02/20_15:56:00,YZ,None,
,,,,,,practice,0,35,3,159,21,C,0,left,0.840145311987726,0,0,,,,,,,,,,,,,,,,,,,,,1,,,,,,,,,,,,,,,,,,,,,,,,,,,,,,,,,,,,,,,,,,,,,,72,157027,20,Female,1,2024/02/20_15:56:00,YZ,None,
,,,,,,practice,0,35,3,159,22,V,0,right,1.6626782789971912,1,0,,,,,,,,,,,,,,,,,,,,,1,,,,,,,,,,,,,,,,,,,,,,,,,,,,,,,,,,,,,,,,,,,,,,72,157027,20,Female,1,2024/02/20_15:56:00,YZ,None,
,,,,,,practice,0,35,3,159,,,,,,,,0.90625,0.8333333333333334,0.125,0.875,0.0,0.875,1.7440428511789916,5,2,0,0,0,14,19,6,16,0,,,,1,,,,,,,,,,,,,,,,,,,,,,,,,,,,,,,,,,,,,,,,,,,,,,72,157027,20,Female,1,2024/02/20_15:56:00,YZ,None,
1,./instructions/inst_prac_main/Slide51.png,right,3.7190388009912567,770.8720753140078,774.5911141149991,,,,,,,,,,,,,,,,,,,,,,,,,,,,,,,,,1,,,,,,,,,,,,,,,,,,,,,,,,,,,,,,,,,,,,,,,,,,,,,,72,157027,20,Female,1,2024/02/20_15:56:00,YZ,None,
2,./instructions/inst_prac_main/Slide52.png,right,8.867226931994082,774.6196841000055,783.4869110319996,,,,,,,,,,,,,,,,,,,,,,,,,,,,,,,,,1,,,,,,,,,,,,,,,,,,,,,,,,,,,,,,,,,,,,,,,,,,,,,,72,157027,20,Female,1,2024/02/20_15:56:00,YZ,None,
1,./instructions/inst_prac_main/Slide53.png,left,3.604583783002454,783.5146442240075,787.11922800701,,,,,,,,,,,,,,,,,,,,,,,,,,,,,,,,,1,,,,,,,,,,,,,,,,,,,,,,,,,,,,,,,,,,,,,,,,,,,,,,72,157027,20,Female,1,2024/02/20_15:56:00,YZ,None,
0,./instructions/inst_prac_main/Slide52.png,left,0.20079744199756533,787.1485803550022,787.3493777969998,,,,,,,,,,,,,,,,,,,,,,,,,,,,,,,,,1,,,,,,,,,,,,,,,,,,,,,,,,,,,,,,,,,,,,,,,,,,,,,,72,157027,20,Female,1,2024/02/20_15:56:00,YZ,None,
-1,./instructions/inst_prac_main/Slide51.png,left,0.2003817280055955,787.3675500450045,787.5679317730101,,,,,,,,,,,,,,,,,,,,,,,,,,,,,,,,,1,,,,,,,,,,,,,,,,,,,,,,,,,,,,,,,,,,,,,,,,,,,,,,72,157027,20,Female,1,2024/02/20_15:56:00,YZ,None,
-2,./instructions/inst_prac_main/Slide54.png,left,0.20041718700667843,787.590363078998,787.7907802660047,,,,,,,,,,,,,,,,,,,,,,,,,,,,,,,,,1,,,,,,,,,,,,,,,,,,,,,,,,,,,,,,,,,,,,,,,,,,,,,,72,157027,20,Female,1,2024/02/20_15:56:00,YZ,None,
-3,./instructions/inst_prac_main/Slide53.png,left,6.330243721997249,787.8128164480004,794.1430601699976,,,,,,,,,,,,,,,,,,,,,,,,,,,,,,,,,1,,,,,,,,,,,,,,,,,,,,,,,,,,,,,,,,,,,,,,,,,,,,,,72,157027,20,Female,1,2024/02/20_15:56:00,YZ,None,
-4,./instructions/inst_prac_main/Slide52.png,left,0.20077168398711365,794.1723793350102,794.3731510189973,,,,,,,,,,,,,,,,,,,,,,,,,,,,,,,,,1,,,,,,,,,,,,,,,,,,,,,,,,,,,,,,,,,,,,,,,,,,,,,,72,157027,20,Female,1,2024/02/20_15:56:00,YZ,None,
,,,,,,practice_main,0,1,1,159,1,X,0,None,nan,0,1,,,,,,,,,,,,,,,,,,,,,1,,,,,,,,,,,,,,,,,,,,,,,,,,,,,,,,,,,,,,,,,,,,,,72,157027,20,Female,1,2024/02/20_15:56:00,YZ,None,
,,,,,,practice_main,0,1,1,159,2,C,0,None,nan,0,1,,,,,,,,,,,,,,,,,,,,,1,,,,,,,,,,,,,,,,,,,,,,,,,,,,,,,,,,,,,,,,,,,,,,72,157027,20,Female,1,2024/02/20_15:56:00,YZ,None,
,,,,,,practice_main,0,1,1,159,3,J,0,None,nan,0,1,,,,,,,,,,,,,,,,,,,,,1,,,,,,,,,,,,,,,,,,,,,,,,,,,,,,,,,,,,,,,,,,,,,,72,157027,20,Female,1,2024/02/20_15:56:00,YZ,None,
,,,,,,practice_main,0,1,1,159,4,J,1,left,0.9317192039889051,1,0,,,,,,,,,,,,,,,,,,,,,1,,,,,,,,,,,,,,,,,,,,,,,,,,,,,,,,,,,,,,,,,,,,,,72,157027,20,Female,1,2024/02/20_15:56:00,YZ,None,
,,,,,,practice_main,0,1,1,159,5,F,0,right,0.4194010430073831,1,0,,,,,,,,,,,,,,,,,,,,,1,,,,,,,,,,,,,,,,,,,,,,,,,,,,,,,,,,,,,,,,,,,,,,72,157027,20,Female,1,2024/02/20_15:56:00,YZ,None,
,,,,,,practice_main,0,1,1,159,6,F,1,left,0.6680784750060411,1,0,,,,,,,,,,,,,,,,,,,,,1,,,,,,,,,,,,,,,,,,,,,,,,,,,,,,,,,,,,,,,,,,,,,,72,157027,20,Female,1,2024/02/20_15:56:00,YZ,None,
,,,,,,practice_main,0,1,1,159,7,S,0,right,0.3642758049973054,1,0,,,,,,,,,,,,,,,,,,,,,1,,,,,,,,,,,,,,,,,,,,,,,,,,,,,,,,,,,,,,,,,,,,,,72,157027,20,Female,1,2024/02/20_15:56:00,YZ,None,
,,,,,,practice_main,0,1,1,159,8,Q,0,right,0.6910209209891036,1,0,,,,,,,,,,,,,,,,,,,,,1,,,,,,,,,,,,,,,,,,,,,,,,,,,,,,,,,,,,,,,,,,,,,,72,157027,20,Female,1,2024/02/20_15:56:00,YZ,None,
,,,,,,practice_main,0,1,1,159,9,S,0,right,0.7421212699991884,1,0,,,,,,,,,,,,,,,,,,,,,1,,,,,,,,,,,,,,,,,,,,,,,,,,,,,,,,,,,,,,,,,,,,,,72,157027,20,Female,1,2024/02/20_15:56:00,YZ,None,
,,,,,,practice_main,0,1,1,159,10,S,1,left,0.5978017480083508,1,0,,,,,,,,,,,,,,,,,,,,,1,,,,,,,,,,,,,,,,,,,,,,,,,,,,,,,,,,,,,,,,,,,,,,72,157027,20,Female,1,2024/02/20_15:56:00,YZ,None,
,,,,,,practice_main,0,1,1,159,11,V,0,right,0.2990635320020374,1,0,,,,,,,,,,,,,,,,,,,,,1,,,,,,,,,,,,,,,,,,,,,,,,,,,,,,,,,,,,,,,,,,,,,,72,157027,20,Female,1,2024/02/20_15:56:00,YZ,None,
,,,,,,practice_main,0,1,1,159,12,F,0,right,0.6735405270010233,1,0,,,,,,,,,,,,,,,,,,,,,1,,,,,,,,,,,,,,,,,,,,,,,,,,,,,,,,,,,,,,,,,,,,,,72,157027,20,Female,1,2024/02/20_15:56:00,YZ,None,
,,,,,,practice_main,0,1,1,159,13,V,0,right,0.8771169090032345,1,0,,,,,,,,,,,,,,,,,,,,,1,,,,,,,,,,,,,,,,,,,,,,,,,,,,,,,,,,,,,,,,,,,,,,72,157027,20,Female,1,2024/02/20_15:56:00,YZ,None,
,,,,,,practice_main,0,1,1,159,14,V,1,left,0.38301929499721155,1,0,,,,,,,,,,,,,,,,,,,,,1,,,,,,,,,,,,,,,,,,,,,,,,,,,,,,,,,,,,,,,,,,,,,,72,157027,20,Female,1,2024/02/20_15:56:00,YZ,None,
,,,,,,practice_main,0,1,1,159,15,N,0,right,0.4397880930046085,1,0,,,,,,,,,,,,,,,,,,,,,1,,,,,,,,,,,,,,,,,,,,,,,,,,,,,,,,,,,,,,,,,,,,,,72,157027,20,Female,1,2024/02/20_15:56:00,YZ,None,
,,,,,,practice_main,0,1,1,159,16,N,1,left,0.5370125330082374,1,0,,,,,,,,,,,,,,,,,,,,,1,,,,,,,,,,,,,,,,,,,,,,,,,,,,,,,,,,,,,,,,,,,,,,72,157027,20,Female,1,2024/02/20_15:56:00,YZ,None,
,,,,,,practice_main,0,1,1,159,17,C,0,right,0.33495214200229384,1,0,,,,,,,,,,,,,,,,,,,,,1,,,,,,,,,,,,,,,,,,,,,,,,,,,,,,,,,,,,,,,,,,,,,,72,157027,20,Female,1,2024/02/20_15:56:00,YZ,None,
,,,,,,practice_main,0,1,1,159,18,F,0,right,0.6818769379897276,1,0,,,,,,,,,,,,,,,,,,,,,1,,,,,,,,,,,,,,,,,,,,,,,,,,,,,,,,,,,,,,,,,,,,,,72,157027,20,Female,1,2024/02/20_15:56:00,YZ,None,
,,,,,,practice_main,0,1,1,159,19,J,0,right,0.3779025719995843,1,0,,,,,,,,,,,,,,,,,,,,,1,,,,,,,,,,,,,,,,,,,,,,,,,,,,,,,,,,,,,,,,,,,,,,72,157027,20,Female,1,2024/02/20_15:56:00,YZ,None,
,,,,,,practice_main,0,1,1,159,20,J,1,left,0.5295046370010823,1,0,,,,,,,,,,,,,,,,,,,,,1,,,,,,,,,,,,,,,,,,,,,,,,,,,,,,,,,,,,,,,,,,,,,,72,157027,20,Female,1,2024/02/20_15:56:00,YZ,None,
,,,,,,practice_main,0,1,1,159,21,V,0,right,0.2577660039969487,1,0,,,,,,,,,,,,,,,,,,,,,1,,,,,,,,,,,,,,,,,,,,,,,,,,,,,,,,,,,,,,,,,,,,,,72,157027,20,Female,1,2024/02/20_15:56:00,YZ,None,
,,,,,,practice_main,0,1,1,159,22,V,1,left,0.41762015198764857,1,0,,,,,,,,,,,,,,,,,,,,,1,,,,,,,,,,,,,,,,,,,,,,,,,,,,,,,,,,,,,,,,,,,,,,72,157027,20,Female,1,2024/02/20_15:56:00,YZ,None,
,,,,,,practice_main,0,1,1,159,,,,,,,,1.0,1.0,0.0,1.0,0.13636363636363635,0.8636363636363636,0.5380832526310482,7,0,0,3,3,12,19,7,15,0,,,,1,,,,,,,,,,,,,,,,,,,,,,,,,,,,,,,,,,,,,,,,,,,,,,72,157027,20,Female,1,2024/02/20_15:56:00,YZ,None,
,,,,,240220_164939,PRACTICE,0,1,1,159,,,,,,,,,,,,,,,,,,,,,,,,,,,,1,21,2,1,cue2.png,easy,B,70,0.7949643090105383,0,805.4908498260047,806.3064436670102,,,,,,,,,,,,,,,,,,,,,,,,,,,,,,,,,,,72,157027,20,Female,1,2024/02/20_15:56:00,YZ,None,
,,,,,,practice_main,0,2,3,159,1,V,0,None,nan,0,1,,,,,,,,,,,,,,,,,,,,,1,,,,,,,,,,,,,,,,,,,,,,,,,,,,,,,,,,,,,,,,,,,,,,72,157027,20,Female,1,2024/02/20_15:56:00,YZ,None,
,,,,,,practice_main,0,2,3,159,2,Q,0,right,0.05769896700803656,1,0,,,,,,,,,,,,,,,,,,,,,1,,,,,,,,,,,,,,,,,,,,,,,,,,,,,,,,,,,,,,,,,,,,,,72,157027,20,Female,1,2024/02/20_15:56:00,YZ,None,
,,,,,,practice_main,0,2,3,159,3,V,0,right,0.9079485000111163,1,0,,,,,,,,,,,,,,,,,,,,,1,,,,,,,,,,,,,,,,,,,,,,,,,,,,,,,,,,,,,,,,,,,,,,72,157027,20,Female,1,2024/02/20_15:56:00,YZ,None,
,,,,,,practice_main,0,2,3,159,4,V,1,left,0.7139201630052412,1,0,,,,,,,,,,,,,,,,,,,,,1,,,,,,,,,,,,,,,,,,,,,,,,,,,,,,,,,,,,,,,,,,,,,,72,157027,20,Female,1,2024/02/20_15:56:00,YZ,None,
,,,,,,practice_main,0,2,3,159,5,C,0,right,0.7586364200105891,1,0,,,,,,,,,,,,,,,,,,,,,1,,,,,,,,,,,,,,,,,,,,,,,,,,,,,,,,,,,,,,,,,,,,,,72,157027,20,Female,1,2024/02/20_15:56:00,YZ,None,
,,,,,,practice_main,0,2,3,159,6,Q,0,right,nan,0,1,,,,,,,,,,,,,,,,,,,,,1,,,,,,,,,,,,,,,,,,,,,,,,,,,,,,,,,,,,,,,,,,,,,,72,157027,20,Female,1,2024/02/20_15:56:00,YZ,None,
,,,,,,practice_main,0,2,3,159,7,C,0,right,nan,0,1,,,,,,,,,,,,,,,,,,,,,1,,,,,,,,,,,,,,,,,,,,,,,,,,,,,,,,,,,,,,,,,,,,,,72,157027,20,Female,1,2024/02/20_15:56:00,YZ,None,
,,,,,,practice_main,0,2,3,159,8,V,0,right,0.0,1,0,,,,,,,,,,,,,,,,,,,,,1,,,,,,,,,,,,,,,,,,,,,,,,,,,,,,,,,,,,,,,,,,,,,,72,157027,20,Female,1,2024/02/20_15:56:00,YZ,None,
,,,,,,practice_main,0,2,3,159,9,Q,1,left,0.21153956500347704,1,0,,,,,,,,,,,,,,,,,,,,,1,,,,,,,,,,,,,,,,,,,,,,,,,,,,,,,,,,,,,,,,,,,,,,72,157027,20,Female,1,2024/02/20_15:56:00,YZ,None,
,,,,,,practice_main,0,2,3,159,10,Q,0,right,0.37631486100144684,1,0,,,,,,,,,,,,,,,,,,,,,1,,,,,,,,,,,,,,,,,,,,,,,,,,,,,,,,,,,,,,,,,,,,,,72,157027,20,Female,1,2024/02/20_15:56:00,YZ,None,
,,,,,,practice_main,0,2,3,159,11,S,0,right,0.5927933580096578,1,0,,,,,,,,,,,,,,,,,,,,,1,,,,,,,,,,,,,,,,,,,,,,,,,,,,,,,,,,,,,,,,,,,,,,72,157027,20,Female,1,2024/02/20_15:56:00,YZ,None,
,,,,,,practice_main,0,2,3,159,12,Q,1,right,0.5900857359956717,0,0,,,,,,,,,,,,,,,,,,,,,1,,,,,,,,,,,,,,,,,,,,,,,,,,,,,,,,,,,,,,,,,,,,,,72,157027,20,Female,1,2024/02/20_15:56:00,YZ,None,
,,,,,,practice_main,0,2,3,159,13,C,0,left,0.0,0,0,,,,,,,,,,,,,,,,,,,,,1,,,,,,,,,,,,,,,,,,,,,,,,,,,,,,,,,,,,,,,,,,,,,,72,157027,20,Female,1,2024/02/20_15:56:00,YZ,None,
,,,,,,practice_main,0,2,3,159,14,X,0,right,0.2399846689950209,1,0,,,,,,,,,,,,,,,,,,,,,1,,,,,,,,,,,,,,,,,,,,,,,,,,,,,,,,,,,,,,,,,,,,,,72,157027,20,Female,1,2024/02/20_15:56:00,YZ,None,
,,,,,,practice_main,0,2,3,159,15,C,0,left,0.5930065520078642,0,0,,,,,,,,,,,,,,,,,,,,,1,,,,,,,,,,,,,,,,,,,,,,,,,,,,,,,,,,,,,,,,,,,,,,72,157027,20,Female,1,2024/02/20_15:56:00,YZ,None,
,,,,,,practice_main,0,2,3,159,16,C,1,left,0.512360427994281,1,0,,,,,,,,,,,,,,,,,,,,,1,,,,,,,,,,,,,,,,,,,,,,,,,,,,,,,,,,,,,,,,,,,,,,72,157027,20,Female,1,2024/02/20_15:56:00,YZ,None,
,,,,,,practice_main,0,2,3,159,17,X,1,left,0.647503237996716,1,0,,,,,,,,,,,,,,,,,,,,,1,,,,,,,,,,,,,,,,,,,,,,,,,,,,,,,,,,,,,,,,,,,,,,72,157027,20,Female,1,2024/02/20_15:56:00,YZ,None,
,,,,,,practice_main,0,2,3,159,18,F,0,right,0.6147891209984664,1,0,,,,,,,,,,,,,,,,,,,,,1,,,,,,,,,,,,,,,,,,,,,,,,,,,,,,,,,,,,,,,,,,,,,,72,157027,20,Female,1,2024/02/20_15:56:00,YZ,None,
,,,,,,practice_main,0,2,3,159,19,N,0,left,0.45244723999348935,0,0,,,,,,,,,,,,,,,,,,,,,1,,,,,,,,,,,,,,,,,,,,,,,,,,,,,,,,,,,,,,,,,,,,,,72,157027,20,Female,1,2024/02/20_15:56:00,YZ,None,
,,,,,,practice_main,0,2,3,159,20,F,0,left,nan,0,1,,,,,,,,,,,,,,,,,,,,,1,,,,,,,,,,,,,,,,,,,,,,,,,,,,,,,,,,,,,,,,,,,,,,72,157027,20,Female,1,2024/02/20_15:56:00,YZ,None,
,,,,,,practice_main,0,2,3,159,21,F,1,left,0.5780431390012382,1,0,,,,,,,,,,,,,,,,,,,,,1,,,,,,,,,,,,,,,,,,,,,,,,,,,,,,,,,,,,,,,,,,,,,,72,157027,20,Female,1,2024/02/20_15:56:00,YZ,None,
,,,,,,practice_main,0,2,3,159,22,J,0,right,0.4013731829909375,1,0,,,,,,,,,,,,,,,,,,,,,1,,,,,,,,,,,,,,,,,,,,,,,,,,,,,,,,,,,,,,,,,,,,,,72,157027,20,Female,1,2024/02/20_15:56:00,YZ,None,
,,,,,,practice_main,0,2,3,159,,,,,,,,0.8802083333333334,0.8333333333333334,0.1875,0.75,0.18181818181818182,0.6306818181818181,0.4582469522235139,5,3,0,4,4,9,14,6,16,0,,,,1,,,,,,,,,,,,,,,,,,,,,,,,,,,,,,,,,,,,,,,,,,,,,,72,157027,20,Female,1,2024/02/20_15:56:00,YZ,None,
,,,,,240220_165014,PRACTICE,0,2,3,159,,,,,,,,,,,,,,,,,,,,,,,,,,,,1,39,3,2,cue1.png,hard,B,38,1.5952963149902644,0,840.33268890201,841.9485389129986,,,,,,,,,,,,,,,,,,,,,,,,,,,,,,,,,,,72,157027,20,Female,1,2024/02/20_15:56:00,YZ,None,
,,,,,,practice_main,0,3,3,159,1,N,0,None,nan,0,1,,,,,,,,,,,,,,,,,,,,,1,,,,,,,,,,,,,,,,,,,,,,,,,,,,,,,,,,,,,,,,,,,,,,72,157027,20,Female,1,2024/02/20_15:56:00,YZ,None,
,,,,,,practice_main,0,3,3,159,2,X,0,right,0.0,1,0,,,,,,,,,,,,,,,,,,,,,1,,,,,,,,,,,,,,,,,,,,,,,,,,,,,,,,,,,,,,,,,,,,,,72,157027,20,Female,1,2024/02/20_15:56:00,YZ,None,
,,,,,,practice_main,0,3,3,159,3,C,0,right,0.20924185300827958,1,0,,,,,,,,,,,,,,,,,,,,,1,,,,,,,,,,,,,,,,,,,,,,,,,,,,,,,,,,,,,,,,,,,,,,72,157027,20,Female,1,2024/02/20_15:56:00,YZ,None,
,,,,,,practice_main,0,3,3,159,4,N,1,left,0.6269800250011031,1,0,,,,,,,,,,,,,,,,,,,,,1,,,,,,,,,,,,,,,,,,,,,,,,,,,,,,,,,,,,,,,,,,,,,,72,157027,20,Female,1,2024/02/20_15:56:00,YZ,None,
,,,,,,practice_main,0,3,3,159,5,Q,0,right,0.5412620059942128,1,0,,,,,,,,,,,,,,,,,,,,,1,,,,,,,,,,,,,,,,,,,,,,,,,,,,,,,,,,,,,,,,,,,,,,72,157027,20,Female,1,2024/02/20_15:56:00,YZ,None,
,,,,,,practice_main,0,3,3,159,6,S,0,right,0.9979923930077348,1,0,,,,,,,,,,,,,,,,,,,,,1,,,,,,,,,,,,,,,,,,,,,,,,,,,,,,,,,,,,,,,,,,,,,,72,157027,20,Female,1,2024/02/20_15:56:00,YZ,None,
,,,,,,practice_main,0,3,3,159,7,V,0,right,0.708014642004855,1,0,,,,,,,,,,,,,,,,,,,,,1,,,,,,,,,,,,,,,,,,,,,,,,,,,,,,,,,,,,,,,,,,,,,,72,157027,20,Female,1,2024/02/20_15:56:00,YZ,None,
,,,,,,practice_main,0,3,3,159,8,F,0,right,0.6893169820104958,1,0,,,,,,,,,,,,,,,,,,,,,1,,,,,,,,,,,,,,,,,,,,,,,,,,,,,,,,,,,,,,,,,,,,,,72,157027,20,Female,1,2024/02/20_15:56:00,YZ,None,
,,,,,,practice_main,0,3,3,159,9,X,0,right,nan,0,1,,,,,,,,,,,,,,,,,,,,,1,,,,,,,,,,,,,,,,,,,,,,,,,,,,,,,,,,,,,,,,,,,,,,72,157027,20,Female,1,2024/02/20_15:56:00,YZ,None,
,,,,,,practice_main,0,3,3,159,10,N,0,right,nan,0,1,,,,,,,,,,,,,,,,,,,,,1,,,,,,,,,,,,,,,,,,,,,,,,,,,,,,,,,,,,,,,,,,,,,,72,157027,20,Female,1,2024/02/20_15:56:00,YZ,None,
,,,,,,practice_main,0,3,3,159,11,F,1,left,0.6476944979949621,1,0,,,,,,,,,,,,,,,,,,,,,1,,,,,,,,,,,,,,,,,,,,,,,,,,,,,,,,,,,,,,,,,,,,,,72,157027,20,Female,1,2024/02/20_15:56:00,YZ,None,
,,,,,,practice_main,0,3,3,159,12,V,0,right,0.32369351699890103,1,0,,,,,,,,,,,,,,,,,,,,,1,,,,,,,,,,,,,,,,,,,,,,,,,,,,,,,,,,,,,,,,,,,,,,72,157027,20,Female,1,2024/02/20_15:56:00,YZ,None,
,,,,,,practice_main,0,3,3,159,13,N,1,left,0.7485199600050692,1,0,,,,,,,,,,,,,,,,,,,,,1,,,,,,,,,,,,,,,,,,,,,,,,,,,,,,,,,,,,,,,,,,,,,,72,157027,20,Female,1,2024/02/20_15:56:00,YZ,None,
,,,,,,practice_main,0,3,3,159,14,F,1,right,0.9754200149909593,0,0,,,,,,,,,,,,,,,,,,,,,1,,,,,,,,,,,,,,,,,,,,,,,,,,,,,,,,,,,,,,,,,,,,,,72,157027,20,Female,1,2024/02/20_15:56:00,YZ,None,
,,,,,,practice_main,0,3,3,159,15,N,0,left,0.7393002669996349,0,0,,,,,,,,,,,,,,,,,,,,,1,,,,,,,,,,,,,,,,,,,,,,,,,,,,,,,,,,,,,,,,,,,,,,72,157027,20,Female,1,2024/02/20_15:56:00,YZ,None,
,,,,,,practice_main,0,3,3,159,16,N,1,left,0.5123975839960622,1,0,,,,,,,,,,,,,,,,,,,,,1,,,,,,,,,,,,,,,,,,,,,,,,,,,,,,,,,,,,,,,,,,,,,,72,157027,20,Female,1,2024/02/20_15:56:00,YZ,None,
,,,,,,practice_main,0,3,3,159,17,F,1,left,0.7941208510019351,1,0,,,,,,,,,,,,,,,,,,,,,1,,,,,,,,,,,,,,,,,,,,,,,,,,,,,,,,,,,,,,,,,,,,,,72,157027,20,Female,1,2024/02/20_15:56:00,YZ,None,
,,,,,,practice_main,0,3,3,159,18,F,0,right,0.8025916010083165,1,0,,,,,,,,,,,,,,,,,,,,,1,,,,,,,,,,,,,,,,,,,,,,,,,,,,,,,,,,,,,,,,,,,,,,72,157027,20,Female,1,2024/02/20_15:56:00,YZ,None,
