Instruction,Stimulus,Key,RT,START,END,Phase,Block,TrialN,NbackLevel,ISI,LetterN,Letter,Letter_isSame,Letter_Resp,Letter_RT,Letter_Accuracy,Letter_Timeout,Trial_A_measure,Trial_HR,Trial_FAR,Trial_CDR,Trial_MSR,Trial_ACC,Trial_RT,Trial_HitsCount,Trial_FAsCount,Trial_SameNoRespCount,Trial_DiffNoRespCount,Trial_NoRespCount,Trial_CDsCount,Trial_CorrectRespCount,Trial_SameLetterCount,Trial_DiffLetterCount,Trial_InvalidLetterCount,TrialCountCali,CaliEnd_A_measure,ISI_calibrated,Run,TrialIndex,TrialNumber_total,TrialNumber_valid,CueLearning,TrialDemandLearning,CueMapping,OnlineRating,OnlineRatingRT,OnlineRatingTimeOut,CueSTART,RatingSTART,OfflineRatingTimePoint,OfflineRatingQuesIndex,CueFigure,TrialDemand,OfflineRating,OfflineRatingRT,CueStart,OfflineRatingStart,PhaseType,CueLeft,CueDemandLeft,CueRight,CueDemandRight,Choice,ChoiceDemand,TaskDemand,ChoiceRT,ChoiceTimeOut,ChoiceSTART,CueCheck,CueDemandCheck,CorrectAnswer,Answer,AnswerDemand,AnswerRT,AnswerACC,AnswerTimeOut,CheckSTART,DemandRatingQuesIndex,QuesTLX,DemandLevel,DemandRating,DemandRatingRT,QuesStart,PID,SONA,Age,Gender,Run,TIME,EXPERIMENTER,frameRate,
1,./instructions/inst_begin/Slide2.png,right,31.837343924999004,0.1159843780042138,31.953328303003218,,,,,,,,,,,,,,,,,,,,,,,,,,,,,,,,,1,,,,,,,,,,,,,,,,,,,,,,,,,,,,,,,,,,,,,,,,,,,,,,76,151681,19,Female,1,2024/02/22_12:29:19,YZ,None,
2,./instructions/inst_begin/Slide3.png,right,9.428831501019886,31.980709289986407,41.40954079100629,,,,,,,,,,,,,,,,,,,,,,,,,,,,,,,,,1,,,,,,,,,,,,,,,,,,,,,,,,,,,,,,,,,,,,,,,,,,,,,,76,151681,19,Female,1,2024/02/22_12:29:19,YZ,None,
3,./instructions/inst_begin/Slide4.png,right,15.381131230999017,41.43631886100047,56.81745009199949,,,,,,,,,,,,,,,,,,,,,,,,,,,,,,,,,1,,,,,,,,,,,,,,,,,,,,,,,,,,,,,,,,,,,,,,,,,,,,,,76,151681,19,Female,1,2024/02/22_12:29:19,YZ,None,
1,./instructions/inst_prac_2/Slide6.png,right,45.05695074997493,56.84860665400629,101.90555740398122,,,,,,,,,,,,,,,,,,,,,,,,,,,,,,,,,1,,,,,,,,,,,,,,,,,,,,,,,,,,,,,,,,,,,,,,,,,,,,,,76,151681,19,Female,1,2024/02/22_12:29:19,YZ,None,
2,./instructions/inst_prac_2/Slide7.png,right,36.733647928980645,101.93196869600797,138.66561662498862,,,,,,,,,,,,,,,,,,,,,,,,,,,,,,,,,1,,,,,,,,,,,,,,,,,,,,,,,,,,,,,,,,,,,,,,,,,,,,,,76,151681,19,Female,1,2024/02/22_12:29:19,YZ,None,
3,./instructions/inst_prac_2/Slide8.png,right,20.949654210999142,138.69189988900325,159.6415541000024,,,,,,,,,,,,,,,,,,,,,,,,,,,,,,,,,1,,,,,,,,,,,,,,,,,,,,,,,,,,,,,,,,,,,,,,,,,,,,,,76,151681,19,Female,1,2024/02/22_12:29:19,YZ,None,
4,./instructions/inst_prac_2/Slide9.png,right,10.762786084000254,159.67065303900745,170.4334391230077,,,,,,,,,,,,,,,,,,,,,,,,,,,,,,,,,1,,,,,,,,,,,,,,,,,,,,,,,,,,,,,,,,,,,,,,,,,,,,,,76,151681,19,Female,1,2024/02/22_12:29:19,YZ,None,
5,./instructions/inst_prac_2/Slide10.png,right,2.5863901319971774,170.46288700500736,173.04927713700454,,,,,,,,,,,,,,,,,,,,,,,,,,,,,,,,,1,,,,,,,,,,,,,,,,,,,,,,,,,,,,,,,,,,,,,,,,,,,,,,76,151681,19,Female,1,2024/02/22_12:29:19,YZ,None,
6,./instructions/inst_prac_2/Slide11.png,right,2.0193622339866124,173.0780027419969,175.0973649759835,,,,,,,,,,,,,,,,,,,,,,,,,,,,,,,,,1,,,,,,,,,,,,,,,,,,,,,,,,,,,,,,,,,,,,,,,,,,,,,,76,151681,19,Female,1,2024/02/22_12:29:19,YZ,None,
7,./instructions/inst_prac_2/Slide12.png,right,1.859284342994215,175.1262903189927,176.9855746619869,,,,,,,,,,,,,,,,,,,,,,,,,,,,,,,,,1,,,,,,,,,,,,,,,,,,,,,,,,,,,,,,,,,,,,,,,,,,,,,,76,151681,19,Female,1,2024/02/22_12:29:19,YZ,None,
8,./instructions/inst_prac_2/Slide13.png,right,1.3632305659994017,177.01436348998686,178.37759405598626,,,,,,,,,,,,,,,,,,,,,,,,,,,,,,,,,1,,,,,,,,,,,,,,,,,,,,,,,,,,,,,,,,,,,,,,,,,,,,,,76,151681,19,Female,1,2024/02/22_12:29:19,YZ,None,
9,./instructions/inst_prac_2/Slide14.png,right,13.853782479010988,178.40372395698796,192.25750643599895,,,,,,,,,,,,,,,,,,,,,,,,,,,,,,,,,1,,,,,,,,,,,,,,,,,,,,,,,,,,,,,,,,,,,,,,,,,,,,,,76,151681,19,Female,1,2024/02/22_12:29:19,YZ,None,
10,./instructions/inst_prac_2/Slide15.png,right,22.30674589899718,192.2868182839884,214.59356418298557,,,,,,,,,,,,,,,,,,,,,,,,,,,,,,,,,1,,,,,,,,,,,,,,,,,,,,,,,,,,,,,,,,,,,,,,,,,,,,,,76,151681,19,Female,1,2024/02/22_12:29:19,YZ,None,
,,,,,,practice,0,13,2,2583,1,J,0,right,6.745898929977557,1,0,,,,,,,,,,,,,,,,,,,,,1,,,,,,,,,,,,,,,,,,,,,,,,,,,,,,,,,,,,,,,,,,,,,,76,151681,19,Female,1,2024/02/22_12:29:19,YZ,None,
,,,,,,practice,0,13,2,2583,2,V,0,right,1.2503351979830768,1,0,,,,,,,,,,,,,,,,,,,,,1,,,,,,,,,,,,,,,,,,,,,,,,,,,,,,,,,,,,,,,,,,,,,,76,151681,19,Female,1,2024/02/22_12:29:19,YZ,None,
,,,,,,practice,0,13,2,2583,3,J,1,left,0.9639022070041392,1,0,,,,,,,,,,,,,,,,,,,,,1,,,,,,,,,,,,,,,,,,,,,,,,,,,,,,,,,,,,,,,,,,,,,,76,151681,19,Female,1,2024/02/22_12:29:19,YZ,None,
,,,,,,practice,0,13,2,2583,4,V,1,left,1.1670415539992973,1,0,,,,,,,,,,,,,,,,,,,,,1,,,,,,,,,,,,,,,,,,,,,,,,,,,,,,,,,,,,,,,,,,,,,,76,151681,19,Female,1,2024/02/22_12:29:19,YZ,None,
,,,,,,practice,0,13,2,2583,5,S,0,right,1.0265140819828957,1,0,,,,,,,,,,,,,,,,,,,,,1,,,,,,,,,,,,,,,,,,,,,,,,,,,,,,,,,,,,,,,,,,,,,,76,151681,19,Female,1,2024/02/22_12:29:19,YZ,None,
,,,,,,practice,0,13,2,2583,6,N,0,right,1.1793290009954944,1,0,,,,,,,,,,,,,,,,,,,,,1,,,,,,,,,,,,,,,,,,,,,,,,,,,,,,,,,,,,,,,,,,,,,,76,151681,19,Female,1,2024/02/22_12:29:19,YZ,None,
,,,,,,practice,0,13,2,2583,,,,,,,,1.0,1.0,0.0,1.0,0.0,1.0,2.055503495323743,2,0,0,0,0,4,6,2,4,0,,,,1,,,,,,,,,,,,,,,,,,,,,,,,,,,,,,,,,,,,,,,,,,,,,,76,151681,19,Female,1,2024/02/22_12:29:19,YZ,None,
1,./instructions/inst_to_cali/Slide20.png,right,5.720431623980403,233.281051664002,239.0014832879824,,,,,,,,,,,,,,,,,,,,,,,,,,,,,,,,,1,,,,,,,,,,,,,,,,,,,,,,,,,,,,,,,,,,,,,,,,,,,,,,76,151681,19,Female,1,2024/02/22_12:29:19,YZ,None,
1,./instructions/inst_cali/Slide22.png,right,10.00935040897457,239.0320862320077,249.04143664098228,,,,,,,,,,,,,,,,,,,,,,,,,,,,,,,,,1,,,,,,,,,,,,,,,,,,,,,,,,,,,,,,,,,,,,,,,,,,,,,,76,151681,19,Female,1,2024/02/22_12:29:19,YZ,None,
,,,,,,calibration,0,18,2,583,1,X,0,right,0.5835378539923113,1,0,,,,,,,,,,,,,,,,,,,,,1,,,,,,,,,,,,,,,,,,,,,,,,,,,,,,,,,,,,,,,,,,,,,,76,151681,19,Female,1,2024/02/22_12:29:19,YZ,None,
,,,,,,calibration,0,18,2,583,2,C,0,right,0.60877645900473,1,0,,,,,,,,,,,,,,,,,,,,,1,,,,,,,,,,,,,,,,,,,,,,,,,,,,,,,,,,,,,,,,,,,,,,76,151681,19,Female,1,2024/02/22_12:29:19,YZ,None,
,,,,,,calibration,0,18,2,583,3,S,0,right,0.8140241949877236,1,0,,,,,,,,,,,,,,,,,,,,,1,,,,,,,,,,,,,,,,,,,,,,,,,,,,,,,,,,,,,,,,,,,,,,76,151681,19,Female,1,2024/02/22_12:29:19,YZ,None,
,,,,,,calibration,0,18,2,583,4,V,0,right,0.5987875559949316,1,0,,,,,,,,,,,,,,,,,,,,,1,,,,,,,,,,,,,,,,,,,,,,,,,,,,,,,,,,,,,,,,,,,,,,76,151681,19,Female,1,2024/02/22_12:29:19,YZ,None,
,,,,,,calibration,0,18,2,583,5,X,0,left,0.6083510030002799,0,0,,,,,,,,,,,,,,,,,,,,,1,,,,,,,,,,,,,,,,,,,,,,,,,,,,,,,,,,,,,,,,,,,,,,76,151681,19,Female,1,2024/02/22_12:29:19,YZ,None,
,,,,,,calibration,0,18,2,583,6,J,0,right,0.6303152299951762,1,0,,,,,,,,,,,,,,,,,,,,,1,,,,,,,,,,,,,,,,,,,,,,,,,,,,,,,,,,,,,,,,,,,,,,76,151681,19,Female,1,2024/02/22_12:29:19,YZ,None,
,,,,,,calibration,0,18,2,583,7,X,1,right,1.3431013059744146,0,0,,,,,,,,,,,,,,,,,,,,,1,,,,,,,,,,,,,,,,,,,,,,,,,,,,,,,,,,,,,,,,,,,,,,76,151681,19,Female,1,2024/02/22_12:29:19,YZ,None,
,,,,,,calibration,0,18,2,583,8,J,1,right,0.954699146997882,0,0,,,,,,,,,,,,,,,,,,,,,1,,,,,,,,,,,,,,,,,,,,,,,,,,,,,,,,,,,,,,,,,,,,,,76,151681,19,Female,1,2024/02/22_12:29:19,YZ,None,
,,,,,,calibration,0,18,2,583,9,V,0,right,0.6054873029934242,1,0,,,,,,,,,,,,,,,,,,,,,1,,,,,,,,,,,,,,,,,,,,,,,,,,,,,,,,,,,,,,,,,,,,,,76,151681,19,Female,1,2024/02/22_12:29:19,YZ,None,
,,,,,,calibration,0,18,2,583,10,J,1,left,0.7763887159817386,1,0,,,,,,,,,,,,,,,,,,,,,1,,,,,,,,,,,,,,,,,,,,,,,,,,,,,,,,,,,,,,,,,,,,,,76,151681,19,Female,1,2024/02/22_12:29:19,YZ,None,
,,,,,,calibration,0,18,2,583,11,Q,0,right,0.5750551840174012,1,0,,,,,,,,,,,,,,,,,,,,,1,,,,,,,,,,,,,,,,,,,,,,,,,,,,,,,,,,,,,,,,,,,,,,76,151681,19,Female,1,2024/02/22_12:29:19,YZ,None,
,,,,,,calibration,0,18,2,583,12,F,0,left,0.7263876879878808,0,0,,,,,,,,,,,,,,,,,,,,,1,,,,,,,,,,,,,,,,,,,,,,,,,,,,,,,,,,,,,,,,,,,,,,76,151681,19,Female,1,2024/02/22_12:29:19,YZ,None,
,,,,,,calibration,0,18,2,583,13,Q,1,right,0.6986131349985953,0,0,,,,,,,,,,,,,,,,,,,,,1,,,,,,,,,,,,,,,,,,,,,,,,,,,,,,,,,,,,,,,,,,,,,,76,151681,19,Female,1,2024/02/22_12:29:19,YZ,None,
,,,,,,calibration,0,18,2,583,14,N,0,right,0.5748590549919754,1,0,,,,,,,,,,,,,,,,,,,,,1,,,,,,,,,,,,,,,,,,,,,,,,,,,,,,,,,,,,,,,,,,,,,,76,151681,19,Female,1,2024/02/22_12:29:19,YZ,None,
,,,,,,calibration,0,18,2,583,15,J,0,left,0.7577307150058914,0,0,,,,,,,,,,,,,,,,,,,,,1,,,,,,,,,,,,,,,,,,,,,,,,,,,,,,,,,,,,,,,,,,,,,,76,151681,19,Female,1,2024/02/22_12:29:19,YZ,None,
,,,,,,calibration,0,18,2,583,,,,,,,,0.015151515151515138,0.25,0.2727272727272727,0.7272727272727273,0.0,0.7272727272727273,0.7237409697282904,1,3,0,0,0,8,9,4,11,0,,,,1,,,,,,,,,,,,,,,,,,,,,,,,,,,,,,,,,,,,,,,,,,,,,,76,151681,19,Female,1,2024/02/22_12:29:19,YZ,None,
,,,,,,Calibration,0,,2,583,,,,,,,,,,,,,,,,,,,,,,,,,1,,,1,,,,,,,,,,,,,,,,,,,,,,,,,,,,,,,,,,,,,,,,,,,,,,76,151681,19,Female,1,2024/02/22_12:29:19,YZ,None,
,,,,,,calibration,0,31,2,679,1,C,0,right,0.7656957160215825,1,0,,,,,,,,,,,,,,,,,,,,,1,,,,,,,,,,,,,,,,,,,,,,,,,,,,,,,,,,,,,,,,,,,,,,76,151681,19,Female,1,2024/02/22_12:29:19,YZ,None,
,,,,,,calibration,0,31,2,679,2,Q,0,right,0.3985859229869675,1,0,,,,,,,,,,,,,,,,,,,,,1,,,,,,,,,,,,,,,,,,,,,,,,,,,,,,,,,,,,,,,,,,,,,,76,151681,19,Female,1,2024/02/22_12:29:19,YZ,None,
,,,,,,calibration,0,31,2,679,3,S,0,right,0.7085708039812744,1,0,,,,,,,,,,,,,,,,,,,,,1,,,,,,,,,,,,,,,,,,,,,,,,,,,,,,,,,,,,,,,,,,,,,,76,151681,19,Female,1,2024/02/22_12:29:19,YZ,None,
,,,,,,calibration,0,31,2,679,4,Q,1,left,0.6481773490086198,1,0,,,,,,,,,,,,,,,,,,,,,1,,,,,,,,,,,,,,,,,,,,,,,,,,,,,,,,,,,,,,,,,,,,,,76,151681,19,Female,1,2024/02/22_12:29:19,YZ,None,
,,,,,,calibration,0,31,2,679,5,J,0,right,0.6910086389980279,1,0,,,,,,,,,,,,,,,,,,,,,1,,,,,,,,,,,,,,,,,,,,,,,,,,,,,,,,,,,,,,,,,,,,,,76,151681,19,Female,1,2024/02/22_12:29:19,YZ,None,
,,,,,,calibration,0,31,2,679,6,N,0,right,0.7415934390155599,1,0,,,,,,,,,,,,,,,,,,,,,1,,,,,,,,,,,,,,,,,,,,,,,,,,,,,,,,,,,,,,,,,,,,,,76,151681,19,Female,1,2024/02/22_12:29:19,YZ,None,
,,,,,,calibration,0,31,2,679,7,J,1,left,0.6688341950066388,1,0,,,,,,,,,,,,,,,,,,,,,1,,,,,,,,,,,,,,,,,,,,,,,,,,,,,,,,,,,,,,,,,,,,,,76,151681,19,Female,1,2024/02/22_12:29:19,YZ,None,
,,,,,,calibration,0,31,2,679,8,C,0,right,0.5761186390009243,1,0,,,,,,,,,,,,,,,,,,,,,1,,,,,,,,,,,,,,,,,,,,,,,,,,,,,,,,,,,,,,,,,,,,,,76,151681,19,Female,1,2024/02/22_12:29:19,YZ,None,
,,,,,,calibration,0,31,2,679,9,V,0,right,0.5577984010160435,1,0,,,,,,,,,,,,,,,,,,,,,1,,,,,,,,,,,,,,,,,,,,,,,,,,,,,,,,,,,,,,,,,,,,,,76,151681,19,Female,1,2024/02/22_12:29:19,YZ,None,
,,,,,,calibration,0,31,2,679,10,C,1,left,0.5614339720050339,1,0,,,,,,,,,,,,,,,,,,,,,1,,,,,,,,,,,,,,,,,,,,,,,,,,,,,,,,,,,,,,,,,,,,,,76,151681,19,Female,1,2024/02/22_12:29:19,YZ,None,
,,,,,,calibration,0,31,2,679,11,N,0,right,0.5483194570115302,1,0,,,,,,,,,,,,,,,,,,,,,1,,,,,,,,,,,,,,,,,,,,,,,,,,,,,,,,,,,,,,,,,,,,,,76,151681,19,Female,1,2024/02/22_12:29:19,YZ,None,
,,,,,,calibration,0,31,2,679,12,C,1,left,0.614362570020603,1,0,,,,,,,,,,,,,,,,,,,,,1,,,,,,,,,,,,,,,,,,,,,,,,,,,,,,,,,,,,,,,,,,,,,,76,151681,19,Female,1,2024/02/22_12:29:19,YZ,None,
,,,,,,calibration,0,31,2,679,13,V,0,right,0.47904830498737283,1,0,,,,,,,,,,,,,,,,,,,,,1,,,,,,,,,,,,,,,,,,,,,,,,,,,,,,,,,,,,,,,,,,,,,,76,151681,19,Female,1,2024/02/22_12:29:19,YZ,None,
,,,,,,calibration,0,31,2,679,14,N,0,left,1.3731787949800491,0,0,,,,,,,,,,,,,,,,,,,,,1,,,,,,,,,,,,,,,,,,,,,,,,,,,,,,,,,,,,,,,,,,,,,,76,151681,19,Female,1,2024/02/22_12:29:19,YZ,None,
,,,,,,calibration,0,31,2,679,,,,,,,,0.975,1.0,0.1,0.9,0.0,0.9,0.6666233002885876,4,1,0,0,0,9,13,4,10,0,,,,1,,,,,,,,,,,,,,,,,,,,,,,,,,,,,,,,,,,,,,,,,,,,,,76,151681,19,Female,1,2024/02/22_12:29:19,YZ,None,
,,,,,,Calibration,0,,2,679,,,,,,,,,,,,,,,,,,,,,,,,,2,,,1,,,,,,,,,,,,,,,,,,,,,,,,,,,,,,,,,,,,,,,,,,,,,,76,151681,19,Female,1,2024/02/22_12:29:19,YZ,None,
,,,,,,calibration,0,3,2,583,1,F,0,right,0.5504533159837592,1,0,,,,,,,,,,,,,,,,,,,,,1,,,,,,,,,,,,,,,,,,,,,,,,,,,,,,,,,,,,,,,,,,,,,,76,151681,19,Female,1,2024/02/22_12:29:19,YZ,None,
,,,,,,calibration,0,3,2,583,2,S,0,right,0.3892356090073008,1,0,,,,,,,,,,,,,,,,,,,,,1,,,,,,,,,,,,,,,,,,,,,,,,,,,,,,,,,,,,,,,,,,,,,,76,151681,19,Female,1,2024/02/22_12:29:19,YZ,None,
,,,,,,calibration,0,3,2,583,3,V,0,left,0.5249773650139105,0,0,,,,,,,,,,,,,,,,,,,,,1,,,,,,,,,,,,,,,,,,,,,,,,,,,,,,,,,,,,,,,,,,,,,,76,151681,19,Female,1,2024/02/22_12:29:19,YZ,None,
,,,,,,calibration,0,3,2,583,4,S,1,right,0.5614605740120169,0,0,,,,,,,,,,,,,,,,,,,,,1,,,,,,,,,,,,,,,,,,,,,,,,,,,,,,,,,,,,,,,,,,,,,,76,151681,19,Female,1,2024/02/22_12:29:19,YZ,None,
,,,,,,calibration,0,3,2,583,5,F,0,right,1.012476774980314,1,0,,,,,,,,,,,,,,,,,,,,,1,,,,,,,,,,,,,,,,,,,,,,,,,,,,,,,,,,,,,,,,,,,,,,76,151681,19,Female,1,2024/02/22_12:29:19,YZ,None,
,,,,,,calibration,0,3,2,583,6,C,0,right,0.9243160799960606,1,0,,,,,,,,,,,,,,,,,,,,,1,,,,,,,,,,,,,,,,,,,,,,,,,,,,,,,,,,,,,,,,,,,,,,76,151681,19,Female,1,2024/02/22_12:29:19,YZ,None,
,,,,,,calibration,0,3,2,583,7,Q,0,right,0.7463756270008162,1,0,,,,,,,,,,,,,,,,,,,,,1,,,,,,,,,,,,,,,,,,,,,,,,,,,,,,,,,,,,,,,,,,,,,,76,151681,19,Female,1,2024/02/22_12:29:19,YZ,None,
,,,,,,calibration,0,3,2,583,8,C,1,left,0.558242800005246,1,0,,,,,,,,,,,,,,,,,,,,,1,,,,,,,,,,,,,,,,,,,,,,,,,,,,,,,,,,,,,,,,,,,,,,76,151681,19,Female,1,2024/02/22_12:29:19,YZ,None,
,,,,,,calibration,0,3,2,583,9,V,0,right,0.4755843369930517,1,0,,,,,,,,,,,,,,,,,,,,,1,,,,,,,,,,,,,,,,,,,,,,,,,,,,,,,,,,,,,,,,,,,,,,76,151681,19,Female,1,2024/02/22_12:29:19,YZ,None,
,,,,,,calibration,0,3,2,583,10,C,1,left,1.0901373460073955,1,0,,,,,,,,,,,,,,,,,,,,,1,,,,,,,,,,,,,,,,,,,,,,,,,,,,,,,,,,,,,,,,,,,,,,76,151681,19,Female,1,2024/02/22_12:29:19,YZ,None,
,,,,,,calibration,0,3,2,583,11,V,1,right,0.8746149380167481,0,0,,,,,,,,,,,,,,,,,,,,,1,,,,,,,,,,,,,,,,,,,,,,,,,,,,,,,,,,,,,,,,,,,,,,76,151681,19,Female,1,2024/02/22_12:29:19,YZ,None,
,,,,,,calibration,0,3,2,583,12,J,0,left,0.5920969159924425,0,0,,,,,,,,,,,,,,,,,,,,,1,,,,,,,,,,,,,,,,,,,,,,,,,,,,,,,,,,,,,,,,,,,,,,76,151681,19,Female,1,2024/02/22_12:29:19,YZ,None,
,,,,,,calibration,0,3,2,583,13,Q,0,right,1.1535154309822246,1,0,,,,,,,,,,,,,,,,,,,,,1,,,,,,,,,,,,,,,,,,,,,,,,,,,,,,,,,,,,,,,,,,,,,,76,151681,19,Female,1,2024/02/22_12:29:19,YZ,None,
,,,,,,calibration,0,3,2,583,14,F,0,right,0.5124921499809716,1,0,,,,,,,,,,,,,,,,,,,,,1,,,,,,,,,,,,,,,,,,,,,,,,,,,,,,,,,,,,,,,,,,,,,,76,151681,19,Female,1,2024/02/22_12:29:19,YZ,None,
,,,,,,calibration,0,3,2,583,15,C,0,right,0.7941282630199566,1,0,,,,,,,,,,,,,,,,,,,,,1,,,,,,,,,,,,,,,,,,,,,,,,,,,,,,,,,,,,,,,,,,,,,,76,151681,19,Female,1,2024/02/22_12:29:19,YZ,None,
,,,,,,calibration,0,3,2,583,,,,,,,,0.7386363636363636,0.5,0.18181818181818182,0.8181818181818182,0.0,0.8181818181818181,0.717340501799481,2,2,0,0,0,9,11,4,11,0,,,,1,,,,,,,,,,,,,,,,,,,,,,,,,,,,,,,,,,,,,,,,,,,,,,76,151681,19,Female,1,2024/02/22_12:29:19,YZ,None,
,,,,,,Calibration,0,,2,583,,,,,,,,,,,,,,,,,,,,,,,,,3,,,1,,,,,,,,,,,,,,,,,,,,,,,,,,,,,,,,,,,,,,,,,,,,,,76,151681,19,Female,1,2024/02/22_12:29:19,YZ,None,
,,,,,,calibration,0,18,2,679,1,C,0,right,0.4002364950138144,1,0,,,,,,,,,,,,,,,,,,,,,1,,,,,,,,,,,,,,,,,,,,,,,,,,,,,,,,,,,,,,,,,,,,,,76,151681,19,Female,1,2024/02/22_12:29:19,YZ,None,
,,,,,,calibration,0,18,2,679,2,S,0,right,0.39438861300004646,1,0,,,,,,,,,,,,,,,,,,,,,1,,,,,,,,,,,,,,,,,,,,,,,,,,,,,,,,,,,,,,,,,,,,,,76,151681,19,Female,1,2024/02/22_12:29:19,YZ,None,
,,,,,,calibration,0,18,2,679,3,C,1,left,0.40802410201285966,1,0,,,,,,,,,,,,,,,,,,,,,1,,,,,,,,,,,,,,,,,,,,,,,,,,,,,,,,,,,,,,,,,,,,,,76,151681,19,Female,1,2024/02/22_12:29:19,YZ,None,
,,,,,,calibration,0,18,2,679,4,J,0,right,0.4076494529726915,1,0,,,,,,,,,,,,,,,,,,,,,1,,,,,,,,,,,,,,,,,,,,,,,,,,,,,,,,,,,,,,,,,,,,,,76,151681,19,Female,1,2024/02/22_12:29:19,YZ,None,
,,,,,,calibration,0,18,2,679,5,N,0,right,0.5952277960022911,1,0,,,,,,,,,,,,,,,,,,,,,1,,,,,,,,,,,,,,,,,,,,,,,,,,,,,,,,,,,,,,,,,,,,,,76,151681,19,Female,1,2024/02/22_12:29:19,YZ,None,
,,,,,,calibration,0,18,2,679,6,J,1,left,0.512684902001638,1,0,,,,,,,,,,,,,,,,,,,,,1,,,,,,,,,,,,,,,,,,,,,,,,,,,,,,,,,,,,,,,,,,,,,,76,151681,19,Female,1,2024/02/22_12:29:19,YZ,None,
,,,,,,calibration,0,18,2,679,7,X,0,right,0.4026876089919824,1,0,,,,,,,,,,,,,,,,,,,,,1,,,,,,,,,,,,,,,,,,,,,,,,,,,,,,,,,,,,,,,,,,,,,,76,151681,19,Female,1,2024/02/22_12:29:19,YZ,None,
,,,,,,calibration,0,18,2,679,8,F,0,right,0.42411653499584645,1,0,,,,,,,,,,,,,,,,,,,,,1,,,,,,,,,,,,,,,,,,,,,,,,,,,,,,,,,,,,,,,,,,,,,,76,151681,19,Female,1,2024/02/22_12:29:19,YZ,None,
,,,,,,calibration,0,18,2,679,9,V,0,right,0.4803226820076816,1,0,,,,,,,,,,,,,,,,,,,,,1,,,,,,,,,,,,,,,,,,,,,,,,,,,,,,,,,,,,,,,,,,,,,,76,151681,19,Female,1,2024/02/22_12:29:19,YZ,None,
,,,,,,calibration,0,18,2,679,10,Q,0,right,0.5656348250049632,1,0,,,,,,,,,,,,,,,,,,,,,1,,,,,,,,,,,,,,,,,,,,,,,,,,,,,,,,,,,,,,,,,,,,,,76,151681,19,Female,1,2024/02/22_12:29:19,YZ,None,
,,,,,,calibration,0,18,2,679,11,V,1,left,0.830613522004569,1,0,,,,,,,,,,,,,,,,,,,,,1,,,,,,,,,,,,,,,,,,,,,,,,,,,,,,,,,,,,,,,,,,,,,,76,151681,19,Female,1,2024/02/22_12:29:19,YZ,None,
,,,,,,calibration,0,18,2,679,12,F,0,right,0.45518116300809197,1,0,,,,,,,,,,,,,,,,,,,,,1,,,,,,,,,,,,,,,,,,,,,,,,,,,,,,,,,,,,,,,,,,,,,,76,151681,19,Female,1,2024/02/22_12:29:19,YZ,None,
,,,,,,calibration,0,18,2,679,13,J,0,right,0.40068536199396476,1,0,,,,,,,,,,,,,,,,,,,,,1,,,,,,,,,,,,,,,,,,,,,,,,,,,,,,,,,,,,,,,,,,,,,,76,151681,19,Female,1,2024/02/22_12:29:19,YZ,None,
,,,,,,calibration,0,18,2,679,14,F,1,left,0.37901680899085477,1,0,,,,,,,,,,,,,,,,,,,,,1,,,,,,,,,,,,,,,,,,,,,,,,,,,,,,,,,,,,,,,,,,,,,,76,151681,19,Female,1,2024/02/22_12:29:19,YZ,None,
,,,,,,calibration,0,18,2,679,,,,,,,,1.0,1.0,0.0,1.0,0.0,1.0,0.47546213342866395,4,0,0,0,0,10,14,4,10,0,,,,1,,,,,,,,,,,,,,,,,,,,,,,,,,,,,,,,,,,,,,,,,,,,,,76,151681,19,Female,1,2024/02/22_12:29:19,YZ,None,
,,,,,,Calibration,0,,2,679,,,,,,,,,,,,,,,,,,,,,,,,,4,,,1,,,,,,,,,,,,,,,,,,,,,,,,,,,,,,,,,,,,,,,,,,,,,,76,151681,19,Female,1,2024/02/22_12:29:19,YZ,None,
,,,,,,calibration,0,35,2,583,1,J,0,right,0.36342188200796954,1,0,,,,,,,,,,,,,,,,,,,,,1,,,,,,,,,,,,,,,,,,,,,,,,,,,,,,,,,,,,,,,,,,,,,,76,151681,19,Female,1,2024/02/22_12:29:19,YZ,None,
,,,,,,calibration,0,35,2,583,2,Q,0,right,0.3686503659992013,1,0,,,,,,,,,,,,,,,,,,,,,1,,,,,,,,,,,,,,,,,,,,,,,,,,,,,,,,,,,,,,,,,,,,,,76,151681,19,Female,1,2024/02/22_12:29:19,YZ,None,
,,,,,,calibration,0,35,2,583,3,S,0,right,0.5309665590175427,1,0,,,,,,,,,,,,,,,,,,,,,1,,,,,,,,,,,,,,,,,,,,,,,,,,,,,,,,,,,,,,,,,,,,,,76,151681,19,Female,1,2024/02/22_12:29:19,YZ,None,
,,,,,,calibration,0,35,2,583,4,Q,1,left,0.4112011890101712,1,0,,,,,,,,,,,,,,,,,,,,,1,,,,,,,,,,,,,,,,,,,,,,,,,,,,,,,,,,,,,,,,,,,,,,76,151681,19,Female,1,2024/02/22_12:29:19,YZ,None,
,,,,,,calibration,0,35,2,583,5,J,0,right,0.29223460602224804,1,0,,,,,,,,,,,,,,,,,,,,,1,,,,,,,,,,,,,,,,,,,,,,,,,,,,,,,,,,,,,,,,,,,,,,76,151681,19,Female,1,2024/02/22_12:29:19,YZ,None,
,,,,,,calibration,0,35,2,583,6,N,0,right,0.575407506985357,1,0,,,,,,,,,,,,,,,,,,,,,1,,,,,,,,,,,,,,,,,,,,,,,,,,,,,,,,,,,,,,,,,,,,,,76,151681,19,Female,1,2024/02/22_12:29:19,YZ,None,
,,,,,,calibration,0,35,2,583,7,Q,0,left,0.6726436119934078,0,0,,,,,,,,,,,,,,,,,,,,,1,,,,,,,,,,,,,,,,,,,,,,,,,,,,,,,,,,,,,,,,,,,,,,76,151681,19,Female,1,2024/02/22_12:29:19,YZ,None,
,,,,,,calibration,0,35,2,583,8,N,1,right,0.09818118199473247,0,0,,,,,,,,,,,,,,,,,,,,,1,,,,,,,,,,,,,,,,,,,,,,,,,,,,,,,,,,,,,,,,,,,,,,76,151681,19,Female,1,2024/02/22_12:29:19,YZ,None,
,,,,,,calibration,0,35,2,583,9,Q,1,left,1.7145805239852052,1,0,,,,,,,,,,,,,,,,,,,,,1,,,,,,,,,,,,,,,,,,,,,,,,,,,,,,,,,,,,,,,,,,,,,,76,151681,19,Female,1,2024/02/22_12:29:19,YZ,None,
,,,,,,calibration,0,35,2,583,10,F,0,right,1.5302245199854951,1,0,,,,,,,,,,,,,,,,,,,,,1,,,,,,,,,,,,,,,,,,,,,,,,,,,,,,,,,,,,,,,,,,,,,,76,151681,19,Female,1,2024/02/22_12:29:19,YZ,None,
,,,,,,calibration,0,35,2,583,11,S,0,right,0.44373455800814554,1,0,,,,,,,,,,,,,,,,,,,,,1,,,,,,,,,,,,,,,,,,,,,,,,,,,,,,,,,,,,,,,,,,,,,,76,151681,19,Female,1,2024/02/22_12:29:19,YZ,None,
,,,,,,calibration,0,35,2,583,12,Q,0,right,0.44475408701691777,1,0,,,,,,,,,,,,,,,,,,,,,1,,,,,,,,,,,,,,,,,,,,,,,,,,,,,,,,,,,,,,,,,,,,,,76,151681,19,Female,1,2024/02/22_12:29:19,YZ,None,
,,,,,,calibration,0,35,2,583,13,S,1,left,0.3966893489996437,1,0,,,,,,,,,,,,,,,,,,,,,1,,,,,,,,,,,,,,,,,,,,,,,,,,,,,,,,,,,,,,,,,,,,,,76,151681,19,Female,1,2024/02/22_12:29:19,YZ,None,
,,,,,,calibration,0,35,2,583,14,C,0,right,0.2600928039755672,1,0,,,,,,,,,,,,,,,,,,,,,1,,,,,,,,,,,,,,,,,,,,,,,,,,,,,,,,,,,,,,,,,,,,,,76,151681,19,Female,1,2024/02/22_12:29:19,YZ,None,
,,,,,,calibration,0,35,2,583,15,X,0,right,0.4522554380237125,1,0,,,,,,,,,,,,,,,,,,,,,1,,,,,,,,,,,,,,,,,,,,,,,,,,,,,,,,,,,,,,,,,,,,,,76,151681,19,Female,1,2024/02/22_12:29:19,YZ,None,
,,,,,,calibration,0,35,2,583,,,,,,,,0.8920454545454546,0.75,0.09090909090909091,0.9090909090909091,0.0,0.9090909090909091,0.5703358788683545,3,1,0,0,0,10,13,4,11,0,,,,1,,,,,,,,,,,,,,,,,,,,,,,,,,,,,,,,,,,,,,,,,,,,,,76,151681,19,Female,1,2024/02/22_12:29:19,YZ,None,
,,,,,,Calibration,0,,2,583,,,,,,,,,,,,,,,,,,,,,,,,,5,,,1,,,,,,,,,,,,,,,,,,,,,,,,,,,,,,,,,,,,,,,,,,,,,,76,151681,19,Female,1,2024/02/22_12:29:19,YZ,None,
,,,,,,calibration,0,30,2,500,1,N,0,right,0.25511947300401516,1,0,,,,,,,,,,,,,,,,,,,,,1,,,,,,,,,,,,,,,,,,,,,,,,,,,,,,,,,,,,,,,,,,,,,,76,151681,19,Female,1,2024/02/22_12:29:19,YZ,None,
,,,,,,calibration,0,30,2,500,2,S,0,right,0.2970866209943779,1,0,,,,,,,,,,,,,,,,,,,,,1,,,,,,,,,,,,,,,,,,,,,,,,,,,,,,,,,,,,,,,,,,,,,,76,151681,19,Female,1,2024/02/22_12:29:19,YZ,None,
,,,,,,calibration,0,30,2,500,3,Q,0,right,0.40872624100302346,1,0,,,,,,,,,,,,,,,,,,,,,1,,,,,,,,,,,,,,,,,,,,,,,,,,,,,,,,,,,,,,,,,,,,,,76,151681,19,Female,1,2024/02/22_12:29:19,YZ,None,
,,,,,,calibration,0,30,2,500,4,S,1,left,0.3134458389831707,1,0,,,,,,,,,,,,,,,,,,,,,1,,,,,,,,,,,,,,,,,,,,,,,,,,,,,,,,,,,,,,,,,,,,,,76,151681,19,Female,1,2024/02/22_12:29:19,YZ,None,
,,,,,,calibration,0,30,2,500,5,X,0,right,0.37206897902069613,1,0,,,,,,,,,,,,,,,,,,,,,1,,,,,,,,,,,,,,,,,,,,,,,,,,,,,,,,,,,,,,,,,,,,,,76,151681,19,Female,1,2024/02/22_12:29:19,YZ,None,
,,,,,,calibration,0,30,2,500,6,N,0,left,0.3652990809932817,0,0,,,,,,,,,,,,,,,,,,,,,1,,,,,,,,,,,,,,,,,,,,,,,,,,,,,,,,,,,,,,,,,,,,,,76,151681,19,Female,1,2024/02/22_12:29:19,YZ,None,
,,,,,,calibration,0,30,2,500,7,V,0,right,0.69062191498233,1,0,,,,,,,,,,,,,,,,,,,,,1,,,,,,,,,,,,,,,,,,,,,,,,,,,,,,,,,,,,,,,,,,,,,,76,151681,19,Female,1,2024/02/22_12:29:19,YZ,None,
,,,,,,calibration,0,30,2,500,8,N,1,left,0.5721951320010703,1,0,,,,,,,,,,,,,,,,,,,,,1,,,,,,,,,,,,,,,,,,,,,,,,,,,,,,,,,,,,,,,,,,,,,,76,151681,19,Female,1,2024/02/22_12:29:19,YZ,None,
,,,,,,calibration,0,30,2,500,9,C,0,right,0.38008438001270406,1,0,,,,,,,,,,,,,,,,,,,,,1,,,,,,,,,,,,,,,,,,,,,,,,,,,,,,,,,,,,,,,,,,,,,,76,151681,19,Female,1,2024/02/22_12:29:19,YZ,None,
,,,,,,calibration,0,30,2,500,10,S,0,right,0.36882505798712373,1,0,,,,,,,,,,,,,,,,,,,,,1,,,,,,,,,,,,,,,,,,,,,,,,,,,,,,,,,,,,,,,,,,,,,,76,151681,19,Female,1,2024/02/22_12:29:19,YZ,None,
,,,,,,calibration,0,30,2,500,11,F,0,right,0.4371998170099687,1,0,,,,,,,,,,,,,,,,,,,,,1,,,,,,,,,,,,,,,,,,,,,,,,,,,,,,,,,,,,,,,,,,,,,,76,151681,19,Female,1,2024/02/22_12:29:19,YZ,None,
,,,,,,calibration,0,30,2,500,12,Q,0,right,0.4235779019945767,1,0,,,,,,,,,,,,,,,,,,,,,1,,,,,,,,,,,,,,,,,,,,,,,,,,,,,,,,,,,,,,,,,,,,,,76,151681,19,Female,1,2024/02/22_12:29:19,YZ,None,
,,,,,,calibration,0,30,2,500,13,F,1,left,0.5421043639944401,1,0,,,,,,,,,,,,,,,,,,,,,1,,,,,,,,,,,,,,,,,,,,,,,,,,,,,,,,,,,,,,,,,,,,,,76,151681,19,Female,1,2024/02/22_12:29:19,YZ,None,
,,,,,,calibration,0,30,2,500,14,Q,1,right,0.5565152199997101,0,0,,,,,,,,,,,,,,,,,,,,,1,,,,,,,,,,,,,,,,,,,,,,,,,,,,,,,,,,,,,,,,,,,,,,76,151681,19,Female,1,2024/02/22_12:29:19,YZ,None,
,,,,,,calibration,0,30,2,500,15,V,0,right,0.37501072499435395,1,0,,,,,,,,,,,,,,,,,,,,,1,,,,,,,,,,,,,,,,,,,,,,,,,,,,,,,,,,,,,,,,,,,,,,76,151681,19,Female,1,2024/02/22_12:29:19,YZ,None,
,,,,,,calibration,0,30,2,500,16,F,0,right,0.4287974080070853,1,0,,,,,,,,,,,,,,,,,,,,,1,,,,,,,,,,,,,,,,,,,,,,,,,,,,,,,,,,,,,,,,,,,,,,76,151681,19,Female,1,2024/02/22_12:29:19,YZ,None,
,,,,,,calibration,0,30,2,500,,,,,,,,0.8958333333333333,0.75,0.08333333333333333,0.9166666666666666,0.0,0.9166666666666666,0.4241673846863705,3,1,0,0,0,11,14,4,12,0,,,,1,,,,,,,,,,,,,,,,,,,,,,,,,,,,,,,,,,,,,,,,,,,,,,76,151681,19,Female,1,2024/02/22_12:29:19,YZ,None,
,,,,,,Calibration,0,,2,500,,,,,,,,,,,,,,,,,,,,,,,,,6,,,1,,,,,,,,,,,,,,,,,,,,,,,,,,,,,,,,,,,,,,,,,,,,,,76,151681,19,Female,1,2024/02/22_12:29:19,YZ,None,
,,,,,,calibration,0,4,2,426,1,N,0,right,0.3543270689842757,1,0,,,,,,,,,,,,,,,,,,,,,1,,,,,,,,,,,,,,,,,,,,,,,,,,,,,,,,,,,,,,,,,,,,,,76,151681,19,Female,1,2024/02/22_12:29:19,YZ,None,
,,,,,,calibration,0,4,2,426,2,C,0,right,0.2642676229879726,1,0,,,,,,,,,,,,,,,,,,,,,1,,,,,,,,,,,,,,,,,,,,,,,,,,,,,,,,,,,,,,,,,,,,,,76,151681,19,Female,1,2024/02/22_12:29:19,YZ,None,
,,,,,,calibration,0,4,2,426,3,X,0,right,0.47674467400065623,1,0,,,,,,,,,,,,,,,,,,,,,1,,,,,,,,,,,,,,,,,,,,,,,,,,,,,,,,,,,,,,,,,,,,,,76,151681,19,Female,1,2024/02/22_12:29:19,YZ,None,
,,,,,,calibration,0,4,2,426,4,Q,0,right,0.4496920940000564,1,0,,,,,,,,,,,,,,,,,,,,,1,,,,,,,,,,,,,,,,,,,,,,,,,,,,,,,,,,,,,,,,,,,,,,76,151681,19,Female,1,2024/02/22_12:29:19,YZ,None,
,,,,,,calibration,0,4,2,426,5,F,0,right,0.7145814019895624,1,0,,,,,,,,,,,,,,,,,,,,,1,,,,,,,,,,,,,,,,,,,,,,,,,,,,,,,,,,,,,,,,,,,,,,76,151681,19,Female,1,2024/02/22_12:29:19,YZ,None,
,,,,,,calibration,0,4,2,426,6,S,0,right,0.572380380006507,1,0,,,,,,,,,,,,,,,,,,,,,1,,,,,,,,,,,,,,,,,,,,,,,,,,,,,,,,,,,,,,,,,,,,,,76,151681,19,Female,1,2024/02/22_12:29:19,YZ,None,
,,,,,,calibration,0,4,2,426,7,F,1,right,0.5262321750051342,0,0,,,,,,,,,,,,,,,,,,,,,1,,,,,,,,,,,,,,,,,,,,,,,,,,,,,,,,,,,,,,,,,,,,,,76,151681,19,Female,1,2024/02/22_12:29:19,YZ,None,
,,,,,,calibration,0,4,2,426,8,S,1,left,0.5906292930012569,1,0,,,,,,,,,,,,,,,,,,,,,1,,,,,,,,,,,,,,,,,,,,,,,,,,,,,,,,,,,,,,,,,,,,,,76,151681,19,Female,1,2024/02/22_12:29:19,YZ,None,
,,,,,,calibration,0,4,2,426,9,Q,0,right,0.6085495179868303,1,0,,,,,,,,,,,,,,,,,,,,,1,,,,,,,,,,,,,,,,,,,,,,,,,,,,,,,,,,,,,,,,,,,,,,76,151681,19,Female,1,2024/02/22_12:29:19,YZ,None,
,,,,,,calibration,0,4,2,426,10,S,1,left,0.5628060930175707,1,0,,,,,,,,,,,,,,,,,,,,,1,,,,,,,,,,,,,,,,,,,,,,,,,,,,,,,,,,,,,,,,,,,,,,76,151681,19,Female,1,2024/02/22_12:29:19,YZ,None,
,,,,,,calibration,0,4,2,426,11,F,0,right,0.4150268110097386,1,0,,,,,,,,,,,,,,,,,,,,,1,,,,,,,,,,,,,,,,,,,,,,,,,,,,,,,,,,,,,,,,,,,,,,76,151681,19,Female,1,2024/02/22_12:29:19,YZ,None,
,,,,,,calibration,0,4,2,426,12,Q,0,right,0.5343161869968753,1,0,,,,,,,,,,,,,,,,,,,,,1,,,,,,,,,,,,,,,,,,,,,,,,,,,,,,,,,,,,,,,,,,,,,,76,151681,19,Female,1,2024/02/22_12:29:19,YZ,None,
,,,,,,calibration,0,4,2,426,13,F,1,left,0.42828923600609414,1,0,,,,,,,,,,,,,,,,,,,,,1,,,,,,,,,,,,,,,,,,,,,,,,,,,,,,,,,,,,,,,,,,,,,,76,151681,19,Female,1,2024/02/22_12:29:19,YZ,None,
,,,,,,calibration,0,4,2,426,14,C,0,right,0.3558563260012306,1,0,,,,,,,,,,,,,,,,,,,,,1,,,,,,,,,,,,,,,,,,,,,,,,,,,,,,,,,,,,,,,,,,,,,,76,151681,19,Female,1,2024/02/22_12:29:19,YZ,None,
,,,,,,calibration,0,4,2,426,15,Q,0,right,0.5917166160070337,1,0,,,,,,,,,,,,,,,,,,,,,1,,,,,,,,,,,,,,,,,,,,,,,,,,,,,,,,,,,,,,,,,,,,,,76,151681,19,Female,1,2024/02/22_12:29:19,YZ,None,
,,,,,,calibration,0,4,2,426,16,C,1,left,0.5518468040099833,1,0,,,,,,,,,,,,,,,,,,,,,1,,,,,,,,,,,,,,,,,,,,,,,,,,,,,,,,,,,,,,,,,,,,,,76,151681,19,Female,1,2024/02/22_12:29:19,YZ,None,
,,,,,,calibration,0,4,2,426,17,V,0,right,0.3679462269938085,1,0,,,,,,,,,,,,,,,,,,,,,1,,,,,,,,,,,,,,,,,,,,,,,,,,,,,,,,,,,,,,,,,,,,,,76,151681,19,Female,1,2024/02/22_12:29:19,YZ,None,
,,,,,,calibration,0,4,2,426,,,,,,,,0.95,0.8,0.0,1.0,0.0,1.0,0.49207108988262277,4,0,0,0,0,12,16,5,12,0,,,,1,,,,,,,,,,,,,,,,,,,,,,,,,,,,,,,,,,,,,,,,,,,,,,76,151681,19,Female,1,2024/02/22_12:29:19,YZ,None,
,,,,,,Calibration,0,,2,426,,,,,,,,,,,,,,,,,,,,,,,,,7,,,1,,,,,,,,,,,,,,,,,,,,,,,,,,,,,,,,,,,,,,,,,,,,,,76,151681,19,Female,1,2024/02/22_12:29:19,YZ,None,
,,,,,,calibration,0,26,2,361,1,Q,0,None,nan,0,1,,,,,,,,,,,,,,,,,,,,,1,,,,,,,,,,,,,,,,,,,,,,,,,,,,,,,,,,,,,,,,,,,,,,76,151681,19,Female,1,2024/02/22_12:29:19,YZ,None,
,,,,,,calibration,0,26,2,361,2,Q,0,right,0.5248707610007841,1,0,,,,,,,,,,,,,,,,,,,,,1,,,,,,,,,,,,,,,,,,,,,,,,,,,,,,,,,,,,,,,,,,,,,,76,151681,19,Female,1,2024/02/22_12:29:19,YZ,None,
,,,,,,calibration,0,26,2,361,3,Q,1,left,0.4046898289816454,1,0,,,,,,,,,,,,,,,,,,,,,1,,,,,,,,,,,,,,,,,,,,,,,,,,,,,,,,,,,,,,,,,,,,,,76,151681,19,Female,1,2024/02/22_12:29:19,YZ,None,
,,,,,,calibration,0,26,2,361,4,J,0,right,0.45651340699987486,1,0,,,,,,,,,,,,,,,,,,,,,1,,,,,,,,,,,,,,,,,,,,,,,,,,,,,,,,,,,,,,,,,,,,,,76,151681,19,Female,1,2024/02/22_12:29:19,YZ,None,
,,,,,,calibration,0,26,2,361,5,X,0,right,0.4568040670128539,1,0,,,,,,,,,,,,,,,,,,,,,1,,,,,,,,,,,,,,,,,,,,,,,,,,,,,,,,,,,,,,,,,,,,,,76,151681,19,Female,1,2024/02/22_12:29:19,YZ,None,
,,,,,,calibration,0,26,2,361,6,F,0,right,0.5819752080133185,1,0,,,,,,,,,,,,,,,,,,,,,1,,,,,,,,,,,,,,,,,,,,,,,,,,,,,,,,,,,,,,,,,,,,,,76,151681,19,Female,1,2024/02/22_12:29:19,YZ,None,
,,,,,,calibration,0,26,2,361,7,Q,0,left,0.5242805540037807,0,0,,,,,,,,,,,,,,,,,,,,,1,,,,,,,,,,,,,,,,,,,,,,,,,,,,,,,,,,,,,,,,,,,,,,76,151681,19,Female,1,2024/02/22_12:29:19,YZ,None,
,,,,,,calibration,0,26,2,361,8,J,0,right,0.22966337701654993,1,0,,,,,,,,,,,,,,,,,,,,,1,,,,,,,,,,,,,,,,,,,,,,,,,,,,,,,,,,,,,,,,,,,,,,76,151681,19,Female,1,2024/02/22_12:29:19,YZ,None,
,,,,,,calibration,0,26,2,361,9,C,0,right,0.4752278790110722,1,0,,,,,,,,,,,,,,,,,,,,,1,,,,,,,,,,,,,,,,,,,,,,,,,,,,,,,,,,,,,,,,,,,,,,76,151681,19,Female,1,2024/02/22_12:29:19,YZ,None,
,,,,,,calibration,0,26,2,361,10,F,0,right,0.42752801699680276,1,0,,,,,,,,,,,,,,,,,,,,,1,,,,,,,,,,,,,,,,,,,,,,,,,,,,,,,,,,,,,,,,,,,,,,76,151681,19,Female,1,2024/02/22_12:29:19,YZ,None,
,,,,,,calibration,0,26,2,361,11,J,0,right,0.6517430200183298,1,0,,,,,,,,,,,,,,,,,,,,,1,,,,,,,,,,,,,,,,,,,,,,,,,,,,,,,,,,,,,,,,,,,,,,76,151681,19,Female,1,2024/02/22_12:29:19,YZ,None,
,,,,,,calibration,0,26,2,361,12,V,0,right,0.5890081489924341,1,0,,,,,,,,,,,,,,,,,,,,,1,,,,,,,,,,,,,,,,,,,,,,,,,,,,,,,,,,,,,,,,,,,,,,76,151681,19,Female,1,2024/02/22_12:29:19,YZ,None,
,,,,,,calibration,0,26,2,361,13,J,1,left,0.7503641709918156,1,0,,,,,,,,,,,,,,,,,,,,,1,,,,,,,,,,,,,,,,,,,,,,,,,,,,,,,,,,,,,,,,,,,,,,76,151681,19,Female,1,2024/02/22_12:29:19,YZ,None,
,,,,,,calibration,0,26,2,361,14,X,0,right,0.24712455598637462,1,0,,,,,,,,,,,,,,,,,,,,,1,,,,,,,,,,,,,,,,,,,,,,,,,,,,,,,,,,,,,,,,,,,,,,76,151681,19,Female,1,2024/02/22_12:29:19,YZ,None,
,,,,,,calibration,0,26,2,361,15,J,1,right,0.37308490299619734,0,0,,,,,,,,,,,,,,,,,,,,,1,,,,,,,,,,,,,,,,,,,,,,,,,,,,,,,,,,,,,,,,,,,,,,76,151681,19,Female,1,2024/02/22_12:29:19,YZ,None,
,,,,,,calibration,0,26,2,361,16,V,0,left,0.6303404589998536,0,0,,,,,,,,,,,,,,,,,,,,,1,,,,,,,,,,,,,,,,,,,,,,,,,,,,,,,,,,,,,,,,,,,,,,76,151681,19,Female,1,2024/02/22_12:29:19,YZ,None,
,,,,,,calibration,0,26,2,361,17,J,1,right,0.251950931007741,0,0,,,,,,,,,,,,,,,,,,,,,1,,,,,,,,,,,,,,,,,,,,,,,,,,,,,,,,,,,,,,,,,,,,,,76,151681,19,Female,1,2024/02/22_12:29:19,YZ,None,
,,,,,,calibration,0,26,2,361,18,V,1,right,0.24816551699768752,0,0,,,,,,,,,,,,,,,,,,,,,1,,,,,,,,,,,,,,,,,,,,,,,,,,,,,,,,,,,,,,,,,,,,,,76,151681,19,Female,1,2024/02/22_12:29:19,YZ,None,
,,,,,,calibration,0,26,2,361,,,,,,,,0.7153846153846154,0.4,0.15384615384615385,0.8333333333333334,0.05555555555555555,0.7905982905982906,0.46019616500159505,2,2,0,1,1,10,12,5,13,0,,,,1,,,,,,,,,,,,,,,,,,,,,,,,,,,,,,,,,,,,,,,,,,,,,,76,151681,19,Female,1,2024/02/22_12:29:19,YZ,None,
,,,,,,Calibration,0,,2,361,,,,,,,,,,,,,,,,,,,,,,,,,8,,,1,,,,,,,,,,,,,,,,,,,,,,,,,,,,,,,,,,,,,,,,,,,,,,76,151681,19,Female,1,2024/02/22_12:29:19,YZ,None,
,,,,,,calibration,0,13,2,426,1,X,0,right,0.2643031289917417,1,0,,,,,,,,,,,,,,,,,,,,,1,,,,,,,,,,,,,,,,,,,,,,,,,,,,,,,,,,,,,,,,,,,,,,76,151681,19,Female,1,2024/02/22_12:29:19,YZ,None,
,,,,,,calibration,0,13,2,426,2,X,0,right,0.2288087040069513,1,0,,,,,,,,,,,,,,,,,,,,,1,,,,,,,,,,,,,,,,,,,,,,,,,,,,,,,,,,,,,,,,,,,,,,76,151681,19,Female,1,2024/02/22_12:29:19,YZ,None,
,,,,,,calibration,0,13,2,426,3,N,0,left,0.26887003300362267,0,0,,,,,,,,,,,,,,,,,,,,,1,,,,,,,,,,,,,,,,,,,,,,,,,,,,,,,,,,,,,,,,,,,,,,76,151681,19,Female,1,2024/02/22_12:29:19,YZ,None,
,,,,,,calibration,0,13,2,426,4,Q,0,right,0.5124158399994485,1,0,,,,,,,,,,,,,,,,,,,,,1,,,,,,,,,,,,,,,,,,,,,,,,,,,,,,,,,,,,,,,,,,,,,,76,151681,19,Female,1,2024/02/22_12:29:19,YZ,None,
,,,,,,calibration,0,13,2,426,5,N,1,right,0.933071531006135,0,0,,,,,,,,,,,,,,,,,,,,,1,,,,,,,,,,,,,,,,,,,,,,,,,,,,,,,,,,,,,,,,,,,,,,76,151681,19,Female,1,2024/02/22_12:29:19,YZ,None,
,,,,,,calibration,0,13,2,426,6,F,0,right,0.7243279880203772,1,0,,,,,,,,,,,,,,,,,,,,,1,,,,,,,,,,,,,,,,,,,,,,,,,,,,,,,,,,,,,,,,,,,,,,76,151681,19,Female,1,2024/02/22_12:29:19,YZ,None,
,,,,,,calibration,0,13,2,426,7,N,1,right,0.4037821370002348,0,0,,,,,,,,,,,,,,,,,,,,,1,,,,,,,,,,,,,,,,,,,,,,,,,,,,,,,,,,,,,,,,,,,,,,76,151681,19,Female,1,2024/02/22_12:29:19,YZ,None,
,,,,,,calibration,0,13,2,426,8,J,0,right,0.44870536198141053,1,0,,,,,,,,,,,,,,,,,,,,,1,,,,,,,,,,,,,,,,,,,,,,,,,,,,,,,,,,,,,,,,,,,,,,76,151681,19,Female,1,2024/02/22_12:29:19,YZ,None,
,,,,,,calibration,0,13,2,426,9,S,0,right,0.35756757599301636,1,0,,,,,,,,,,,,,,,,,,,,,1,,,,,,,,,,,,,,,,,,,,,,,,,,,,,,,,,,,,,,,,,,,,,,76,151681,19,Female,1,2024/02/22_12:29:19,YZ,None,
,,,,,,calibration,0,13,2,426,10,V,0,right,0.339029640017543,1,0,,,,,,,,,,,,,,,,,,,,,1,,,,,,,,,,,,,,,,,,,,,,,,,,,,,,,,,,,,,,,,,,,,,,76,151681,19,Female,1,2024/02/22_12:29:19,YZ,None,
,,,,,,calibration,0,13,2,426,11,J,0,right,0.4894826530071441,1,0,,,,,,,,,,,,,,,,,,,,,1,,,,,,,,,,,,,,,,,,,,,,,,,,,,,,,,,,,,,,,,,,,,,,76,151681,19,Female,1,2024/02/22_12:29:19,YZ,None,
,,,,,,calibration,0,13,2,426,12,V,1,right,0.3993859220063314,0,0,,,,,,,,,,,,,,,,,,,,,1,,,,,,,,,,,,,,,,,,,,,,,,,,,,,,,,,,,,,,,,,,,,,,76,151681,19,Female,1,2024/02/22_12:29:19,YZ,None,
,,,,,,calibration,0,13,2,426,13,J,1,right,0.8509436300082598,0,0,,,,,,,,,,,,,,,,,,,,,1,,,,,,,,,,,,,,,,,,,,,,,,,,,,,,,,,,,,,,,,,,,,,,76,151681,19,Female,1,2024/02/22_12:29:19,YZ,None,
,,,,,,calibration,0,13,2,426,14,Q,0,right,nan,0,1,,,,,,,,,,,,,,,,,,,,,1,,,,,,,,,,,,,,,,,,,,,,,,,,,,,,,,,,,,,,,,,,,,,,76,151681,19,Female,1,2024/02/22_12:29:19,YZ,None,
,,,,,,calibration,0,13,2,426,15,V,0,right,0.0026958500093314797,1,0,,,,,,,,,,,,,,,,,,,,,1,,,,,,,,,,,,,,,,,,,,,,,,,,,,,,,,,,,,,,,,,,,,,,76,151681,19,Female,1,2024/02/22_12:29:19,YZ,None,
,,,,,,calibration,0,13,2,426,16,Q,1,right,nan,0,1,,,,,,,,,,,,,,,,,,,,,1,,,,,,,,,,,,,,,,,,,,,,,,,,,,,,,,,,,,,,,,,,,,,,76,151681,19,Female,1,2024/02/22_12:29:19,YZ,None,
,,,,,,calibration,0,13,2,426,17,S,0,right,0.8305756179906894,1,0,,,,,,,,,,,,,,,,,,,,,1,,,,,,,,,,,,,,,,,,,,,,,,,,,,,,,,,,,,,,,,,,,,,,76,151681,19,Female,1,2024/02/22_12:29:19,YZ,None,
,,,,,,calibration,0,13,2,426,,,,,,,,0.22916666666666666,0.0,0.08333333333333333,0.9090909090909091,0.11764705882352941,0.7990196078431372,0.4702643742028158,0,1,1,1,2,10,10,5,12,0,,,,1,,,,,,,,,,,,,,,,,,,,,,,,,,,,,,,,,,,,,,,,,,,,,,76,151681,19,Female,1,2024/02/22_12:29:19,YZ,None,
,,,,,,Calibration,0,,2,426,,,,,,,,,,,,,,,,,,,,,,,,,9,,,1,,,,,,,,,,,,,,,,,,,,,,,,,,,,,,,,,,,,,,,,,,,,,,76,151681,19,Female,1,2024/02/22_12:29:19,YZ,None,
,,,,,,calibration,0,36,2,500,1,N,0,right,0.36601192300440744,1,0,,,,,,,,,,,,,,,,,,,,,1,,,,,,,,,,,,,,,,,,,,,,,,,,,,,,,,,,,,,,,,,,,,,,76,151681,19,Female,1,2024/02/22_12:29:19,YZ,None,
,,,,,,calibration,0,36,2,500,2,V,0,right,0.35649313501198776,1,0,,,,,,,,,,,,,,,,,,,,,1,,,,,,,,,,,,,,,,,,,,,,,,,,,,,,,,,,,,,,,,,,,,,,76,151681,19,Female,1,2024/02/22_12:29:19,YZ,None,
,,,,,,calibration,0,36,2,500,3,N,1,left,0.3444899010064546,1,0,,,,,,,,,,,,,,,,,,,,,1,,,,,,,,,,,,,,,,,,,,,,,,,,,,,,,,,,,,,,,,,,,,,,76,151681,19,Female,1,2024/02/22_12:29:19,YZ,None,
,,,,,,calibration,0,36,2,500,4,F,0,right,0.31608091000816785,1,0,,,,,,,,,,,,,,,,,,,,,1,,,,,,,,,,,,,,,,,,,,,,,,,,,,,,,,,,,,,,,,,,,,,,76,151681,19,Female,1,2024/02/22_12:29:19,YZ,None,
,,,,,,calibration,0,36,2,500,5,J,0,right,0.3772041509801056,1,0,,,,,,,,,,,,,,,,,,,,,1,,,,,,,,,,,,,,,,,,,,,,,,,,,,,,,,,,,,,,,,,,,,,,76,151681,19,Female,1,2024/02/22_12:29:19,YZ,None,
,,,,,,calibration,0,36,2,500,6,F,1,left,0.41591882999637164,1,0,,,,,,,,,,,,,,,,,,,,,1,,,,,,,,,,,,,,,,,,,,,,,,,,,,,,,,,,,,,,,,,,,,,,76,151681,19,Female,1,2024/02/22_12:29:19,YZ,None,
,,,,,,calibration,0,36,2,500,7,J,1,right,0.2209921320027206,0,0,,,,,,,,,,,,,,,,,,,,,1,,,,,,,,,,,,,,,,,,,,,,,,,,,,,,,,,,,,,,,,,,,,,,76,151681,19,Female,1,2024/02/22_12:29:19,YZ,None,
,,,,,,calibration,0,36,2,500,8,N,0,right,0.8822798169858288,1,0,,,,,,,,,,,,,,,,,,,,,1,,,,,,,,,,,,,,,,,,,,,,,,,,,,,,,,,,,,,,,,,,,,,,76,151681,19,Female,1,2024/02/22_12:29:19,YZ,None,
,,,,,,calibration,0,36,2,500,9,J,1,right,0.43939658399904147,0,0,,,,,,,,,,,,,,,,,,,,,1,,,,,,,,,,,,,,,,,,,,,,,,,,,,,,,,,,,,,,,,,,,,,,76,151681,19,Female,1,2024/02/22_12:29:19,YZ,None,
,,,,,,calibration,0,36,2,500,10,F,0,left,0.37688478000927716,0,0,,,,,,,,,,,,,,,,,,,,,1,,,,,,,,,,,,,,,,,,,,,,,,,,,,,,,,,,,,,,,,,,,,,,76,151681,19,Female,1,2024/02/22_12:29:19,YZ,None,
,,,,,,calibration,0,36,2,500,11,Q,0,right,0.4285209999943618,1,0,,,,,,,,,,,,,,,,,,,,,1,,,,,,,,,,,,,,,,,,,,,,,,,,,,,,,,,,,,,,,,,,,,,,76,151681,19,Female,1,2024/02/22_12:29:19,YZ,None,
,,,,,,calibration,0,36,2,500,12,X,0,right,0.32478945099865086,1,0,,,,,,,,,,,,,,,,,,,,,1,,,,,,,,,,,,,,,,,,,,,,,,,,,,,,,,,,,,,,,,,,,,,,76,151681,19,Female,1,2024/02/22_12:29:19,YZ,None,
,,,,,,calibration,0,36,2,500,13,J,0,right,0.44174111098982394,1,0,,,,,,,,,,,,,,,,,,,,,1,,,,,,,,,,,,,,,,,,,,,,,,,,,,,,,,,,,,,,,,,,,,,,76,151681,19,Female,1,2024/02/22_12:29:19,YZ,None,
,,,,,,calibration,0,36,2,500,14,F,0,left,0.4454052369983401,0,0,,,,,,,,,,,,,,,,,,,,,1,,,,,,,,,,,,,,,,,,,,,,,,,,,,,,,,,,,,,,,,,,,,,,76,151681,19,Female,1,2024/02/22_12:29:19,YZ,None,
,,,,,,calibration,0,36,2,500,15,S,0,right,0.28281151899136603,1,0,,,,,,,,,,,,,,,,,,,,,1,,,,,,,,,,,,,,,,,,,,,,,,,,,,,,,,,,,,,,,,,,,,,,76,151681,19,Female,1,2024/02/22_12:29:19,YZ,None,
,,,,,,calibration,0,36,2,500,16,X,0,right,0.4898089340131264,1,0,,,,,,,,,,,,,,,,,,,,,1,,,,,,,,,,,,,,,,,,,,,,,,,,,,,,,,,,,,,,,,,,,,,,76,151681,19,Female,1,2024/02/22_12:29:19,YZ,None,
,,,,,,calibration,0,36,2,500,,,,,,,,0.75,0.5,0.16666666666666666,0.8333333333333334,0.0,0.8333333333333334,0.406801838436877,2,2,0,0,0,10,12,4,12,0,,,,1,,,,,,,,,,,,,,,,,,,,,,,,,,,,,,,,,,,,,,,,,,,,,,76,151681,19,Female,1,2024/02/22_12:29:19,YZ,None,
,,,,,,Calibration,0,,2,500,,,,,,,,,,,,,,,,,,,,,,,,,10,,,1,,,,,,,,,,,,,,,,,,,,,,,,,,,,,,,,,,,,,,,,,,,,,,76,151681,19,Female,1,2024/02/22_12:29:19,YZ,None,
,,,,,,calibration,0,33,2,500,1,X,0,right,0.3108919420046732,1,0,,,,,,,,,,,,,,,,,,,,,1,,,,,,,,,,,,,,,,,,,,,,,,,,,,,,,,,,,,,,,,,,,,,,76,151681,19,Female,1,2024/02/22_12:29:19,YZ,None,
,,,,,,calibration,0,33,2,500,2,F,0,right,0.29797155602136627,1,0,,,,,,,,,,,,,,,,,,,,,1,,,,,,,,,,,,,,,,,,,,,,,,,,,,,,,,,,,,,,,,,,,,,,76,151681,19,Female,1,2024/02/22_12:29:19,YZ,None,
,,,,,,calibration,0,33,2,500,3,X,1,left,0.44445225299568847,1,0,,,,,,,,,,,,,,,,,,,,,1,,,,,,,,,,,,,,,,,,,,,,,,,,,,,,,,,,,,,,,,,,,,,,76,151681,19,Female,1,2024/02/22_12:29:19,YZ,None,
,,,,,,calibration,0,33,2,500,4,F,1,right,0.3541679390182253,0,0,,,,,,,,,,,,,,,,,,,,,1,,,,,,,,,,,,,,,,,,,,,,,,,,,,,,,,,,,,,,,,,,,,,,76,151681,19,Female,1,2024/02/22_12:29:19,YZ,None,
,,,,,,calibration,0,33,2,500,5,N,0,right,0.37266750499838963,1,0,,,,,,,,,,,,,,,,,,,,,1,,,,,,,,,,,,,,,,,,,,,,,,,,,,,,,,,,,,,,,,,,,,,,76,151681,19,Female,1,2024/02/22_12:29:19,YZ,None,
,,,,,,calibration,0,33,2,500,6,Q,0,right,0.41666492601507343,1,0,,,,,,,,,,,,,,,,,,,,,1,,,,,,,,,,,,,,,,,,,,,,,,,,,,,,,,,,,,,,,,,,,,,,76,151681,19,Female,1,2024/02/22_12:29:19,YZ,None,
,,,,,,calibration,0,33,2,500,7,S,0,right,0.4092962660070043,1,0,,,,,,,,,,,,,,,,,,,,,1,,,,,,,,,,,,,,,,,,,,,,,,,,,,,,,,,,,,,,,,,,,,,,76,151681,19,Female,1,2024/02/22_12:29:19,YZ,None,
,,,,,,calibration,0,33,2,500,8,Q,1,right,0.2895228959969245,0,0,,,,,,,,,,,,,,,,,,,,,1,,,,,,,,,,,,,,,,,,,,,,,,,,,,,,,,,,,,,,,,,,,,,,76,151681,19,Female,1,2024/02/22_12:29:19,YZ,None,
,,,,,,calibration,0,33,2,500,9,N,0,right,0.5190441489976365,1,0,,,,,,,,,,,,,,,,,,,,,1,,,,,,,,,,,,,,,,,,,,,,,,,,,,,,,,,,,,,,,,,,,,,,76,151681,19,Female,1,2024/02/22_12:29:19,YZ,None,
,,,,,,calibration,0,33,2,500,10,V,0,right,0.9761044550104998,1,0,,,,,,,,,,,,,,,,,,,,,1,,,,,,,,,,,,,,,,,,,,,,,,,,,,,,,,,,,,,,,,,,,,,,76,151681,19,Female,1,2024/02/22_12:29:19,YZ,None,
,,,,,,calibration,0,33,2,500,11,F,0,right,0.5123090320266783,1,0,,,,,,,,,,,,,,,,,,,,,1,,,,,,,,,,,,,,,,,,,,,,,,,,,,,,,,,,,,,,,,,,,,,,76,151681,19,Female,1,2024/02/22_12:29:19,YZ,None,
,,,,,,calibration,0,33,2,500,12,N,0,right,0.6648976949800272,1,0,,,,,,,,,,,,,,,,,,,,,1,,,,,,,,,,,,,,,,,,,,,,,,,,,,,,,,,,,,,,,,,,,,,,76,151681,19,Female,1,2024/02/22_12:29:19,YZ,None,
,,,,,,calibration,0,33,2,500,13,S,0,right,0.4308758880069945,1,0,,,,,,,,,,,,,,,,,,,,,1,,,,,,,,,,,,,,,,,,,,,,,,,,,,,,,,,,,,,,,,,,,,,,76,151681,19,Female,1,2024/02/22_12:29:19,YZ,None,
,,,,,,calibration,0,33,2,500,14,J,0,right,0.7281961760018021,1,0,,,,,,,,,,,,,,,,,,,,,1,,,,,,,,,,,,,,,,,,,,,,,,,,,,,,,,,,,,,,,,,,,,,,76,151681,19,Female,1,2024/02/22_12:29:19,YZ,None,
,,,,,,calibration,0,33,2,500,15,S,1,left,0.6424540609878022,1,0,,,,,,,,,,,,,,,,,,,,,1,,,,,,,,,,,,,,,,,,,,,,,,,,,,,,,,,,,,,,,,,,,,,,76,151681,19,Female,1,2024/02/22_12:29:19,YZ,None,
,,,,,,calibration,0,33,2,500,16,J,1,right,0.2665558079897892,0,0,,,,,,,,,,,,,,,,,,,,,1,,,,,,,,,,,,,,,,,,,,,,,,,,,,,,,,,,,,,,,,,,,,,,76,151681,19,Female,1,2024/02/22_12:29:19,YZ,None,
,,,,,,calibration,0,33,2,500,,,,,,,,0.85,0.4,0.0,1.0,0.0,1.0,0.47725453419116093,2,0,0,0,0,11,13,5,11,0,,,,1,,,,,,,,,,,,,,,,,,,,,,,,,,,,,,,,,,,,,,,,,,,,,,76,151681,19,Female,1,2024/02/22_12:29:19,YZ,None,
,,,,,,Calibration,0,,2,500,,,,,,,,,,,,,,,,,,,,,,,,,11,,,1,,,,,,,,,,,,,,,,,,,,,,,,,,,,,,,,,,,,,,,,,,,,,,76,151681,19,Female,1,2024/02/22_12:29:19,YZ,None,
,,,,,,calibration,0,26,2,500,1,Q,0,right,0.41876036301255226,1,0,,,,,,,,,,,,,,,,,,,,,1,,,,,,,,,,,,,,,,,,,,,,,,,,,,,,,,,,,,,,,,,,,,,,76,151681,19,Female,1,2024/02/22_12:29:19,YZ,None,
,,,,,,calibration,0,26,2,500,2,S,0,right,0.3116251469764393,1,0,,,,,,,,,,,,,,,,,,,,,1,,,,,,,,,,,,,,,,,,,,,,,,,,,,,,,,,,,,,,,,,,,,,,76,151681,19,Female,1,2024/02/22_12:29:19,YZ,None,
,,,,,,calibration,0,26,2,500,3,N,0,right,0.512194233975606,1,0,,,,,,,,,,,,,,,,,,,,,1,,,,,,,,,,,,,,,,,,,,,,,,,,,,,,,,,,,,,,,,,,,,,,76,151681,19,Female,1,2024/02/22_12:29:19,YZ,None,
,,,,,,calibration,0,26,2,500,4,S,1,right,0.7742820089915767,0,0,,,,,,,,,,,,,,,,,,,,,1,,,,,,,,,,,,,,,,,,,,,,,,,,,,,,,,,,,,,,,,,,,,,,76,151681,19,Female,1,2024/02/22_12:29:19,YZ,None,
,,,,,,calibration,0,26,2,500,5,C,0,right,0.44345019399770536,1,0,,,,,,,,,,,,,,,,,,,,,1,,,,,,,,,,,,,,,,,,,,,,,,,,,,,,,,,,,,,,,,,,,,,,76,151681,19,Female,1,2024/02/22_12:29:19,YZ,None,
,,,,,,calibration,0,26,2,500,6,S,1,right,0.7592938790039625,0,0,,,,,,,,,,,,,,,,,,,,,1,,,,,,,,,,,,,,,,,,,,,,,,,,,,,,,,,,,,,,,,,,,,,,76,151681,19,Female,1,2024/02/22_12:29:19,YZ,None,
,,,,,,calibration,0,26,2,500,7,N,0,right,0.6222043260058854,1,0,,,,,,,,,,,,,,,,,,,,,1,,,,,,,,,,,,,,,,,,,,,,,,,,,,,,,,,,,,,,,,,,,,,,76,151681,19,Female,1,2024/02/22_12:29:19,YZ,None,
,,,,,,calibration,0,26,2,500,8,C,0,right,0.4721636070171371,1,0,,,,,,,,,,,,,,,,,,,,,1,,,,,,,,,,,,,,,,,,,,,,,,,,,,,,,,,,,,,,,,,,,,,,76,151681,19,Female,1,2024/02/22_12:29:19,YZ,None,
,,,,,,calibration,0,26,2,500,9,V,0,right,0.5740431110025384,1,0,,,,,,,,,,,,,,,,,,,,,1,,,,,,,,,,,,,,,,,,,,,,,,,,,,,,,,,,,,,,,,,,,,,,76,151681,19,Female,1,2024/02/22_12:29:19,YZ,None,
,,,,,,calibration,0,26,2,500,10,C,1,right,0.41218429899890907,0,0,,,,,,,,,,,,,,,,,,,,,1,,,,,,,,,,,,,,,,,,,,,,,,,,,,,,,,,,,,,,,,,,,,,,76,151681,19,Female,1,2024/02/22_12:29:19,YZ,None,
,,,,,,calibration,0,26,2,500,11,S,0,right,0.45235897999373265,1,0,,,,,,,,,,,,,,,,,,,,,1,,,,,,,,,,,,,,,,,,,,,,,,,,,,,,,,,,,,,,,,,,,,,,76,151681,19,Female,1,2024/02/22_12:29:19,YZ,None,
,,,,,,calibration,0,26,2,500,12,C,1,right,0.4639038289897144,0,0,,,,,,,,,,,,,,,,,,,,,1,,,,,,,,,,,,,,,,,,,,,,,,,,,,,,,,,,,,,,,,,,,,,,76,151681,19,Female,1,2024/02/22_12:29:19,YZ,None,
,,,,,,calibration,0,26,2,500,13,F,0,right,0.7900060600077268,1,0,,,,,,,,,,,,,,,,,,,,,1,,,,,,,,,,,,,,,,,,,,,,,,,,,,,,,,,,,,,,,,,,,,,,76,151681,19,Female,1,2024/02/22_12:29:19,YZ,None,
,,,,,,calibration,0,26,2,500,14,N,0,right,0.6788883430126589,1,0,,,,,,,,,,,,,,,,,,,,,1,,,,,,,,,,,,,,,,,,,,,,,,,,,,,,,,,,,,,,,,,,,,,,76,151681,19,Female,1,2024/02/22_12:29:19,YZ,None,
,,,,,,calibration,0,26,2,500,15,J,0,right,0.8815374409896322,1,0,,,,,,,,,,,,,,,,,,,,,1,,,,,,,,,,,,,,,,,,,,,,,,,,,,,,,,,,,,,,,,,,,,,,76,151681,19,Female,1,2024/02/22_12:29:19,YZ,None,
,,,,,,calibration,0,26,2,500,16,Q,0,right,0.524148527008947,1,0,,,,,,,,,,,,,,,,,,,,,1,,,,,,,,,,,,,,,,,,,,,,,,,,,,,,,,,,,,,,,,,,,,,,76,151681,19,Female,1,2024/02/22_12:29:19,YZ,None,
,,,,,,calibration,0,26,2,500,,,,,,,,0.5,0.0,0.0,1.0,0.0,1.0,0.5681902718115452,0,0,0,0,0,12,12,4,12,0,,,,1,,,,,,,,,,,,,,,,,,,,,,,,,,,,,,,,,,,,,,,,,,,,,,76,151681,19,Female,1,2024/02/22_12:29:19,YZ,None,
,,,,,,Calibration,0,,2,500,,,,,,,,,,,,,,,,,,,,,,,,,12,,,1,,,,,,,,,,,,,,,,,,,,,,,,,,,,,,,,,,,,,,,,,,,,,,76,151681,19,Female,1,2024/02/22_12:29:19,YZ,None,
,,,,,,calibration,0,11,2,583,1,S,0,right,0.33518728901981376,1,0,,,,,,,,,,,,,,,,,,,,,1,,,,,,,,,,,,,,,,,,,,,,,,,,,,,,,,,,,,,,,,,,,,,,76,151681,19,Female,1,2024/02/22_12:29:19,YZ,None,
,,,,,,calibration,0,11,2,583,2,C,0,right,0.22609628801001236,1,0,,,,,,,,,,,,,,,,,,,,,1,,,,,,,,,,,,,,,,,,,,,,,,,,,,,,,,,,,,,,,,,,,,,,76,151681,19,Female,1,2024/02/22_12:29:19,YZ,None,
,,,,,,calibration,0,11,2,583,3,N,0,right,0.32229093299247324,1,0,,,,,,,,,,,,,,,,,,,,,1,,,,,,,,,,,,,,,,,,,,,,,,,,,,,,,,,,,,,,,,,,,,,,76,151681,19,Female,1,2024/02/22_12:29:19,YZ,None,
,,,,,,calibration,0,11,2,583,4,S,0,left,0.45999908598605543,0,0,,,,,,,,,,,,,,,,,,,,,1,,,,,,,,,,,,,,,,,,,,,,,,,,,,,,,,,,,,,,,,,,,,,,76,151681,19,Female,1,2024/02/22_12:29:19,YZ,None,
,,,,,,calibration,0,11,2,583,5,N,1,right,0.3159773369843606,0,0,,,,,,,,,,,,,,,,,,,,,1,,,,,,,,,,,,,,,,,,,,,,,,,,,,,,,,,,,,,,,,,,,,,,76,151681,19,Female,1,2024/02/22_12:29:19,YZ,None,
,,,,,,calibration,0,11,2,583,6,C,0,left,0.8668617160001304,0,0,,,,,,,,,,,,,,,,,,,,,1,,,,,,,,,,,,,,,,,,,,,,,,,,,,,,,,,,,,,,,,,,,,,,76,151681,19,Female,1,2024/02/22_12:29:19,YZ,None,
,,,,,,calibration,0,11,2,583,7,S,0,right,1.0163964859966654,1,0,,,,,,,,,,,,,,,,,,,,,1,,,,,,,,,,,,,,,,,,,,,,,,,,,,,,,,,,,,,,,,,,,,,,76,151681,19,Female,1,2024/02/22_12:29:19,YZ,None,
,,,,,,calibration,0,11,2,583,8,Q,0,right,0.4532166479912121,1,0,,,,,,,,,,,,,,,,,,,,,1,,,,,,,,,,,,,,,,,,,,,,,,,,,,,,,,,,,,,,,,,,,,,,76,151681,19,Female,1,2024/02/22_12:29:19,YZ,None,
,,,,,,calibration,0,11,2,583,9,X,0,right,0.43238493098760955,1,0,,,,,,,,,,,,,,,,,,,,,1,,,,,,,,,,,,,,,,,,,,,,,,,,,,,,,,,,,,,,,,,,,,,,76,151681,19,Female,1,2024/02/22_12:29:19,YZ,None,
,,,,,,calibration,0,11,2,583,10,J,0,right,0.5886618010117672,1,0,,,,,,,,,,,,,,,,,,,,,1,,,,,,,,,,,,,,,,,,,,,,,,,,,,,,,,,,,,,,,,,,,,,,76,151681,19,Female,1,2024/02/22_12:29:19,YZ,None,
,,,,,,calibration,0,11,2,583,11,X,1,right,0.48123267901246436,0,0,,,,,,,,,,,,,,,,,,,,,1,,,,,,,,,,,,,,,,,,,,,,,,,,,,,,,,,,,,,,,,,,,,,,76,151681,19,Female,1,2024/02/22_12:29:19,YZ,None,
,,,,,,calibration,0,11,2,583,12,Q,0,right,0.4108526579802856,1,0,,,,,,,,,,,,,,,,,,,,,1,,,,,,,,,,,,,,,,,,,,,,,,,,,,,,,,,,,,,,,,,,,,,,76,151681,19,Female,1,2024/02/22_12:29:19,YZ,None,
,,,,,,calibration,0,11,2,583,13,X,1,left,0.6341845220013056,1,0,,,,,,,,,,,,,,,,,,,,,1,,,,,,,,,,,,,,,,,,,,,,,,,,,,,,,,,,,,,,,,,,,,,,76,151681,19,Female,1,2024/02/22_12:29:19,YZ,None,
,,,,,,calibration,0,11,2,583,14,Q,1,right,0.47039565799059346,0,0,,,,,,,,,,,,,,,,,,,,,1,,,,,,,,,,,,,,,,,,,,,,,,,,,,,,,,,,,,,,,,,,,,,,76,151681,19,Female,1,2024/02/22_12:29:19,YZ,None,
,,,,,,calibration,0,11,2,583,15,F,0,right,0.8571184310130775,1,0,,,,,,,,,,,,,,,,,,,,,1,,,,,,,,,,,,,,,,,,,,,,,,,,,,,,,,,,,,,,,,,,,,,,76,151681,19,Female,1,2024/02/22_12:29:19,YZ,None,
,,,,,,calibration,0,11,2,583,,,,,,,,0.5852272727272727,0.25,0.18181818181818182,0.8181818181818182,0.0,0.8181818181818181,0.5247237641985217,1,2,0,0,0,9,10,4,11,0,,,,1,,,,,,,,,,,,,,,,,,,,,,,,,,,,,,,,,,,,,,,,,,,,,,76,151681,19,Female,1,2024/02/22_12:29:19,YZ,None,
,,,,,,Calibration,0,,2,583,,,,,,,,,,,,,,,,,,,,,,,,,13,,,1,,,,,,,,,,,,,,,,,,,,,,,,,,,,,,,,,,,,,,,,,,,,,,76,151681,19,Female,1,2024/02/22_12:29:19,YZ,None,
,,,,,,calibration,0,19,2,679,1,V,0,right,0.2920369880157523,1,0,,,,,,,,,,,,,,,,,,,,,1,,,,,,,,,,,,,,,,,,,,,,,,,,,,,,,,,,,,,,,,,,,,,,76,151681,19,Female,1,2024/02/22_12:29:19,YZ,None,
,,,,,,calibration,0,19,2,679,2,C,0,right,0.3936676479934249,1,0,,,,,,,,,,,,,,,,,,,,,1,,,,,,,,,,,,,,,,,,,,,,,,,,,,,,,,,,,,,,,,,,,,,,76,151681,19,Female,1,2024/02/22_12:29:19,YZ,None,
,,,,,,calibration,0,19,2,679,3,V,1,left,0.42091687498032115,1,0,,,,,,,,,,,,,,,,,,,,,1,,,,,,,,,,,,,,,,,,,,,,,,,,,,,,,,,,,,,,,,,,,,,,76,151681,19,Female,1,2024/02/22_12:29:19,YZ,None,
,,,,,,calibration,0,19,2,679,4,N,0,right,0.24857451397110708,1,0,,,,,,,,,,,,,,,,,,,,,1,,,,,,,,,,,,,,,,,,,,,,,,,,,,,,,,,,,,,,,,,,,,,,76,151681,19,Female,1,2024/02/22_12:29:19,YZ,None,
,,,,,,calibration,0,19,2,679,5,V,1,left,0.6134452649857849,1,0,,,,,,,,,,,,,,,,,,,,,1,,,,,,,,,,,,,,,,,,,,,,,,,,,,,,,,,,,,,,,,,,,,,,76,151681,19,Female,1,2024/02/22_12:29:19,YZ,None,
,,,,,,calibration,0,19,2,679,6,Q,0,right,0.2317604930140078,1,0,,,,,,,,,,,,,,,,,,,,,1,,,,,,,,,,,,,,,,,,,,,,,,,,,,,,,,,,,,,,,,,,,,,,76,151681,19,Female,1,2024/02/22_12:29:19,YZ,None,
,,,,,,calibration,0,19,2,679,7,N,0,right,0.6184196099929977,1,0,,,,,,,,,,,,,,,,,,,,,1,,,,,,,,,,,,,,,,,,,,,,,,,,,,,,,,,,,,,,,,,,,,,,76,151681,19,Female,1,2024/02/22_12:29:19,YZ,None,
,,,,,,calibration,0,19,2,679,8,F,0,right,0.5635647930030245,1,0,,,,,,,,,,,,,,,,,,,,,1,,,,,,,,,,,,,,,,,,,,,,,,,,,,,,,,,,,,,,,,,,,,,,76,151681,19,Female,1,2024/02/22_12:29:19,YZ,None,
,,,,,,calibration,0,19,2,679,9,Q,0,left,0.5649600650067441,0,0,,,,,,,,,,,,,,,,,,,,,1,,,,,,,,,,,,,,,,,,,,,,,,,,,,,,,,,,,,,,,,,,,,,,76,151681,19,Female,1,2024/02/22_12:29:19,YZ,None,
,,,,,,calibration,0,19,2,679,10,X,0,right,0.27229428800637834,1,0,,,,,,,,,,,,,,,,,,,,,1,,,,,,,,,,,,,,,,,,,,,,,,,,,,,,,,,,,,,,,,,,,,,,76,151681,19,Female,1,2024/02/22_12:29:19,YZ,None,
,,,,,,calibration,0,19,2,679,11,J,0,right,0.4964196069922764,1,0,,,,,,,,,,,,,,,,,,,,,1,,,,,,,,,,,,,,,,,,,,,,,,,,,,,,,,,,,,,,,,,,,,,,76,151681,19,Female,1,2024/02/22_12:29:19,YZ,None,
,,,,,,calibration,0,19,2,679,12,X,1,left,0.37961338699096814,1,0,,,,,,,,,,,,,,,,,,,,,1,,,,,,,,,,,,,,,,,,,,,,,,,,,,,,,,,,,,,,,,,,,,,,76,151681,19,Female,1,2024/02/22_12:29:19,YZ,None,
,,,,,,calibration,0,19,2,679,13,S,0,right,0.3541164440102875,1,0,,,,,,,,,,,,,,,,,,,,,1,,,,,,,,,,,,,,,,,,,,,,,,,,,,,,,,,,,,,,,,,,,,,,76,151681,19,Female,1,2024/02/22_12:29:19,YZ,None,
,,,,,,calibration,0,19,2,679,14,X,1,right,0.4773369370086584,0,0,,,,,,,,,,,,,,,,,,,,,1,,,,,,,,,,,,,,,,,,,,,,,,,,,,,,,,,,,,,,,,,,,,,,76,151681,19,Female,1,2024/02/22_12:29:19,YZ,None,
,,,,,,calibration,0,19,2,679,,,,,,,,0.8875,0.75,0.1,0.9,0.0,0.9,0.4233662081408381,3,1,0,0,0,9,12,4,10,0,,,,1,,,,,,,,,,,,,,,,,,,,,,,,,,,,,,,,,,,,,,,,,,,,,,76,151681,19,Female,1,2024/02/22_12:29:19,YZ,None,
,,,,,,Calibration,0,,2,679,,,,,,,,,,,,,,,,,,,,,,,,,14,,,1,,,,,,,,,,,,,,,,,,,,,,,,,,,,,,,,,,,,,,,,,,,,,,76,151681,19,Female,1,2024/02/22_12:29:19,YZ,None,
,,,,,,calibration,0,9,2,583,1,S,0,right,0.29748215500148945,1,0,,,,,,,,,,,,,,,,,,,,,1,,,,,,,,,,,,,,,,,,,,,,,,,,,,,,,,,,,,,,,,,,,,,,76,151681,19,Female,1,2024/02/22_12:29:19,YZ,None,
,,,,,,calibration,0,9,2,583,2,F,0,right,0.3161062930012122,1,0,,,,,,,,,,,,,,,,,,,,,1,,,,,,,,,,,,,,,,,,,,,,,,,,,,,,,,,,,,,,,,,,,,,,76,151681,19,Female,1,2024/02/22_12:29:19,YZ,None,
,,,,,,calibration,0,9,2,583,3,V,0,right,0.575463536020834,1,0,,,,,,,,,,,,,,,,,,,,,1,,,,,,,,,,,,,,,,,,,,,,,,,,,,,,,,,,,,,,,,,,,,,,76,151681,19,Female,1,2024/02/22_12:29:19,YZ,None,
,,,,,,calibration,0,9,2,583,4,X,0,right,0.46046667601331137,1,0,,,,,,,,,,,,,,,,,,,,,1,,,,,,,,,,,,,,,,,,,,,,,,,,,,,,,,,,,,,,,,,,,,,,76,151681,19,Female,1,2024/02/22_12:29:19,YZ,None,
,,,,,,calibration,0,9,2,583,5,N,0,right,0.5985045170236845,1,0,,,,,,,,,,,,,,,,,,,,,1,,,,,,,,,,,,,,,,,,,,,,,,,,,,,,,,,,,,,,,,,,,,,,76,151681,19,Female,1,2024/02/22_12:29:19,YZ,None,
,,,,,,calibration,0,9,2,583,6,J,0,left,0.7912321729818359,0,0,,,,,,,,,,,,,,,,,,,,,1,,,,,,,,,,,,,,,,,,,,,,,,,,,,,,,,,,,,,,,,,,,,,,76,151681,19,Female,1,2024/02/22_12:29:19,YZ,None,
,,,,,,calibration,0,9,2,583,7,F,0,right,0.6922288770147134,1,0,,,,,,,,,,,,,,,,,,,,,1,,,,,,,,,,,,,,,,,,,,,,,,,,,,,,,,,,,,,,,,,,,,,,76,151681,19,Female,1,2024/02/22_12:29:19,YZ,None,
,,,,,,calibration,0,9,2,583,8,N,0,right,0.48874255499686114,1,0,,,,,,,,,,,,,,,,,,,,,1,,,,,,,,,,,,,,,,,,,,,,,,,,,,,,,,,,,,,,,,,,,,,,76,151681,19,Female,1,2024/02/22_12:29:19,YZ,None,
,,,,,,calibration,0,9,2,583,9,S,0,right,0.4687766660063062,1,0,,,,,,,,,,,,,,,,,,,,,1,,,,,,,,,,,,,,,,,,,,,,,,,,,,,,,,,,,,,,,,,,,,,,76,151681,19,Female,1,2024/02/22_12:29:19,YZ,None,
,,,,,,calibration,0,9,2,583,10,J,0,right,0.44937729998491704,1,0,,,,,,,,,,,,,,,,,,,,,1,,,,,,,,,,,,,,,,,,,,,,,,,,,,,,,,,,,,,,,,,,,,,,76,151681,19,Female,1,2024/02/22_12:29:19,YZ,None,
,,,,,,calibration,0,9,2,583,11,S,1,left,0.4856860290165059,1,0,,,,,,,,,,,,,,,,,,,,,1,,,,,,,,,,,,,,,,,,,,,,,,,,,,,,,,,,,,,,,,,,,,,,76,151681,19,Female,1,2024/02/22_12:29:19,YZ,None,
,,,,,,calibration,0,9,2,583,12,J,1,left,0.6353910919860937,1,0,,,,,,,,,,,,,,,,,,,,,1,,,,,,,,,,,,,,,,,,,,,,,,,,,,,,,,,,,,,,,,,,,,,,76,151681,19,Female,1,2024/02/22_12:29:19,YZ,None,
,,,,,,calibration,0,9,2,583,13,V,0,right,0.5742499309999403,1,0,,,,,,,,,,,,,,,,,,,,,1,,,,,,,,,,,,,,,,,,,,,,,,,,,,,,,,,,,,,,,,,,,,,,76,151681,19,Female,1,2024/02/22_12:29:19,YZ,None,
,,,,,,calibration,0,9,2,583,14,J,1,left,0.8788822140195407,1,0,,,,,,,,,,,,,,,,,,,,,1,,,,,,,,,,,,,,,,,,,,,,,,,,,,,,,,,,,,,,,,,,,,,,76,151681,19,Female,1,2024/02/22_12:29:19,YZ,None,
,,,,,,calibration,0,9,2,583,15,V,1,left,0.9083891689951997,1,0,,,,,,,,,,,,,,,,,,,,,1,,,,,,,,,,,,,,,,,,,,,,,,,,,,,,,,,,,,,,,,,,,,,,76,151681,19,Female,1,2024/02/22_12:29:19,YZ,None,
,,,,,,calibration,0,9,2,583,,,,,,,,0.9772727272727273,1.0,0.09090909090909091,0.9090909090909091,0.0,0.9090909090909091,0.5747319455374964,4,1,0,0,0,10,14,4,11,0,,,,1,,,,,,,,,,,,,,,,,,,,,,,,,,,,,,,,,,,,,,,,,,,,,,76,151681,19,Female,1,2024/02/22_12:29:19,YZ,None,
,,,,,,Calibration,0,,2,583,,,,,,,,,,,,,,,,,,,,,,,,,15,,,1,,,,,,,,,,,,,,,,,,,,,,,,,,,,,,,,,,,,,,,,,,,,,,76,151681,19,Female,1,2024/02/22_12:29:19,YZ,None,
,,,,,,CALIBRATION,0,,,,,,,,,,,,,,,,,,,,,,,,,,,,15,0.9772727272727273,583,1,,,,,,,,,,,,,,,,,,,,,,,,,,,,,,,,,,,,,,,,,,,,,,76,151681,19,Female,1,2024/02/22_12:29:19,YZ,None,
1,./instructions/inst_prac_1/Slide24.png,right,8.507791178999469,537.0296931219928,545.5374843009922,,,,,,,,,,,,,,,,,,,,,,,,,,,,,,,,,1,,,,,,,,,,,,,,,,,,,,,,,,,,,,,,,,,,,,,,,,,,,,,,76,151681,19,Female,1,2024/02/22_12:29:19,YZ,None,
2,./instructions/inst_prac_1/Slide25.png,right,3.0187065720092505,545.5668471719837,548.5855537439929,,,,,,,,,,,,,,,,,,,,,,,,,,,,,,,,,1,,,,,,,,,,,,,,,,,,,,,,,,,,,,,,,,,,,,,,,,,,,,,,76,151681,19,Female,1,2024/02/22_12:29:19,YZ,None,
3,./instructions/inst_prac_1/Slide26.png,right,1.729373679991113,548.6159697620024,550.3453434419935,,,,,,,,,,,,,,,,,,,,,,,,,,,,,,,,,1,,,,,,,,,,,,,,,,,,,,,,,,,,,,,,,,,,,,,,,,,,,,,,76,151681,19,Female,1,2024/02/22_12:29:19,YZ,None,
4,./instructions/inst_prac_1/Slide27.png,right,0.8761516720114741,550.3732395299885,551.249391202,,,,,,,,,,,,,,,,,,,,,,,,,,,,,,,,,1,,,,,,,,,,,,,,,,,,,,,,,,,,,,,,,,,,,,,,,,,,,,,,76,151681,19,Female,1,2024/02/22_12:29:19,YZ,None,
5,./instructions/inst_prac_1/Slide28.png,right,1.0619962189812213,551.2754487890052,552.3374450079864,,,,,,,,,,,,,,,,,,,,,,,,,,,,,,,,,1,,,,,,,,,,,,,,,,,,,,,,,,,,,,,,,,,,,,,,,,,,,,,,76,151681,19,Female,1,2024/02/22_12:29:19,YZ,None,
6,./instructions/inst_prac_1/Slide29.png,right,9.786566212016623,552.3668354569818,562.1534016689984,,,,,,,,,,,,,,,,,,,,,,,,,,,,,,,,,1,,,,,,,,,,,,,,,,,,,,,,,,,,,,,,,,,,,,,,,,,,,,,,76,151681,19,Female,1,2024/02/22_12:29:19,YZ,None,
7,./instructions/inst_prac_1/Slide30.png,right,2.8511576050077565,562.1823843359889,565.0335419409967,,,,,,,,,,,,,,,,,,,,,,,,,,,,,,,,,1,,,,,,,,,,,,,,,,,,,,,,,,,,,,,,,,,,,,,,,,,,,,,,76,151681,19,Female,1,2024/02/22_12:29:19,YZ,None,
,,,,,,practice,0,13,1,1250,1,S,0,right,1.9953921099950094,1,0,,,,,,,,,,,,,,,,,,,,,1,,,,,,,,,,,,,,,,,,,,,,,,,,,,,,,,,,,,,,,,,,,,,,76,151681,19,Female,1,2024/02/22_12:29:19,YZ,None,
,,,,,,practice,0,13,1,1250,2,S,1,left,0.6127487420162652,1,0,,,,,,,,,,,,,,,,,,,,,1,,,,,,,,,,,,,,,,,,,,,,,,,,,,,,,,,,,,,,,,,,,,,,76,151681,19,Female,1,2024/02/22_12:29:19,YZ,None,
,,,,,,practice,0,13,1,1250,3,F,0,right,0.9034876369987614,1,0,,,,,,,,,,,,,,,,,,,,,1,,,,,,,,,,,,,,,,,,,,,,,,,,,,,,,,,,,,,,,,,,,,,,76,151681,19,Female,1,2024/02/22_12:29:19,YZ,None,
,,,,,,practice,0,13,1,1250,4,J,0,right,0.9110864640097134,1,0,,,,,,,,,,,,,,,,,,,,,1,,,,,,,,,,,,,,,,,,,,,,,,,,,,,,,,,,,,,,,,,,,,,,76,151681,19,Female,1,2024/02/22_12:29:19,YZ,None,
,,,,,,practice,0,13,1,1250,5,J,1,left,0.645215160009684,1,0,,,,,,,,,,,,,,,,,,,,,1,,,,,,,,,,,,,,,,,,,,,,,,,,,,,,,,,,,,,,,,,,,,,,76,151681,19,Female,1,2024/02/22_12:29:19,YZ,None,
,,,,,,practice,0,13,1,1250,6,S,0,right,0.7475141859904397,1,0,,,,,,,,,,,,,,,,,,,,,1,,,,,,,,,,,,,,,,,,,,,,,,,,,,,,,,,,,,,,,,,,,,,,76,151681,19,Female,1,2024/02/22_12:29:19,YZ,None,
,,,,,,practice,0,13,1,1250,7,Q,0,right,0.9334629410004709,1,0,,,,,,,,,,,,,,,,,,,,,1,,,,,,,,,,,,,,,,,,,,,,,,,,,,,,,,,,,,,,,,,,,,,,76,151681,19,Female,1,2024/02/22_12:29:19,YZ,None,
,,,,,,practice,0,13,1,1250,8,N,0,right,0.5883340500004124,1,0,,,,,,,,,,,,,,,,,,,,,1,,,,,,,,,,,,,,,,,,,,,,,,,,,,,,,,,,,,,,,,,,,,,,76,151681,19,Female,1,2024/02/22_12:29:19,YZ,None,
,,,,,,practice,0,13,1,1250,9,N,1,left,0.5007264029991347,1,0,,,,,,,,,,,,,,,,,,,,,1,,,,,,,,,,,,,,,,,,,,,,,,,,,,,,,,,,,,,,,,,,,,,,76,151681,19,Female,1,2024/02/22_12:29:19,YZ,None,
,,,,,,practice,0,13,1,1250,10,V,0,right,0.6999673239770345,1,0,,,,,,,,,,,,,,,,,,,,,1,,,,,,,,,,,,,,,,,,,,,,,,,,,,,,,,,,,,,,,,,,,,,,76,151681,19,Female,1,2024/02/22_12:29:19,YZ,None,
,,,,,,practice,0,13,1,1250,,,,,,,,1.0,1.0,0.0,1.0,0.0,1.0,0.8537935016996926,3,0,0,0,0,7,10,3,7,0,,,,1,,,,,,,,,,,,,,,,,,,,,,,,,,,,,,,,,,,,,,,,,,,,,,76,151681,19,Female,1,2024/02/22_12:29:19,YZ,None,
1,./instructions/inst_prac_1_next/Slide35.png,right,1.0491942820081022,584.1122729709896,585.1614672529977,,,,,,,,,,,,,,,,,,,,,,,,,,,,,,,,,1,,,,,,,,,,,,,,,,,,,,,,,,,,,,,,,,,,,,,,,,,,,,,,76,151681,19,Female,1,2024/02/22_12:29:19,YZ,None,
,,,,,,practice,0,3,1,583,1,V,0,right,0.8882796349935234,1,0,,,,,,,,,,,,,,,,,,,,,1,,,,,,,,,,,,,,,,,,,,,,,,,,,,,,,,,,,,,,,,,,,,,,76,151681,19,Female,1,2024/02/22_12:29:19,YZ,None,
,,,,,,practice,0,3,1,583,2,J,0,right,0.953311046003364,1,0,,,,,,,,,,,,,,,,,,,,,1,,,,,,,,,,,,,,,,,,,,,,,,,,,,,,,,,,,,,,,,,,,,,,76,151681,19,Female,1,2024/02/22_12:29:19,YZ,None,
,,,,,,practice,0,3,1,583,3,Q,0,right,0.576738303003367,1,0,,,,,,,,,,,,,,,,,,,,,1,,,,,,,,,,,,,,,,,,,,,,,,,,,,,,,,,,,,,,,,,,,,,,76,151681,19,Female,1,2024/02/22_12:29:19,YZ,None,
,,,,,,practice,0,3,1,583,4,Q,1,left,0.48015036300057545,1,0,,,,,,,,,,,,,,,,,,,,,1,,,,,,,,,,,,,,,,,,,,,,,,,,,,,,,,,,,,,,,,,,,,,,76,151681,19,Female,1,2024/02/22_12:29:19,YZ,None,
,,,,,,practice,0,3,1,583,5,S,0,right,0.7636740390153136,1,0,,,,,,,,,,,,,,,,,,,,,1,,,,,,,,,,,,,,,,,,,,,,,,,,,,,,,,,,,,,,,,,,,,,,76,151681,19,Female,1,2024/02/22_12:29:19,YZ,None,
,,,,,,practice,0,3,1,583,6,C,0,right,0.5278606929932721,1,0,,,,,,,,,,,,,,,,,,,,,1,,,,,,,,,,,,,,,,,,,,,,,,,,,,,,,,,,,,,,,,,,,,,,76,151681,19,Female,1,2024/02/22_12:29:19,YZ,None,
,,,,,,practice,0,3,1,583,7,V,0,right,0.5851318849890959,1,0,,,,,,,,,,,,,,,,,,,,,1,,,,,,,,,,,,,,,,,,,,,,,,,,,,,,,,,,,,,,,,,,,,,,76,151681,19,Female,1,2024/02/22_12:29:19,YZ,None,
,,,,,,practice,0,3,1,583,8,C,0,right,0.6551963240199257,1,0,,,,,,,,,,,,,,,,,,,,,1,,,,,,,,,,,,,,,,,,,,,,,,,,,,,,,,,,,,,,,,,,,,,,76,151681,19,Female,1,2024/02/22_12:29:19,YZ,None,
,,,,,,practice,0,3,1,583,9,C,1,left,0.5850409370032139,1,0,,,,,,,,,,,,,,,,,,,,,1,,,,,,,,,,,,,,,,,,,,,,,,,,,,,,,,,,,,,,,,,,,,,,76,151681,19,Female,1,2024/02/22_12:29:19,YZ,None,
,,,,,,practice,0,3,1,583,10,F,0,right,0.5109848179854453,1,0,,,,,,,,,,,,,,,,,,,,,1,,,,,,,,,,,,,,,,,,,,,,,,,,,,,,,,,,,,,,,,,,,,,,76,151681,19,Female,1,2024/02/22_12:29:19,YZ,None,
,,,,,,practice,0,3,1,583,11,S,0,right,0.4435071010084357,1,0,,,,,,,,,,,,,,,,,,,,,1,,,,,,,,,,,,,,,,,,,,,,,,,,,,,,,,,,,,,,,,,,,,,,76,151681,19,Female,1,2024/02/22_12:29:19,YZ,None,
,,,,,,practice,0,3,1,583,12,C,0,right,0.6125888350070454,1,0,,,,,,,,,,,,,,,,,,,,,1,,,,,,,,,,,,,,,,,,,,,,,,,,,,,,,,,,,,,,,,,,,,,,76,151681,19,Female,1,2024/02/22_12:29:19,YZ,None,
,,,,,,practice,0,3,1,583,13,C,1,left,0.5326049919822253,1,0,,,,,,,,,,,,,,,,,,,,,1,,,,,,,,,,,,,,,,,,,,,,,,,,,,,,,,,,,,,,,,,,,,,,76,151681,19,Female,1,2024/02/22_12:29:19,YZ,None,
,,,,,,practice,0,3,1,583,14,X,0,right,0.4713074119936209,1,0,,,,,,,,,,,,,,,,,,,,,1,,,,,,,,,,,,,,,,,,,,,,,,,,,,,,,,,,,,,,,,,,,,,,76,151681,19,Female,1,2024/02/22_12:29:19,YZ,None,
,,,,,,practice,0,3,1,583,15,X,1,left,0.41693180799484253,1,0,,,,,,,,,,,,,,,,,,,,,1,,,,,,,,,,,,,,,,,,,,,,,,,,,,,,,,,,,,,,,,,,,,,,76,151681,19,Female,1,2024/02/22_12:29:19,YZ,None,
,,,,,,practice,0,3,1,583,,,,,,,,1.0,1.0,0.0,1.0,0.0,1.0,0.6002205460662178,4,0,0,0,0,11,15,4,11,0,,,,1,,,,,,,,,,,,,,,,,,,,,,,,,,,,,,,,,,,,,,,,,,,,,,76,151681,19,Female,1,2024/02/22_12:29:19,YZ,None,
,,,,,,practice,0,15,1,583,1,V,0,right,1.021148344996618,1,0,,,,,,,,,,,,,,,,,,,,,1,,,,,,,,,,,,,,,,,,,,,,,,,,,,,,,,,,,,,,,,,,,,,,76,151681,19,Female,1,2024/02/22_12:29:19,YZ,None,
,,,,,,practice,0,15,1,583,2,V,1,left,0.47210023598745465,1,0,,,,,,,,,,,,,,,,,,,,,1,,,,,,,,,,,,,,,,,,,,,,,,,,,,,,,,,,,,,,,,,,,,,,76,151681,19,Female,1,2024/02/22_12:29:19,YZ,None,
,,,,,,practice,0,15,1,583,3,S,0,right,0.4798637450148817,1,0,,,,,,,,,,,,,,,,,,,,,1,,,,,,,,,,,,,,,,,,,,,,,,,,,,,,,,,,,,,,,,,,,,,,76,151681,19,Female,1,2024/02/22_12:29:19,YZ,None,
,,,,,,practice,0,15,1,583,4,S,1,left,0.4004205139935948,1,0,,,,,,,,,,,,,,,,,,,,,1,,,,,,,,,,,,,,,,,,,,,,,,,,,,,,,,,,,,,,,,,,,,,,76,151681,19,Female,1,2024/02/22_12:29:19,YZ,None,
,,,,,,practice,0,15,1,583,5,J,0,right,0.674634782015346,1,0,,,,,,,,,,,,,,,,,,,,,1,,,,,,,,,,,,,,,,,,,,,,,,,,,,,,,,,,,,,,,,,,,,,,76,151681,19,Female,1,2024/02/22_12:29:19,YZ,None,
,,,,,,practice,0,15,1,583,6,C,0,right,0.41321565699763596,1,0,,,,,,,,,,,,,,,,,,,,,1,,,,,,,,,,,,,,,,,,,,,,,,,,,,,,,,,,,,,,,,,,,,,,76,151681,19,Female,1,2024/02/22_12:29:19,YZ,None,
,,,,,,practice,0,15,1,583,7,C,1,left,0.4190990279894322,1,0,,,,,,,,,,,,,,,,,,,,,1,,,,,,,,,,,,,,,,,,,,,,,,,,,,,,,,,,,,,,,,,,,,,,76,151681,19,Female,1,2024/02/22_12:29:19,YZ,None,
,,,,,,practice,0,15,1,583,8,J,0,right,0.3612698270007968,1,0,,,,,,,,,,,,,,,,,,,,,1,,,,,,,,,,,,,,,,,,,,,,,,,,,,,,,,,,,,,,,,,,,,,,76,151681,19,Female,1,2024/02/22_12:29:19,YZ,None,
,,,,,,practice,0,15,1,583,9,C,0,right,0.46190332699916326,1,0,,,,,,,,,,,,,,,,,,,,,1,,,,,,,,,,,,,,,,,,,,,,,,,,,,,,,,,,,,,,,,,,,,,,76,151681,19,Female,1,2024/02/22_12:29:19,YZ,None,
,,,,,,practice,0,15,1,583,10,N,0,right,0.44499411797733046,1,0,,,,,,,,,,,,,,,,,,,,,1,,,,,,,,,,,,,,,,,,,,,,,,,,,,,,,,,,,,,,,,,,,,,,76,151681,19,Female,1,2024/02/22_12:29:19,YZ,None,
,,,,,,practice,0,15,1,583,11,F,0,right,0.3328759730211459,1,0,,,,,,,,,,,,,,,,,,,,,1,,,,,,,,,,,,,,,,,,,,,,,,,,,,,,,,,,,,,,,,,,,,,,76,151681,19,Female,1,2024/02/22_12:29:19,YZ,None,
,,,,,,practice,0,15,1,583,12,F,1,left,0.3846400580077898,1,0,,,,,,,,,,,,,,,,,,,,,1,,,,,,,,,,,,,,,,,,,,,,,,,,,,,,,,,,,,,,,,,,,,,,76,151681,19,Female,1,2024/02/22_12:29:19,YZ,None,
,,,,,,practice,0,15,1,583,13,X,0,right,0.42072389301029034,1,0,,,,,,,,,,,,,,,,,,,,,1,,,,,,,,,,,,,,,,,,,,,,,,,,,,,,,,,,,,,,,,,,,,,,76,151681,19,Female,1,2024/02/22_12:29:19,YZ,None,
,,,,,,practice,0,15,1,583,14,Q,0,right,0.593055228004232,1,0,,,,,,,,,,,,,,,,,,,,,1,,,,,,,,,,,,,,,,,,,,,,,,,,,,,,,,,,,,,,,,,,,,,,76,151681,19,Female,1,2024/02/22_12:29:19,YZ,None,
,,,,,,practice,0,15,1,583,15,F,0,right,0.442495207011234,1,0,,,,,,,,,,,,,,,,,,,,,1,,,,,,,,,,,,,,,,,,,,,,,,,,,,,,,,,,,,,,,,,,,,,,76,151681,19,Female,1,2024/02/22_12:29:19,YZ,None,
,,,,,,practice,0,15,1,583,,,,,,,,1.0,1.0,0.0,1.0,0.0,1.0,0.48816266253512974,4,0,0,0,0,11,15,4,11,0,,,,1,,,,,,,,,,,,,,,,,,,,,,,,,,,,,,,,,,,,,,,,,,,,,,76,151681,19,Female,1,2024/02/22_12:29:19,YZ,None,
1,./instructions/inst_prac_3/Slide37.png,right,11.516586904996075,621.3248357469856,632.8414226519817,,,,,,,,,,,,,,,,,,,,,,,,,,,,,,,,,1,,,,,,,,,,,,,,,,,,,,,,,,,,,,,,,,,,,,,,,,,,,,,,76,151681,19,Female,1,2024/02/22_12:29:19,YZ,None,
2,./instructions/inst_prac_3/Slide38.png,right,1.6051571729767602,632.8681890190055,634.4733461919823,,,,,,,,,,,,,,,,,,,,,,,,,,,,,,,,,1,,,,,,,,,,,,,,,,,,,,,,,,,,,,,,,,,,,,,,,,,,,,,,76,151681,19,Female,1,2024/02/22_12:29:19,YZ,None,
3,./instructions/inst_prac_3/Slide39.png,right,0.7481981570017524,634.5012692769815,635.2494674339832,,,,,,,,,,,,,,,,,,,,,,,,,,,,,,,,,1,,,,,,,,,,,,,,,,,,,,,,,,,,,,,,,,,,,,,,,,,,,,,,76,151681,19,Female,1,2024/02/22_12:29:19,YZ,None,
4,./instructions/inst_prac_3/Slide40.png,right,0.9390130660030991,635.27842095698,636.2174340229831,,,,,,,,,,,,,,,,,,,,,,,,,,,,,,,,,1,,,,,,,,,,,,,,,,,,,,,,,,,,,,,,,,,,,,,,,,,,,,,,76,151681,19,Female,1,2024/02/22_12:29:19,YZ,None,
5,./instructions/inst_prac_3/Slide41.png,right,5.410571484011598,636.2467950519931,641.6573665360047,,,,,,,,,,,,,,,,,,,,,,,,,,,,,,,,,1,,,,,,,,,,,,,,,,,,,,,,,,,,,,,,,,,,,,,,,,,,,,,,76,151681,19,Female,1,2024/02/22_12:29:19,YZ,None,
6,./instructions/inst_prac_3/Slide42.png,right,1.794591687998036,641.6870341080066,643.4816257960047,,,,,,,,,,,,,,,,,,,,,,,,,,,,,,,,,1,,,,,,,,,,,,,,,,,,,,,,,,,,,,,,,,,,,,,,,,,,,,,,76,151681,19,Female,1,2024/02/22_12:29:19,YZ,None,
7,./instructions/inst_prac_3/Slide43.png,right,2.172891502006678,643.5087290789816,645.6816205809882,,,,,,,,,,,,,,,,,,,,,,,,,,,,,,,,,1,,,,,,,,,,,,,,,,,,,,,,,,,,,,,,,,,,,,,,,,,,,,,,76,151681,19,Female,1,2024/02/22_12:29:19,YZ,None,
8,./instructions/inst_prac_3/Slide44.png,right,1.5752851130091585,645.7142041379993,647.2894892510085,,,,,,,,,,,,,,,,,,,,,,,,,,,,,,,,,1,,,,,,,,,,,,,,,,,,,,,,,,,,,,,,,,,,,,,,,,,,,,,,76,151681,19,Female,1,2024/02/22_12:29:19,YZ,None,
,,,,,,practice,0,1,3,788,1,F,0,right,0.6179654809820931,1,0,,,,,,,,,,,,,,,,,,,,,1,,,,,,,,,,,,,,,,,,,,,,,,,,,,,,,,,,,,,,,,,,,,,,76,151681,19,Female,1,2024/02/22_12:29:19,YZ,None,
,,,,,,practice,0,1,3,788,2,Q,0,right,0.3577322450000793,1,0,,,,,,,,,,,,,,,,,,,,,1,,,,,,,,,,,,,,,,,,,,,,,,,,,,,,,,,,,,,,,,,,,,,,76,151681,19,Female,1,2024/02/22_12:29:19,YZ,None,
,,,,,,practice,0,1,3,788,3,S,0,right,0.3664727139985189,1,0,,,,,,,,,,,,,,,,,,,,,1,,,,,,,,,,,,,,,,,,,,,,,,,,,,,,,,,,,,,,,,,,,,,,76,151681,19,Female,1,2024/02/22_12:29:19,YZ,None,
,,,,,,practice,0,1,3,788,4,J,0,right,0.6332147280045319,1,0,,,,,,,,,,,,,,,,,,,,,1,,,,,,,,,,,,,,,,,,,,,,,,,,,,,,,,,,,,,,,,,,,,,,76,151681,19,Female,1,2024/02/22_12:29:19,YZ,None,
,,,,,,practice,0,1,3,788,5,J,0,right,0.7736436109989882,1,0,,,,,,,,,,,,,,,,,,,,,1,,,,,,,,,,,,,,,,,,,,,,,,,,,,,,,,,,,,,,,,,,,,,,76,151681,19,Female,1,2024/02/22_12:29:19,YZ,None,
,,,,,,practice,0,1,3,788,6,F,0,right,0.5901609960128553,1,0,,,,,,,,,,,,,,,,,,,,,1,,,,,,,,,,,,,,,,,,,,,,,,,,,,,,,,,,,,,,,,,,,,,,76,151681,19,Female,1,2024/02/22_12:29:19,YZ,None,
,,,,,,practice,0,1,3,788,7,J,1,left,0.5807055460172705,1,0,,,,,,,,,,,,,,,,,,,,,1,,,,,,,,,,,,,,,,,,,,,,,,,,,,,,,,,,,,,,,,,,,,,,76,151681,19,Female,1,2024/02/22_12:29:19,YZ,None,
,,,,,,practice,0,1,3,788,8,Q,0,right,0.6047769319848157,1,0,,,,,,,,,,,,,,,,,,,,,1,,,,,,,,,,,,,,,,,,,,,,,,,,,,,,,,,,,,,,,,,,,,,,76,151681,19,Female,1,2024/02/22_12:29:19,YZ,None,
,,,,,,practice,0,1,3,788,9,F,1,right,0.6215324429795146,0,0,,,,,,,,,,,,,,,,,,,,,1,,,,,,,,,,,,,,,,,,,,,,,,,,,,,,,,,,,,,,,,,,,,,,76,151681,19,Female,1,2024/02/22_12:29:19,YZ,None,
,,,,,,practice,0,1,3,788,10,C,0,right,4.123969638982089,1,0,,,,,,,,,,,,,,,,,,,,,1,,,,,,,,,,,,,,,,,,,,,,,,,,,,,,,,,,,,,,,,,,,,,,76,151681,19,Female,1,2024/02/22_12:29:19,YZ,None,
,,,,,,practice,0,1,3,788,11,Q,1,left,1.1937673370121047,1,0,,,,,,,,,,,,,,,,,,,,,1,,,,,,,,,,,,,,,,,,,,,,,,,,,,,,,,,,,,,,,,,,,,,,76,151681,19,Female,1,2024/02/22_12:29:19,YZ,None,
,,,,,,practice,0,1,3,788,12,F,1,left,2.315544409007998,1,0,,,,,,,,,,,,,,,,,,,,,1,,,,,,,,,,,,,,,,,,,,,,,,,,,,,,,,,,,,,,,,,,,,,,76,151681,19,Female,1,2024/02/22_12:29:19,YZ,None,
,,,,,,practice,0,1,3,788,13,S,0,right,0.9053911310038529,1,0,,,,,,,,,,,,,,,,,,,,,1,,,,,,,,,,,,,,,,,,,,,,,,,,,,,,,,,,,,,,,,,,,,,,76,151681,19,Female,1,2024/02/22_12:29:19,YZ,None,
,,,,,,practice,0,1,3,788,,,,,,,,0.9375,0.75,0.0,1.0,0.0,1.0,1.0526828624603626,3,0,0,0,0,9,12,4,9,0,,,,1,,,,,,,,,,,,,,,,,,,,,,,,,,,,,,,,,,,,,,,,,,,,,,76,151681,19,Female,1,2024/02/22_12:29:19,YZ,None,
1,./instructions/inst_prac_3_next/Slide49.png,right,1.5367044190061279,675.160778696998,676.6974831160042,,,,,,,,,,,,,,,,,,,,,,,,,,,,,,,,,1,,,,,,,,,,,,,,,,,,,,,,,,,,,,,,,,,,,,,,,,,,,,,,76,151681,19,Female,1,2024/02/22_12:29:19,YZ,None,
,,,,,,practice,0,14,3,583,1,N,0,right,1.5794222060067113,1,0,,,,,,,,,,,,,,,,,,,,,1,,,,,,,,,,,,,,,,,,,,,,,,,,,,,,,,,,,,,,,,,,,,,,76,151681,19,Female,1,2024/02/22_12:29:19,YZ,None,
,,,,,,practice,0,14,3,583,2,N,0,right,0.6967406930052675,1,0,,,,,,,,,,,,,,,,,,,,,1,,,,,,,,,,,,,,,,,,,,,,,,,,,,,,,,,,,,,,,,,,,,,,76,151681,19,Female,1,2024/02/22_12:29:19,YZ,None,
,,,,,,practice,0,14,3,583,3,F,0,right,0.4523769259976689,1,0,,,,,,,,,,,,,,,,,,,,,1,,,,,,,,,,,,,,,,,,,,,,,,,,,,,,,,,,,,,,,,,,,,,,76,151681,19,Female,1,2024/02/22_12:29:19,YZ,None,
,,,,,,practice,0,14,3,583,4,Q,0,right,1.008390780974878,1,0,,,,,,,,,,,,,,,,,,,,,1,,,,,,,,,,,,,,,,,,,,,,,,,,,,,,,,,,,,,,,,,,,,,,76,151681,19,Female,1,2024/02/22_12:29:19,YZ,None,
,,,,,,practice,0,14,3,583,5,J,0,right,3.2480834650050383,1,0,,,,,,,,,,,,,,,,,,,,,1,,,,,,,,,,,,,,,,,,,,,,,,,,,,,,,,,,,,,,,,,,,,,,76,151681,19,Female,1,2024/02/22_12:29:19,YZ,None,
,,,,,,practice,0,14,3,583,6,F,1,right,1.3240348350082058,0,0,,,,,,,,,,,,,,,,,,,,,1,,,,,,,,,,,,,,,,,,,,,,,,,,,,,,,,,,,,,,,,,,,,,,76,151681,19,Female,1,2024/02/22_12:29:19,YZ,None,
,,,,,,practice,0,14,3,583,7,F,0,right,1.2826401159982197,1,0,,,,,,,,,,,,,,,,,,,,,1,,,,,,,,,,,,,,,,,,,,,,,,,,,,,,,,,,,,,,,,,,,,,,76,151681,19,Female,1,2024/02/22_12:29:19,YZ,None,
,,,,,,practice,0,14,3,583,8,V,0,right,1.0880919610208366,1,0,,,,,,,,,,,,,,,,,,,,,1,,,,,,,,,,,,,,,,,,,,,,,,,,,,,,,,,,,,,,,,,,,,,,76,151681,19,Female,1,2024/02/22_12:29:19,YZ,None,
,,,,,,practice,0,14,3,583,9,Q,0,right,0.5564351050124969,1,0,,,,,,,,,,,,,,,,,,,,,1,,,,,,,,,,,,,,,,,,,,,,,,,,,,,,,,,,,,,,,,,,,,,,76,151681,19,Female,1,2024/02/22_12:29:19,YZ,None,
,,,,,,practice,0,14,3,583,10,C,0,right,0.42865103599615395,1,0,,,,,,,,,,,,,,,,,,,,,1,,,,,,,,,,,,,,,,,,,,,,,,,,,,,,,,,,,,,,,,,,,,,,76,151681,19,Female,1,2024/02/22_12:29:19,YZ,None,
,,,,,,practice,0,14,3,583,11,S,0,right,1.0844037280185148,1,0,,,,,,,,,,,,,,,,,,,,,1,,,,,,,,,,,,,,,,,,,,,,,,,,,,,,,,,,,,,,,,,,,,,,76,151681,19,Female,1,2024/02/22_12:29:19,YZ,None,
,,,,,,practice,0,14,3,583,12,Q,1,right,0.7118438960169442,0,0,,,,,,,,,,,,,,,,,,,,,1,,,,,,,,,,,,,,,,,,,,,,,,,,,,,,,,,,,,,,,,,,,,,,76,151681,19,Female,1,2024/02/22_12:29:19,YZ,None,
,,,,,,practice,0,14,3,583,13,C,1,right,0.32073138700798154,0,0,,,,,,,,,,,,,,,,,,,,,1,,,,,,,,,,,,,,,,,,,,,,,,,,,,,,,,,,,,,,,,,,,,,,76,151681,19,Female,1,2024/02/22_12:29:19,YZ,None,
,,,,,,practice,0,14,3,583,14,Q,0,right,2.231990604021121,1,0,,,,,,,,,,,,,,,,,,,,,1,,,,,,,,,,,,,,,,,,,,,,,,,,,,,,,,,,,,,,,,,,,,,,76,151681,19,Female,1,2024/02/22_12:29:19,YZ,None,
,,,,,,practice,0,14,3,583,15,Q,1,right,0.46834220399614424,0,0,,,,,,,,,,,,,,,,,,,,,1,,,,,,,,,,,,,,,,,,,,,,,,,,,,,,,,,,,,,,,,,,,,,,76,151681,19,Female,1,2024/02/22_12:29:19,YZ,None,
,,,,,,practice,0,14,3,583,,,,,,,,0.5,0.0,0.0,1.0,0.0,1.0,1.0988119295390788,0,0,0,0,0,11,11,4,11,0,,,,1,,,,,,,,,,,,,,,,,,,,,,,,,,,,,,,,,,,,,,,,,,,,,,76,151681,19,Female,1,2024/02/22_12:29:19,YZ,None,
,,,,,,practice,0,32,3,583,1,V,0,right,1.090264083002694,1,0,,,,,,,,,,,,,,,,,,,,,1,,,,,,,,,,,,,,,,,,,,,,,,,,,,,,,,,,,,,,,,,,,,,,76,151681,19,Female,1,2024/02/22_12:29:19,YZ,None,
,,,,,,practice,0,32,3,583,2,C,0,right,0.2873319780046586,1,0,,,,,,,,,,,,,,,,,,,,,1,,,,,,,,,,,,,,,,,,,,,,,,,,,,,,,,,,,,,,,,,,,,,,76,151681,19,Female,1,2024/02/22_12:29:19,YZ,None,
,,,,,,practice,0,32,3,583,3,V,0,right,1.7050887290097307,1,0,,,,,,,,,,,,,,,,,,,,,1,,,,,,,,,,,,,,,,,,,,,,,,,,,,,,,,,,,,,,,,,,,,,,76,151681,19,Female,1,2024/02/22_12:29:19,YZ,None,
,,,,,,practice,0,32,3,583,4,V,1,left,0.4334495910152327,1,0,,,,,,,,,,,,,,,,,,,,,1,,,,,,,,,,,,,,,,,,,,,,,,,,,,,,,,,,,,,,,,,,,,,,76,151681,19,Female,1,2024/02/22_12:29:19,YZ,None,
,,,,,,practice,0,32,3,583,5,S,0,right,1.1882398469897453,1,0,,,,,,,,,,,,,,,,,,,,,1,,,,,,,,,,,,,,,,,,,,,,,,,,,,,,,,,,,,,,,,,,,,,,76,151681,19,Female,1,2024/02/22_12:29:19,YZ,None,
,,,,,,practice,0,32,3,583,6,V,1,left,1.9458676479989663,1,0,,,,,,,,,,,,,,,,,,,,,1,,,,,,,,,,,,,,,,,,,,,,,,,,,,,,,,,,,,,,,,,,,,,,76,151681,19,Female,1,2024/02/22_12:29:19,YZ,None,
,,,,,,practice,0,32,3,583,7,X,0,right,2.344934357010061,1,0,,,,,,,,,,,,,,,,,,,,,1,,,,,,,,,,,,,,,,,,,,,,,,,,,,,,,,,,,,,,,,,,,,,,76,151681,19,Female,1,2024/02/22_12:29:19,YZ,None,
,,,,,,practice,0,32,3,583,8,V,0,left,1.9037482790008653,0,0,,,,,,,,,,,,,,,,,,,,,1,,,,,,,,,,,,,,,,,,,,,,,,,,,,,,,,,,,,,,,,,,,,,,76,151681,19,Female,1,2024/02/22_12:29:19,YZ,None,
,,,,,,practice,0,32,3,583,9,V,1,right,0.9897613599896431,0,0,,,,,,,,,,,,,,,,,,,,,1,,,,,,,,,,,,,,,,,,,,,,,,,,,,,,,,,,,,,,,,,,,,,,76,151681,19,Female,1,2024/02/22_12:29:19,YZ,None,
,,,,,,practice,0,32,3,583,10,X,1,left,1.0669059890205972,1,0,,,,,,,,,,,,,,,,,,,,,1,,,,,,,,,,,,,,,,,,,,,,,,,,,,,,,,,,,,,,,,,,,,,,76,151681,19,Female,1,2024/02/22_12:29:19,YZ,None,
,,,,,,practice,0,32,3,583,11,N,0,right,1.1614787250000518,1,0,,,,,,,,,,,,,,,,,,,,,1,,,,,,,,,,,,,,,,,,,,,,,,,,,,,,,,,,,,,,,,,,,,,,76,151681,19,Female,1,2024/02/22_12:29:19,YZ,None,
,,,,,,practice,0,32,3,583,12,C,0,right,0.2604999220056925,1,0,,,,,,,,,,,,,,,,,,,,,1,,,,,,,,,,,,,,,,,,,,,,,,,,,,,,,,,,,,,,,,,,,,,,76,151681,19,Female,1,2024/02/22_12:29:19,YZ,None,
,,,,,,practice,0,32,3,583,13,C,0,right,0.33323351899161935,1,0,,,,,,,,,,,,,,,,,,,,,1,,,,,,,,,,,,,,,,,,,,,,,,,,,,,,,,,,,,,,,,,,,,,,76,151681,19,Female,1,2024/02/22_12:29:19,YZ,None,
,,,,,,practice,0,32,3,583,14,S,0,right,0.8725516880222131,1,0,,,,,,,,,,,,,,,,,,,,,1,,,,,,,,,,,,,,,,,,,,,,,,,,,,,,,,,,,,,,,,,,,,,,76,151681,19,Female,1,2024/02/22_12:29:19,YZ,None,
,,,,,,practice,0,32,3,583,15,S,0,right,1.169240985007491,1,0,,,,,,,,,,,,,,,,,,,,,1,,,,,,,,,,,,,,,,,,,,,,,,,,,,,,,,,,,,,,,,,,,,,,76,151681,19,Female,1,2024/02/22_12:29:19,YZ,None,
,,,,,,practice,0,32,3,583,,,,,,,,0.8920454545454546,0.75,0.09090909090909091,0.9090909090909091,0.0,0.9090909090909091,1.1168397800046175,3,1,0,0,0,10,13,4,11,0,,,,1,,,,,,,,,,,,,,,,,,,,,,,,,,,,,,,,,,,,,,,,,,,,,,76,151681,19,Female,1,2024/02/22_12:29:19,YZ,None,
1,./instructions/inst_prac_main/Slide51.png,right,3.0388431399769615,729.770731416007,732.809574555984,,,,,,,,,,,,,,,,,,,,,,,,,,,,,,,,,1,,,,,,,,,,,,,,,,,,,,,,,,,,,,,,,,,,,,,,,,,,,,,,76,151681,19,Female,1,2024/02/22_12:29:19,YZ,None,
2,./instructions/inst_prac_main/Slide52.png,right,9.578803473006701,732.8384325309889,742.4172360039956,,,,,,,,,,,,,,,,,,,,,,,,,,,,,,,,,1,,,,,,,,,,,,,,,,,,,,,,,,,,,,,,,,,,,,,,,,,,,,,,76,151681,19,Female,1,2024/02/22_12:29:19,YZ,None,
1,./instructions/inst_prac_main/Slide53.png,left,4.0512138130143285,742.446659409994,746.4978732230084,,,,,,,,,,,,,,,,,,,,,,,,,,,,,,,,,1,,,,,,,,,,,,,,,,,,,,,,,,,,,,,,,,,,,,,,,,,,,,,,76,151681,19,Female,1,2024/02/22_12:29:19,YZ,None,
0,./instructions/inst_prac_main/Slide52.png,left,0.20035503199324012,746.5208089640073,746.7211639960005,,,,,,,,,,,,,,,,,,,,,,,,,,,,,,,,,1,,,,,,,,,,,,,,,,,,,,,,,,,,,,,,,,,,,,,,,,,,,,,,76,151681,19,Female,1,2024/02/22_12:29:19,YZ,None,
-1,./instructions/inst_prac_main/Slide51.png,left,0.2003907909966074,746.7405694150075,746.9409602060041,,,,,,,,,,,,,,,,,,,,,,,,,,,,,,,,,1,,,,,,,,,,,,,,,,,,,,,,,,,,,,,,,,,,,,,,,,,,,,,,76,151681,19,Female,1,2024/02/22_12:29:19,YZ,None,
-2,./instructions/inst_prac_main/Slide54.png,left,0.20045880699763075,746.9638723669923,747.1643311739899,,,,,,,,,,,,,,,,,,,,,,,,,,,,,,,,,1,,,,,,,,,,,,,,,,,,,,,,,,,,,,,,,,,,,,,,,,,,,,,,76,151681,19,Female,1,2024/02/22_12:29:19,YZ,None,
-1,./instructions/inst_prac_main/Slide53.png,right,7.229900523001561,747.1875071749964,754.417407697998,,,,,,,,,,,,,,,,,,,,,,,,,,,,,,,,,1,,,,,,,,,,,,,,,,,,,,,,,,,,,,,,,,,,,,,,,,,,,,,,76,151681,19,Female,1,2024/02/22_12:29:19,YZ,None,
0,./instructions/inst_prac_main/Slide54.png,right,14.442901610018453,754.4467359719856,768.8896375820041,,,,,,,,,,,,,,,,,,,,,,,,,,,,,,,,,1,,,,,,,,,,,,,,,,,,,,,,,,,,,,,,,,,,,,,,,,,,,,,,76,151681,19,Female,1,2024/02/22_12:29:19,YZ,None,
1,./instructions/inst_prac_main/Slide51.png,right,2.5424329960078467,768.9153091439803,771.4577421399881,,,,,,,,,,,,,,,,,,,,,,,,,,,,,,,,,1,,,,,,,,,,,,,,,,,,,,,,,,,,,,,,,,,,,,,,,,,,,,,,76,151681,19,Female,1,2024/02/22_12:29:19,YZ,None,
2,./instructions/inst_prac_main/Slide52.png,right,6.028926828992553,771.484494467004,777.5134212959965,,,,,,,,,,,,,,,,,,,,,,,,,,,,,,,,,1,,,,,,,,,,,,,,,,,,,,,,,,,,,,,,,,,,,,,,,,,,,,,,76,151681,19,Female,1,2024/02/22_12:29:19,YZ,None,
3,./instructions/inst_prac_main/Slide53.png,right,2.181790491013089,777.5397615399852,779.7215520309983,,,,,,,,,,,,,,,,,,,,,,,,,,,,,,,,,1,,,,,,,,,,,,,,,,,,,,,,,,,,,,,,,,,,,,,,,,,,,,,,76,151681,19,Female,1,2024/02/22_12:29:19,YZ,None,
4,./instructions/inst_prac_main/Slide54.png,right,3.4986009169952013,779.7509387879982,783.2495397049934,,,,,,,,,,,,,,,,,,,,,,,,,,,,,,,,,1,,,,,,,,,,,,,,,,,,,,,,,,,,,,,,,,,,,,,,,,,,,,,,76,151681,19,Female,1,2024/02/22_12:29:19,YZ,None,
,,,,,,practice_main,0,1,3,583,1,C,0,right,1.5772156739840284,1,0,,,,,,,,,,,,,,,,,,,,,1,,,,,,,,,,,,,,,,,,,,,,,,,,,,,,,,,,,,,,,,,,,,,,76,151681,19,Female,1,2024/02/22_12:29:19,YZ,None,
,,,,,,practice_main,0,1,3,583,2,F,0,right,0.7130662909767125,1,0,,,,,,,,,,,,,,,,,,,,,1,,,,,,,,,,,,,,,,,,,,,,,,,,,,,,,,,,,,,,,,,,,,,,76,151681,19,Female,1,2024/02/22_12:29:19,YZ,None,
,,,,,,practice_main,0,1,3,583,3,J,0,right,0.7414948920195457,1,0,,,,,,,,,,,,,,,,,,,,,1,,,,,,,,,,,,,,,,,,,,,,,,,,,,,,,,,,,,,,,,,,,,,,76,151681,19,Female,1,2024/02/22_12:29:19,YZ,None,
,,,,,,practice_main,0,1,3,583,4,Q,0,right,0.46944599799462594,1,0,,,,,,,,,,,,,,,,,,,,,1,,,,,,,,,,,,,,,,,,,,,,,,,,,,,,,,,,,,,,,,,,,,,,76,151681,19,Female,1,2024/02/22_12:29:19,YZ,None,
,,,,,,practice_main,0,1,3,583,5,F,1,left,0.576147031999426,1,0,,,,,,,,,,,,,,,,,,,,,1,,,,,,,,,,,,,,,,,,,,,,,,,,,,,,,,,,,,,,,,,,,,,,76,151681,19,Female,1,2024/02/22_12:29:19,YZ,None,
,,,,,,practice_main,0,1,3,583,6,J,1,left,0.7616180950135458,1,0,,,,,,,,,,,,,,,,,,,,,1,,,,,,,,,,,,,,,,,,,,,,,,,,,,,,,,,,,,,,,,,,,,,,76,151681,19,Female,1,2024/02/22_12:29:19,YZ,None,
,,,,,,practice_main,0,1,3,583,7,X,0,right,0.4124482969928067,1,0,,,,,,,,,,,,,,,,,,,,,1,,,,,,,,,,,,,,,,,,,,,,,,,,,,,,,,,,,,,,,,,,,,,,76,151681,19,Female,1,2024/02/22_12:29:19,YZ,None,
,,,,,,practice_main,0,1,3,583,8,F,1,right,0.4849551049992442,0,0,,,,,,,,,,,,,,,,,,,,,1,,,,,,,,,,,,,,,,,,,,,,,,,,,,,,,,,,,,,,,,,,,,,,76,151681,19,Female,1,2024/02/22_12:29:19,YZ,None,
,,,,,,practice_main,0,1,3,583,9,J,1,right,0.5124752580013592,0,0,,,,,,,,,,,,,,,,,,,,,1,,,,,,,,,,,,,,,,,,,,,,,,,,,,,,,,,,,,,,,,,,,,,,76,151681,19,Female,1,2024/02/22_12:29:19,YZ,None,
,,,,,,practice_main,0,1,3,583,10,J,0,left,0.5824735630012583,0,0,,,,,,,,,,,,,,,,,,,,,1,,,,,,,,,,,,,,,,,,,,,,,,,,,,,,,,,,,,,,,,,,,,,,76,151681,19,Female,1,2024/02/22_12:29:19,YZ,None,
,,,,,,practice_main,0,1,3,583,11,C,0,right,0.9313054570229724,1,0,,,,,,,,,,,,,,,,,,,,,1,,,,,,,,,,,,,,,,,,,,,,,,,,,,,,,,,,,,,,,,,,,,,,76,151681,19,Female,1,2024/02/22_12:29:19,YZ,None,
,,,,,,practice_main,0,1,3,583,12,V,0,right,0.5577655140077695,1,0,,,,,,,,,,,,,,,,,,,,,1,,,,,,,,,,,,,,,,,,,,,,,,,,,,,,,,,,,,,,,,,,,,,,76,151681,19,Female,1,2024/02/22_12:29:19,YZ,None,
,,,,,,practice_main,0,1,3,583,13,N,0,right,0.3951565260067582,1,0,,,,,,,,,,,,,,,,,,,,,1,,,,,,,,,,,,,,,,,,,,,,,,,,,,,,,,,,,,,,,,,,,,,,76,151681,19,Female,1,2024/02/22_12:29:19,YZ,None,
,,,,,,practice_main,0,1,3,583,14,J,0,right,0.4296581009984948,1,0,,,,,,,,,,,,,,,,,,,,,1,,,,,,,,,,,,,,,,,,,,,,,,,,,,,,,,,,,,,,,,,,,,,,76,151681,19,Female,1,2024/02/22_12:29:19,YZ,None,
,,,,,,practice_main,0,1,3,583,15,X,0,right,0.63439059999655,1,0,,,,,,,,,,,,,,,,,,,,,1,,,,,,,,,,,,,,,,,,,,,,,,,,,,,,,,,,,,,,,,,,,,,,76,151681,19,Female,1,2024/02/22_12:29:19,YZ,None,
,,,,,,practice_main,0,1,3,583,,,,,,,,0.8068181818181819,0.5,0.09090909090909091,0.9090909090909091,0.0,0.9090909090909091,0.6519744268676732,2,1,0,0,0,10,12,4,11,0,,,,1,,,,,,,,,,,,,,,,,,,,,,,,,,,,,,,,,,,,,,,,,,,,,,76,151681,19,Female,1,2024/02/22_12:29:19,YZ,None,
,,,,,240222_143014,PRACTICE,0,1,3,583,,,,,,,,,,,,,,,,,,,,,,,,,,,,1,41,1,1,cue1.png,hard,B,72,1.4351019379973877,0,786.3162513779826,787.7733732149936,,,,,,,,,,,,,,,,,,,,,,,,,,,,,,,,,,,76,151681,19,Female,1,2024/02/22_12:29:19,YZ,None,
,,,,,,practice_main,0,2,1,583,1,F,0,right,0.4256771939981263,1,0,,,,,,,,,,,,,,,,,,,,,1,,,,,,,,,,,,,,,,,,,,,,,,,,,,,,,,,,,,,,,,,,,,,,76,151681,19,Female,1,2024/02/22_12:29:19,YZ,None,
,,,,,,practice_main,0,2,1,583,2,F,1,left,0.558987538999645,1,0,,,,,,,,,,,,,,,,,,,,,1,,,,,,,,,,,,,,,,,,,,,,,,,,,,,,,,,,,,,,,,,,,,,,76,151681,19,Female,1,2024/02/22_12:29:19,YZ,None,
,,,,,,practice_main,0,2,1,583,3,Q,0,right,0.42602267101756297,1,0,,,,,,,,,,,,,,,,,,,,,1,,,,,,,,,,,,,,,,,,,,,,,,,,,,,,,,,,,,,,,,,,,,,,76,151681,19,Female,1,2024/02/22_12:29:19,YZ,None,
,,,,,,practice_main,0,2,1,583,4,C,0,right,0.4531122819753364,1,0,,,,,,,,,,,,,,,,,,,,,1,,,,,,,,,,,,,,,,,,,,,,,,,,,,,,,,,,,,,,,,,,,,,,76,151681,19,Female,1,2024/02/22_12:29:19,YZ,None,
,,,,,,practice_main,0,2,1,583,5,J,0,right,0.3771143560006749,1,0,,,,,,,,,,,,,,,,,,,,,1,,,,,,,,,,,,,,,,,,,,,,,,,,,,,,,,,,,,,,,,,,,,,,76,151681,19,Female,1,2024/02/22_12:29:19,YZ,None,
,,,,,,practice_main,0,2,1,583,6,N,0,right,0.43712579799466766,1,0,,,,,,,,,,,,,,,,,,,,,1,,,,,,,,,,,,,,,,,,,,,,,,,,,,,,,,,,,,,,,,,,,,,,76,151681,19,Female,1,2024/02/22_12:29:19,YZ,None,
,,,,,,practice_main,0,2,1,583,7,N,1,left,0.47243674800847657,1,0,,,,,,,,,,,,,,,,,,,,,1,,,,,,,,,,,,,,,,,,,,,,,,,,,,,,,,,,,,,,,,,,,,,,76,151681,19,Female,1,2024/02/22_12:29:19,YZ,None,
,,,,,,practice_main,0,2,1,583,8,F,0,right,0.29622607500641607,1,0,,,,,,,,,,,,,,,,,,,,,1,,,,,,,,,,,,,,,,,,,,,,,,,,,,,,,,,,,,,,,,,,,,,,76,151681,19,Female,1,2024/02/22_12:29:19,YZ,None,
,,,,,,practice_main,0,2,1,583,9,J,0,right,0.3618700329971034,1,0,,,,,,,,,,,,,,,,,,,,,1,,,,,,,,,,,,,,,,,,,,,,,,,,,,,,,,,,,,,,,,,,,,,,76,151681,19,Female,1,2024/02/22_12:29:19,YZ,None,
,,,,,,practice_main,0,2,1,583,10,J,1,left,0.46086269698571414,1,0,,,,,,,,,,,,,,,,,,,,,1,,,,,,,,,,,,,,,,,,,,,,,,,,,,,,,,,,,,,,,,,,,,,,76,151681,19,Female,1,2024/02/22_12:29:19,YZ,None,
,,,,,,practice_main,0,2,1,583,11,C,0,right,0.2939669380139094,1,0,,,,,,,,,,,,,,,,,,,,,1,,,,,,,,,,,,,,,,,,,,,,,,,,,,,,,,,,,,,,,,,,,,,,76,151681,19,Female,1,2024/02/22_12:29:19,YZ,None,
,,,,,,practice_main,0,2,1,583,12,C,1,right,0.5419814519991633,0,0,,,,,,,,,,,,,,,,,,,,,1,,,,,,,,,,,,,,,,,,,,,,,,,,,,,,,,,,,,,,,,,,,,,,76,151681,19,Female,1,2024/02/22_12:29:19,YZ,None,
,,,,,,practice_main,0,2,1,583,13,X,0,right,1.1142950569919776,1,0,,,,,,,,,,,,,,,,,,,,,1,,,,,,,,,,,,,,,,,,,,,,,,,,,,,,,,,,,,,,,,,,,,,,76,151681,19,Female,1,2024/02/22_12:29:19,YZ,None,
,,,,,,practice_main,0,2,1,583,14,X,1,left,0.598246942012338,1,0,,,,,,,,,,,,,,,,,,,,,1,,,,,,,,,,,,,,,,,,,,,,,,,,,,,,,,,,,,,,,,,,,,,,76,151681,19,Female,1,2024/02/22_12:29:19,YZ,None,
,,,,,,practice_main,0,2,1,583,15,S,0,right,0.3354715159803163,1,0,,,,,,,,,,,,,,,,,,,,,1,,,,,,,,,,,,,,,,,,,,,,,,,,,,,,,,,,,,,,,,,,,,,,76,151681,19,Female,1,2024/02/22_12:29:19,YZ,None,
,,,,,,practice_main,0,2,1,583,,,,,,,,0.95,0.8,0.0,1.0,0.0,1.0,0.47689315319876185,4,0,0,0,0,10,14,5,10,0,,,,1,,,,,,,,,,,,,,,,,,,,,,,,,,,,,,,,,,,,,,,,,,,,,,76,151681,19,Female,1,2024/02/22_12:29:19,YZ,None,
,,,,,240222_143040,PRACTICE,0,2,1,583,,,,,,,,,,,,,,,,,,,,,,,,,,,,1,16,2,2,cue2.png,easy,B,12,1.5162668340199161,0,814.6025509719911,816.1353915149812,,,,,,,,,,,,,,,,,,,,,,,,,,,,,,,,,,,76,151681,19,Female,1,2024/02/22_12:29:19,YZ,None,
,,,,,,practice_main,0,3,3,583,1,N,0,right,1.2154675989877433,1,0,,,,,,,,,,,,,,,,,,,,,1,,,,,,,,,,,,,,,,,,,,,,,,,,,,,,,,,,,,,,,,,,,,,,76,151681,19,Female,1,2024/02/22_12:29:19,YZ,None,
,,,,,,practice_main,0,3,3,583,2,X,0,right,0.5002607420028653,1,0,,,,,,,,,,,,,,,,,,,,,1,,,,,,,,,,,,,,,,,,,,,,,,,,,,,,,,,,,,,,,,,,,,,,76,151681,19,Female,1,2024/02/22_12:29:19,YZ,None,
,,,,,,practice_main,0,3,3,583,3,F,0,right,0.45845780699164607,1,0,,,,,,,,,,,,,,,,,,,,,1,,,,,,,,,,,,,,,,,,,,,,,,,,,,,,,,,,,,,,,,,,,,,,76,151681,19,Female,1,2024/02/22_12:29:19,YZ,None,
,,,,,,practice_main,0,3,3,583,4,N,1,left,0.35395260399673134,1,0,,,,,,,,,,,,,,,,,,,,,1,,,,,,,,,,,,,,,,,,,,,,,,,,,,,,,,,,,,,,,,,,,,,,76,151681,19,Female,1,2024/02/22_12:29:19,YZ,None,
,,,,,,practice_main,0,3,3,583,5,S,0,right,0.5482621949922759,1,0,,,,,,,,,,,,,,,,,,,,,1,,,,,,,,,,,,,,,,,,,,,,,,,,,,,,,,,,,,,,,,,,,,,,76,151681,19,Female,1,2024/02/22_12:29:19,YZ,None,
,,,,,,practice_main,0,3,3,583,6,F,1,left,0.418233289005002,1,0,,,,,,,,,,,,,,,,,,,,,1,,,,,,,,,,,,,,,,,,,,,,,,,,,,,,,,,,,,,,,,,,,,,,76,151681,19,Female,1,2024/02/22_12:29:19,YZ,None,
,,,,,,practice_main,0,3,3,583,7,F,0,left,0.5480203549959697,0,0,,,,,,,,,,,,,,,,,,,,,1,,,,,,,,,,,,,,,,,,,,,,,,,,,,,,,,,,,,,,,,,,,,,,76,151681,19,Female,1,2024/02/22_12:29:19,YZ,None,
,,,,,,practice_main,0,3,3,583,8,X,0,right,0.4537211760180071,1,0,,,,,,,,,,,,,,,,,,,,,1,,,,,,,,,,,,,,,,,,,,,,,,,,,,,,,,,,,,,,,,,,,,,,76,151681,19,Female,1,2024/02/22_12:29:19,YZ,None,
,,,,,,practice_main,0,3,3,583,9,F,1,left,0.7916044990124647,1,0,,,,,,,,,,,,,,,,,,,,,1,,,,,,,,,,,,,,,,,,,,,,,,,,,,,,,,,,,,,,,,,,,,,,76,151681,19,Female,1,2024/02/22_12:29:19,YZ,None,
,,,,,,practice_main,0,3,3,583,10,V,0,right,0.8060795099881943,1,0,,,,,,,,,,,,,,,,,,,,,1,,,,,,,,,,,,,,,,,,,,,,,,,,,,,,,,,,,,,,,,,,,,,,76,151681,19,Female,1,2024/02/22_12:29:19,YZ,None,
,,,,,,practice_main,0,3,3,583,11,X,1,right,0.6745778959884774,0,0,,,,,,,,,,,,,,,,,,,,,1,,,,,,,,,,,,,,,,,,,,,,,,,,,,,,,,,,,,,,,,,,,,,,76,151681,19,Female,1,2024/02/22_12:29:19,YZ,None,
,,,,,,practice_main,0,3,3,583,12,N,0,right,0.9455797679838724,1,0,,,,,,,,,,,,,,,,,,,,,1,,,,,,,,,,,,,,,,,,,,,,,,,,,,,,,,,,,,,,,,,,,,,,76,151681,19,Female,1,2024/02/22_12:29:19,YZ,None,
,,,,,,practice_main,0,3,3,583,13,Q,0,right,0.6916891210130416,1,0,,,,,,,,,,,,,,,,,,,,,1,,,,,,,,,,,,,,,,,,,,,,,,,,,,,,,,,,,,,,,,,,,,,,76,151681,19,Female,1,2024/02/22_12:29:19,YZ,None,
,,,,,,practice_main,0,3,3,583,14,X,1,right,0.2916559440200217,0,0,,,,,,,,,,,,,,,,,,,,,1,,,,,,,,,,,,,,,,,,,,,,,,,,,,,,,,,,,,,,,,,,,,,,76,151681,19,Female,1,2024/02/22_12:29:19,YZ,None,
,,,,,,practice_main,0,3,3,583,15,F,0,right,0.4215420160035137,1,0,,,,,,,,,,,,,,,,,,,,,1,,,,,,,,,,,,,,,,,,,,,,,,,,,,,,,,,,,,,,,,,,,,,,76,151681,19,Female,1,2024/02/22_12:29:19,YZ,None,
,,,,,,practice_main,0,3,3,583,,,,,,,,0.835,0.6,0.1,0.9,0.0,0.9,0.6079403013999884,3,1,0,0,0,9,12,5,10,0,,,,1,,,,,,,,,,,,,,,,,,,,,,,,,,,,,,,,,,,,,,,,,,,,,,76,151681,19,Female,1,2024/02/22_12:29:19,YZ,None,
,,,,,240222_143107,PRACTICE,0,3,3,583,,,,,,,,,,,,,,,,,,,,,,,,,,,,1,25,3,3,cue1.png,hard,B,84,0.7806045349861961,0,840.2730869079824,841.070906634006,,,,,,,,,,,,,,,,,,,,,,,,,,,,,,,,,,,76,151681,19,Female,1,2024/02/22_12:29:19,YZ,None,
-1,./instructions/inst_prac_end/Slide56.png,left,21.084933667007135,865.7167912099976,886.8017248770047,,,,,,,,,,,,,,,,,,,,,,,,,,,,,,,,,1,,,,,,,,,,,,,,,,,,,,,,,,,,,,,,,,,,,,,,,,,,,,,,76,151681,19,Female,1,2024/02/22_12:29:19,YZ,None,
1,./instructions/inst_test/Slide57.png,right,37.07061087200418,886.8348199629982,923.9054308350023,,,,,,,,,,,,,,,,,,,,,,,,,,,,,,,,,1,,,,,,,,,,,,,,,,,,,,,,,,,,,,,,,,,,,,,,,,,,,,,,76,151681,19,Female,1,2024/02/22_12:29:19,YZ,None,
,,,,,,test,1,1,1,583,1,X,0,right,0.8244251110008918,1,0,,,,,,,,,,,,,,,,,,,,,1,,,,,,,,,,,,,,,,,,,,,,,,,,,,,,,,,,,,,,,,,,,,,,76,151681,19,Female,1,2024/02/22_12:29:19,YZ,None,
,,,,,,test,1,1,1,583,2,X,1,left,0.38793280700338073,1,0,,,,,,,,,,,,,,,,,,,,,1,,,,,,,,,,,,,,,,,,,,,,,,,,,,,,,,,,,,,,,,,,,,,,76,151681,19,Female,1,2024/02/22_12:29:19,YZ,None,
,,,,,,test,1,1,1,583,3,J,0,right,0.3361299239913933,1,0,,,,,,,,,,,,,,,,,,,,,1,,,,,,,,,,,,,,,,,,,,,,,,,,,,,,,,,,,,,,,,,,,,,,76,151681,19,Female,1,2024/02/22_12:29:19,YZ,None,
,,,,,,test,1,1,1,583,4,X,0,right,0.30467087699798867,1,0,,,,,,,,,,,,,,,,,,,,,1,,,,,,,,,,,,,,,,,,,,,,,,,,,,,,,,,,,,,,,,,,,,,,76,151681,19,Female,1,2024/02/22_12:29:19,YZ,None,
,,,,,,test,1,1,1,583,5,Q,0,right,0.37332952200085856,1,0,,,,,,,,,,,,,,,,,,,,,1,,,,,,,,,,,,,,,,,,,,,,,,,,,,,,,,,,,,,,,,,,,,,,76,151681,19,Female,1,2024/02/22_12:29:19,YZ,None,
,,,,,,test,1,1,1,583,6,Q,1,left,0.36056060600094497,1,0,,,,,,,,,,,,,,,,,,,,,1,,,,,,,,,,,,,,,,,,,,,,,,,,,,,,,,,,,,,,,,,,,,,,76,151681,19,Female,1,2024/02/22_12:29:19,YZ,None,
,,,,,,test,1,1,1,583,7,N,0,right,0.29746461400645785,1,0,,,,,,,,,,,,,,,,,,,,,1,,,,,,,,,,,,,,,,,,,,,,,,,,,,,,,,,,,,,,,,,,,,,,76,151681,19,Female,1,2024/02/22_12:29:19,YZ,None,
,,,,,,test,1,1,1,583,8,S,0,right,0.2895550719986204,1,0,,,,,,,,,,,,,,,,,,,,,1,,,,,,,,,,,,,,,,,,,,,,,,,,,,,,,,,,,,,,,,,,,,,,76,151681,19,Female,1,2024/02/22_12:29:19,YZ,None,
,,,,,,test,1,1,1,583,9,N,0,right,0.4128581819823012,1,0,,,,,,,,,,,,,,,,,,,,,1,,,,,,,,,,,,,,,,,,,,,,,,,,,,,,,,,,,,,,,,,,,,,,76,151681,19,Female,1,2024/02/22_12:29:19,YZ,None,
,,,,,,test,1,1,1,583,10,S,0,right,0.5458389349805657,1,0,,,,,,,,,,,,,,,,,,,,,1,,,,,,,,,,,,,,,,,,,,,,,,,,,,,,,,,,,,,,,,,,,,,,76,151681,19,Female,1,2024/02/22_12:29:19,YZ,None,
,,,,,,test,1,1,1,583,11,S,1,left,0.39765604698914103,1,0,,,,,,,,,,,,,,,,,,,,,1,,,,,,,,,,,,,,,,,,,,,,,,,,,,,,,,,,,,,,,,,,,,,,76,151681,19,Female,1,2024/02/22_12:29:19,YZ,None,
,,,,,,test,1,1,1,583,12,Q,0,right,0.23386729098274373,1,0,,,,,,,,,,,,,,,,,,,,,1,,,,,,,,,,,,,,,,,,,,,,,,,,,,,,,,,,,,,,,,,,,,,,76,151681,19,Female,1,2024/02/22_12:29:19,YZ,None,
,,,,,,test,1,1,1,583,13,F,0,right,0.3290242929942906,1,0,,,,,,,,,,,,,,,,,,,,,1,,,,,,,,,,,,,,,,,,,,,,,,,,,,,,,,,,,,,,,,,,,,,,76,151681,19,Female,1,2024/02/22_12:29:19,YZ,None,
,,,,,,test,1,1,1,583,14,C,0,right,0.5565981749969069,1,0,,,,,,,,,,,,,,,,,,,,,1,,,,,,,,,,,,,,,,,,,,,,,,,,,,,,,,,,,,,,,,,,,,,,76,151681,19,Female,1,2024/02/22_12:29:19,YZ,None,
,,,,,,test,1,1,1,583,15,C,1,left,0.45187827199697495,1,0,,,,,,,,,,,,,,,,,,,,,1,,,,,,,,,,,,,,,,,,,,,,,,,,,,,,,,,,,,,,,,,,,,,,76,151681,19,Female,1,2024/02/22_12:29:19,YZ,None,
,,,,,,Test,1,1,1,583,,,,,,,,1.0,1.0,0.0,1.0,0.0,1.0,0.406785981861564,4,0,0,0,0,11,15,4,11,0,,,,1,,,,,,,,,,,,,,,,,,,,,,,,,,,,,,,,,,,,,,,,,,,,,,76,151681,19,Female,1,2024/02/22_12:29:19,YZ,None,
,,,,,240222_143233,TEST,1,1,1,583,,,,,,,,,,,,,,,,,,,,,,,,,,,,1,1,1,1,cue2.png,easy,B,6,1.2891579999995884,0,928.9590467439848,930.2686909759941,,,,,,,,,,,,,,,,,,,,,,,,,,,,,,,,,,,76,151681,19,Female,1,2024/02/22_12:29:19,YZ,None,
,,,,,,test,1,2,3,583,1,V,0,right,0.4314304259896744,1,0,,,,,,,,,,,,,,,,,,,,,1,,,,,,,,,,,,,,,,,,,,,,,,,,,,,,,,,,,,,,,,,,,,,,76,151681,19,Female,1,2024/02/22_12:29:19,YZ,None,
,,,,,,test,1,2,3,583,2,V,0,right,0.37701674801064655,1,0,,,,,,,,,,,,,,,,,,,,,1,,,,,,,,,,,,,,,,,,,,,,,,,,,,,,,,,,,,,,,,,,,,,,76,151681,19,Female,1,2024/02/22_12:29:19,YZ,None,
,,,,,,test,1,2,3,583,3,J,0,right,0.34119234001263976,1,0,,,,,,,,,,,,,,,,,,,,,1,,,,,,,,,,,,,,,,,,,,,,,,,,,,,,,,,,,,,,,,,,,,,,76,151681,19,Female,1,2024/02/22_12:29:19,YZ,None,
,,,,,,test,1,2,3,583,4,V,1,left,0.4252177659946028,1,0,,,,,,,,,,,,,,,,,,,,,1,,,,,,,,,,,,,,,,,,,,,,,,,,,,,,,,,,,,,,,,,,,,,,76,151681,19,Female,1,2024/02/22_12:29:19,YZ,None,
,,,,,,test,1,2,3,583,5,X,0,right,0.4410205250023864,1,0,,,,,,,,,,,,,,,,,,,,,1,,,,,,,,,,,,,,,,,,,,,,,,,,,,,,,,,,,,,,,,,,,,,,76,151681,19,Female,1,2024/02/22_12:29:19,YZ,None,
,,,,,,test,1,2,3,583,6,S,0,right,0.417626612004824,1,0,,,,,,,,,,,,,,,,,,,,,1,,,,,,,,,,,,,,,,,,,,,,,,,,,,,,,,,,,,,,,,,,,,,,76,151681,19,Female,1,2024/02/22_12:29:19,YZ,None,
,,,,,,test,1,2,3,583,7,F,0,right,0.3677274220099207,1,0,,,,,,,,,,,,,,,,,,,,,1,,,,,,,,,,,,,,,,,,,,,,,,,,,,,,,,,,,,,,,,,,,,,,76,151681,19,Female,1,2024/02/22_12:29:19,YZ,None,
,,,,,,test,1,2,3,583,8,X,1,left,0.4610785350087099,1,0,,,,,,,,,,,,,,,,,,,,,1,,,,,,,,,,,,,,,,,,,,,,,,,,,,,,,,,,,,,,,,,,,,,,76,151681,19,Female,1,2024/02/22_12:29:19,YZ,None,
,,,,,,test,1,2,3,583,9,S,1,right,0.3490732849750202,0,0,,,,,,,,,,,,,,,,,,,,,1,,,,,,,,,,,,,,,,,,,,,,,,,,,,,,,,,,,,,,,,,,,,,,76,151681,19,Female,1,2024/02/22_12:29:19,YZ,None,
,,,,,,test,1,2,3,583,10,S,0,right,0.45000822001020424,1,0,,,,,,,,,,,,,,,,,,,,,1,,,,,,,,,,,,,,,,,,,,,,,,,,,,,,,,,,,,,,,,,,,,,,76,151681,19,Female,1,2024/02/22_12:29:19,YZ,None,
,,,,,,test,1,2,3,583,11,X,1,left,0.23723834299016744,1,0,,,,,,,,,,,,,,,,,,,,,1,,,,,,,,,,,,,,,,,,,,,,,,,,,,,,,,,,,,,,,,,,,,,,76,151681,19,Female,1,2024/02/22_12:29:19,YZ,None,
,,,,,,test,1,2,3,583,12,C,0,right,0.3438680800027214,1,0,,,,,,,,,,,,,,,,,,,,,1,,,,,,,,,,,,,,,,,,,,,,,,,,,,,,,,,,,,,,,,,,,,,,76,151681,19,Female,1,2024/02/22_12:29:19,YZ,None,
,,,,,,test,1,2,3,583,13,V,0,right,0.36096886900486425,1,0,,,,,,,,,,,,,,,,,,,,,1,,,,,,,,,,,,,,,,,,,,,,,,,,,,,,,,,,,,,,,,,,,,,,76,151681,19,Female,1,2024/02/22_12:29:19,YZ,None,
,,,,,,test,1,2,3,583,14,C,0,right,0.4848869220004417,1,0,,,,,,,,,,,,,,,,,,,,,1,,,,,,,,,,,,,,,,,,,,,,,,,,,,,,,,,,,,,,,,,,,,,,76,151681,19,Female,1,2024/02/22_12:29:19,YZ,None,
,,,,,,test,1,2,3,583,15,J,0,left,0.6615984730015043,0,0,,,,,,,,,,,,,,,,,,,,,1,,,,,,,,,,,,,,,,,,,,,,,,,,,,,,,,,,,,,,,,,,,,,,76,151681,19,Female,1,2024/02/22_12:29:19,YZ,None,
,,,,,,Test,1,2,3,583,,,,,,,,0.8920454545454546,0.75,0.09090909090909091,0.9090909090909091,0.0,0.9090909090909091,0.4099968377345552,3,1,0,0,0,10,13,4,11,0,,,,1,,,,,,,,,,,,,,,,,,,,,,,,,,,,,,,,,,,,,,,,,,,,,,76,151681,19,Female,1,2024/02/22_12:29:19,YZ,None,
,,,,,240222_143257,TEST,1,2,3,583,,,,,,,,,,,,,,,,,,,,,,,,,,,,1,2,2,2,cue1.png,hard,B,75,0.6185250970011111,0,953.3593546469929,953.9941241749912,,,,,,,,,,,,,,,,,,,,,,,,,,,,,,,,,,,76,151681,19,Female,1,2024/02/22_12:29:19,YZ,None,
,,,,,,test,1,3,3,583,1,N,0,right,0.4234039429866243,1,0,,,,,,,,,,,,,,,,,,,,,1,,,,,,,,,,,,,,,,,,,,,,,,,,,,,,,,,,,,,,,,,,,,,,76,151681,19,Female,1,2024/02/22_12:29:19,YZ,None,
,,,,,,test,1,3,3,583,2,X,0,right,0.909874814999057,1,0,,,,,,,,,,,,,,,,,,,,,1,,,,,,,,,,,,,,,,,,,,,,,,,,,,,,,,,,,,,,,,,,,,,,76,151681,19,Female,1,2024/02/22_12:29:19,YZ,None,
,,,,,,test,1,3,3,583,3,C,0,right,0.572529952012701,1,0,,,,,,,,,,,,,,,,,,,,,1,,,,,,,,,,,,,,,,,,,,,,,,,,,,,,,,,,,,,,,,,,,,,,76,151681,19,Female,1,2024/02/22_12:29:19,YZ,None,
,,,,,,test,1,3,3,583,4,V,0,left,0.3834630690107588,0,0,,,,,,,,,,,,,,,,,,,,,1,,,,,,,,,,,,,,,,,,,,,,,,,,,,,,,,,,,,,,,,,,,,,,76,151681,19,Female,1,2024/02/22_12:29:19,YZ,None,
,,,,,,test,1,3,3,583,5,S,0,right,0.3989844309980981,1,0,,,,,,,,,,,,,,,,,,,,,1,,,,,,,,,,,,,,,,,,,,,,,,,,,,,,,,,,,,,,,,,,,,,,76,151681,19,Female,1,2024/02/22_12:29:19,YZ,None,
,,,,,,test,1,3,3,583,6,C,1,right,0.40519350601243787,0,0,,,,,,,,,,,,,,,,,,,,,1,,,,,,,,,,,,,,,,,,,,,,,,,,,,,,,,,,,,,,,,,,,,,,76,151681,19,Female,1,2024/02/22_12:29:19,YZ,None,
,,,,,,test,1,3,3,583,7,V,1,left,0.6262660560023505,1,0,,,,,,,,,,,,,,,,,,,,,1,,,,,,,,,,,,,,,,,,,,,,,,,,,,,,,,,,,,,,,,,,,,,,76,151681,19,Female,1,2024/02/22_12:29:19,YZ,None,
,,,,,,test,1,3,3,583,8,V,0,right,0.24005419100285508,1,0,,,,,,,,,,,,,,,,,,,,,1,,,,,,,,,,,,,,,,,,,,,,,,,,,,,,,,,,,,,,,,,,,,,,76,151681,19,Female,1,2024/02/22_12:29:19,YZ,None,
,,,,,,test,1,3,3,583,9,F,0,right,0.65723455499392,1,0,,,,,,,,,,,,,,,,,,,,,1,,,,,,,,,,,,,,,,,,,,,,,,,,,,,,,,,,,,,,,,,,,,,,76,151681,19,Female,1,2024/02/22_12:29:19,YZ,None,
,,,,,,test,1,3,3,583,10,V,1,left,0.3040178129740525,1,0,,,,,,,,,,,,,,,,,,,,,1,,,,,,,,,,,,,,,,,,,,,,,,,,,,,,,,,,,,,,,,,,,,,,76,151681,19,Female,1,2024/02/22_12:29:19,YZ,None,
,,,,,,test,1,3,3,583,11,V,1,right,0.5497270979976747,0,0,,,,,,,,,,,,,,,,,,,,,1,,,,,,,,,,,,,,,,,,,,,,,,,,,,,,,,,,,,,,,,,,,,,,76,151681,19,Female,1,2024/02/22_12:29:19,YZ,None,
,,,,,,test,1,3,3,583,12,Q,0,left,0.43614348900155164,0,0,,,,,,,,,,,,,,,,,,,,,1,,,,,,,,,,,,,,,,,,,,,,,,,,,,,,,,,,,,,,,,,,,,,,76,151681,19,Female,1,2024/02/22_12:29:19,YZ,None,
,,,,,,test,1,3,3,583,13,F,0,right,0.6615833250107244,1,0,,,,,,,,,,,,,,,,,,,,,1,,,,,,,,,,,,,,,,,,,,,,,,,,,,,,,,,,,,,,,,,,,,,,76,151681,19,Female,1,2024/02/22_12:29:19,YZ,None,
,,,,,,test,1,3,3,583,14,J,0,right,0.4738501929969061,1,0,,,,,,,,,,,,,,,,,,,,,1,,,,,,,,,,,,,,,,,,,,,,,,,,,,,,,,,,,,,,,,,,,,,,76,151681,19,Female,1,2024/02/22_12:29:19,YZ,None,
,,,,,,test,1,3,3,583,15,J,0,right,0.5770029560080729,1,0,,,,,,,,,,,,,,,,,,,,,1,,,,,,,,,,,,,,,,,,,,,,,,,,,,,,,,,,,,,,,,,,,,,,76,151681,19,Female,1,2024/02/22_12:29:19,YZ,None,
,,,,,,Test,1,3,3,583,,,,,,,,0.7386363636363636,0.5,0.18181818181818182,0.8181818181818182,0.0,0.8181818181818181,0.507955292800519,2,2,0,0,0,9,11,4,11,0,,,,1,,,,,,,,,,,,,,,,,,,,,,,,,,,,,,,,,,,,,,,,,,,,,,76,151681,19,Female,1,2024/02/22_12:29:19,YZ,None,
,,,,,240222_143322,TEST,1,3,3,583,,,,,,,,,,,,,,,,,,,,,,,,,,,,1,3,3,3,cue1.png,hard,B,82,0.6480550849810243,0,977.121676521987,977.7862666370056,,,,,,,,,,,,,,,,,,,,,,,,,,,,,,,,,,,76,151681,19,Female,1,2024/02/22_12:29:19,YZ,None,
,,,,,,test,1,4,3,583,1,X,0,right,0.5754871699900832,1,0,,,,,,,,,,,,,,,,,,,,,1,,,,,,,,,,,,,,,,,,,,,,,,,,,,,,,,,,,,,,,,,,,,,,76,151681,19,Female,1,2024/02/22_12:29:19,YZ,None,
,,,,,,test,1,4,3,583,2,C,0,right,0.27718848100630566,1,0,,,,,,,,,,,,,,,,,,,,,1,,,,,,,,,,,,,,,,,,,,,,,,,,,,,,,,,,,,,,,,,,,,,,76,151681,19,Female,1,2024/02/22_12:29:19,YZ,None,
,,,,,,test,1,4,3,583,3,J,0,right,0.29035184101667255,1,0,,,,,,,,,,,,,,,,,,,,,1,,,,,,,,,,,,,,,,,,,,,,,,,,,,,,,,,,,,,,,,,,,,,,76,151681,19,Female,1,2024/02/22_12:29:19,YZ,None,
,,,,,,test,1,4,3,583,4,C,0,right,0.3623613179952372,1,0,,,,,,,,,,,,,,,,,,,,,1,,,,,,,,,,,,,,,,,,,,,,,,,,,,,,,,,,,,,,,,,,,,,,76,151681,19,Female,1,2024/02/22_12:29:19,YZ,None,
,,,,,,test,1,4,3,583,5,C,1,left,0.647441612003604,1,0,,,,,,,,,,,,,,,,,,,,,1,,,,,,,,,,,,,,,,,,,,,,,,,,,,,,,,,,,,,,,,,,,,,,76,151681,19,Female,1,2024/02/22_12:29:19,YZ,None,
,,,,,,test,1,4,3,583,6,S,0,right,0.381290060991887,1,0,,,,,,,,,,,,,,,,,,,,,1,,,,,,,,,,,,,,,,,,,,,,,,,,,,,,,,,,,,,,,,,,,,,,76,151681,19,Female,1,2024/02/22_12:29:19,YZ,None,
,,,,,,test,1,4,3,583,7,X,0,left,0.512435104988981,0,0,,,,,,,,,,,,,,,,,,,,,1,,,,,,,,,,,,,,,,,,,,,,,,,,,,,,,,,,,,,,,,,,,,,,76,151681,19,Female,1,2024/02/22_12:29:19,YZ,None,
,,,,,,test,1,4,3,583,8,C,1,right,0.4478483629936818,0,0,,,,,,,,,,,,,,,,,,,,,1,,,,,,,,,,,,,,,,,,,,,,,,,,,,,,,,,,,,,,,,,,,,,,76,151681,19,Female,1,2024/02/22_12:29:19,YZ,None,
,,,,,,test,1,4,3,583,9,S,1,right,0.4769787919940427,0,0,,,,,,,,,,,,,,,,,,,,,1,,,,,,,,,,,,,,,,,,,,,,,,,,,,,,,,,,,,,,,,,,,,,,76,151681,19,Female,1,2024/02/22_12:29:19,YZ,None,
,,,,,,test,1,4,3,583,10,F,0,right,0.372880245995475,1,0,,,,,,,,,,,,,,,,,,,,,1,,,,,,,,,,,,,,,,,,,,,,,,,,,,,,,,,,,,,,,,,,,,,,76,151681,19,Female,1,2024/02/22_12:29:19,YZ,None,
,,,,,,test,1,4,3,583,11,F,0,left,0.5652574319974519,0,0,,,,,,,,,,,,,,,,,,,,,1,,,,,,,,,,,,,,,,,,,,,,,,,,,,,,,,,,,,,,,,,,,,,,76,151681,19,Female,1,2024/02/22_12:29:19,YZ,None,
,,,,,,test,1,4,3,583,12,C,0,right,0.38071447901893407,1,0,,,,,,,,,,,,,,,,,,,,,1,,,,,,,,,,,,,,,,,,,,,,,,,,,,,,,,,,,,,,,,,,,,,,76,151681,19,Female,1,2024/02/22_12:29:19,YZ,None,
,,,,,,test,1,4,3,583,13,F,1,right,0.2833173489780165,0,0,,,,,,,,,,,,,,,,,,,,,1,,,,,,,,,,,,,,,,,,,,,,,,,,,,,,,,,,,,,,,,,,,,,,76,151681,19,Female,1,2024/02/22_12:29:19,YZ,None,
,,,,,,test,1,4,3,583,14,C,0,right,0.46412308598519303,1,0,,,,,,,,,,,,,,,,,,,,,1,,,,,,,,,,,,,,,,,,,,,,,,,,,,,,,,,,,,,,,,,,,,,,76,151681,19,Female,1,2024/02/22_12:29:19,YZ,None,
,,,,,,test,1,4,3,583,15,S,0,left,0.5899423689988907,0,0,,,,,,,,,,,,,,,,,,,,,1,,,,,,,,,,,,,,,,,,,,,,,,,,,,,,,,,,,,,,,,,,,,,,76,151681,19,Female,1,2024/02/22_12:29:19,YZ,None,
,,,,,,Test,1,4,3,583,,,,,,,,0.015151515151515138,0.25,0.2727272727272727,0.7272727272727273,0.0,0.7272727272727273,0.44184118026363045,1,3,0,0,0,8,9,4,11,0,,,,1,,,,,,,,,,,,,,,,,,,,,,,,,,,,,,,,,,,,,,,,,,,,,,76,151681,19,Female,1,2024/02/22_12:29:19,YZ,None,
,,,,,240222_143348,TEST,1,4,3,583,,,,,,,,,,,,,,,,,,,,,,,,,,,,1,4,4,4,cue1.png,hard,B,82,2.045854355994379,0,1002.4063356529805,1004.4639965719834,,,,,,,,,,,,,,,,,,,,,,,,,,,,,,,,,,,76,151681,19,Female,1,2024/02/22_12:29:19,YZ,None,
,,,,,,test,1,5,1,583,1,X,0,right,0.40148396100266837,1,0,,,,,,,,,,,,,,,,,,,,,1,,,,,,,,,,,,,,,,,,,,,,,,,,,,,,,,,,,,,,,,,,,,,,76,151681,19,Female,1,2024/02/22_12:29:19,YZ,None,
