Instruction,Stimulus,Key,RT,START,END,Phase,Block,TrialN,NbackLevel,ISI,LetterN,Letter,Letter_isSame,Letter_Resp,Letter_RT,Letter_Accuracy,Letter_Timeout,Trial_A_measure,Trial_HR,Trial_FAR,Trial_CDR,Trial_MSR,Trial_ACC,Trial_RT,Trial_HitsCount,Trial_FAsCount,Trial_SameNoRespCount,Trial_DiffNoRespCount,Trial_NoRespCount,Trial_CDsCount,Trial_CorrectRespCount,Trial_SameLetterCount,Trial_DiffLetterCount,Trial_InvalidLetterCount,TrialCountCali,CaliEnd_A_measure,ISI_calibrated,Run,TrialIndex,TrialNumber_total,TrialNumber_valid,CueLearning,TrialDemandLearning,CueMapping,OnlineRating,OnlineRatingRT,OnlineRatingTimeOut,CueSTART,RatingSTART,OfflineRatingTimePoint,OfflineRatingQuesIndex,CueFigure,TrialDemand,OfflineRating,OfflineRatingRT,CueStart,OfflineRatingStart,PhaseType,CueLeft,CueDemandLeft,CueRight,CueDemandRight,Choice,ChoiceDemand,TaskDemand,ChoiceRT,ChoiceTimeOut,ChoiceSTART,CueCheck,CueDemandCheck,CorrectAnswer,Answer,AnswerDemand,AnswerRT,AnswerACC,AnswerTimeOut,CheckSTART,DemandRatingQuesIndex,QuesTLX,DemandLevel,DemandRating,DemandRatingRT,QuesStart,PID,SONA,Age,Gender,Run,TIME,EXPERIMENTER,frameRate,
1,./instructions/inst_begin/Slide2.png,right,31.22063225499005,0.25943408501916565,31.480066340009216,,,,,,,,,,,,,,,,,,,,,,,,,,,,,,,,,1,,,,,,,,,,,,,,,,,,,,,,,,,,,,,,,,,,,,,,,,,,,,,,118,157549,19,Female,1,2024/03/25_08:50:32,YZ,None,
2,./instructions/inst_begin/Slide3.png,right,17.17724679701496,31.550792624999303,48.72803942201426,,,,,,,,,,,,,,,,,,,,,,,,,,,,,,,,,1,,,,,,,,,,,,,,,,,,,,,,,,,,,,,,,,,,,,,,,,,,,,,,118,157549,19,Female,1,2024/03/25_08:50:32,YZ,None,
3,./instructions/inst_begin/Slide4.png,right,23.3061458140146,48.75809926100192,72.06424507501652,,,,,,,,,,,,,,,,,,,,,,,,,,,,,,,,,1,,,,,,,,,,,,,,,,,,,,,,,,,,,,,,,,,,,,,,,,,,,,,,118,157549,19,Female,1,2024/03/25_08:50:32,YZ,None,
1,./instructions/inst_prac_2/Slide6.png,right,26.976562226976966,72.1514576980262,99.12801992500317,,,,,,,,,,,,,,,,,,,,,,,,,,,,,,,,,1,,,,,,,,,,,,,,,,,,,,,,,,,,,,,,,,,,,,,,,,,,,,,,118,157549,19,Female,1,2024/03/25_08:50:32,YZ,None,
2,./instructions/inst_prac_2/Slide7.png,right,23.256439548014896,99.17565229500178,122.43209184301668,,,,,,,,,,,,,,,,,,,,,,,,,,,,,,,,,1,,,,,,,,,,,,,,,,,,,,,,,,,,,,,,,,,,,,,,,,,,,,,,118,157549,19,Female,1,2024/03/25_08:50:32,YZ,None,
3,./instructions/inst_prac_2/Slide8.png,right,20.917057423997903,122.49908334200154,143.41614076599944,,,,,,,,,,,,,,,,,,,,,,,,,,,,,,,,,1,,,,,,,,,,,,,,,,,,,,,,,,,,,,,,,,,,,,,,,,,,,,,,118,157549,19,Female,1,2024/03/25_08:50:32,YZ,None,
4,./instructions/inst_prac_2/Slide9.png,right,9.650047464994714,143.454095136025,153.1041426010197,,,,,,,,,,,,,,,,,,,,,,,,,,,,,,,,,1,,,,,,,,,,,,,,,,,,,,,,,,,,,,,,,,,,,,,,,,,,,,,,118,157549,19,Female,1,2024/03/25_08:50:32,YZ,None,
5,./instructions/inst_prac_2/Slide10.png,right,7.793394687003456,153.14267018801183,160.9360648750153,,,,,,,,,,,,,,,,,,,,,,,,,,,,,,,,,1,,,,,,,,,,,,,,,,,,,,,,,,,,,,,,,,,,,,,,,,,,,,,,118,157549,19,Female,1,2024/03/25_08:50:32,YZ,None,
6,./instructions/inst_prac_2/Slide11.png,right,3.608465541008627,160.97561588400276,164.5840814250114,,,,,,,,,,,,,,,,,,,,,,,,,,,,,,,,,1,,,,,,,,,,,,,,,,,,,,,,,,,,,,,,,,,,,,,,,,,,,,,,118,157549,19,Female,1,2024/03/25_08:50:32,YZ,None,
7,./instructions/inst_prac_2/Slide12.png,right,2.4658828059909865,164.61425652101752,167.0801393270085,,,,,,,,,,,,,,,,,,,,,,,,,,,,,,,,,1,,,,,,,,,,,,,,,,,,,,,,,,,,,,,,,,,,,,,,,,,,,,,,118,157549,19,Female,1,2024/03/25_08:50:32,YZ,None,
8,./instructions/inst_prac_2/Slide13.png,right,2.986848121014191,167.10917424800573,170.09602236901992,,,,,,,,,,,,,,,,,,,,,,,,,,,,,,,,,1,,,,,,,,,,,,,,,,,,,,,,,,,,,,,,,,,,,,,,,,,,,,,,118,157549,19,Female,1,2024/03/25_08:50:32,YZ,None,
9,./instructions/inst_prac_2/Slide14.png,right,25.645141732005868,170.1229833550169,195.76812508702278,,,,,,,,,,,,,,,,,,,,,,,,,,,,,,,,,1,,,,,,,,,,,,,,,,,,,,,,,,,,,,,,,,,,,,,,,,,,,,,,118,157549,19,Female,1,2024/03/25_08:50:32,YZ,None,
10,./instructions/inst_prac_2/Slide15.png,right,23.257949399994686,195.79805501701776,219.05600441701245,,,,,,,,,,,,,,,,,,,,,,,,,,,,,,,,,1,,,,,,,,,,,,,,,,,,,,,,,,,,,,,,,,,,,,,,,,,,,,,,118,157549,19,Female,1,2024/03/25_08:50:32,YZ,None,
,,,,,,practice,0,36,2,2583,1,X,0,right,7.0670068449981045,1,0,,,,,,,,,,,,,,,,,,,,,1,,,,,,,,,,,,,,,,,,,,,,,,,,,,,,,,,,,,,,,,,,,,,,118,157549,19,Female,1,2024/03/25_08:50:32,YZ,None,
,,,,,,practice,0,36,2,2583,2,V,0,right,3.014152543997625,1,0,,,,,,,,,,,,,,,,,,,,,1,,,,,,,,,,,,,,,,,,,,,,,,,,,,,,,,,,,,,,,,,,,,,,118,157549,19,Female,1,2024/03/25_08:50:32,YZ,None,
,,,,,,practice,0,36,2,2583,3,X,1,left,1.284138442017138,1,0,,,,,,,,,,,,,,,,,,,,,1,,,,,,,,,,,,,,,,,,,,,,,,,,,,,,,,,,,,,,,,,,,,,,118,157549,19,Female,1,2024/03/25_08:50:32,YZ,None,
,,,,,,practice,0,36,2,2583,4,V,1,left,1.2283800849982072,1,0,,,,,,,,,,,,,,,,,,,,,1,,,,,,,,,,,,,,,,,,,,,,,,,,,,,,,,,,,,,,,,,,,,,,118,157549,19,Female,1,2024/03/25_08:50:32,YZ,None,
,,,,,,practice,0,36,2,2583,5,N,0,right,1.0914491950243246,1,0,,,,,,,,,,,,,,,,,,,,,1,,,,,,,,,,,,,,,,,,,,,,,,,,,,,,,,,,,,,,,,,,,,,,118,157549,19,Female,1,2024/03/25_08:50:32,YZ,None,
,,,,,,practice,0,36,2,2583,6,F,0,right,0.9979558469785843,1,0,,,,,,,,,,,,,,,,,,,,,1,,,,,,,,,,,,,,,,,,,,,,,,,,,,,,,,,,,,,,,,,,,,,,118,157549,19,Female,1,2024/03/25_08:50:32,YZ,None,
,,,,,,practice,0,36,2,2583,,,,,,,,1.0,1.0,0.0,1.0,0.0,1.0,2.4471804930023304,2,0,0,0,0,4,6,2,4,0,,,,1,,,,,,,,,,,,,,,,,,,,,,,,,,,,,,,,,,,,,,,,,,,,,,118,157549,19,Female,1,2024/03/25_08:50:32,YZ,None,
1,./instructions/inst_to_cali/Slide20.png,right,10.282285971014062,240.1577342840028,250.44002025501686,,,,,,,,,,,,,,,,,,,,,,,,,,,,,,,,,1,,,,,,,,,,,,,,,,,,,,,,,,,,,,,,,,,,,,,,,,,,,,,,118,157549,19,Female,1,2024/03/25_08:50:32,YZ,None,
1,./instructions/inst_cali/Slide22.png,right,29.054886161989998,250.48120499702054,279.53609115901054,,,,,,,,,,,,,,,,,,,,,,,,,,,,,,,,,1,,,,,,,,,,,,,,,,,,,,,,,,,,,,,,,,,,,,,,,,,,,,,,118,157549,19,Female,1,2024/03/25_08:50:32,YZ,None,
,,,,,,calibration,0,25,2,583,1,N,0,left,0.9792311639757827,0,0,,,,,,,,,,,,,,,,,,,,,1,,,,,,,,,,,,,,,,,,,,,,,,,,,,,,,,,,,,,,,,,,,,,,118,157549,19,Female,1,2024/03/25_08:50:32,YZ,None,
,,,,,,calibration,0,25,2,583,2,X,0,right,0.9765620949910954,1,0,,,,,,,,,,,,,,,,,,,,,1,,,,,,,,,,,,,,,,,,,,,,,,,,,,,,,,,,,,,,,,,,,,,,118,157549,19,Female,1,2024/03/25_08:50:32,YZ,None,
,,,,,,calibration,0,25,2,583,3,S,0,right,0.512284191994695,1,0,,,,,,,,,,,,,,,,,,,,,1,,,,,,,,,,,,,,,,,,,,,,,,,,,,,,,,,,,,,,,,,,,,,,118,157549,19,Female,1,2024/03/25_08:50:32,YZ,None,
,,,,,,calibration,0,25,2,583,4,V,0,left,0.8577377460023854,0,0,,,,,,,,,,,,,,,,,,,,,1,,,,,,,,,,,,,,,,,,,,,,,,,,,,,,,,,,,,,,,,,,,,,,118,157549,19,Female,1,2024/03/25_08:50:32,YZ,None,
,,,,,,calibration,0,25,2,583,5,C,0,left,0.5627169259823859,0,0,,,,,,,,,,,,,,,,,,,,,1,,,,,,,,,,,,,,,,,,,,,,,,,,,,,,,,,,,,,,,,,,,,,,118,157549,19,Female,1,2024/03/25_08:50:32,YZ,None,
,,,,,,calibration,0,25,2,583,6,X,0,left,0.6147788319794927,0,0,,,,,,,,,,,,,,,,,,,,,1,,,,,,,,,,,,,,,,,,,,,,,,,,,,,,,,,,,,,,,,,,,,,,118,157549,19,Female,1,2024/03/25_08:50:32,YZ,None,
,,,,,,calibration,0,25,2,583,7,F,0,right,0.4838713680219371,1,0,,,,,,,,,,,,,,,,,,,,,1,,,,,,,,,,,,,,,,,,,,,,,,,,,,,,,,,,,,,,,,,,,,,,118,157549,19,Female,1,2024/03/25_08:50:32,YZ,None,
,,,,,,calibration,0,25,2,583,8,V,0,left,0.7196285389945842,0,0,,,,,,,,,,,,,,,,,,,,,1,,,,,,,,,,,,,,,,,,,,,,,,,,,,,,,,,,,,,,,,,,,,,,118,157549,19,Female,1,2024/03/25_08:50:32,YZ,None,
,,,,,,calibration,0,25,2,583,9,J,0,right,0.36406359999091364,1,0,,,,,,,,,,,,,,,,,,,,,1,,,,,,,,,,,,,,,,,,,,,,,,,,,,,,,,,,,,,,,,,,,,,,118,157549,19,Female,1,2024/03/25_08:50:32,YZ,None,
,,,,,,calibration,0,25,2,583,10,Q,0,right,0.5118927930016071,1,0,,,,,,,,,,,,,,,,,,,,,1,,,,,,,,,,,,,,,,,,,,,,,,,,,,,,,,,,,,,,,,,,,,,,118,157549,19,Female,1,2024/03/25_08:50:32,YZ,None,
,,,,,,calibration,0,25,2,583,11,J,1,right,0.46683685400057584,0,0,,,,,,,,,,,,,,,,,,,,,1,,,,,,,,,,,,,,,,,,,,,,,,,,,,,,,,,,,,,,,,,,,,,,118,157549,19,Female,1,2024/03/25_08:50:32,YZ,None,
,,,,,,calibration,0,25,2,583,12,Q,1,left,0.635527592006838,1,0,,,,,,,,,,,,,,,,,,,,,1,,,,,,,,,,,,,,,,,,,,,,,,,,,,,,,,,,,,,,,,,,,,,,118,157549,19,Female,1,2024/03/25_08:50:32,YZ,None,
,,,,,,calibration,0,25,2,583,13,X,0,left,0.5772727639996447,0,0,,,,,,,,,,,,,,,,,,,,,1,,,,,,,,,,,,,,,,,,,,,,,,,,,,,,,,,,,,,,,,,,,,,,118,157549,19,Female,1,2024/03/25_08:50:32,YZ,None,
,,,,,,calibration,0,25,2,583,14,Q,1,left,0.5825861080083996,1,0,,,,,,,,,,,,,,,,,,,,,1,,,,,,,,,,,,,,,,,,,,,,,,,,,,,,,,,,,,,,,,,,,,,,118,157549,19,Female,1,2024/03/25_08:50:32,YZ,None,
,,,,,,calibration,0,25,2,583,15,X,1,right,0.5586747160123195,0,0,,,,,,,,,,,,,,,,,,,,,1,,,,,,,,,,,,,,,,,,,,,,,,,,,,,,,,,,,,,,,,,,,,,,118,157549,19,Female,1,2024/03/25_08:50:32,YZ,None,
,,,,,,calibration,0,25,2,583,,,,,,,,0.011363636363636381,0.5,0.5454545454545454,0.45454545454545453,0.0,0.4545454545454546,0.6269110192641771,2,6,0,0,0,5,7,4,11,0,,,,1,,,,,,,,,,,,,,,,,,,,,,,,,,,,,,,,,,,,,,,,,,,,,,118,157549,19,Female,1,2024/03/25_08:50:32,YZ,None,
,,,,,,Calibration,0,,2,583,,,,,,,,,,,,,,,,,,,,,,,,,1,,,1,,,,,,,,,,,,,,,,,,,,,,,,,,,,,,,,,,,,,,,,,,,,,,118,157549,19,Female,1,2024/03/25_08:50:32,YZ,None,
,,,,,,calibration,0,20,2,679,1,F,0,left,0.4182507260120474,0,0,,,,,,,,,,,,,,,,,,,,,1,,,,,,,,,,,,,,,,,,,,,,,,,,,,,,,,,,,,,,,,,,,,,,118,157549,19,Female,1,2024/03/25_08:50:32,YZ,None,
,,,,,,calibration,0,20,2,679,2,C,0,right,1.1635815629852004,1,0,,,,,,,,,,,,,,,,,,,,,1,,,,,,,,,,,,,,,,,,,,,,,,,,,,,,,,,,,,,,,,,,,,,,118,157549,19,Female,1,2024/03/25_08:50:32,YZ,None,
,,,,,,calibration,0,20,2,679,3,N,0,right,0.45944691001204774,1,0,,,,,,,,,,,,,,,,,,,,,1,,,,,,,,,,,,,,,,,,,,,,,,,,,,,,,,,,,,,,,,,,,,,,118,157549,19,Female,1,2024/03/25_08:50:32,YZ,None,
,,,,,,calibration,0,20,2,679,4,C,1,left,0.5389019649883267,1,0,,,,,,,,,,,,,,,,,,,,,1,,,,,,,,,,,,,,,,,,,,,,,,,,,,,,,,,,,,,,,,,,,,,,118,157549,19,Female,1,2024/03/25_08:50:32,YZ,None,
,,,,,,calibration,0,20,2,679,5,S,0,right,0.47400658298283815,1,0,,,,,,,,,,,,,,,,,,,,,1,,,,,,,,,,,,,,,,,,,,,,,,,,,,,,,,,,,,,,,,,,,,,,118,157549,19,Female,1,2024/03/25_08:50:32,YZ,None,
,,,,,,calibration,0,20,2,679,6,C,1,left,0.44481235099374317,1,0,,,,,,,,,,,,,,,,,,,,,1,,,,,,,,,,,,,,,,,,,,,,,,,,,,,,,,,,,,,,,,,,,,,,118,157549,19,Female,1,2024/03/25_08:50:32,YZ,None,
,,,,,,calibration,0,20,2,679,7,N,0,right,0.44480115600163117,1,0,,,,,,,,,,,,,,,,,,,,,1,,,,,,,,,,,,,,,,,,,,,,,,,,,,,,,,,,,,,,,,,,,,,,118,157549,19,Female,1,2024/03/25_08:50:32,YZ,None,
,,,,,,calibration,0,20,2,679,8,C,1,left,0.5431204689957667,1,0,,,,,,,,,,,,,,,,,,,,,1,,,,,,,,,,,,,,,,,,,,,,,,,,,,,,,,,,,,,,,,,,,,,,118,157549,19,Female,1,2024/03/25_08:50:32,YZ,None,
,,,,,,calibration,0,20,2,679,9,Q,0,right,0.4629486409830861,1,0,,,,,,,,,,,,,,,,,,,,,1,,,,,,,,,,,,,,,,,,,,,,,,,,,,,,,,,,,,,,,,,,,,,,118,157549,19,Female,1,2024/03/25_08:50:32,YZ,None,
,,,,,,calibration,0,20,2,679,10,F,0,right,0.6335077309922781,1,0,,,,,,,,,,,,,,,,,,,,,1,,,,,,,,,,,,,,,,,,,,,,,,,,,,,,,,,,,,,,,,,,,,,,118,157549,19,Female,1,2024/03/25_08:50:32,YZ,None,
,,,,,,calibration,0,20,2,679,11,Q,1,left,0.38509872800204903,1,0,,,,,,,,,,,,,,,,,,,,,1,,,,,,,,,,,,,,,,,,,,,,,,,,,,,,,,,,,,,,,,,,,,,,118,157549,19,Female,1,2024/03/25_08:50:32,YZ,None,
,,,,,,calibration,0,20,2,679,12,C,0,left,0.4723700229951646,0,0,,,,,,,,,,,,,,,,,,,,,1,,,,,,,,,,,,,,,,,,,,,,,,,,,,,,,,,,,,,,,,,,,,,,118,157549,19,Female,1,2024/03/25_08:50:32,YZ,None,
,,,,,,calibration,0,20,2,679,13,V,0,left,0.6642894340038765,0,0,,,,,,,,,,,,,,,,,,,,,1,,,,,,,,,,,,,,,,,,,,,,,,,,,,,,,,,,,,,,,,,,,,,,118,157549,19,Female,1,2024/03/25_08:50:32,YZ,None,
,,,,,,calibration,0,20,2,679,14,J,0,right,0.41598383901873603,1,0,,,,,,,,,,,,,,,,,,,,,1,,,,,,,,,,,,,,,,,,,,,,,,,,,,,,,,,,,,,,,,,,,,,,118,157549,19,Female,1,2024/03/25_08:50:32,YZ,None,
,,,,,,calibration,0,20,2,679,,,,,,,,0.925,1.0,0.3,0.7,0.0,0.7,0.5372228656404852,4,3,0,0,0,7,11,4,10,0,,,,1,,,,,,,,,,,,,,,,,,,,,,,,,,,,,,,,,,,,,,,,,,,,,,118,157549,19,Female,1,2024/03/25_08:50:32,YZ,None,
,,,,,,Calibration,0,,2,679,,,,,,,,,,,,,,,,,,,,,,,,,2,,,1,,,,,,,,,,,,,,,,,,,,,,,,,,,,,,,,,,,,,,,,,,,,,,118,157549,19,Female,1,2024/03/25_08:50:32,YZ,None,
,,,,,,calibration,0,8,2,583,1,J,0,right,0.7901305170089472,1,0,,,,,,,,,,,,,,,,,,,,,1,,,,,,,,,,,,,,,,,,,,,,,,,,,,,,,,,,,,,,,,,,,,,,118,157549,19,Female,1,2024/03/25_08:50:32,YZ,None,
,,,,,,calibration,0,8,2,583,2,Q,0,right,0.37200528898392804,1,0,,,,,,,,,,,,,,,,,,,,,1,,,,,,,,,,,,,,,,,,,,,,,,,,,,,,,,,,,,,,,,,,,,,,118,157549,19,Female,1,2024/03/25_08:50:32,YZ,None,
,,,,,,calibration,0,8,2,583,3,J,1,left,0.4846344210091047,1,0,,,,,,,,,,,,,,,,,,,,,1,,,,,,,,,,,,,,,,,,,,,,,,,,,,,,,,,,,,,,,,,,,,,,118,157549,19,Female,1,2024/03/25_08:50:32,YZ,None,
,,,,,,calibration,0,8,2,583,4,N,0,right,0.4724424759915564,1,0,,,,,,,,,,,,,,,,,,,,,1,,,,,,,,,,,,,,,,,,,,,,,,,,,,,,,,,,,,,,,,,,,,,,118,157549,19,Female,1,2024/03/25_08:50:32,YZ,None,
,,,,,,calibration,0,8,2,583,5,J,1,left,0.6341776179906446,1,0,,,,,,,,,,,,,,,,,,,,,1,,,,,,,,,,,,,,,,,,,,,,,,,,,,,,,,,,,,,,,,,,,,,,118,157549,19,Female,1,2024/03/25_08:50:32,YZ,None,
,,,,,,calibration,0,8,2,583,6,C,0,right,0.4288581530272495,1,0,,,,,,,,,,,,,,,,,,,,,1,,,,,,,,,,,,,,,,,,,,,,,,,,,,,,,,,,,,,,,,,,,,,,118,157549,19,Female,1,2024/03/25_08:50:32,YZ,None,
,,,,,,calibration,0,8,2,583,7,X,0,right,0.5697558039973956,1,0,,,,,,,,,,,,,,,,,,,,,1,,,,,,,,,,,,,,,,,,,,,,,,,,,,,,,,,,,,,,,,,,,,,,118,157549,19,Female,1,2024/03/25_08:50:32,YZ,None,
,,,,,,calibration,0,8,2,583,8,V,0,right,0.5639946210139897,1,0,,,,,,,,,,,,,,,,,,,,,1,,,,,,,,,,,,,,,,,,,,,,,,,,,,,,,,,,,,,,,,,,,,,,118,157549,19,Female,1,2024/03/25_08:50:32,YZ,None,
,,,,,,calibration,0,8,2,583,9,N,0,left,0.5428109570057131,0,0,,,,,,,,,,,,,,,,,,,,,1,,,,,,,,,,,,,,,,,,,,,,,,,,,,,,,,,,,,,,,,,,,,,,118,157549,19,Female,1,2024/03/25_08:50:32,YZ,None,
,,,,,,calibration,0,8,2,583,10,J,0,right,0.36090629000682384,1,0,,,,,,,,,,,,,,,,,,,,,1,,,,,,,,,,,,,,,,,,,,,,,,,,,,,,,,,,,,,,,,,,,,,,118,157549,19,Female,1,2024/03/25_08:50:32,YZ,None,
,,,,,,calibration,0,8,2,583,11,N,1,left,0.5120289599872194,1,0,,,,,,,,,,,,,,,,,,,,,1,,,,,,,,,,,,,,,,,,,,,,,,,,,,,,,,,,,,,,,,,,,,,,118,157549,19,Female,1,2024/03/25_08:50:32,YZ,None,
,,,,,,calibration,0,8,2,583,12,J,1,left,0.4627316909900401,1,0,,,,,,,,,,,,,,,,,,,,,1,,,,,,,,,,,,,,,,,,,,,,,,,,,,,,,,,,,,,,,,,,,,,,118,157549,19,Female,1,2024/03/25_08:50:32,YZ,None,
,,,,,,calibration,0,8,2,583,13,C,0,right,0.5122340569796506,1,0,,,,,,,,,,,,,,,,,,,,,1,,,,,,,,,,,,,,,,,,,,,,,,,,,,,,,,,,,,,,,,,,,,,,118,157549,19,Female,1,2024/03/25_08:50:32,YZ,None,
,,,,,,calibration,0,8,2,583,14,F,0,right,0.7263731500133872,1,0,,,,,,,,,,,,,,,,,,,,,1,,,,,,,,,,,,,,,,,,,,,,,,,,,,,,,,,,,,,,,,,,,,,,118,157549,19,Female,1,2024/03/25_08:50:32,YZ,None,
,,,,,,calibration,0,8,2,583,15,Q,0,right,0.46150808600941673,1,0,,,,,,,,,,,,,,,,,,,,,1,,,,,,,,,,,,,,,,,,,,,,,,,,,,,,,,,,,,,,,,,,,,,,118,157549,19,Female,1,2024/03/25_08:50:32,YZ,None,
,,,,,,calibration,0,8,2,583,,,,,,,,0.9772727272727273,1.0,0.09090909090909091,0.9090909090909091,0.0,0.9090909090909091,0.5263061393343378,4,1,0,0,0,10,14,4,11,0,,,,1,,,,,,,,,,,,,,,,,,,,,,,,,,,,,,,,,,,,,,,,,,,,,,118,157549,19,Female,1,2024/03/25_08:50:32,YZ,None,
,,,,,,Calibration,0,,2,583,,,,,,,,,,,,,,,,,,,,,,,,,3,,,1,,,,,,,,,,,,,,,,,,,,,,,,,,,,,,,,,,,,,,,,,,,,,,118,157549,19,Female,1,2024/03/25_08:50:32,YZ,None,
,,,,,,calibration,0,15,2,500,1,C,0,left,0.4979436120192986,0,0,,,,,,,,,,,,,,,,,,,,,1,,,,,,,,,,,,,,,,,,,,,,,,,,,,,,,,,,,,,,,,,,,,,,118,157549,19,Female,1,2024/03/25_08:50:32,YZ,None,
,,,,,,calibration,0,15,2,500,2,V,0,right,0.636121888004709,1,0,,,,,,,,,,,,,,,,,,,,,1,,,,,,,,,,,,,,,,,,,,,,,,,,,,,,,,,,,,,,,,,,,,,,118,157549,19,Female,1,2024/03/25_08:50:32,YZ,None,
,,,,,,calibration,0,15,2,500,3,C,1,left,0.4531985780049581,1,0,,,,,,,,,,,,,,,,,,,,,1,,,,,,,,,,,,,,,,,,,,,,,,,,,,,,,,,,,,,,,,,,,,,,118,157549,19,Female,1,2024/03/25_08:50:32,YZ,None,
,,,,,,calibration,0,15,2,500,4,S,0,right,0.4165894830075558,1,0,,,,,,,,,,,,,,,,,,,,,1,,,,,,,,,,,,,,,,,,,,,,,,,,,,,,,,,,,,,,,,,,,,,,118,157549,19,Female,1,2024/03/25_08:50:32,YZ,None,
,,,,,,calibration,0,15,2,500,5,X,0,right,0.4567105300084222,1,0,,,,,,,,,,,,,,,,,,,,,1,,,,,,,,,,,,,,,,,,,,,,,,,,,,,,,,,,,,,,,,,,,,,,118,157549,19,Female,1,2024/03/25_08:50:32,YZ,None,
,,,,,,calibration,0,15,2,500,6,S,1,left,0.42455587998847477,1,0,,,,,,,,,,,,,,,,,,,,,1,,,,,,,,,,,,,,,,,,,,,,,,,,,,,,,,,,,,,,,,,,,,,,118,157549,19,Female,1,2024/03/25_08:50:32,YZ,None,
,,,,,,calibration,0,15,2,500,7,X,1,right,0.3525354440207593,0,0,,,,,,,,,,,,,,,,,,,,,1,,,,,,,,,,,,,,,,,,,,,,,,,,,,,,,,,,,,,,,,,,,,,,118,157549,19,Female,1,2024/03/25_08:50:32,YZ,None,
,,,,,,calibration,0,15,2,500,8,N,0,right,0.4905241779924836,1,0,,,,,,,,,,,,,,,,,,,,,1,,,,,,,,,,,,,,,,,,,,,,,,,,,,,,,,,,,,,,,,,,,,,,118,157549,19,Female,1,2024/03/25_08:50:32,YZ,None,
,,,,,,calibration,0,15,2,500,9,S,0,left,0.39662805598345585,0,0,,,,,,,,,,,,,,,,,,,,,1,,,,,,,,,,,,,,,,,,,,,,,,,,,,,,,,,,,,,,,,,,,,,,118,157549,19,Female,1,2024/03/25_08:50:32,YZ,None,
,,,,,,calibration,0,15,2,500,10,J,0,right,0.45769834899692796,1,0,,,,,,,,,,,,,,,,,,,,,1,,,,,,,,,,,,,,,,,,,,,,,,,,,,,,,,,,,,,,,,,,,,,,118,157549,19,Female,1,2024/03/25_08:50:32,YZ,None,
,,,,,,calibration,0,15,2,500,11,S,1,left,0.38695561900385655,1,0,,,,,,,,,,,,,,,,,,,,,1,,,,,,,,,,,,,,,,,,,,,,,,,,,,,,,,,,,,,,,,,,,,,,118,157549,19,Female,1,2024/03/25_08:50:32,YZ,None,
,,,,,,calibration,0,15,2,500,12,V,0,right,0.4133372640062589,1,0,,,,,,,,,,,,,,,,,,,,,1,,,,,,,,,,,,,,,,,,,,,,,,,,,,,,,,,,,,,,,,,,,,,,118,157549,19,Female,1,2024/03/25_08:50:32,YZ,None,
,,,,,,calibration,0,15,2,500,13,F,0,right,0.4531025610049255,1,0,,,,,,,,,,,,,,,,,,,,,1,,,,,,,,,,,,,,,,,,,,,,,,,,,,,,,,,,,,,,,,,,,,,,118,157549,19,Female,1,2024/03/25_08:50:32,YZ,None,
,,,,,,calibration,0,15,2,500,14,V,1,left,0.5954533149779309,1,0,,,,,,,,,,,,,,,,,,,,,1,,,,,,,,,,,,,,,,,,,,,,,,,,,,,,,,,,,,,,,,,,,,,,118,157549,19,Female,1,2024/03/25_08:50:32,YZ,None,
,,,,,,calibration,0,15,2,500,15,X,0,left,0.39106765200267546,0,0,,,,,,,,,,,,,,,,,,,,,1,,,,,,,,,,,,,,,,,,,,,,,,,,,,,,,,,,,,,,,,,,,,,,118,157549,19,Female,1,2024/03/25_08:50:32,YZ,None,
,,,,,,calibration,0,15,2,500,16,J,0,right,0.3318676390044857,1,0,,,,,,,,,,,,,,,,,,,,,1,,,,,,,,,,,,,,,,,,,,,,,,,,,,,,,,,,,,,,,,,,,,,,118,157549,19,Female,1,2024/03/25_08:50:32,YZ,None,
,,,,,,calibration,0,15,2,500,,,,,,,,0.8272727272727273,0.8,0.2727272727272727,0.7272727272727273,0.0,0.7272727272727273,0.44714312800169864,4,3,0,0,0,8,12,5,11,0,,,,1,,,,,,,,,,,,,,,,,,,,,,,,,,,,,,,,,,,,,,,,,,,,,,118,157549,19,Female,1,2024/03/25_08:50:32,YZ,None,
,,,,,,Calibration,0,,2,500,,,,,,,,,,,,,,,,,,,,,,,,,4,,,1,,,,,,,,,,,,,,,,,,,,,,,,,,,,,,,,,,,,,,,,,,,,,,118,157549,19,Female,1,2024/03/25_08:50:32,YZ,None,
,,,,,,calibration,0,36,2,500,1,N,0,right,0.5399730650242418,1,0,,,,,,,,,,,,,,,,,,,,,1,,,,,,,,,,,,,,,,,,,,,,,,,,,,,,,,,,,,,,,,,,,,,,118,157549,19,Female,1,2024/03/25_08:50:32,YZ,None,
,,,,,,calibration,0,36,2,500,2,V,0,right,0.28787583200028166,1,0,,,,,,,,,,,,,,,,,,,,,1,,,,,,,,,,,,,,,,,,,,,,,,,,,,,,,,,,,,,,,,,,,,,,118,157549,19,Female,1,2024/03/25_08:50:32,YZ,None,
,,,,,,calibration,0,36,2,500,3,N,1,left,0.3408096900093369,1,0,,,,,,,,,,,,,,,,,,,,,1,,,,,,,,,,,,,,,,,,,,,,,,,,,,,,,,,,,,,,,,,,,,,,118,157549,19,Female,1,2024/03/25_08:50:32,YZ,None,
,,,,,,calibration,0,36,2,500,4,F,0,right,0.46516677999170497,1,0,,,,,,,,,,,,,,,,,,,,,1,,,,,,,,,,,,,,,,,,,,,,,,,,,,,,,,,,,,,,,,,,,,,,118,157549,19,Female,1,2024/03/25_08:50:32,YZ,None,
,,,,,,calibration,0,36,2,500,5,J,0,right,0.4101407650159672,1,0,,,,,,,,,,,,,,,,,,,,,1,,,,,,,,,,,,,,,,,,,,,,,,,,,,,,,,,,,,,,,,,,,,,,118,157549,19,Female,1,2024/03/25_08:50:32,YZ,None,
,,,,,,calibration,0,36,2,500,6,F,1,left,0.4891190030029975,1,0,,,,,,,,,,,,,,,,,,,,,1,,,,,,,,,,,,,,,,,,,,,,,,,,,,,,,,,,,,,,,,,,,,,,118,157549,19,Female,1,2024/03/25_08:50:32,YZ,None,
,,,,,,calibration,0,36,2,500,7,J,1,right,0.49686069099698216,0,0,,,,,,,,,,,,,,,,,,,,,1,,,,,,,,,,,,,,,,,,,,,,,,,,,,,,,,,,,,,,,,,,,,,,118,157549,19,Female,1,2024/03/25_08:50:32,YZ,None,
,,,,,,calibration,0,36,2,500,8,N,0,left,0.4136988189711701,0,0,,,,,,,,,,,,,,,,,,,,,1,,,,,,,,,,,,,,,,,,,,,,,,,,,,,,,,,,,,,,,,,,,,,,118,157549,19,Female,1,2024/03/25_08:50:32,YZ,None,
,,,,,,calibration,0,36,2,500,9,J,1,right,0.511969985003816,0,0,,,,,,,,,,,,,,,,,,,,,1,,,,,,,,,,,,,,,,,,,,,,,,,,,,,,,,,,,,,,,,,,,,,,118,157549,19,Female,1,2024/03/25_08:50:32,YZ,None,
,,,,,,calibration,0,36,2,500,10,F,0,right,0.47104778201901354,1,0,,,,,,,,,,,,,,,,,,,,,1,,,,,,,,,,,,,,,,,,,,,,,,,,,,,,,,,,,,,,,,,,,,,,118,157549,19,Female,1,2024/03/25_08:50:32,YZ,None,
,,,,,,calibration,0,36,2,500,11,Q,0,right,0.5927878049842548,1,0,,,,,,,,,,,,,,,,,,,,,1,,,,,,,,,,,,,,,,,,,,,,,,,,,,,,,,,,,,,,,,,,,,,,118,157549,19,Female,1,2024/03/25_08:50:32,YZ,None,
,,,,,,calibration,0,36,2,500,12,X,0,right,0.35850162798305973,1,0,,,,,,,,,,,,,,,,,,,,,1,,,,,,,,,,,,,,,,,,,,,,,,,,,,,,,,,,,,,,,,,,,,,,118,157549,19,Female,1,2024/03/25_08:50:32,YZ,None,
,,,,,,calibration,0,36,2,500,13,J,0,right,0.6251091420126613,1,0,,,,,,,,,,,,,,,,,,,,,1,,,,,,,,,,,,,,,,,,,,,,,,,,,,,,,,,,,,,,,,,,,,,,118,157549,19,Female,1,2024/03/25_08:50:32,YZ,None,
,,,,,,calibration,0,36,2,500,14,F,0,right,0.3845004799950402,1,0,,,,,,,,,,,,,,,,,,,,,1,,,,,,,,,,,,,,,,,,,,,,,,,,,,,,,,,,,,,,,,,,,,,,118,157549,19,Female,1,2024/03/25_08:50:32,YZ,None,
,,,,,,calibration,0,36,2,500,15,S,0,right,0.5596988489851356,1,0,,,,,,,,,,,,,,,,,,,,,1,,,,,,,,,,,,,,,,,,,,,,,,,,,,,,,,,,,,,,,,,,,,,,118,157549,19,Female,1,2024/03/25_08:50:32,YZ,None,
,,,,,,calibration,0,36,2,500,16,X,0,left,0.5263958910072688,0,0,,,,,,,,,,,,,,,,,,,,,1,,,,,,,,,,,,,,,,,,,,,,,,,,,,,,,,,,,,,,,,,,,,,,118,157549,19,Female,1,2024/03/25_08:50:32,YZ,None,
,,,,,,calibration,0,36,2,500,,,,,,,,0.75,0.5,0.16666666666666666,0.8333333333333334,0.0,0.8333333333333334,0.46710351293768326,2,2,0,0,0,10,12,4,12,0,,,,1,,,,,,,,,,,,,,,,,,,,,,,,,,,,,,,,,,,,,,,,,,,,,,118,157549,19,Female,1,2024/03/25_08:50:32,YZ,None,
,,,,,,Calibration,0,,2,500,,,,,,,,,,,,,,,,,,,,,,,,,5,,,1,,,,,,,,,,,,,,,,,,,,,,,,,,,,,,,,,,,,,,,,,,,,,,118,157549,19,Female,1,2024/03/25_08:50:32,YZ,None,
,,,,,,calibration,0,26,2,500,1,Q,0,None,nan,0,1,,,,,,,,,,,,,,,,,,,,,1,,,,,,,,,,,,,,,,,,,,,,,,,,,,,,,,,,,,,,,,,,,,,,118,157549,19,Female,1,2024/03/25_08:50:32,YZ,None,
,,,,,,calibration,0,26,2,500,2,S,0,right,0.28598327102372423,1,0,,,,,,,,,,,,,,,,,,,,,1,,,,,,,,,,,,,,,,,,,,,,,,,,,,,,,,,,,,,,,,,,,,,,118,157549,19,Female,1,2024/03/25_08:50:32,YZ,None,
,,,,,,calibration,0,26,2,500,3,N,0,right,0.442095945996698,1,0,,,,,,,,,,,,,,,,,,,,,1,,,,,,,,,,,,,,,,,,,,,,,,,,,,,,,,,,,,,,,,,,,,,,118,157549,19,Female,1,2024/03/25_08:50:32,YZ,None,
,,,,,,calibration,0,26,2,500,4,S,1,right,0.364917651982978,0,0,,,,,,,,,,,,,,,,,,,,,1,,,,,,,,,,,,,,,,,,,,,,,,,,,,,,,,,,,,,,,,,,,,,,118,157549,19,Female,1,2024/03/25_08:50:32,YZ,None,
,,,,,,calibration,0,26,2,500,5,C,0,right,0.4848475950129796,1,0,,,,,,,,,,,,,,,,,,,,,1,,,,,,,,,,,,,,,,,,,,,,,,,,,,,,,,,,,,,,,,,,,,,,118,157549,19,Female,1,2024/03/25_08:50:32,YZ,None,
,,,,,,calibration,0,26,2,500,6,S,1,left,0.416023360012332,1,0,,,,,,,,,,,,,,,,,,,,,1,,,,,,,,,,,,,,,,,,,,,,,,,,,,,,,,,,,,,,,,,,,,,,118,157549,19,Female,1,2024/03/25_08:50:32,YZ,None,
,,,,,,calibration,0,26,2,500,7,N,0,right,0.6772601240081713,1,0,,,,,,,,,,,,,,,,,,,,,1,,,,,,,,,,,,,,,,,,,,,,,,,,,,,,,,,,,,,,,,,,,,,,118,157549,19,Female,1,2024/03/25_08:50:32,YZ,None,
,,,,,,calibration,0,26,2,500,8,C,0,right,0.48703198999282904,1,0,,,,,,,,,,,,,,,,,,,,,1,,,,,,,,,,,,,,,,,,,,,,,,,,,,,,,,,,,,,,,,,,,,,,118,157549,19,Female,1,2024/03/25_08:50:32,YZ,None,
,,,,,,calibration,0,26,2,500,9,V,0,left,0.3769732430228032,0,0,,,,,,,,,,,,,,,,,,,,,1,,,,,,,,,,,,,,,,,,,,,,,,,,,,,,,,,,,,,,,,,,,,,,118,157549,19,Female,1,2024/03/25_08:50:32,YZ,None,
,,,,,,calibration,0,26,2,500,10,C,1,right,0.4326528479869012,0,0,,,,,,,,,,,,,,,,,,,,,1,,,,,,,,,,,,,,,,,,,,,,,,,,,,,,,,,,,,,,,,,,,,,,118,157549,19,Female,1,2024/03/25_08:50:32,YZ,None,
,,,,,,calibration,0,26,2,500,11,S,0,right,0.4419066800037399,1,0,,,,,,,,,,,,,,,,,,,,,1,,,,,,,,,,,,,,,,,,,,,,,,,,,,,,,,,,,,,,,,,,,,,,118,157549,19,Female,1,2024/03/25_08:50:32,YZ,None,
,,,,,,calibration,0,26,2,500,12,C,1,left,0.511121388990432,1,0,,,,,,,,,,,,,,,,,,,,,1,,,,,,,,,,,,,,,,,,,,,,,,,,,,,,,,,,,,,,,,,,,,,,118,157549,19,Female,1,2024/03/25_08:50:32,YZ,None,
,,,,,,calibration,0,26,2,500,13,F,0,right,0.3363409680023324,1,0,,,,,,,,,,,,,,,,,,,,,1,,,,,,,,,,,,,,,,,,,,,,,,,,,,,,,,,,,,,,,,,,,,,,118,157549,19,Female,1,2024/03/25_08:50:32,YZ,None,
,,,,,,calibration,0,26,2,500,14,N,0,right,0.7362869580101687,1,0,,,,,,,,,,,,,,,,,,,,,1,,,,,,,,,,,,,,,,,,,,,,,,,,,,,,,,,,,,,,,,,,,,,,118,157549,19,Female,1,2024/03/25_08:50:32,YZ,None,
,,,,,,calibration,0,26,2,500,15,J,0,right,0.43247007101308554,1,0,,,,,,,,,,,,,,,,,,,,,1,,,,,,,,,,,,,,,,,,,,,,,,,,,,,,,,,,,,,,,,,,,,,,118,157549,19,Female,1,2024/03/25_08:50:32,YZ,None,
,,,,,,calibration,0,26,2,500,16,Q,0,left,0.45734721500775777,0,0,,,,,,,,,,,,,,,,,,,,,1,,,,,,,,,,,,,,,,,,,,,,,,,,,,,,,,,,,,,,,,,,,,,,118,157549,19,Female,1,2024/03/25_08:50:32,YZ,None,
,,,,,,calibration,0,26,2,500,,,,,,,,0.75,0.5,0.16666666666666666,0.8181818181818182,0.0625,0.7708333333333334,0.4588839540044622,2,2,0,1,1,9,11,4,12,0,,,,1,,,,,,,,,,,,,,,,,,,,,,,,,,,,,,,,,,,,,,,,,,,,,,118,157549,19,Female,1,2024/03/25_08:50:32,YZ,None,
,,,,,,Calibration,0,,2,500,,,,,,,,,,,,,,,,,,,,,,,,,6,,,1,,,,,,,,,,,,,,,,,,,,,,,,,,,,,,,,,,,,,,,,,,,,,,118,157549,19,Female,1,2024/03/25_08:50:32,YZ,None,
,,,,,,calibration,0,5,2,500,1,F,0,right,0.3392228170123417,1,0,,,,,,,,,,,,,,,,,,,,,1,,,,,,,,,,,,,,,,,,,,,,,,,,,,,,,,,,,,,,,,,,,,,,118,157549,19,Female,1,2024/03/25_08:50:32,YZ,None,
,,,,,,calibration,0,5,2,500,2,J,0,right,0.25709841601201333,1,0,,,,,,,,,,,,,,,,,,,,,1,,,,,,,,,,,,,,,,,,,,,,,,,,,,,,,,,,,,,,,,,,,,,,118,157549,19,Female,1,2024/03/25_08:50:32,YZ,None,
,,,,,,calibration,0,5,2,500,3,V,0,right,0.3450542220089119,1,0,,,,,,,,,,,,,,,,,,,,,1,,,,,,,,,,,,,,,,,,,,,,,,,,,,,,,,,,,,,,,,,,,,,,118,157549,19,Female,1,2024/03/25_08:50:32,YZ,None,
,,,,,,calibration,0,5,2,500,4,C,0,right,0.4211723329790402,1,0,,,,,,,,,,,,,,,,,,,,,1,,,,,,,,,,,,,,,,,,,,,,,,,,,,,,,,,,,,,,,,,,,,,,118,157549,19,Female,1,2024/03/25_08:50:32,YZ,None,
,,,,,,calibration,0,5,2,500,5,V,1,right,0.6156269799976144,0,0,,,,,,,,,,,,,,,,,,,,,1,,,,,,,,,,,,,,,,,,,,,,,,,,,,,,,,,,,,,,,,,,,,,,118,157549,19,Female,1,2024/03/25_08:50:32,YZ,None,
,,,,,,calibration,0,5,2,500,6,Q,0,right,0.49506009099422954,1,0,,,,,,,,,,,,,,,,,,,,,1,,,,,,,,,,,,,,,,,,,,,,,,,,,,,,,,,,,,,,,,,,,,,,118,157549,19,Female,1,2024/03/25_08:50:32,YZ,None,
,,,,,,calibration,0,5,2,500,7,F,0,left,0.38908351797726937,0,0,,,,,,,,,,,,,,,,,,,,,1,,,,,,,,,,,,,,,,,,,,,,,,,,,,,,,,,,,,,,,,,,,,,,118,157549,19,Female,1,2024/03/25_08:50:32,YZ,None,
,,,,,,calibration,0,5,2,500,8,C,0,right,0.44145206999382935,1,0,,,,,,,,,,,,,,,,,,,,,1,,,,,,,,,,,,,,,,,,,,,,,,,,,,,,,,,,,,,,,,,,,,,,118,157549,19,Female,1,2024/03/25_08:50:32,YZ,None,
,,,,,,calibration,0,5,2,500,9,Q,0,right,0.41693044698331505,1,0,,,,,,,,,,,,,,,,,,,,,1,,,,,,,,,,,,,,,,,,,,,,,,,,,,,,,,,,,,,,,,,,,,,,118,157549,19,Female,1,2024/03/25_08:50:32,YZ,None,
,,,,,,calibration,0,5,2,500,10,C,1,left,0.7168607959756628,1,0,,,,,,,,,,,,,,,,,,,,,1,,,,,,,,,,,,,,,,,,,,,,,,,,,,,,,,,,,,,,,,,,,,,,118,157549,19,Female,1,2024/03/25_08:50:32,YZ,None,
,,,,,,calibration,0,5,2,500,11,V,0,right,0.6625827150128316,1,0,,,,,,,,,,,,,,,,,,,,,1,,,,,,,,,,,,,,,,,,,,,,,,,,,,,,,,,,,,,,,,,,,,,,118,157549,19,Female,1,2024/03/25_08:50:32,YZ,None,
,,,,,,calibration,0,5,2,500,12,S,0,right,0.3909743510012049,1,0,,,,,,,,,,,,,,,,,,,,,1,,,,,,,,,,,,,,,,,,,,,,,,,,,,,,,,,,,,,,,,,,,,,,118,157549,19,Female,1,2024/03/25_08:50:32,YZ,None,
,,,,,,calibration,0,5,2,500,13,V,1,left,0.5124666999909095,1,0,,,,,,,,,,,,,,,,,,,,,1,,,,,,,,,,,,,,,,,,,,,,,,,,,,,,,,,,,,,,,,,,,,,,118,157549,19,Female,1,2024/03/25_08:50:32,YZ,None,
,,,,,,calibration,0,5,2,500,14,S,1,right,0.2867082900193054,0,0,,,,,,,,,,,,,,,,,,,,,1,,,,,,,,,,,,,,,,,,,,,,,,,,,,,,,,,,,,,,,,,,,,,,118,157549,19,Female,1,2024/03/25_08:50:32,YZ,None,
,,,,,,calibration,0,5,2,500,15,X,0,right,0.38457483501406386,1,0,,,,,,,,,,,,,,,,,,,,,1,,,,,,,,,,,,,,,,,,,,,,,,,,,,,,,,,,,,,,,,,,,,,,118,157549,19,Female,1,2024/03/25_08:50:32,YZ,None,
,,,,,,calibration,0,5,2,500,16,N,0,right,0.46625990900793113,1,0,,,,,,,,,,,,,,,,,,,,,1,,,,,,,,,,,,,,,,,,,,,,,,,,,,,,,,,,,,,,,,,,,,,,118,157549,19,Female,1,2024/03/25_08:50:32,YZ,None,
,,,,,,calibration,0,5,2,500,,,,,,,,0.8125,0.5,0.08333333333333333,0.9166666666666666,0.0,0.9166666666666666,0.44632053062377963,2,1,0,0,0,11,13,4,12,0,,,,1,,,,,,,,,,,,,,,,,,,,,,,,,,,,,,,,,,,,,,,,,,,,,,118,157549,19,Female,1,2024/03/25_08:50:32,YZ,None,
,,,,,,Calibration,0,,2,500,,,,,,,,,,,,,,,,,,,,,,,,,7,,,1,,,,,,,,,,,,,,,,,,,,,,,,,,,,,,,,,,,,,,,,,,,,,,118,157549,19,Female,1,2024/03/25_08:50:32,YZ,None,
,,,,,,calibration,0,16,2,500,1,F,0,right,0.5872569829807617,1,0,,,,,,,,,,,,,,,,,,,,,1,,,,,,,,,,,,,,,,,,,,,,,,,,,,,,,,,,,,,,,,,,,,,,118,157549,19,Female,1,2024/03/25_08:50:32,YZ,None,
,,,,,,calibration,0,16,2,500,2,S,0,right,0.24353226501261815,1,0,,,,,,,,,,,,,,,,,,,,,1,,,,,,,,,,,,,,,,,,,,,,,,,,,,,,,,,,,,,,,,,,,,,,118,157549,19,Female,1,2024/03/25_08:50:32,YZ,None,
,,,,,,calibration,0,16,2,500,3,J,0,right,0.3405290340015199,1,0,,,,,,,,,,,,,,,,,,,,,1,,,,,,,,,,,,,,,,,,,,,,,,,,,,,,,,,,,,,,,,,,,,,,118,157549,19,Female,1,2024/03/25_08:50:32,YZ,None,
,,,,,,calibration,0,16,2,500,4,N,0,right,0.4086930810008198,1,0,,,,,,,,,,,,,,,,,,,,,1,,,,,,,,,,,,,,,,,,,,,,,,,,,,,,,,,,,,,,,,,,,,,,118,157549,19,Female,1,2024/03/25_08:50:32,YZ,None,
,,,,,,calibration,0,16,2,500,5,J,1,left,0.5835677820141427,1,0,,,,,,,,,,,,,,,,,,,,,1,,,,,,,,,,,,,,,,,,,,,,,,,,,,,,,,,,,,,,,,,,,,,,118,157549,19,Female,1,2024/03/25_08:50:32,YZ,None,
,,,,,,calibration,0,16,2,500,6,X,0,right,0.33347434300230816,1,0,,,,,,,,,,,,,,,,,,,,,1,,,,,,,,,,,,,,,,,,,,,,,,,,,,,,,,,,,,,,,,,,,,,,118,157549,19,Female,1,2024/03/25_08:50:32,YZ,None,
,,,,,,calibration,0,16,2,500,7,J,1,left,0.37629719599499367,1,0,,,,,,,,,,,,,,,,,,,,,1,,,,,,,,,,,,,,,,,,,,,,,,,,,,,,,,,,,,,,,,,,,,,,118,157549,19,Female,1,2024/03/25_08:50:32,YZ,None,
,,,,,,calibration,0,16,2,500,8,S,0,right,0.40849509500549175,1,0,,,,,,,,,,,,,,,,,,,,,1,,,,,,,,,,,,,,,,,,,,,,,,,,,,,,,,,,,,,,,,,,,,,,118,157549,19,Female,1,2024/03/25_08:50:32,YZ,None,
,,,,,,calibration,0,16,2,500,9,Q,0,right,0.6434829509817064,1,0,,,,,,,,,,,,,,,,,,,,,1,,,,,,,,,,,,,,,,,,,,,,,,,,,,,,,,,,,,,,,,,,,,,,118,157549,19,Female,1,2024/03/25_08:50:32,YZ,None,
,,,,,,calibration,0,16,2,500,10,S,1,left,0.5589195830107201,1,0,,,,,,,,,,,,,,,,,,,,,1,,,,,,,,,,,,,,,,,,,,,,,,,,,,,,,,,,,,,,,,,,,,,,118,157549,19,Female,1,2024/03/25_08:50:32,YZ,None,
,,,,,,calibration,0,16,2,500,11,J,0,right,0.3069086830073502,1,0,,,,,,,,,,,,,,,,,,,,,1,,,,,,,,,,,,,,,,,,,,,,,,,,,,,,,,,,,,,,,,,,,,,,118,157549,19,Female,1,2024/03/25_08:50:32,YZ,None,
,,,,,,calibration,0,16,2,500,12,S,1,right,0.48078890799661167,0,0,,,,,,,,,,,,,,,,,,,,,1,,,,,,,,,,,,,,,,,,,,,,,,,,,,,,,,,,,,,,,,,,,,,,118,157549,19,Female,1,2024/03/25_08:50:32,YZ,None,
,,,,,,calibration,0,16,2,500,13,Q,0,right,0.5602325379732065,1,0,,,,,,,,,,,,,,,,,,,,,1,,,,,,,,,,,,,,,,,,,,,,,,,,,,,,,,,,,,,,,,,,,,,,118,157549,19,Female,1,2024/03/25_08:50:32,YZ,None,
,,,,,,calibration,0,16,2,500,14,J,0,left,0.4115572080190759,0,0,,,,,,,,,,,,,,,,,,,,,1,,,,,,,,,,,,,,,,,,,,,,,,,,,,,,,,,,,,,,,,,,,,,,118,157549,19,Female,1,2024/03/25_08:50:32,YZ,None,
,,,,,,calibration,0,16,2,500,15,V,0,right,0.24464328700560145,1,0,,,,,,,,,,,,,,,,,,,,,1,,,,,,,,,,,,,,,,,,,,,,,,,,,,,,,,,,,,,,,,,,,,,,118,157549,19,Female,1,2024/03/25_08:50:32,YZ,None,
,,,,,,calibration,0,16,2,500,16,J,1,left,0.6064562879910227,1,0,,,,,,,,,,,,,,,,,,,,,1,,,,,,,,,,,,,,,,,,,,,,,,,,,,,,,,,,,,,,,,,,,,,,118,157549,19,Female,1,2024/03/25_08:50:32,YZ,None,
,,,,,,calibration,0,16,2,500,,,,,,,,0.9090909090909091,0.8,0.09090909090909091,0.9090909090909091,0.0,0.9090909090909091,0.4434272015623719,4,1,0,0,0,10,14,5,11,0,,,,1,,,,,,,,,,,,,,,,,,,,,,,,,,,,,,,,,,,,,,,,,,,,,,118,157549,19,Female,1,2024/03/25_08:50:32,YZ,None,
,,,,,,Calibration,0,,2,500,,,,,,,,,,,,,,,,,,,,,,,,,8,,,1,,,,,,,,,,,,,,,,,,,,,,,,,,,,,,,,,,,,,,,,,,,,,,118,157549,19,Female,1,2024/03/25_08:50:32,YZ,None,
,,,,,,calibration,0,4,2,426,1,N,0,right,0.3388676540052984,1,0,,,,,,,,,,,,,,,,,,,,,1,,,,,,,,,,,,,,,,,,,,,,,,,,,,,,,,,,,,,,,,,,,,,,118,157549,19,Female,1,2024/03/25_08:50:32,YZ,None,
,,,,,,calibration,0,4,2,426,2,C,0,right,0.28752542298752815,1,0,,,,,,,,,,,,,,,,,,,,,1,,,,,,,,,,,,,,,,,,,,,,,,,,,,,,,,,,,,,,,,,,,,,,118,157549,19,Female,1,2024/03/25_08:50:32,YZ,None,
,,,,,,calibration,0,4,2,426,3,X,0,right,0.39997606398537755,1,0,,,,,,,,,,,,,,,,,,,,,1,,,,,,,,,,,,,,,,,,,,,,,,,,,,,,,,,,,,,,,,,,,,,,118,157549,19,Female,1,2024/03/25_08:50:32,YZ,None,
,,,,,,calibration,0,4,2,426,4,Q,0,left,0.6634083340177312,0,0,,,,,,,,,,,,,,,,,,,,,1,,,,,,,,,,,,,,,,,,,,,,,,,,,,,,,,,,,,,,,,,,,,,,118,157549,19,Female,1,2024/03/25_08:50:32,YZ,None,
,,,,,,calibration,0,4,2,426,5,F,0,right,0.4618325530027505,1,0,,,,,,,,,,,,,,,,,,,,,1,,,,,,,,,,,,,,,,,,,,,,,,,,,,,,,,,,,,,,,,,,,,,,118,157549,19,Female,1,2024/03/25_08:50:32,YZ,None,
,,,,,,calibration,0,4,2,426,6,S,0,right,0.3483316470228601,1,0,,,,,,,,,,,,,,,,,,,,,1,,,,,,,,,,,,,,,,,,,,,,,,,,,,,,,,,,,,,,,,,,,,,,118,157549,19,Female,1,2024/03/25_08:50:32,YZ,None,
,,,,,,calibration,0,4,2,426,7,F,1,left,0.36871655099093914,1,0,,,,,,,,,,,,,,,,,,,,,1,,,,,,,,,,,,,,,,,,,,,,,,,,,,,,,,,,,,,,,,,,,,,,118,157549,19,Female,1,2024/03/25_08:50:32,YZ,None,
,,,,,,calibration,0,4,2,426,8,S,1,right,0.30826506702578627,0,0,,,,,,,,,,,,,,,,,,,,,1,,,,,,,,,,,,,,,,,,,,,,,,,,,,,,,,,,,,,,,,,,,,,,118,157549,19,Female,1,2024/03/25_08:50:32,YZ,None,
,,,,,,calibration,0,4,2,426,9,Q,0,right,0.4050756200158503,1,0,,,,,,,,,,,,,,,,,,,,,1,,,,,,,,,,,,,,,,,,,,,,,,,,,,,,,,,,,,,,,,,,,,,,118,157549,19,Female,1,2024/03/25_08:50:32,YZ,None,
,,,,,,calibration,0,4,2,426,10,S,1,left,0.36774119202164,1,0,,,,,,,,,,,,,,,,,,,,,1,,,,,,,,,,,,,,,,,,,,,,,,,,,,,,,,,,,,,,,,,,,,,,118,157549,19,Female,1,2024/03/25_08:50:32,YZ,None,
,,,,,,calibration,0,4,2,426,11,F,0,left,0.5326041250082199,0,0,,,,,,,,,,,,,,,,,,,,,1,,,,,,,,,,,,,,,,,,,,,,,,,,,,,,,,,,,,,,,,,,,,,,118,157549,19,Female,1,2024/03/25_08:50:32,YZ,None,
,,,,,,calibration,0,4,2,426,12,Q,0,right,0.26517760701244697,1,0,,,,,,,,,,,,,,,,,,,,,1,,,,,,,,,,,,,,,,,,,,,,,,,,,,,,,,,,,,,,,,,,,,,,118,157549,19,Female,1,2024/03/25_08:50:32,YZ,None,
,,,,,,calibration,0,4,2,426,13,F,1,right,0.400166387000354,0,0,,,,,,,,,,,,,,,,,,,,,1,,,,,,,,,,,,,,,,,,,,,,,,,,,,,,,,,,,,,,,,,,,,,,118,157549,19,Female,1,2024/03/25_08:50:32,YZ,None,
,,,,,,calibration,0,4,2,426,14,C,0,left,0.6339505579962861,0,0,,,,,,,,,,,,,,,,,,,,,1,,,,,,,,,,,,,,,,,,,,,,,,,,,,,,,,,,,,,,,,,,,,,,118,157549,19,Female,1,2024/03/25_08:50:32,YZ,None,
,,,,,,calibration,0,4,2,426,15,Q,0,right,0.3029786739789415,1,0,,,,,,,,,,,,,,,,,,,,,1,,,,,,,,,,,,,,,,,,,,,,,,,,,,,,,,,,,,,,,,,,,,,,118,157549,19,Female,1,2024/03/25_08:50:32,YZ,None,
,,,,,,calibration,0,4,2,426,16,C,1,left,0.7935002000012901,1,0,,,,,,,,,,,,,,,,,,,,,1,,,,,,,,,,,,,,,,,,,,,,,,,,,,,,,,,,,,,,,,,,,,,,118,157549,19,Female,1,2024/03/25_08:50:32,YZ,None,
,,,,,,calibration,0,4,2,426,17,V,0,right,0.572050472983392,1,0,,,,,,,,,,,,,,,,,,,,,1,,,,,,,,,,,,,,,,,,,,,,,,,,,,,,,,,,,,,,,,,,,,,,118,157549,19,Female,1,2024/03/25_08:50:32,YZ,None,
,,,,,,calibration,0,4,2,426,,,,,,,,0.7375,0.6,0.25,0.75,0.0,0.75,0.43824518406215834,3,3,0,0,0,9,12,5,12,0,,,,1,,,,,,,,,,,,,,,,,,,,,,,,,,,,,,,,,,,,,,,,,,,,,,118,157549,19,Female,1,2024/03/25_08:50:32,YZ,None,
,,,,,,Calibration,0,,2,426,,,,,,,,,,,,,,,,,,,,,,,,,9,,,1,,,,,,,,,,,,,,,,,,,,,,,,,,,,,,,,,,,,,,,,,,,,,,118,157549,19,Female,1,2024/03/25_08:50:32,YZ,None,
,,,,,,calibration,0,15,2,500,1,C,0,right,0.389853041007882,1,0,,,,,,,,,,,,,,,,,,,,,1,,,,,,,,,,,,,,,,,,,,,,,,,,,,,,,,,,,,,,,,,,,,,,118,157549,19,Female,1,2024/03/25_08:50:32,YZ,None,
,,,,,,calibration,0,15,2,500,2,V,0,right,0.2899368589860387,1,0,,,,,,,,,,,,,,,,,,,,,1,,,,,,,,,,,,,,,,,,,,,,,,,,,,,,,,,,,,,,,,,,,,,,118,157549,19,Female,1,2024/03/25_08:50:32,YZ,None,
,,,,,,calibration,0,15,2,500,3,C,1,left,0.46468479599570855,1,0,,,,,,,,,,,,,,,,,,,,,1,,,,,,,,,,,,,,,,,,,,,,,,,,,,,,,,,,,,,,,,,,,,,,118,157549,19,Female,1,2024/03/25_08:50:32,YZ,None,
,,,,,,calibration,0,15,2,500,4,S,0,right,0.3629795809974894,1,0,,,,,,,,,,,,,,,,,,,,,1,,,,,,,,,,,,,,,,,,,,,,,,,,,,,,,,,,,,,,,,,,,,,,118,157549,19,Female,1,2024/03/25_08:50:32,YZ,None,
,,,,,,calibration,0,15,2,500,5,X,0,right,0.5368805460166186,1,0,,,,,,,,,,,,,,,,,,,,,1,,,,,,,,,,,,,,,,,,,,,,,,,,,,,,,,,,,,,,,,,,,,,,118,157549,19,Female,1,2024/03/25_08:50:32,YZ,None,
,,,,,,calibration,0,15,2,500,6,S,1,left,0.3514367640018463,1,0,,,,,,,,,,,,,,,,,,,,,1,,,,,,,,,,,,,,,,,,,,,,,,,,,,,,,,,,,,,,,,,,,,,,118,157549,19,Female,1,2024/03/25_08:50:32,YZ,None,
,,,,,,calibration,0,15,2,500,7,X,1,right,0.3205946120142471,0,0,,,,,,,,,,,,,,,,,,,,,1,,,,,,,,,,,,,,,,,,,,,,,,,,,,,,,,,,,,,,,,,,,,,,118,157549,19,Female,1,2024/03/25_08:50:32,YZ,None,
,,,,,,calibration,0,15,2,500,8,N,0,left,0.45787863500299864,0,0,,,,,,,,,,,,,,,,,,,,,1,,,,,,,,,,,,,,,,,,,,,,,,,,,,,,,,,,,,,,,,,,,,,,118,157549,19,Female,1,2024/03/25_08:50:32,YZ,None,
,,,,,,calibration,0,15,2,500,9,S,0,left,0.5904714369971771,0,0,,,,,,,,,,,,,,,,,,,,,1,,,,,,,,,,,,,,,,,,,,,,,,,,,,,,,,,,,,,,,,,,,,,,118,157549,19,Female,1,2024/03/25_08:50:32,YZ,None,
,,,,,,calibration,0,15,2,500,10,J,0,right,0.24280512100085616,1,0,,,,,,,,,,,,,,,,,,,,,1,,,,,,,,,,,,,,,,,,,,,,,,,,,,,,,,,,,,,,,,,,,,,,118,157549,19,Female,1,2024/03/25_08:50:32,YZ,None,
,,,,,,calibration,0,15,2,500,11,S,1,left,0.524648171995068,1,0,,,,,,,,,,,,,,,,,,,,,1,,,,,,,,,,,,,,,,,,,,,,,,,,,,,,,,,,,,,,,,,,,,,,118,157549,19,Female,1,2024/03/25_08:50:32,YZ,None,
,,,,,,calibration,0,15,2,500,12,V,0,right,0.31326343899127096,1,0,,,,,,,,,,,,,,,,,,,,,1,,,,,,,,,,,,,,,,,,,,,,,,,,,,,,,,,,,,,,,,,,,,,,118,157549,19,Female,1,2024/03/25_08:50:32,YZ,None,
,,,,,,calibration,0,15,2,500,13,F,0,right,0.4523873270081822,1,0,,,,,,,,,,,,,,,,,,,,,1,,,,,,,,,,,,,,,,,,,,,,,,,,,,,,,,,,,,,,,,,,,,,,118,157549,19,Female,1,2024/03/25_08:50:32,YZ,None,
,,,,,,calibration,0,15,2,500,14,V,1,right,0.4554144199937582,0,0,,,,,,,,,,,,,,,,,,,,,1,,,,,,,,,,,,,,,,,,,,,,,,,,,,,,,,,,,,,,,,,,,,,,118,157549,19,Female,1,2024/03/25_08:50:32,YZ,None,
,,,,,,calibration,0,15,2,500,15,X,0,right,0.7427121979999356,1,0,,,,,,,,,,,,,,,,,,,,,1,,,,,,,,,,,,,,,,,,,,,,,,,,,,,,,,,,,,,,,,,,,,,,118,157549,19,Female,1,2024/03/25_08:50:32,YZ,None,
,,,,,,calibration,0,15,2,500,16,J,0,right,0.3763543560053222,1,0,,,,,,,,,,,,,,,,,,,,,1,,,,,,,,,,,,,,,,,,,,,,,,,,,,,,,,,,,,,,,,,,,,,,118,157549,19,Female,1,2024/03/25_08:50:32,YZ,None,
,,,,,,calibration,0,15,2,500,,,,,,,,0.7818181818181817,0.6,0.18181818181818182,0.8181818181818182,0.0,0.8181818181818181,0.4295188315009,3,2,0,0,0,9,12,5,11,0,,,,1,,,,,,,,,,,,,,,,,,,,,,,,,,,,,,,,,,,,,,,,,,,,,,118,157549,19,Female,1,2024/03/25_08:50:32,YZ,None,
,,,,,,Calibration,0,,2,500,,,,,,,,,,,,,,,,,,,,,,,,,10,,,1,,,,,,,,,,,,,,,,,,,,,,,,,,,,,,,,,,,,,,,,,,,,,,118,157549,19,Female,1,2024/03/25_08:50:32,YZ,None,
,,,,,,calibration,0,16,2,500,1,F,0,right,0.33626162400469184,1,0,,,,,,,,,,,,,,,,,,,,,1,,,,,,,,,,,,,,,,,,,,,,,,,,,,,,,,,,,,,,,,,,,,,,118,157549,19,Female,1,2024/03/25_08:50:32,YZ,None,
,,,,,,calibration,0,16,2,500,2,S,0,right,0.24027708999346942,1,0,,,,,,,,,,,,,,,,,,,,,1,,,,,,,,,,,,,,,,,,,,,,,,,,,,,,,,,,,,,,,,,,,,,,118,157549,19,Female,1,2024/03/25_08:50:32,YZ,None,
,,,,,,calibration,0,16,2,500,3,J,0,right,0.32846230300492607,1,0,,,,,,,,,,,,,,,,,,,,,1,,,,,,,,,,,,,,,,,,,,,,,,,,,,,,,,,,,,,,,,,,,,,,118,157549,19,Female,1,2024/03/25_08:50:32,YZ,None,
,,,,,,calibration,0,16,2,500,4,N,0,right,0.631603759014979,1,0,,,,,,,,,,,,,,,,,,,,,1,,,,,,,,,,,,,,,,,,,,,,,,,,,,,,,,,,,,,,,,,,,,,,118,157549,19,Female,1,2024/03/25_08:50:32,YZ,None,
,,,,,,calibration,0,16,2,500,5,J,1,left,0.4991671669995412,1,0,,,,,,,,,,,,,,,,,,,,,1,,,,,,,,,,,,,,,,,,,,,,,,,,,,,,,,,,,,,,,,,,,,,,118,157549,19,Female,1,2024/03/25_08:50:32,YZ,None,
,,,,,,calibration,0,16,2,500,6,X,0,right,0.5500877699814737,1,0,,,,,,,,,,,,,,,,,,,,,1,,,,,,,,,,,,,,,,,,,,,,,,,,,,,,,,,,,,,,,,,,,,,,118,157549,19,Female,1,2024/03/25_08:50:32,YZ,None,
,,,,,,calibration,0,16,2,500,7,J,1,left,0.45767107102437876,1,0,,,,,,,,,,,,,,,,,,,,,1,,,,,,,,,,,,,,,,,,,,,,,,,,,,,,,,,,,,,,,,,,,,,,118,157549,19,Female,1,2024/03/25_08:50:32,YZ,None,
,,,,,,calibration,0,16,2,500,8,S,0,right,0.3246613380033523,1,0,,,,,,,,,,,,,,,,,,,,,1,,,,,,,,,,,,,,,,,,,,,,,,,,,,,,,,,,,,,,,,,,,,,,118,157549,19,Female,1,2024/03/25_08:50:32,YZ,None,
,,,,,,calibration,0,16,2,500,9,Q,0,right,0.4497538110008463,1,0,,,,,,,,,,,,,,,,,,,,,1,,,,,,,,,,,,,,,,,,,,,,,,,,,,,,,,,,,,,,,,,,,,,,118,157549,19,Female,1,2024/03/25_08:50:32,YZ,None,
,,,,,,calibration,0,16,2,500,10,S,1,left,0.4410600010014605,1,0,,,,,,,,,,,,,,,,,,,,,1,,,,,,,,,,,,,,,,,,,,,,,,,,,,,,,,,,,,,,,,,,,,,,118,157549,19,Female,1,2024/03/25_08:50:32,YZ,None,
,,,,,,calibration,0,16,2,500,11,J,0,right,0.3922904279897921,1,0,,,,,,,,,,,,,,,,,,,,,1,,,,,,,,,,,,,,,,,,,,,,,,,,,,,,,,,,,,,,,,,,,,,,118,157549,19,Female,1,2024/03/25_08:50:32,YZ,None,
,,,,,,calibration,0,16,2,500,12,S,1,left,0.5257011890062131,1,0,,,,,,,,,,,,,,,,,,,,,1,,,,,,,,,,,,,,,,,,,,,,,,,,,,,,,,,,,,,,,,,,,,,,118,157549,19,Female,1,2024/03/25_08:50:32,YZ,None,
,,,,,,calibration,0,16,2,500,13,Q,0,right,0.29960704600671306,1,0,,,,,,,,,,,,,,,,,,,,,1,,,,,,,,,,,,,,,,,,,,,,,,,,,,,,,,,,,,,,,,,,,,,,118,157549,19,Female,1,2024/03/25_08:50:32,YZ,None,
,,,,,,calibration,0,16,2,500,14,J,0,left,0.601154823001707,0,0,,,,,,,,,,,,,,,,,,,,,1,,,,,,,,,,,,,,,,,,,,,,,,,,,,,,,,,,,,,,,,,,,,,,118,157549,19,Female,1,2024/03/25_08:50:32,YZ,None,
,,,,,,calibration,0,16,2,500,15,V,0,right,0.29379178397357464,1,0,,,,,,,,,,,,,,,,,,,,,1,,,,,,,,,,,,,,,,,,,,,,,,,,,,,,,,,,,,,,,,,,,,,,118,157549,19,Female,1,2024/03/25_08:50:32,YZ,None,
,,,,,,calibration,0,16,2,500,16,J,1,right,0.2970287670032121,0,0,,,,,,,,,,,,,,,,,,,,,1,,,,,,,,,,,,,,,,,,,,,,,,,,,,,,,,,,,,,,,,,,,,,,118,157549,19,Female,1,2024/03/25_08:50:32,YZ,None,
,,,,,,calibration,0,16,2,500,,,,,,,,0.9090909090909091,0.8,0.09090909090909091,0.9090909090909091,0.0,0.9090909090909091,0.4167862481881457,4,1,0,0,0,10,14,5,11,0,,,,1,,,,,,,,,,,,,,,,,,,,,,,,,,,,,,,,,,,,,,,,,,,,,,118,157549,19,Female,1,2024/03/25_08:50:32,YZ,None,
,,,,,,Calibration,0,,2,500,,,,,,,,,,,,,,,,,,,,,,,,,11,,,1,,,,,,,,,,,,,,,,,,,,,,,,,,,,,,,,,,,,,,,,,,,,,,118,157549,19,Female,1,2024/03/25_08:50:32,YZ,None,
,,,,,,calibration,0,9,2,426,1,Q,0,right,0.4937024870014284,1,0,,,,,,,,,,,,,,,,,,,,,1,,,,,,,,,,,,,,,,,,,,,,,,,,,,,,,,,,,,,,,,,,,,,,118,157549,19,Female,1,2024/03/25_08:50:32,YZ,None,
,,,,,,calibration,0,9,2,426,2,Q,0,right,0.5121950180036947,1,0,,,,,,,,,,,,,,,,,,,,,1,,,,,,,,,,,,,,,,,,,,,,,,,,,,,,,,,,,,,,,,,,,,,,118,157549,19,Female,1,2024/03/25_08:50:32,YZ,None,
,,,,,,calibration,0,9,2,426,3,S,0,right,0.4618390859977808,1,0,,,,,,,,,,,,,,,,,,,,,1,,,,,,,,,,,,,,,,,,,,,,,,,,,,,,,,,,,,,,,,,,,,,,118,157549,19,Female,1,2024/03/25_08:50:32,YZ,None,
,,,,,,calibration,0,9,2,426,4,X,0,right,0.39706505998037755,1,0,,,,,,,,,,,,,,,,,,,,,1,,,,,,,,,,,,,,,,,,,,,,,,,,,,,,,,,,,,,,,,,,,,,,118,157549,19,Female,1,2024/03/25_08:50:32,YZ,None,
,,,,,,calibration,0,9,2,426,5,S,1,left,0.30888083297759295,1,0,,,,,,,,,,,,,,,,,,,,,1,,,,,,,,,,,,,,,,,,,,,,,,,,,,,,,,,,,,,,,,,,,,,,118,157549,19,Female,1,2024/03/25_08:50:32,YZ,None,
,,,,,,calibration,0,9,2,426,6,N,0,right,0.2931437169900164,1,0,,,,,,,,,,,,,,,,,,,,,1,,,,,,,,,,,,,,,,,,,,,,,,,,,,,,,,,,,,,,,,,,,,,,118,157549,19,Female,1,2024/03/25_08:50:32,YZ,None,
,,,,,,calibration,0,9,2,426,7,X,0,right,0.3727800539927557,1,0,,,,,,,,,,,,,,,,,,,,,1,,,,,,,,,,,,,,,,,,,,,,,,,,,,,,,,,,,,,,,,,,,,,,118,157549,19,Female,1,2024/03/25_08:50:32,YZ,None,
,,,,,,calibration,0,9,2,426,8,N,1,left,0.4891423200024292,1,0,,,,,,,,,,,,,,,,,,,,,1,,,,,,,,,,,,,,,,,,,,,,,,,,,,,,,,,,,,,,,,,,,,,,118,157549,19,Female,1,2024/03/25_08:50:32,YZ,None,
,,,,,,calibration,0,9,2,426,9,S,0,right,0.3999176009965595,1,0,,,,,,,,,,,,,,,,,,,,,1,,,,,,,,,,,,,,,,,,,,,,,,,,,,,,,,,,,,,,,,,,,,,,118,157549,19,Female,1,2024/03/25_08:50:32,YZ,None,
,,,,,,calibration,0,9,2,426,10,V,0,right,0.49075995199382305,1,0,,,,,,,,,,,,,,,,,,,,,1,,,,,,,,,,,,,,,,,,,,,,,,,,,,,,,,,,,,,,,,,,,,,,118,157549,19,Female,1,2024/03/25_08:50:32,YZ,None,
,,,,,,calibration,0,9,2,426,11,J,0,right,0.6228774079936557,1,0,,,,,,,,,,,,,,,,,,,,,1,,,,,,,,,,,,,,,,,,,,,,,,,,,,,,,,,,,,,,,,,,,,,,118,157549,19,Female,1,2024/03/25_08:50:32,YZ,None,
,,,,,,calibration,0,9,2,426,12,V,1,right,0.42717560299206525,0,0,,,,,,,,,,,,,,,,,,,,,1,,,,,,,,,,,,,,,,,,,,,,,,,,,,,,,,,,,,,,,,,,,,,,118,157549,19,Female,1,2024/03/25_08:50:32,YZ,None,
,,,,,,calibration,0,9,2,426,13,J,1,right,0.40955410499009304,0,0,,,,,,,,,,,,,,,,,,,,,1,,,,,,,,,,,,,,,,,,,,,,,,,,,,,,,,,,,,,,,,,,,,,,118,157549,19,Female,1,2024/03/25_08:50:32,YZ,None,
,,,,,,calibration,0,9,2,426,14,N,0,right,0.5302320659975521,1,0,,,,,,,,,,,,,,,,,,,,,1,,,,,,,,,,,,,,,,,,,,,,,,,,,,,,,,,,,,,,,,,,,,,,118,157549,19,Female,1,2024/03/25_08:50:32,YZ,None,
,,,,,,calibration,0,9,2,426,15,F,0,right,0.512090962001821,1,0,,,,,,,,,,,,,,,,,,,,,1,,,,,,,,,,,,,,,,,,,,,,,,,,,,,,,,,,,,,,,,,,,,,,118,157549,19,Female,1,2024/03/25_08:50:32,YZ,None,
,,,,,,calibration,0,9,2,426,16,N,1,left,0.6322073169867508,1,0,,,,,,,,,,,,,,,,,,,,,1,,,,,,,,,,,,,,,,,,,,,,,,,,,,,,,,,,,,,,,,,,,,,,118,157549,19,Female,1,2024/03/25_08:50:32,YZ,None,
,,,,,,calibration,0,9,2,426,17,C,0,right,0.41376354100066237,1,0,,,,,,,,,,,,,,,,,,,,,1,,,,,,,,,,,,,,,,,,,,,,,,,,,,,,,,,,,,,,,,,,,,,,118,157549,19,Female,1,2024/03/25_08:50:32,YZ,None,
,,,,,,calibration,0,9,2,426,,,,,,,,0.9,0.6,0.0,1.0,0.0,1.0,0.4569015958764152,3,0,0,0,0,12,15,5,12,0,,,,1,,,,,,,,,,,,,,,,,,,,,,,,,,,,,,,,,,,,,,,,,,,,,,118,157549,19,Female,1,2024/03/25_08:50:32,YZ,None,
,,,,,,Calibration,0,,2,426,,,,,,,,,,,,,,,,,,,,,,,,,12,,,1,,,,,,,,,,,,,,,,,,,,,,,,,,,,,,,,,,,,,,,,,,,,,,118,157549,19,Female,1,2024/03/25_08:50:32,YZ,None,
,,,,,,calibration,0,17,2,361,1,N,0,right,0.4723951189953368,1,0,,,,,,,,,,,,,,,,,,,,,1,,,,,,,,,,,,,,,,,,,,,,,,,,,,,,,,,,,,,,,,,,,,,,118,157549,19,Female,1,2024/03/25_08:50:32,YZ,None,
,,,,,,calibration,0,17,2,361,2,S,0,right,0.4562526009976864,1,0,,,,,,,,,,,,,,,,,,,,,1,,,,,,,,,,,,,,,,,,,,,,,,,,,,,,,,,,,,,,,,,,,,,,118,157549,19,Female,1,2024/03/25_08:50:32,YZ,None,
,,,,,,calibration,0,17,2,361,3,Q,0,right,0.542937380989315,1,0,,,,,,,,,,,,,,,,,,,,,1,,,,,,,,,,,,,,,,,,,,,,,,,,,,,,,,,,,,,,,,,,,,,,118,157549,19,Female,1,2024/03/25_08:50:32,YZ,None,
,,,,,,calibration,0,17,2,361,4,S,1,left,0.4591126040031668,1,0,,,,,,,,,,,,,,,,,,,,,1,,,,,,,,,,,,,,,,,,,,,,,,,,,,,,,,,,,,,,,,,,,,,,118,157549,19,Female,1,2024/03/25_08:50:32,YZ,None,
,,,,,,calibration,0,17,2,361,5,J,0,right,0.41303827401134185,1,0,,,,,,,,,,,,,,,,,,,,,1,,,,,,,,,,,,,,,,,,,,,,,,,,,,,,,,,,,,,,,,,,,,,,118,157549,19,Female,1,2024/03/25_08:50:32,YZ,None,
,,,,,,calibration,0,17,2,361,6,F,0,right,0.4369572440045886,1,0,,,,,,,,,,,,,,,,,,,,,1,,,,,,,,,,,,,,,,,,,,,,,,,,,,,,,,,,,,,,,,,,,,,,118,157549,19,Female,1,2024/03/25_08:50:32,YZ,None,
,,,,,,calibration,0,17,2,361,7,C,0,right,0.3765132449916564,1,0,,,,,,,,,,,,,,,,,,,,,1,,,,,,,,,,,,,,,,,,,,,,,,,,,,,,,,,,,,,,,,,,,,,,118,157549,19,Female,1,2024/03/25_08:50:32,YZ,None,
,,,,,,calibration,0,17,2,361,8,J,0,right,0.5477824909903575,1,0,,,,,,,,,,,,,,,,,,,,,1,,,,,,,,,,,,,,,,,,,,,,,,,,,,,,,,,,,,,,,,,,,,,,118,157549,19,Female,1,2024/03/25_08:50:32,YZ,None,
,,,,,,calibration,0,17,2,361,9,C,1,right,0.302155181998387,0,0,,,,,,,,,,,,,,,,,,,,,1,,,,,,,,,,,,,,,,,,,,,,,,,,,,,,,,,,,,,,,,,,,,,,118,157549,19,Female,1,2024/03/25_08:50:32,YZ,None,
,,,,,,calibration,0,17,2,361,10,X,0,right,0.5610804510070011,1,0,,,,,,,,,,,,,,,,,,,,,1,,,,,,,,,,,,,,,,,,,,,,,,,,,,,,,,,,,,,,,,,,,,,,118,157549,19,Female,1,2024/03/25_08:50:32,YZ,None,
,,,,,,calibration,0,17,2,361,11,C,1,left,0.3905922699777875,1,0,,,,,,,,,,,,,,,,,,,,,1,,,,,,,,,,,,,,,,,,,,,,,,,,,,,,,,,,,,,,,,,,,,,,118,157549,19,Female,1,2024/03/25_08:50:32,YZ,None,
,,,,,,calibration,0,17,2,361,12,X,1,left,0.5304551929875743,1,0,,,,,,,,,,,,,,,,,,,,,1,,,,,,,,,,,,,,,,,,,,,,,,,,,,,,,,,,,,,,,,,,,,,,118,157549,19,Female,1,2024/03/25_08:50:32,YZ,None,
,,,,,,calibration,0,17,2,361,13,V,0,right,0.4471946520206984,1,0,,,,,,,,,,,,,,,,,,,,,1,,,,,,,,,,,,,,,,,,,,,,,,,,,,,,,,,,,,,,,,,,,,,,118,157549,19,Female,1,2024/03/25_08:50:32,YZ,None,
,,,,,,calibration,0,17,2,361,14,S,0,right,0.6034853750024922,1,0,,,,,,,,,,,,,,,,,,,,,1,,,,,,,,,,,,,,,,,,,,,,,,,,,,,,,,,,,,,,,,,,,,,,118,157549,19,Female,1,2024/03/25_08:50:32,YZ,None,
,,,,,,calibration,0,17,2,361,15,C,0,left,0.39958695400855504,0,0,,,,,,,,,,,,,,,,,,,,,1,,,,,,,,,,,,,,,,,,,,,,,,,,,,,,,,,,,,,,,,,,,,,,118,157549,19,Female,1,2024/03/25_08:50:32,YZ,None,
,,,,,,calibration,0,17,2,361,16,X,0,right,0.39206636100425385,1,0,,,,,,,,,,,,,,,,,,,,,1,,,,,,,,,,,,,,,,,,,,,,,,,,,,,,,,,,,,,,,,,,,,,,118,157549,19,Female,1,2024/03/25_08:50:32,YZ,None,
,,,,,,calibration,0,17,2,361,17,C,1,right,0.3119597639888525,0,0,,,,,,,,,,,,,,,,,,,,,1,,,,,,,,,,,,,,,,,,,,,,,,,,,,,,,,,,,,,,,,,,,,,,118,157549,19,Female,1,2024/03/25_08:50:32,YZ,None,
,,,,,,calibration,0,17,2,361,18,X,1,right,0.64192664399161,0,0,,,,,,,,,,,,,,,,,,,,,1,,,,,,,,,,,,,,,,,,,,,,,,,,,,,,,,,,,,,,,,,,,,,,118,157549,19,Female,1,2024/03/25_08:50:32,YZ,None,
,,,,,,calibration,0,17,2,361,,,,,,,,0.8125,0.5,0.08333333333333333,0.9166666666666666,0.0,0.9166666666666666,0.46030510027614785,3,1,0,0,0,11,14,6,12,0,,,,1,,,,,,,,,,,,,,,,,,,,,,,,,,,,,,,,,,,,,,,,,,,,,,118,157549,19,Female,1,2024/03/25_08:50:32,YZ,None,
,,,,,,Calibration,0,,2,361,,,,,,,,,,,,,,,,,,,,,,,,,13,,,1,,,,,,,,,,,,,,,,,,,,,,,,,,,,,,,,,,,,,,,,,,,,,,118,157549,19,Female,1,2024/03/25_08:50:32,YZ,None,
,,,,,,calibration,0,13,2,361,1,S,0,right,0.4797293300216552,1,0,,,,,,,,,,,,,,,,,,,,,1,,,,,,,,,,,,,,,,,,,,,,,,,,,,,,,,,,,,,,,,,,,,,,118,157549,19,Female,1,2024/03/25_08:50:32,YZ,None,
,,,,,,calibration,0,13,2,361,2,X,0,right,0.2523766430094838,1,0,,,,,,,,,,,,,,,,,,,,,1,,,,,,,,,,,,,,,,,,,,,,,,,,,,,,,,,,,,,,,,,,,,,,118,157549,19,Female,1,2024/03/25_08:50:32,YZ,None,
,,,,,,calibration,0,13,2,361,3,Q,0,right,0.3365933269960806,1,0,,,,,,,,,,,,,,,,,,,,,1,,,,,,,,,,,,,,,,,,,,,,,,,,,,,,,,,,,,,,,,,,,,,,118,157549,19,Female,1,2024/03/25_08:50:32,YZ,None,
,,,,,,calibration,0,13,2,361,4,X,1,right,0.41623727401020005,0,0,,,,,,,,,,,,,,,,,,,,,1,,,,,,,,,,,,,,,,,,,,,,,,,,,,,,,,,,,,,,,,,,,,,,118,157549,19,Female,1,2024/03/25_08:50:32,YZ,None,
,,,,,,calibration,0,13,2,361,5,Q,1,left,0.5412761329789646,1,0,,,,,,,,,,,,,,,,,,,,,1,,,,,,,,,,,,,,,,,,,,,,,,,,,,,,,,,,,,,,,,,,,,,,118,157549,19,Female,1,2024/03/25_08:50:32,YZ,None,
,,,,,,calibration,0,13,2,361,6,V,0,right,0.439202710025711,1,0,,,,,,,,,,,,,,,,,,,,,1,,,,,,,,,,,,,,,,,,,,,,,,,,,,,,,,,,,,,,,,,,,,,,118,157549,19,Female,1,2024/03/25_08:50:32,YZ,None,
,,,,,,calibration,0,13,2,361,7,F,0,right,0.31342845599283464,1,0,,,,,,,,,,,,,,,,,,,,,1,,,,,,,,,,,,,,,,,,,,,,,,,,,,,,,,,,,,,,,,,,,,,,118,157549,19,Female,1,2024/03/25_08:50:32,YZ,None,
,,,,,,calibration,0,13,2,361,8,C,0,right,0.35694149299524724,1,0,,,,,,,,,,,,,,,,,,,,,1,,,,,,,,,,,,,,,,,,,,,,,,,,,,,,,,,,,,,,,,,,,,,,118,157549,19,Female,1,2024/03/25_08:50:32,YZ,None,
,,,,,,calibration,0,13,2,361,9,J,0,right,0.44502371302223764,1,0,,,,,,,,,,,,,,,,,,,,,1,,,,,,,,,,,,,,,,,,,,,,,,,,,,,,,,,,,,,,,,,,,,,,118,157549,19,Female,1,2024/03/25_08:50:32,YZ,None,
,,,,,,calibration,0,13,2,361,10,C,1,left,0.34194466698681936,1,0,,,,,,,,,,,,,,,,,,,,,1,,,,,,,,,,,,,,,,,,,,,,,,,,,,,,,,,,,,,,,,,,,,,,118,157549,19,Female,1,2024/03/25_08:50:32,YZ,None,
,,,,,,calibration,0,13,2,361,11,J,1,right,0.5491190729953814,0,0,,,,,,,,,,,,,,,,,,,,,1,,,,,,,,,,,,,,,,,,,,,,,,,,,,,,,,,,,,,,,,,,,,,,118,157549,19,Female,1,2024/03/25_08:50:32,YZ,None,
,,,,,,calibration,0,13,2,361,12,N,0,right,0.5647937289904803,1,0,,,,,,,,,,,,,,,,,,,,,1,,,,,,,,,,,,,,,,,,,,,,,,,,,,,,,,,,,,,,,,,,,,,,118,157549,19,Female,1,2024/03/25_08:50:32,YZ,None,
,,,,,,calibration,0,13,2,361,13,J,1,left,0.5481468840152957,1,0,,,,,,,,,,,,,,,,,,,,,1,,,,,,,,,,,,,,,,,,,,,,,,,,,,,,,,,,,,,,,,,,,,,,118,157549,19,Female,1,2024/03/25_08:50:32,YZ,None,
,,,,,,calibration,0,13,2,361,14,Q,0,right,0.37905457301530987,1,0,,,,,,,,,,,,,,,,,,,,,1,,,,,,,,,,,,,,,,,,,,,,,,,,,,,,,,,,,,,,,,,,,,,,118,157549,19,Female,1,2024/03/25_08:50:32,YZ,None,
,,,,,,calibration,0,13,2,361,15,S,0,right,0.404728196997894,1,0,,,,,,,,,,,,,,,,,,,,,1,,,,,,,,,,,,,,,,,,,,,,,,,,,,,,,,,,,,,,,,,,,,,,118,157549,19,Female,1,2024/03/25_08:50:32,YZ,None,
,,,,,,calibration,0,13,2,361,16,N,0,right,0.6488118619890884,1,0,,,,,,,,,,,,,,,,,,,,,1,,,,,,,,,,,,,,,,,,,,,,,,,,,,,,,,,,,,,,,,,,,,,,118,157549,19,Female,1,2024/03/25_08:50:32,YZ,None,
,,,,,,calibration,0,13,2,361,17,F,0,right,0.4800761539954692,1,0,,,,,,,,,,,,,,,,,,,,,1,,,,,,,,,,,,,,,,,,,,,,,,,,,,,,,,,,,,,,,,,,,,,,118,157549,19,Female,1,2024/03/25_08:50:32,YZ,None,
,,,,,,calibration,0,13,2,361,18,S,0,right,0.519606568996096,1,0,,,,,,,,,,,,,,,,,,,,,1,,,,,,,,,,,,,,,,,,,,,,,,,,,,,,,,,,,,,,,,,,,,,,118,157549,19,Female,1,2024/03/25_08:50:32,YZ,None,
,,,,,,calibration,0,13,2,361,,,,,,,,0.9,0.6,0.0,1.0,0.0,1.0,0.44539393261301385,3,0,0,0,0,13,16,5,13,0,,,,1,,,,,,,,,,,,,,,,,,,,,,,,,,,,,,,,,,,,,,,,,,,,,,118,157549,19,Female,1,2024/03/25_08:50:32,YZ,None,
,,,,,,Calibration,0,,2,361,,,,,,,,,,,,,,,,,,,,,,,,,14,,,1,,,,,,,,,,,,,,,,,,,,,,,,,,,,,,,,,,,,,,,,,,,,,,118,157549,19,Female,1,2024/03/25_08:50:32,YZ,None,
,,,,,,calibration,0,23,2,303,1,J,0,right,0.35203089501010254,1,0,,,,,,,,,,,,,,,,,,,,,1,,,,,,,,,,,,,,,,,,,,,,,,,,,,,,,,,,,,,,,,,,,,,,118,157549,19,Female,1,2024/03/25_08:50:32,YZ,None,
,,,,,,calibration,0,23,2,303,2,F,0,right,0.25820455100620165,1,0,,,,,,,,,,,,,,,,,,,,,1,,,,,,,,,,,,,,,,,,,,,,,,,,,,,,,,,,,,,,,,,,,,,,118,157549,19,Female,1,2024/03/25_08:50:32,YZ,None,
,,,,,,calibration,0,23,2,303,3,V,0,right,0.36056634300621226,1,0,,,,,,,,,,,,,,,,,,,,,1,,,,,,,,,,,,,,,,,,,,,,,,,,,,,,,,,,,,,,,,,,,,,,118,157549,19,Female,1,2024/03/25_08:50:32,YZ,None,
,,,,,,calibration,0,23,2,303,4,X,0,right,0.6657445619930513,1,0,,,,,,,,,,,,,,,,,,,,,1,,,,,,,,,,,,,,,,,,,,,,,,,,,,,,,,,,,,,,,,,,,,,,118,157549,19,Female,1,2024/03/25_08:50:32,YZ,None,
,,,,,,calibration,0,23,2,303,5,S,0,right,0.46101834799628705,1,0,,,,,,,,,,,,,,,,,,,,,1,,,,,,,,,,,,,,,,,,,,,,,,,,,,,,,,,,,,,,,,,,,,,,118,157549,19,Female,1,2024/03/25_08:50:32,YZ,None,
,,,,,,calibration,0,23,2,303,6,X,1,right,0.3483364569838159,0,0,,,,,,,,,,,,,,,,,,,,,1,,,,,,,,,,,,,,,,,,,,,,,,,,,,,,,,,,,,,,,,,,,,,,118,157549,19,Female,1,2024/03/25_08:50:32,YZ,None,
,,,,,,calibration,0,23,2,303,7,F,0,left,0.3707301819813438,0,0,,,,,,,,,,,,,,,,,,,,,1,,,,,,,,,,,,,,,,,,,,,,,,,,,,,,,,,,,,,,,,,,,,,,118,157549,19,Female,1,2024/03/25_08:50:32,YZ,None,
,,,,,,calibration,0,23,2,303,8,Q,0,right,0.46015785599593073,1,0,,,,,,,,,,,,,,,,,,,,,1,,,,,,,,,,,,,,,,,,,,,,,,,,,,,,,,,,,,,,,,,,,,,,118,157549,19,Female,1,2024/03/25_08:50:32,YZ,None,
,,,,,,calibration,0,23,2,303,9,F,1,left,0.5904419530124869,1,0,,,,,,,,,,,,,,,,,,,,,1,,,,,,,,,,,,,,,,,,,,,,,,,,,,,,,,,,,,,,,,,,,,,,118,157549,19,Female,1,2024/03/25_08:50:32,YZ,None,
,,,,,,calibration,0,23,2,303,10,J,0,right,0.31712961598532274,1,0,,,,,,,,,,,,,,,,,,,,,1,,,,,,,,,,,,,,,,,,,,,,,,,,,,,,,,,,,,,,,,,,,,,,118,157549,19,Female,1,2024/03/25_08:50:32,YZ,None,
,,,,,,calibration,0,23,2,303,11,S,0,right,0.33591064301435836,1,0,,,,,,,,,,,,,,,,,,,,,1,,,,,,,,,,,,,,,,,,,,,,,,,,,,,,,,,,,,,,,,,,,,,,118,157549,19,Female,1,2024/03/25_08:50:32,YZ,None,
,,,,,,calibration,0,23,2,303,12,J,1,left,0.5323103179980535,1,0,,,,,,,,,,,,,,,,,,,,,1,,,,,,,,,,,,,,,,,,,,,,,,,,,,,,,,,,,,,,,,,,,,,,118,157549,19,Female,1,2024/03/25_08:50:32,YZ,None,
,,,,,,calibration,0,23,2,303,13,F,0,left,0.7690586050157435,0,0,,,,,,,,,,,,,,,,,,,,,1,,,,,,,,,,,,,,,,,,,,,,,,,,,,,,,,,,,,,,,,,,,,,,118,157549,19,Female,1,2024/03/25_08:50:32,YZ,None,
,,,,,,calibration,0,23,2,303,14,S,0,right,0.24715421799919568,1,0,,,,,,,,,,,,,,,,,,,,,1,,,,,,,,,,,,,,,,,,,,,,,,,,,,,,,,,,,,,,,,,,,,,,118,157549,19,Female,1,2024/03/25_08:50:32,YZ,None,
,,,,,,calibration,0,23,2,303,15,X,0,right,0.2813837159774266,1,0,,,,,,,,,,,,,,,,,,,,,1,,,,,,,,,,,,,,,,,,,,,,,,,,,,,,,,,,,,,,,,,,,,,,118,157549,19,Female,1,2024/03/25_08:50:32,YZ,None,
,,,,,,calibration,0,23,2,303,16,F,0,left,0.497314894979354,0,0,,,,,,,,,,,,,,,,,,,,,1,,,,,,,,,,,,,,,,,,,,,,,,,,,,,,,,,,,,,,,,,,,,,,118,157549,19,Female,1,2024/03/25_08:50:32,YZ,None,
,,,,,,calibration,0,23,2,303,17,C,0,right,0.3142005940026138,1,0,,,,,,,,,,,,,,,,,,,,,1,,,,,,,,,,,,,,,,,,,,,,,,,,,,,,,,,,,,,,,,,,,,,,118,157549,19,Female,1,2024/03/25_08:50:32,YZ,None,
,,,,,,calibration,0,23,2,303,18,F,1,left,0.5124646990152542,1,0,,,,,,,,,,,,,,,,,,,,,1,,,,,,,,,,,,,,,,,,,,,,,,,,,,,,,,,,,,,,,,,,,,,,118,157549,19,Female,1,2024/03/25_08:50:32,YZ,None,
,,,,,,calibration,0,23,2,303,19,C,1,left,0.32401988201308995,1,0,,,,,,,,,,,,,,,,,,,,,1,,,,,,,,,,,,,,,,,,,,,,,,,,,,,,,,,,,,,,,,,,,,,,118,157549,19,Female,1,2024/03/25_08:50:32,YZ,None,
,,,,,,calibration,0,23,2,303,,,,,,,,0.8535714285714286,0.8,0.21428571428571427,0.7857142857142857,0.0,0.7857142857142857,0.42095675436767604,4,3,0,0,0,11,15,5,14,0,,,,1,,,,,,,,,,,,,,,,,,,,,,,,,,,,,,,,,,,,,,,,,,,,,,118,157549,19,Female,1,2024/03/25_08:50:32,YZ,None,
,,,,,,Calibration,0,,2,303,,,,,,,,,,,,,,,,,,,,,,,,,15,,,1,,,,,,,,,,,,,,,,,,,,,,,,,,,,,,,,,,,,,,,,,,,,,,118,157549,19,Female,1,2024/03/25_08:50:32,YZ,None,
,,,,,,CALIBRATION,0,,,,,,,,,,,,,,,,,,,,,,,,,,,,15,0.8535714285714286,303,1,,,,,,,,,,,,,,,,,,,,,,,,,,,,,,,,,,,,,,,,,,,,,,118,157549,19,Female,1,2024/03/25_08:50:32,YZ,None,
1,./instructions/inst_prac_1/Slide24.png,right,13.839089118002448,563.6010174100229,577.4401065280254,,,,,,,,,,,,,,,,,,,,,,,,,,,,,,,,,1,,,,,,,,,,,,,,,,,,,,,,,,,,,,,,,,,,,,,,,,,,,,,,118,157549,19,Female,1,2024/03/25_08:50:32,YZ,None,
2,./instructions/inst_prac_1/Slide25.png,right,2.624139566993108,577.4639148170245,580.0880543840176,,,,,,,,,,,,,,,,,,,,,,,,,,,,,,,,,1,,,,,,,,,,,,,,,,,,,,,,,,,,,,,,,,,,,,,,,,,,,,,,118,157549,19,Female,1,2024/03/25_08:50:32,YZ,None,
3,./instructions/inst_prac_1/Slide26.png,right,1.4588497100048698,580.1171403350017,581.5759900450066,,,,,,,,,,,,,,,,,,,,,,,,,,,,,,,,,1,,,,,,,,,,,,,,,,,,,,,,,,,,,,,,,,,,,,,,,,,,,,,,118,157549,19,Female,1,2024/03/25_08:50:32,YZ,None,
4,./instructions/inst_prac_1/Slide27.png,right,1.3791329619998578,581.6048815350223,582.9840144970221,,,,,,,,,,,,,,,,,,,,,,,,,,,,,,,,,1,,,,,,,,,,,,,,,,,,,,,,,,,,,,,,,,,,,,,,,,,,,,,,118,157549,19,Female,1,2024/03/25_08:50:32,YZ,None,
5,./instructions/inst_prac_1/Slide28.png,right,1.155067343992414,583.0129907090159,584.1680580530083,,,,,,,,,,,,,,,,,,,,,,,,,,,,,,,,,1,,,,,,,,,,,,,,,,,,,,,,,,,,,,,,,,,,,,,,,,,,,,,,118,157549,19,Female,1,2024/03/25_08:50:32,YZ,None,
6,./instructions/inst_prac_1/Slide29.png,right,6.346558315010043,584.1974959060026,590.5440542210126,,,,,,,,,,,,,,,,,,,,,,,,,,,,,,,,,1,,,,,,,,,,,,,,,,,,,,,,,,,,,,,,,,,,,,,,,,,,,,,,118,157549,19,Female,1,2024/03/25_08:50:32,YZ,None,
7,./instructions/inst_prac_1/Slide30.png,right,4.110815637977794,590.5933386880206,594.7041543259984,,,,,,,,,,,,,,,,,,,,,,,,,,,,,,,,,1,,,,,,,,,,,,,,,,,,,,,,,,,,,,,,,,,,,,,,,,,,,,,,118,157549,19,Female,1,2024/03/25_08:50:32,YZ,None,
,,,,,,practice,0,18,1,1250,1,X,0,right,1.6044653650023974,1,0,,,,,,,,,,,,,,,,,,,,,1,,,,,,,,,,,,,,,,,,,,,,,,,,,,,,,,,,,,,,,,,,,,,,118,157549,19,Female,1,2024/03/25_08:50:32,YZ,None,
,,,,,,practice,0,18,1,1250,2,X,1,left,0.7815280559880193,1,0,,,,,,,,,,,,,,,,,,,,,1,,,,,,,,,,,,,,,,,,,,,,,,,,,,,,,,,,,,,,,,,,,,,,118,157549,19,Female,1,2024/03/25_08:50:32,YZ,None,
,,,,,,practice,0,18,1,1250,3,F,0,left,0.5827065999910701,0,0,,,,,,,,,,,,,,,,,,,,,1,,,,,,,,,,,,,,,,,,,,,,,,,,,,,,,,,,,,,,,,,,,,,,118,157549,19,Female,1,2024/03/25_08:50:32,YZ,None,
,,,,,,practice,0,18,1,1250,4,N,0,right,0.8361866099876352,1,0,,,,,,,,,,,,,,,,,,,,,1,,,,,,,,,,,,,,,,,,,,,,,,,,,,,,,,,,,,,,,,,,,,,,118,157549,19,Female,1,2024/03/25_08:50:32,YZ,None,
,,,,,,practice,0,18,1,1250,5,F,0,left,0.9274263069964945,0,0,,,,,,,,,,,,,,,,,,,,,1,,,,,,,,,,,,,,,,,,,,,,,,,,,,,,,,,,,,,,,,,,,,,,118,157549,19,Female,1,2024/03/25_08:50:32,YZ,None,
,,,,,,practice,0,18,1,1250,6,Q,0,right,1.1806481099920347,1,0,,,,,,,,,,,,,,,,,,,,,1,,,,,,,,,,,,,,,,,,,,,,,,,,,,,,,,,,,,,,,,,,,,,,118,157549,19,Female,1,2024/03/25_08:50:32,YZ,None,
,,,,,,practice,0,18,1,1250,7,Q,1,left,0.8951511660125107,1,0,,,,,,,,,,,,,,,,,,,,,1,,,,,,,,,,,,,,,,,,,,,,,,,,,,,,,,,,,,,,,,,,,,,,118,157549,19,Female,1,2024/03/25_08:50:32,YZ,None,
,,,,,,practice,0,18,1,1250,8,V,0,left,0.7163318040256854,0,0,,,,,,,,,,,,,,,,,,,,,1,,,,,,,,,,,,,,,,,,,,,,,,,,,,,,,,,,,,,,,,,,,,,,118,157549,19,Female,1,2024/03/25_08:50:32,YZ,None,
,,,,,,practice,0,18,1,1250,9,F,0,right,0.6785675330029335,1,0,,,,,,,,,,,,,,,,,,,,,1,,,,,,,,,,,,,,,,,,,,,,,,,,,,,,,,,,,,,,,,,,,,,,118,157549,19,Female,1,2024/03/25_08:50:32,YZ,None,
,,,,,,practice,0,18,1,1250,10,F,1,left,1.3224725960171781,1,0,,,,,,,,,,,,,,,,,,,,,1,,,,,,,,,,,,,,,,,,,,,,,,,,,,,,,,,,,,,,,,,,,,,,118,157549,19,Female,1,2024/03/25_08:50:32,YZ,None,
,,,,,,practice,0,18,1,1250,,,,,,,,0.8928571428571428,1.0,0.42857142857142855,0.5714285714285714,0.0,0.5714285714285714,0.9525484147015959,3,3,0,0,0,4,7,3,7,0,,,,1,,,,,,,,,,,,,,,,,,,,,,,,,,,,,,,,,,,,,,,,,,,,,,118,157549,19,Female,1,2024/03/25_08:50:32,YZ,None,
1,./instructions/inst_prac_1_next/Slide35.png,right,1.0174723880190868,616.294596355001,617.3120687430201,,,,,,,,,,,,,,,,,,,,,,,,,,,,,,,,,1,,,,,,,,,,,,,,,,,,,,,,,,,,,,,,,,,,,,,,,,,,,,,,118,157549,19,Female,1,2024/03/25_08:50:32,YZ,None,
,,,,,,practice,0,17,1,303,1,J,0,right,0.8201297790219542,1,0,,,,,,,,,,,,,,,,,,,,,1,,,,,,,,,,,,,,,,,,,,,,,,,,,,,,,,,,,,,,,,,,,,,,118,157549,19,Female,1,2024/03/25_08:50:32,YZ,None,
,,,,,,practice,0,17,1,303,2,F,0,right,0.5162549060187303,1,0,,,,,,,,,,,,,,,,,,,,,1,,,,,,,,,,,,,,,,,,,,,,,,,,,,,,,,,,,,,,,,,,,,,,118,157549,19,Female,1,2024/03/25_08:50:32,YZ,None,
,,,,,,practice,0,17,1,303,3,C,0,right,0.3781719870166853,1,0,,,,,,,,,,,,,,,,,,,,,1,,,,,,,,,,,,,,,,,,,,,,,,,,,,,,,,,,,,,,,,,,,,,,118,157549,19,Female,1,2024/03/25_08:50:32,YZ,None,
,,,,,,practice,0,17,1,303,4,S,0,right,0.5329676389810629,1,0,,,,,,,,,,,,,,,,,,,,,1,,,,,,,,,,,,,,,,,,,,,,,,,,,,,,,,,,,,,,,,,,,,,,118,157549,19,Female,1,2024/03/25_08:50:32,YZ,None,
,,,,,,practice,0,17,1,303,5,S,1,left,0.6094854689727072,1,0,,,,,,,,,,,,,,,,,,,,,1,,,,,,,,,,,,,,,,,,,,,,,,,,,,,,,,,,,,,,,,,,,,,,118,157549,19,Female,1,2024/03/25_08:50:32,YZ,None,
,,,,,,practice,0,17,1,303,6,V,0,left,0.4202272479888052,0,0,,,,,,,,,,,,,,,,,,,,,1,,,,,,,,,,,,,,,,,,,,,,,,,,,,,,,,,,,,,,,,,,,,,,118,157549,19,Female,1,2024/03/25_08:50:32,YZ,None,
,,,,,,practice,0,17,1,303,7,C,0,right,0.520244403014658,1,0,,,,,,,,,,,,,,,,,,,,,1,,,,,,,,,,,,,,,,,,,,,,,,,,,,,,,,,,,,,,,,,,,,,,118,157549,19,Female,1,2024/03/25_08:50:32,YZ,None,
,,,,,,practice,0,17,1,303,8,N,0,right,0.5454574089962989,1,0,,,,,,,,,,,,,,,,,,,,,1,,,,,,,,,,,,,,,,,,,,,,,,,,,,,,,,,,,,,,,,,,,,,,118,157549,19,Female,1,2024/03/25_08:50:32,YZ,None,
,,,,,,practice,0,17,1,303,9,F,0,right,0.49708337301854044,1,0,,,,,,,,,,,,,,,,,,,,,1,,,,,,,,,,,,,,,,,,,,,,,,,,,,,,,,,,,,,,,,,,,,,,118,157549,19,Female,1,2024/03/25_08:50:32,YZ,None,
,,,,,,practice,0,17,1,303,10,S,0,right,0.49176010000519454,1,0,,,,,,,,,,,,,,,,,,,,,1,,,,,,,,,,,,,,,,,,,,,,,,,,,,,,,,,,,,,,,,,,,,,,118,157549,19,Female,1,2024/03/25_08:50:32,YZ,None,
,,,,,,practice,0,17,1,303,11,S,1,left,0.4679724919842556,1,0,,,,,,,,,,,,,,,,,,,,,1,,,,,,,,,,,,,,,,,,,,,,,,,,,,,,,,,,,,,,,,,,,,,,118,157549,19,Female,1,2024/03/25_08:50:32,YZ,None,
,,,,,,practice,0,17,1,303,12,N,0,right,0.4483899600163568,1,0,,,,,,,,,,,,,,,,,,,,,1,,,,,,,,,,,,,,,,,,,,,,,,,,,,,,,,,,,,,,,,,,,,,,118,157549,19,Female,1,2024/03/25_08:50:32,YZ,None,
,,,,,,practice,0,17,1,303,13,N,1,left,0.5966640849946998,1,0,,,,,,,,,,,,,,,,,,,,,1,,,,,,,,,,,,,,,,,,,,,,,,,,,,,,,,,,,,,,,,,,,,,,118,157549,19,Female,1,2024/03/25_08:50:32,YZ,None,
,,,,,,practice,0,17,1,303,14,V,0,right,0.3727696420100983,1,0,,,,,,,,,,,,,,,,,,,,,1,,,,,,,,,,,,,,,,,,,,,,,,,,,,,,,,,,,,,,,,,,,,,,118,157549,19,Female,1,2024/03/25_08:50:32,YZ,None,
,,,,,,practice,0,17,1,303,15,X,0,right,0.4606246429902967,1,0,,,,,,,,,,,,,,,,,,,,,1,,,,,,,,,,,,,,,,,,,,,,,,,,,,,,,,,,,,,,,,,,,,,,118,157549,19,Female,1,2024/03/25_08:50:32,YZ,None,
,,,,,,practice,0,17,1,303,16,N,0,right,0.5647084899828769,1,0,,,,,,,,,,,,,,,,,,,,,1,,,,,,,,,,,,,,,,,,,,,,,,,,,,,,,,,,,,,,,,,,,,,,118,157549,19,Female,1,2024/03/25_08:50:32,YZ,None,
,,,,,,practice,0,17,1,303,17,N,1,left,0.5330832790059503,1,0,,,,,,,,,,,,,,,,,,,,,1,,,,,,,,,,,,,,,,,,,,,,,,,,,,,,,,,,,,,,,,,,,,,,118,157549,19,Female,1,2024/03/25_08:50:32,YZ,None,
,,,,,,practice,0,17,1,303,18,Q,0,right,0.37276406298042275,1,0,,,,,,,,,,,,,,,,,,,,,1,,,,,,,,,,,,,,,,,,,,,,,,,,,,,,,,,,,,,,,,,,,,,,118,157549,19,Female,1,2024/03/25_08:50:32,YZ,None,
,,,,,,practice,0,17,1,303,19,Q,1,left,0.44221280500642024,1,0,,,,,,,,,,,,,,,,,,,,,1,,,,,,,,,,,,,,,,,,,,,,,,,,,,,,,,,,,,,,,,,,,,,,118,157549,19,Female,1,2024/03/25_08:50:32,YZ,None,
,,,,,,practice,0,17,1,303,,,,,,,,0.9821428571428572,1.0,0.07142857142857142,0.9285714285714286,0.0,0.9285714285714286,0.5047879880003165,5,1,0,0,0,13,18,5,14,0,,,,1,,,,,,,,,,,,,,,,,,,,,,,,,,,,,,,,,,,,,,,,,,,,,,118,157549,19,Female,1,2024/03/25_08:50:32,YZ,None,
,,,,,,practice,0,7,1,303,1,N,0,right,0.5000495990097988,1,0,,,,,,,,,,,,,,,,,,,,,1,,,,,,,,,,,,,,,,,,,,,,,,,,,,,,,,,,,,,,,,,,,,,,118,157549,19,Female,1,2024/03/25_08:50:32,YZ,None,
,,,,,,practice,0,7,1,303,2,J,0,right,0.3205249210004695,1,0,,,,,,,,,,,,,,,,,,,,,1,,,,,,,,,,,,,,,,,,,,,,,,,,,,,,,,,,,,,,,,,,,,,,118,157549,19,Female,1,2024/03/25_08:50:32,YZ,None,
,,,,,,practice,0,7,1,303,3,V,0,right,0.3811950219969731,1,0,,,,,,,,,,,,,,,,,,,,,1,,,,,,,,,,,,,,,,,,,,,,,,,,,,,,,,,,,,,,,,,,,,,,118,157549,19,Female,1,2024/03/25_08:50:32,YZ,None,
,,,,,,practice,0,7,1,303,4,V,1,right,0.36979224599781446,0,0,,,,,,,,,,,,,,,,,,,,,1,,,,,,,,,,,,,,,,,,,,,,,,,,,,,,,,,,,,,,,,,,,,,,118,157549,19,Female,1,2024/03/25_08:50:32,YZ,None,
,,,,,,practice,0,7,1,303,5,N,0,right,0.6769510850135703,1,0,,,,,,,,,,,,,,,,,,,,,1,,,,,,,,,,,,,,,,,,,,,,,,,,,,,,,,,,,,,,,,,,,,,,118,157549,19,Female,1,2024/03/25_08:50:32,YZ,None,
,,,,,,practice,0,7,1,303,6,C,0,right,0.5966117549978662,1,0,,,,,,,,,,,,,,,,,,,,,1,,,,,,,,,,,,,,,,,,,,,,,,,,,,,,,,,,,,,,,,,,,,,,118,157549,19,Female,1,2024/03/25_08:50:32,YZ,None,
,,,,,,practice,0,7,1,303,7,C,1,left,0.5808804719999898,1,0,,,,,,,,,,,,,,,,,,,,,1,,,,,,,,,,,,,,,,,,,,,,,,,,,,,,,,,,,,,,,,,,,,,,118,157549,19,Female,1,2024/03/25_08:50:32,YZ,None,
,,,,,,practice,0,7,1,303,8,N,0,right,0.4600433240120765,1,0,,,,,,,,,,,,,,,,,,,,,1,,,,,,,,,,,,,,,,,,,,,,,,,,,,,,,,,,,,,,,,,,,,,,118,157549,19,Female,1,2024/03/25_08:50:32,YZ,None,
,,,,,,practice,0,7,1,303,9,Q,0,right,0.3613710310019087,1,0,,,,,,,,,,,,,,,,,,,,,1,,,,,,,,,,,,,,,,,,,,,,,,,,,,,,,,,,,,,,,,,,,,,,118,157549,19,Female,1,2024/03/25_08:50:32,YZ,None,
,,,,,,practice,0,7,1,303,10,Q,1,left,0.5043826320033986,1,0,,,,,,,,,,,,,,,,,,,,,1,,,,,,,,,,,,,,,,,,,,,,,,,,,,,,,,,,,,,,,,,,,,,,118,157549,19,Female,1,2024/03/25_08:50:32,YZ,None,
,,,,,,practice,0,7,1,303,11,C,0,right,0.5594939439906739,1,0,,,,,,,,,,,,,,,,,,,,,1,,,,,,,,,,,,,,,,,,,,,,,,,,,,,,,,,,,,,,,,,,,,,,118,157549,19,Female,1,2024/03/25_08:50:32,YZ,None,
,,,,,,practice,0,7,1,303,12,S,0,right,0.3965319140115753,1,0,,,,,,,,,,,,,,,,,,,,,1,,,,,,,,,,,,,,,,,,,,,,,,,,,,,,,,,,,,,,,,,,,,,,118,157549,19,Female,1,2024/03/25_08:50:32,YZ,None,
,,,,,,practice,0,7,1,303,13,N,0,right,0.514166317996569,1,0,,,,,,,,,,,,,,,,,,,,,1,,,,,,,,,,,,,,,,,,,,,,,,,,,,,,,,,,,,,,,,,,,,,,118,157549,19,Female,1,2024/03/25_08:50:32,YZ,None,
,,,,,,practice,0,7,1,303,14,V,0,right,0.5058400160050951,1,0,,,,,,,,,,,,,,,,,,,,,1,,,,,,,,,,,,,,,,,,,,,,,,,,,,,,,,,,,,,,,,,,,,,,118,157549,19,Female,1,2024/03/25_08:50:32,YZ,None,
,,,,,,practice,0,7,1,303,15,V,1,left,0.5237063959939405,1,0,,,,,,,,,,,,,,,,,,,,,1,,,,,,,,,,,,,,,,,,,,,,,,,,,,,,,,,,,,,,,,,,,,,,118,157549,19,Female,1,2024/03/25_08:50:32,YZ,None,
,,,,,,practice,0,7,1,303,16,J,0,right,0.5084039159992244,1,0,,,,,,,,,,,,,,,,,,,,,1,,,,,,,,,,,,,,,,,,,,,,,,,,,,,,,,,,,,,,,,,,,,,,118,157549,19,Female,1,2024/03/25_08:50:32,YZ,None,
,,,,,,practice,0,7,1,303,17,J,1,left,0.43168565101223066,1,0,,,,,,,,,,,,,,,,,,,,,1,,,,,,,,,,,,,,,,,,,,,,,,,,,,,,,,,,,,,,,,,,,,,,118,157549,19,Female,1,2024/03/25_08:50:32,YZ,None,
,,,,,,practice,0,7,1,303,18,V,0,right,0.3276400990143884,1,0,,,,,,,,,,,,,,,,,,,,,1,,,,,,,,,,,,,,,,,,,,,,,,,,,,,,,,,,,,,,,,,,,,,,118,157549,19,Female,1,2024/03/25_08:50:32,YZ,None,
,,,,,,practice,0,7,1,303,19,V,1,left,0.40931635699234903,1,0,,,,,,,,,,,,,,,,,,,,,1,,,,,,,,,,,,,,,,,,,,,,,,,,,,,,,,,,,,,,,,,,,,,,118,157549,19,Female,1,2024/03/25_08:50:32,YZ,None,
,,,,,,practice,0,7,1,303,,,,,,,,0.9583333333333334,0.8333333333333334,0.0,1.0,0.0,1.0,0.4699256156868375,5,0,0,0,0,13,18,6,13,0,,,,1,,,,,,,,,,,,,,,,,,,,,,,,,,,,,,,,,,,,,,,,,,,,,,118,157549,19,Female,1,2024/03/25_08:50:32,YZ,None,
1,./instructions/inst_prac_3/Slide37.png,right,2.3737175409914926,659.8582007370132,662.2319182780047,,,,,,,,,,,,,,,,,,,,,,,,,,,,,,,,,1,,,,,,,,,,,,,,,,,,,,,,,,,,,,,,,,,,,,,,,,,,,,,,118,157549,19,Female,1,2024/03/25_08:50:32,YZ,None,
2,./instructions/inst_prac_3/Slide38.png,right,1.4347177789895795,662.2613298150245,663.6960475940141,,,,,,,,,,,,,,,,,,,,,,,,,,,,,,,,,1,,,,,,,,,,,,,,,,,,,,,,,,,,,,,,,,,,,,,,,,,,,,,,118,157549,19,Female,1,2024/03/25_08:50:32,YZ,None,
3,./instructions/inst_prac_3/Slide39.png,right,2.6267978099931497,663.7251776360208,666.351975446014,,,,,,,,,,,,,,,,,,,,,,,,,,,,,,,,,1,,,,,,,,,,,,,,,,,,,,,,,,,,,,,,,,,,,,,,,,,,,,,,118,157549,19,Female,1,2024/03/25_08:50:32,YZ,None,
4,./instructions/inst_prac_3/Slide40.png,right,2.5308290630055126,666.3811371150077,668.9119661780132,,,,,,,,,,,,,,,,,,,,,,,,,,,,,,,,,1,,,,,,,,,,,,,,,,,,,,,,,,,,,,,,,,,,,,,,,,,,,,,,118,157549,19,Female,1,2024/03/25_08:50:32,YZ,None,
5,./instructions/inst_prac_3/Slide41.png,right,3.898452016990632,668.9415719640092,672.8400239809998,,,,,,,,,,,,,,,,,,,,,,,,,,,,,,,,,1,,,,,,,,,,,,,,,,,,,,,,,,,,,,,,,,,,,,,,,,,,,,,,118,157549,19,Female,1,2024/03/25_08:50:32,YZ,None,
6,./instructions/inst_prac_3/Slide42.png,right,1.9706608039850835,672.8693655840179,674.840026388003,,,,,,,,,,,,,,,,,,,,,,,,,,,,,,,,,1,,,,,,,,,,,,,,,,,,,,,,,,,,,,,,,,,,,,,,,,,,,,,,118,157549,19,Female,1,2024/03/25_08:50:32,YZ,None,
7,./instructions/inst_prac_3/Slide43.png,right,0.9623024360043928,674.8697906390007,675.8320930750051,,,,,,,,,,,,,,,,,,,,,,,,,,,,,,,,,1,,,,,,,,,,,,,,,,,,,,,,,,,,,,,,,,,,,,,,,,,,,,,,118,157549,19,Female,1,2024/03/25_08:50:32,YZ,None,
8,./instructions/inst_prac_3/Slide44.png,right,1.8930530899961013,675.8590722220251,677.7521253120212,,,,,,,,,,,,,,,,,,,,,,,,,,,,,,,,,1,,,,,,,,,,,,,,,,,,,,,,,,,,,,,,,,,,,,,,,,,,,,,,118,157549,19,Female,1,2024/03/25_08:50:32,YZ,None,
,,,,,,practice,0,19,3,788,1,C,0,right,1.1147611219785176,1,0,,,,,,,,,,,,,,,,,,,,,1,,,,,,,,,,,,,,,,,,,,,,,,,,,,,,,,,,,,,,,,,,,,,,118,157549,19,Female,1,2024/03/25_08:50:32,YZ,None,
,,,,,,practice,0,19,3,788,2,F,0,right,0.6531475000083447,1,0,,,,,,,,,,,,,,,,,,,,,1,,,,,,,,,,,,,,,,,,,,,,,,,,,,,,,,,,,,,,,,,,,,,,118,157549,19,Female,1,2024/03/25_08:50:32,YZ,None,
,,,,,,practice,0,19,3,788,3,Q,0,right,0.6523141369980294,1,0,,,,,,,,,,,,,,,,,,,,,1,,,,,,,,,,,,,,,,,,,,,,,,,,,,,,,,,,,,,,,,,,,,,,118,157549,19,Female,1,2024/03/25_08:50:32,YZ,None,
,,,,,,practice,0,19,3,788,4,C,1,left,0.6415166520164348,1,0,,,,,,,,,,,,,,,,,,,,,1,,,,,,,,,,,,,,,,,,,,,,,,,,,,,,,,,,,,,,,,,,,,,,118,157549,19,Female,1,2024/03/25_08:50:32,YZ,None,
,,,,,,practice,0,19,3,788,5,Q,0,right,0.7024130770005286,1,0,,,,,,,,,,,,,,,,,,,,,1,,,,,,,,,,,,,,,,,,,,,,,,,,,,,,,,,,,,,,,,,,,,,,118,157549,19,Female,1,2024/03/25_08:50:32,YZ,None,
,,,,,,practice,0,19,3,788,6,J,0,right,0.7854879589867778,1,0,,,,,,,,,,,,,,,,,,,,,1,,,,,,,,,,,,,,,,,,,,,,,,,,,,,,,,,,,,,,,,,,,,,,118,157549,19,Female,1,2024/03/25_08:50:32,YZ,None,
,,,,,,practice,0,19,3,788,7,X,0,right,0.7301543820067309,1,0,,,,,,,,,,,,,,,,,,,,,1,,,,,,,,,,,,,,,,,,,,,,,,,,,,,,,,,,,,,,,,,,,,,,118,157549,19,Female,1,2024/03/25_08:50:32,YZ,None,
,,,,,,practice,0,19,3,788,8,Q,1,left,0.6358501389913727,1,0,,,,,,,,,,,,,,,,,,,,,1,,,,,,,,,,,,,,,,,,,,,,,,,,,,,,,,,,,,,,,,,,,,,,118,157549,19,Female,1,2024/03/25_08:50:32,YZ,None,
,,,,,,practice,0,19,3,788,9,J,1,left,0.6388046290085185,1,0,,,,,,,,,,,,,,,,,,,,,1,,,,,,,,,,,,,,,,,,,,,,,,,,,,,,,,,,,,,,,,,,,,,,118,157549,19,Female,1,2024/03/25_08:50:32,YZ,None,
,,,,,,practice,0,19,3,788,10,N,0,right,0.662811961985426,1,0,,,,,,,,,,,,,,,,,,,,,1,,,,,,,,,,,,,,,,,,,,,,,,,,,,,,,,,,,,,,,,,,,,,,118,157549,19,Female,1,2024/03/25_08:50:32,YZ,None,
,,,,,,practice,0,19,3,788,11,S,0,right,0.7126051680243108,1,0,,,,,,,,,,,,,,,,,,,,,1,,,,,,,,,,,,,,,,,,,,,,,,,,,,,,,,,,,,,,,,,,,,,,118,157549,19,Female,1,2024/03/25_08:50:32,YZ,None,
,,,,,,practice,0,19,3,788,12,J,1,left,0.6987711240071803,1,0,,,,,,,,,,,,,,,,,,,,,1,,,,,,,,,,,,,,,,,,,,,,,,,,,,,,,,,,,,,,,,,,,,,,118,157549,19,Female,1,2024/03/25_08:50:32,YZ,None,
,,,,,,practice,0,19,3,788,13,S,0,right,0.7509130469989032,1,0,,,,,,,,,,,,,,,,,,,,,1,,,,,,,,,,,,,,,,,,,,,,,,,,,,,,,,,,,,,,,,,,,,,,118,157549,19,Female,1,2024/03/25_08:50:32,YZ,None,
,,,,,,practice,0,19,3,788,,,,,,,,1.0,1.0,0.0,1.0,0.0,1.0,0.7215039152316212,4,0,0,0,0,9,13,4,9,0,,,,1,,,,,,,,,,,,,,,,,,,,,,,,,,,,,,,,,,,,,,,,,,,,,,118,157549,19,Female,1,2024/03/25_08:50:32,YZ,None,
1,./instructions/inst_prac_3_next/Slide49.png,right,1.1972084139997605,700.7869470300211,701.9841554440209,,,,,,,,,,,,,,,,,,,,,,,,,,,,,,,,,1,,,,,,,,,,,,,,,,,,,,,,,,,,,,,,,,,,,,,,,,,,,,,,118,157549,19,Female,1,2024/03/25_08:50:32,YZ,None,
,,,,,,practice,0,31,3,303,1,F,0,right,0.6447599710081704,1,0,,,,,,,,,,,,,,,,,,,,,1,,,,,,,,,,,,,,,,,,,,,,,,,,,,,,,,,,,,,,,,,,,,,,118,157549,19,Female,1,2024/03/25_08:50:32,YZ,None,
,,,,,,practice,0,31,3,303,2,V,0,right,0.293697571993107,1,0,,,,,,,,,,,,,,,,,,,,,1,,,,,,,,,,,,,,,,,,,,,,,,,,,,,,,,,,,,,,,,,,,,,,118,157549,19,Female,1,2024/03/25_08:50:32,YZ,None,
,,,,,,practice,0,31,3,303,3,C,0,right,0.39640193097875454,1,0,,,,,,,,,,,,,,,,,,,,,1,,,,,,,,,,,,,,,,,,,,,,,,,,,,,,,,,,,,,,,,,,,,,,118,157549,19,Female,1,2024/03/25_08:50:32,YZ,None,
,,,,,,practice,0,31,3,303,4,F,1,left,0.37125127599574625,1,0,,,,,,,,,,,,,,,,,,,,,1,,,,,,,,,,,,,,,,,,,,,,,,,,,,,,,,,,,,,,,,,,,,,,118,157549,19,Female,1,2024/03/25_08:50:32,YZ,None,
,,,,,,practice,0,31,3,303,5,N,0,right,0.27657389402156696,1,0,,,,,,,,,,,,,,,,,,,,,1,,,,,,,,,,,,,,,,,,,,,,,,,,,,,,,,,,,,,,,,,,,,,,118,157549,19,Female,1,2024/03/25_08:50:32,YZ,None,
,,,,,,practice,0,31,3,303,6,V,0,right,0.3863962549949065,1,0,,,,,,,,,,,,,,,,,,,,,1,,,,,,,,,,,,,,,,,,,,,,,,,,,,,,,,,,,,,,,,,,,,,,118,157549,19,Female,1,2024/03/25_08:50:32,YZ,None,
,,,,,,practice,0,31,3,303,7,S,0,left,0.5527368990005925,0,0,,,,,,,,,,,,,,,,,,,,,1,,,,,,,,,,,,,,,,,,,,,,,,,,,,,,,,,,,,,,,,,,,,,,118,157549,19,Female,1,2024/03/25_08:50:32,YZ,None,
,,,,,,practice,0,31,3,303,8,Q,0,right,0.42027694999706,1,0,,,,,,,,,,,,,,,,,,,,,1,,,,,,,,,,,,,,,,,,,,,,,,,,,,,,,,,,,,,,,,,,,,,,118,157549,19,Female,1,2024/03/25_08:50:32,YZ,None,
,,,,,,practice,0,31,3,303,9,V,1,right,0.7091296250000596,0,0,,,,,,,,,,,,,,,,,,,,,1,,,,,,,,,,,,,,,,,,,,,,,,,,,,,,,,,,,,,,,,,,,,,,118,157549,19,Female,1,2024/03/25_08:50:32,YZ,None,
,,,,,,practice,0,31,3,303,10,S,1,left,0.806528373999754,1,0,,,,,,,,,,,,,,,,,,,,,1,,,,,,,,,,,,,,,,,,,,,,,,,,,,,,,,,,,,,,,,,,,,,,118,157549,19,Female,1,2024/03/25_08:50:32,YZ,None,
,,,,,,practice,0,31,3,303,11,J,0,right,0.48797301200102083,1,0,,,,,,,,,,,,,,,,,,,,,1,,,,,,,,,,,,,,,,,,,,,,,,,,,,,,,,,,,,,,,,,,,,,,118,157549,19,Female,1,2024/03/25_08:50:32,YZ,None,
,,,,,,practice,0,31,3,303,12,F,0,left,0.5378373560088221,0,0,,,,,,,,,,,,,,,,,,,,,1,,,,,,,,,,,,,,,,,,,,,,,,,,,,,,,,,,,,,,,,,,,,,,118,157549,19,Female,1,2024/03/25_08:50:32,YZ,None,
,,,,,,practice,0,31,3,303,13,S,1,left,0.6208339979930315,1,0,,,,,,,,,,,,,,,,,,,,,1,,,,,,,,,,,,,,,,,,,,,,,,,,,,,,,,,,,,,,,,,,,,,,118,157549,19,Female,1,2024/03/25_08:50:32,YZ,None,
,,,,,,practice,0,31,3,303,14,C,0,right,0.637758858007146,1,0,,,,,,,,,,,,,,,,,,,,,1,,,,,,,,,,,,,,,,,,,,,,,,,,,,,,,,,,,,,,,,,,,,,,118,157549,19,Female,1,2024/03/25_08:50:32,YZ,None,
,,,,,,practice,0,31,3,303,15,F,1,left,0.5649915020039771,1,0,,,,,,,,,,,,,,,,,,,,,1,,,,,,,,,,,,,,,,,,,,,,,,,,,,,,,,,,,,,,,,,,,,,,118,157549,19,Female,1,2024/03/25_08:50:32,YZ,None,
,,,,,,practice,0,31,3,303,16,S,1,right,0.48515679902629927,0,0,,,,,,,,,,,,,,,,,,,,,1,,,,,,,,,,,,,,,,,,,,,,,,,,,,,,,,,,,,,,,,,,,,,,118,157549,19,Female,1,2024/03/25_08:50:32,YZ,None,
,,,,,,practice,0,31,3,303,17,F,0,left,1.2048634979873896,0,0,,,,,,,,,,,,,,,,,,,,,1,,,,,,,,,,,,,,,,,,,,,,,,,,,,,,,,,,,,,,,,,,,,,,118,157549,19,Female,1,2024/03/25_08:50:32,YZ,None,
,,,,,,practice,0,31,3,303,18,N,0,right,0.7199467929895036,1,0,,,,,,,,,,,,,,,,,,,,,1,,,,,,,,,,,,,,,,,,,,,,,,,,,,,,,,,,,,,,,,,,,,,,118,157549,19,Female,1,2024/03/25_08:50:32,YZ,None,
,,,,,,practice,0,31,3,303,19,J,0,right,0.625342826009728,1,0,,,,,,,,,,,,,,,,,,,,,1,,,,,,,,,,,,,,,,,,,,,,,,,,,,,,,,,,,,,,,,,,,,,,118,157549,19,Female,1,2024/03/25_08:50:32,YZ,None,
,,,,,,practice,0,31,3,303,,,,,,,,0.7820512820512819,0.6666666666666666,0.23076923076923078,0.7692307692307693,0.0,0.7692307692307692,0.5653924941587704,4,3,0,0,0,10,14,6,13,0,,,,1,,,,,,,,,,,,,,,,,,,,,,,,,,,,,,,,,,,,,,,,,,,,,,118,157549,19,Female,1,2024/03/25_08:50:32,YZ,None,
,,,,,,practice,0,5,3,303,1,J,0,left,0.5976628040079959,0,0,,,,,,,,,,,,,,,,,,,,,1,,,,,,,,,,,,,,,,,,,,,,,,,,,,,,,,,,,,,,,,,,,,,,118,157549,19,Female,1,2024/03/25_08:50:32,YZ,None,
,,,,,,practice,0,5,3,303,2,N,0,right,0.4172659809992183,1,0,,,,,,,,,,,,,,,,,,,,,1,,,,,,,,,,,,,,,,,,,,,,,,,,,,,,,,,,,,,,,,,,,,,,118,157549,19,Female,1,2024/03/25_08:50:32,YZ,None,
,,,,,,practice,0,5,3,303,3,N,0,right,0.7367733030114323,1,0,,,,,,,,,,,,,,,,,,,,,1,,,,,,,,,,,,,,,,,,,,,,,,,,,,,,,,,,,,,,,,,,,,,,118,157549,19,Female,1,2024/03/25_08:50:32,YZ,None,
,,,,,,practice,0,5,3,303,4,J,1,right,0.636549564980669,0,0,,,,,,,,,,,,,,,,,,,,,1,,,,,,,,,,,,,,,,,,,,,,,,,,,,,,,,,,,,,,,,,,,,,,118,157549,19,Female,1,2024/03/25_08:50:32,YZ,None,
,,,,,,practice,0,5,3,303,5,N,1,right,0.5975072800065391,0,0,,,,,,,,,,,,,,,,,,,,,1,,,,,,,,,,,,,,,,,,,,,,,,,,,,,,,,,,,,,,,,,,,,,,118,157549,19,Female,1,2024/03/25_08:50:32,YZ,None,
,,,,,,practice,0,5,3,303,6,V,0,right,0.4602050070243422,1,0,,,,,,,,,,,,,,,,,,,,,1,,,,,,,,,,,,,,,,,,,,,,,,,,,,,,,,,,,,,,,,,,,,,,118,157549,19,Female,1,2024/03/25_08:50:32,YZ,None,
,,,,,,practice,0,5,3,303,7,C,0,right,0.5618555299879517,1,0,,,,,,,,,,,,,,,,,,,,,1,,,,,,,,,,,,,,,,,,,,,,,,,,,,,,,,,,,,,,,,,,,,,,118,157549,19,Female,1,2024/03/25_08:50:32,YZ,None,
,,,,,,practice,0,5,3,303,8,N,1,right,1.4049236509890761,0,0,,,,,,,,,,,,,,,,,,,,,1,,,,,,,,,,,,,,,,,,,,,,,,,,,,,,,,,,,,,,,,,,,,,,118,157549,19,Female,1,2024/03/25_08:50:32,YZ,None,
,,,,,,practice,0,5,3,303,9,C,0,left,0.5285177530022338,0,0,,,,,,,,,,,,,,,,,,,,,1,,,,,,,,,,,,,,,,,,,,,,,,,,,,,,,,,,,,,,,,,,,,,,118,157549,19,Female,1,2024/03/25_08:50:32,YZ,None,
,,,,,,practice,0,5,3,303,10,F,0,right,1.2612367880064994,1,0,,,,,,,,,,,,,,,,,,,,,1,,,,,,,,,,,,,,,,,,,,,,,,,,,,,,,,,,,,,,,,,,,,,,118,157549,19,Female,1,2024/03/25_08:50:32,YZ,None,
,,,,,,practice,0,5,3,303,11,S,0,right,1.7892117890005466,1,0,,,,,,,,,,,,,,,,,,,,,1,,,,,,,,,,,,,,,,,,,,,,,,,,,,,,,,,,,,,,,,,,,,,,118,157549,19,Female,1,2024/03/25_08:50:32,YZ,None,
,,,,,,practice,0,5,3,303,12,N,0,right,0.5439964479883201,1,0,,,,,,,,,,,,,,,,,,,,,1,,,,,,,,,,,,,,,,,,,,,,,,,,,,,,,,,,,,,,,,,,,,,,118,157549,19,Female,1,2024/03/25_08:50:32,YZ,None,
,,,,,,practice,0,5,3,303,13,X,0,right,0.6845082200015895,1,0,,,,,,,,,,,,,,,,,,,,,1,,,,,,,,,,,,,,,,,,,,,,,,,,,,,,,,,,,,,,,,,,,,,,118,157549,19,Female,1,2024/03/25_08:50:32,YZ,None,
,,,,,,practice,0,5,3,303,14,S,1,left,0.4739001499838196,1,0,,,,,,,,,,,,,,,,,,,,,1,,,,,,,,,,,,,,,,,,,,,,,,,,,,,,,,,,,,,,,,,,,,,,118,157549,19,Female,1,2024/03/25_08:50:32,YZ,None,
,,,,,,practice,0,5,3,303,15,X,0,right,0.7120756509830244,1,0,,,,,,,,,,,,,,,,,,,,,1,,,,,,,,,,,,,,,,,,,,,,,,,,,,,,,,,,,,,,,,,,,,,,118,157549,19,Female,1,2024/03/25_08:50:32,YZ,None,
,,,,,,practice,0,5,3,303,16,J,0,left,0.8687870209978428,0,0,,,,,,,,,,,,,,,,,,,,,1,,,,,,,,,,,,,,,,,,,,,,,,,,,,,,,,,,,,,,,,,,,,,,118,157549,19,Female,1,2024/03/25_08:50:32,YZ,None,
,,,,,,practice,0,5,3,303,17,Q,0,right,0.985414121998474,1,0,,,,,,,,,,,,,,,,,,,,,1,,,,,,,,,,,,,,,,,,,,,,,,,,,,,,,,,,,,,,,,,,,,,,118,157549,19,Female,1,2024/03/25_08:50:32,YZ,None,
,,,,,,practice,0,5,3,303,18,Q,0,right,0.7964260099979583,1,0,,,,,,,,,,,,,,,,,,,,,1,,,,,,,,,,,,,,,,,,,,,,,,,,,,,,,,,,,,,,,,,,,,,,118,157549,19,Female,1,2024/03/25_08:50:32,YZ,None,
,,,,,,practice,0,5,3,303,19,J,1,left,0.5612572440004442,1,0,,,,,,,,,,,,,,,,,,,,,1,,,,,,,,,,,,,,,,,,,,,,,,,,,,,,,,,,,,,,,,,,,,,,118,157549,19,Female,1,2024/03/25_08:50:32,YZ,None,
,,,,,,practice,0,5,3,303,,,,,,,,0.6625000000000001,0.4,0.21428571428571427,0.7857142857142857,0.0,0.7857142857142857,0.7693723324719988,2,3,0,0,0,11,13,5,14,0,,,,1,,,,,,,,,,,,,,,,,,,,,,,,,,,,,,,,,,,,,,,,,,,,,,118,157549,19,Female,1,2024/03/25_08:50:32,YZ,None,
1,./instructions/inst_redo_3/Slide47.png,right,11.789185992005514,749.8590141960012,761.6482001880067,,,,,,,,,,,,,,,,,,,,,,,,,,,,,,,,,1,,,,,,,,,,,,,,,,,,,,,,,,,,,,,,,,,,,,,,,,,,,,,,118,157549,19,Female,1,2024/03/25_08:50:32,YZ,None,
,,,,,,practice,0,32,3,303,1,V,0,right,0.6345668489811942,1,0,,,,,,,,,,,,,,,,,,,,,1,,,,,,,,,,,,,,,,,,,,,,,,,,,,,,,,,,,,,,,,,,,,,,118,157549,19,Female,1,2024/03/25_08:50:32,YZ,None,
,,,,,,practice,0,32,3,303,2,C,0,right,0.5570597879996058,1,0,,,,,,,,,,,,,,,,,,,,,1,,,,,,,,,,,,,,,,,,,,,,,,,,,,,,,,,,,,,,,,,,,,,,118,157549,19,Female,1,2024/03/25_08:50:32,YZ,None,
,,,,,,practice,0,32,3,303,3,X,0,right,0.5097695399890654,1,0,,,,,,,,,,,,,,,,,,,,,1,,,,,,,,,,,,,,,,,,,,,,,,,,,,,,,,,,,,,,,,,,,,,,118,157549,19,Female,1,2024/03/25_08:50:32,YZ,None,
,,,,,,practice,0,32,3,303,4,N,0,right,0.5739344190224074,1,0,,,,,,,,,,,,,,,,,,,,,1,,,,,,,,,,,,,,,,,,,,,,,,,,,,,,,,,,,,,,,,,,,,,,118,157549,19,Female,1,2024/03/25_08:50:32,YZ,None,
,,,,,,practice,0,32,3,303,5,X,0,left,0.5247888259764295,0,0,,,,,,,,,,,,,,,,,,,,,1,,,,,,,,,,,,,,,,,,,,,,,,,,,,,,,,,,,,,,,,,,,,,,118,157549,19,Female,1,2024/03/25_08:50:32,YZ,None,
,,,,,,practice,0,32,3,303,6,X,1,right,1.1166907730221283,0,0,,,,,,,,,,,,,,,,,,,,,1,,,,,,,,,,,,,,,,,,,,,,,,,,,,,,,,,,,,,,,,,,,,,,118,157549,19,Female,1,2024/03/25_08:50:32,YZ,None,
,,,,,,practice,0,32,3,303,7,Q,0,left,0.9139638869964983,0,0,,,,,,,,,,,,,,,,,,,,,1,,,,,,,,,,,,,,,,,,,,,,,,,,,,,,,,,,,,,,,,,,,,,,118,157549,19,Female,1,2024/03/25_08:50:32,YZ,None,
,,,,,,practice,0,32,3,303,8,X,1,right,0.9337119590200018,0,0,,,,,,,,,,,,,,,,,,,,,1,,,,,,,,,,,,,,,,,,,,,,,,,,,,,,,,,,,,,,,,,,,,,,118,157549,19,Female,1,2024/03/25_08:50:32,YZ,None,
,,,,,,practice,0,32,3,303,9,V,0,left,0.8945731449930463,0,0,,,,,,,,,,,,,,,,,,,,,1,,,,,,,,,,,,,,,,,,,,,,,,,,,,,,,,,,,,,,,,,,,,,,118,157549,19,Female,1,2024/03/25_08:50:32,YZ,None,
,,,,,,practice,0,32,3,303,10,X,0,right,0.6164821330166887,1,0,,,,,,,,,,,,,,,,,,,,,1,,,,,,,,,,,,,,,,,,,,,,,,,,,,,,,,,,,,,,,,,,,,,,118,157549,19,Female,1,2024/03/25_08:50:32,YZ,None,
,,,,,,practice,0,32,3,303,11,X,1,left,0.5815690479939803,1,0,,,,,,,,,,,,,,,,,,,,,1,,,,,,,,,,,,,,,,,,,,,,,,,,,,,,,,,,,,,,,,,,,,,,118,157549,19,Female,1,2024/03/25_08:50:32,YZ,None,
,,,,,,practice,0,32,3,303,12,V,1,left,0.7486895530018955,1,0,,,,,,,,,,,,,,,,,,,,,1,,,,,,,,,,,,,,,,,,,,,,,,,,,,,,,,,,,,,,,,,,,,,,118,157549,19,Female,1,2024/03/25_08:50:32,YZ,None,
,,,,,,practice,0,32,3,303,13,N,0,right,0.6156607310113031,1,0,,,,,,,,,,,,,,,,,,,,,1,,,,,,,,,,,,,,,,,,,,,,,,,,,,,,,,,,,,,,,,,,,,,,118,157549,19,Female,1,2024/03/25_08:50:32,YZ,None,
,,,,,,practice,0,32,3,303,14,Q,0,right,0.6690660580061376,1,0,,,,,,,,,,,,,,,,,,,,,1,,,,,,,,,,,,,,,,,,,,,,,,,,,,,,,,,,,,,,,,,,,,,,118,157549,19,Female,1,2024/03/25_08:50:32,YZ,None,
,,,,,,practice,0,32,3,303,15,N,0,left,0.8851395480160136,0,0,,,,,,,,,,,,,,,,,,,,,1,,,,,,,,,,,,,,,,,,,,,,,,,,,,,,,,,,,,,,,,,,,,,,118,157549,19,Female,1,2024/03/25_08:50:32,YZ,None,
,,,,,,practice,0,32,3,303,16,N,1,right,0.8205393359821755,0,0,,,,,,,,,,,,,,,,,,,,,1,,,,,,,,,,,,,,,,,,,,,,,,,,,,,,,,,,,,,,,,,,,,,,118,157549,19,Female,1,2024/03/25_08:50:32,YZ,None,
,,,,,,practice,0,32,3,303,17,Q,1,left,1.2073570700013079,1,0,,,,,,,,,,,,,,,,,,,,,1,,,,,,,,,,,,,,,,,,,,,,,,,,,,,,,,,,,,,,,,,,,,,,118,157549,19,Female,1,2024/03/25_08:50:32,YZ,None,
,,,,,,practice,0,32,3,303,18,X,0,left,1.2400139079836663,0,0,,,,,,,,,,,,,,,,,,,,,1,,,,,,,,,,,,,,,,,,,,,,,,,,,,,,,,,,,,,,,,,,,,,,118,157549,19,Female,1,2024/03/25_08:50:32,YZ,None,
,,,,,,practice,0,32,3,303,19,F,0,right,0.47981282498221844,1,0,,,,,,,,,,,,,,,,,,,,,1,,,,,,,,,,,,,,,,,,,,,,,,,,,,,,,,,,,,,,,,,,,,,,118,157549,19,Female,1,2024/03/25_08:50:32,YZ,None,
,,,,,,practice,0,32,3,303,,,,,,,,0.5865384615384616,0.5,0.38461538461538464,0.6153846153846154,0.0,0.6153846153846154,0.7643889155787245,3,5,0,0,0,8,11,6,13,0,,,,1,,,,,,,,,,,,,,,,,,,,,,,,,,,,,,,,,,,,,,,,,,,,,,118,157549,19,Female,1,2024/03/25_08:50:32,YZ,None,
1,./instructions/inst_redo_3/Slide47.png,right,2.852554851997411,787.1954529730137,790.0480078250112,,,,,,,,,,,,,,,,,,,,,,,,,,,,,,,,,1,,,,,,,,,,,,,,,,,,,,,,,,,,,,,,,,,,,,,,,,,,,,,,118,157549,19,Female,1,2024/03/25_08:50:32,YZ,None,
,,,,,,practice,0,6,3,303,1,V,0,right,0.510966230998747,1,0,,,,,,,,,,,,,,,,,,,,,1,,,,,,,,,,,,,,,,,,,,,,,,,,,,,,,,,,,,,,,,,,,,,,118,157549,19,Female,1,2024/03/25_08:50:32,YZ,None,
,,,,,,practice,0,6,3,303,2,F,0,right,0.4269196639943402,1,0,,,,,,,,,,,,,,,,,,,,,1,,,,,,,,,,,,,,,,,,,,,,,,,,,,,,,,,,,,,,,,,,,,,,118,157549,19,Female,1,2024/03/25_08:50:32,YZ,None,
,,,,,,practice,0,6,3,303,3,J,0,right,0.3564806930080522,1,0,,,,,,,,,,,,,,,,,,,,,1,,,,,,,,,,,,,,,,,,,,,,,,,,,,,,,,,,,,,,,,,,,,,,118,157549,19,Female,1,2024/03/25_08:50:32,YZ,None,
,,,,,,practice,0,6,3,303,4,X,0,right,0.4731435019930359,1,0,,,,,,,,,,,,,,,,,,,,,1,,,,,,,,,,,,,,,,,,,,,,,,,,,,,,,,,,,,,,,,,,,,,,118,157549,19,Female,1,2024/03/25_08:50:32,YZ,None,
,,,,,,practice,0,6,3,303,5,J,0,left,0.5365029459935613,0,0,,,,,,,,,,,,,,,,,,,,,1,,,,,,,,,,,,,,,,,,,,,,,,,,,,,,,,,,,,,,,,,,,,,,118,157549,19,Female,1,2024/03/25_08:50:32,YZ,None,
,,,,,,practice,0,6,3,303,6,J,1,left,1.7734120239911135,1,0,,,,,,,,,,,,,,,,,,,,,1,,,,,,,,,,,,,,,,,,,,,,,,,,,,,,,,,,,,,,,,,,,,,,118,157549,19,Female,1,2024/03/25_08:50:32,YZ,None,
,,,,,,practice,0,6,3,303,7,F,0,right,0.42870610899990425,1,0,,,,,,,,,,,,,,,,,,,,,1,,,,,,,,,,,,,,,,,,,,,,,,,,,,,,,,,,,,,,,,,,,,,,118,157549,19,Female,1,2024/03/25_08:50:32,YZ,None,
,,,,,,practice,0,6,3,303,8,S,0,right,0.8655670110019855,1,0,,,,,,,,,,,,,,,,,,,,,1,,,,,,,,,,,,,,,,,,,,,,,,,,,,,,,,,,,,,,,,,,,,,,118,157549,19,Female,1,2024/03/25_08:50:32,YZ,None,
,,,,,,practice,0,6,3,303,9,J,1,left,0.8014645289804321,1,0,,,,,,,,,,,,,,,,,,,,,1,,,,,,,,,,,,,,,,,,,,,,,,,,,,,,,,,,,,,,,,,,,,,,118,157549,19,Female,1,2024/03/25_08:50:32,YZ,None,
,,,,,,practice,0,6,3,303,10,X,0,left,1.04035679899971,0,0,,,,,,,,,,,,,,,,,,,,,1,,,,,,,,,,,,,,,,,,,,,,,,,,,,,,,,,,,,,,,,,,,,,,118,157549,19,Female,1,2024/03/25_08:50:32,YZ,None,
,,,,,,practice,0,6,3,303,11,J,0,left,0.2719038529903628,0,0,,,,,,,,,,,,,,,,,,,,,1,,,,,,,,,,,,,,,,,,,,,,,,,,,,,,,,,,,,,,,,,,,,,,118,157549,19,Female,1,2024/03/25_08:50:32,YZ,None,
,,,,,,practice,0,6,3,303,12,J,1,right,0.2657987830170896,0,0,,,,,,,,,,,,,,,,,,,,,1,,,,,,,,,,,,,,,,,,,,,,,,,,,,,,,,,,,,,,,,,,,,,,118,157549,19,Female,1,2024/03/25_08:50:32,YZ,None,
,,,,,,practice,0,6,3,303,13,X,1,left,1.6654372919874731,1,0,,,,,,,,,,,,,,,,,,,,,1,,,,,,,,,,,,,,,,,,,,,,,,,,,,,,,,,,,,,,,,,,,,,,118,157549,19,Female,1,2024/03/25_08:50:32,YZ,None,
,,,,,,practice,0,6,3,303,14,X,0,right,0.833931864995975,1,0,,,,,,,,,,,,,,,,,,,,,1,,,,,,,,,,,,,,,,,,,,,,,,,,,,,,,,,,,,,,,,,,,,,,118,157549,19,Female,1,2024/03/25_08:50:32,YZ,None,
,,,,,,practice,0,6,3,303,15,S,0,right,1.0811557949928101,1,0,,,,,,,,,,,,,,,,,,,,,1,,,,,,,,,,,,,,,,,,,,,,,,,,,,,,,,,,,,,,,,,,,,,,118,157549,19,Female,1,2024/03/25_08:50:32,YZ,None,
,,,,,,practice,0,6,3,303,16,N,0,right,0.9808833199786022,1,0,,,,,,,,,,,,,,,,,,,,,1,,,,,,,,,,,,,,,,,,,,,,,,,,,,,,,,,,,,,,,,,,,,,,118,157549,19,Female,1,2024/03/25_08:50:32,YZ,None,
,,,,,,practice,0,6,3,303,17,C,0,right,1.2889615079911891,1,0,,,,,,,,,,,,,,,,,,,,,1,,,,,,,,,,,,,,,,,,,,,,,,,,,,,,,,,,,,,,,,,,,,,,118,157549,19,Female,1,2024/03/25_08:50:32,YZ,None,
,,,,,,practice,0,6,3,303,18,J,0,left,1.025375899975188,0,0,,,,,,,,,,,,,,,,,,,,,1,,,,,,,,,,,,,,,,,,,,,,,,,,,,,,,,,,,,,,,,,,,,,,118,157549,19,Female,1,2024/03/25_08:50:32,YZ,None,
,,,,,,practice,0,6,3,303,19,N,1,right,0.6091348270128947,0,0,,,,,,,,,,,,,,,,,,,,,1,,,,,,,,,,,,,,,,,,,,,,,,,,,,,,,,,,,,,,,,,,,,,,118,157549,19,Female,1,2024/03/25_08:50:32,YZ,None,
,,,,,,practice,0,6,3,303,,,,,,,,0.7142857142857142,0.6,0.2857142857142857,0.7142857142857143,0.0,0.7142857142857143,0.8019001395211824,3,4,0,0,0,10,13,5,14,0,,,,1,,,,,,,,,,,,,,,,,,,,,,,,,,,,,,,,,,,,,,,,,,,,,,118,157549,19,Female,1,2024/03/25_08:50:32,YZ,None,
1,./instructions/inst_redo_3/Slide47.png,right,2.3306723379937466,816.3172807350056,818.6479530729994,,,,,,,,,,,,,,,,,,,,,,,,,,,,,,,,,1,,,,,,,,,,,,,,,,,,,,,,,,,,,,,,,,,,,,,,,,,,,,,,118,157549,19,Female,1,2024/03/25_08:50:32,YZ,None,
,,,,,,practice,0,16,3,303,1,C,0,right,0.8677114580059424,1,0,,,,,,,,,,,,,,,,,,,,,1,,,,,,,,,,,,,,,,,,,,,,,,,,,,,,,,,,,,,,,,,,,,,,118,157549,19,Female,1,2024/03/25_08:50:32,YZ,None,
,,,,,,practice,0,16,3,303,2,V,0,right,0.6178298099839594,1,0,,,,,,,,,,,,,,,,,,,,,1,,,,,,,,,,,,,,,,,,,,,,,,,,,,,,,,,,,,,,,,,,,,,,118,157549,19,Female,1,2024/03/25_08:50:32,YZ,None,
,,,,,,practice,0,16,3,303,3,V,0,right,0.4921348700008821,1,0,,,,,,,,,,,,,,,,,,,,,1,,,,,,,,,,,,,,,,,,,,,,,,,,,,,,,,,,,,,,,,,,,,,,118,157549,19,Female,1,2024/03/25_08:50:32,YZ,None,
,,,,,,practice,0,16,3,303,4,S,0,right,0.4883378870144952,1,0,,,,,,,,,,,,,,,,,,,,,1,,,,,,,,,,,,,,,,,,,,,,,,,,,,,,,,,,,,,,,,,,,,,,118,157549,19,Female,1,2024/03/25_08:50:32,YZ,None,
,,,,,,practice,0,16,3,303,5,S,0,right,0.8807241480099037,1,0,,,,,,,,,,,,,,,,,,,,,1,,,,,,,,,,,,,,,,,,,,,,,,,,,,,,,,,,,,,,,,,,,,,,118,157549,19,Female,1,2024/03/25_08:50:32,YZ,None,
,,,,,,practice,0,16,3,303,6,C,0,right,0.9250156210036948,1,0,,,,,,,,,,,,,,,,,,,,,1,,,,,,,,,,,,,,,,,,,,,,,,,,,,,,,,,,,,,,,,,,,,,,118,157549,19,Female,1,2024/03/25_08:50:32,YZ,None,
,,,,,,practice,0,16,3,303,7,S,1,left,0.722482298995601,1,0,,,,,,,,,,,,,,,,,,,,,1,,,,,,,,,,,,,,,,,,,,,,,,,,,,,,,,,,,,,,,,,,,,,,118,157549,19,Female,1,2024/03/25_08:50:32,YZ,None,
,,,,,,practice,0,16,3,303,8,S,1,right,0.7892501940077636,0,0,,,,,,,,,,,,,,,,,,,,,1,,,,,,,,,,,,,,,,,,,,,,,,,,,,,,,,,,,,,,,,,,,,,,118,157549,19,Female,1,2024/03/25_08:50:32,YZ,None,
,,,,,,practice,0,16,3,303,9,F,0,right,0.936614753009053,1,0,,,,,,,,,,,,,,,,,,,,,1,,,,,,,,,,,,,,,,,,,,,,,,,,,,,,,,,,,,,,,,,,,,,,118,157549,19,Female,1,2024/03/25_08:50:32,YZ,None,
,,,,,,practice,0,16,3,303,10,S,1,left,0.9809833370090928,1,0,,,,,,,,,,,,,,,,,,,,,1,,,,,,,,,,,,,,,,,,,,,,,,,,,,,,,,,,,,,,,,,,,,,,118,157549,19,Female,1,2024/03/25_08:50:32,YZ,None,
,,,,,,practice,0,16,3,303,11,C,0,right,1.0077339109848253,1,0,,,,,,,,,,,,,,,,,,,,,1,,,,,,,,,,,,,,,,,,,,,,,,,,,,,,,,,,,,,,,,,,,,,,118,157549,19,Female,1,2024/03/25_08:50:32,YZ,None,
,,,,,,practice,0,16,3,303,12,S,0,left,1.0972057610051706,0,0,,,,,,,,,,,,,,,,,,,,,1,,,,,,,,,,,,,,,,,,,,,,,,,,,,,,,,,,,,,,,,,,,,,,118,157549,19,Female,1,2024/03/25_08:50:32,YZ,None,
,,,,,,practice,0,16,3,303,13,Q,0,right,0.4555086779873818,1,0,,,,,,,,,,,,,,,,,,,,,1,,,,,,,,,,,,,,,,,,,,,,,,,,,,,,,,,,,,,,,,,,,,,,118,157549,19,Female,1,2024/03/25_08:50:32,YZ,None,
,,,,,,practice,0,16,3,303,14,C,1,right,1.032699481002055,0,0,,,,,,,,,,,,,,,,,,,,,1,,,,,,,,,,,,,,,,,,,,,,,,,,,,,,,,,,,,,,,,,,,,,,118,157549,19,Female,1,2024/03/25_08:50:32,YZ,None,
,,,,,,practice,0,16,3,303,15,S,1,left,1.1629485010053031,1,0,,,,,,,,,,,,,,,,,,,,,1,,,,,,,,,,,,,,,,,,,,,,,,,,,,,,,,,,,,,,,,,,,,,,118,157549,19,Female,1,2024/03/25_08:50:32,YZ,None,
,,,,,,practice,0,16,3,303,16,N,0,right,0.8285229930188507,1,0,,,,,,,,,,,,,,,,,,,,,1,,,,,,,,,,,,,,,,,,,,,,,,,,,,,,,,,,,,,,,,,,,,,,118,157549,19,Female,1,2024/03/25_08:50:32,YZ,None,
,,,,,,practice,0,16,3,303,17,N,0,right,1.1006731750094332,1,0,,,,,,,,,,,,,,,,,,,,,1,,,,,,,,,,,,,,,,,,,,,,,,,,,,,,,,,,,,,,,,,,,,,,118,157549,19,Female,1,2024/03/25_08:50:32,YZ,None,
,,,,,,practice,0,16,3,303,18,C,0,right,1.3120749250228982,1,0,,,,,,,,,,,,,,,,,,,,,1,,,,,,,,,,,,,,,,,,,,,,,,,,,,,,,,,,,,,,,,,,,,,,118,157549,19,Female,1,2024/03/25_08:50:32,YZ,None,
,,,,,,practice,0,16,3,303,19,F,0,right,1.0099321180023253,1,0,,,,,,,,,,,,,,,,,,,,,1,,,,,,,,,,,,,,,,,,,,,,,,,,,,,,,,,,,,,,,,,,,,,,118,157549,19,Female,1,2024/03/25_08:50:32,YZ,None,
,,,,,,practice,0,16,3,303,,,,,,,,0.8535714285714285,0.6,0.07142857142857142,0.9285714285714286,0.0,0.9285714285714286,0.8793886273725595,3,1,0,0,0,13,16,5,14,0,,,,1,,,,,,,,,,,,,,,,,,,,,,,,,,,,,,,,,,,,,,,,,,,,,,118,157549,19,Female,1,2024/03/25_08:50:32,YZ,None,
1,./instructions/inst_prac_main/Slide51.png,right,2.3911071580077987,847.9288247119985,850.3199318700063,,,,,,,,,,,,,,,,,,,,,,,,,,,,,,,,,1,,,,,,,,,,,,,,,,,,,,,,,,,,,,,,,,,,,,,,,,,,,,,,118,157549,19,Female,1,2024/03/25_08:50:32,YZ,None,
2,./instructions/inst_prac_main/Slide52.png,right,12.314430680999067,850.3494711960084,862.6639018770074,,,,,,,,,,,,,,,,,,,,,,,,,,,,,,,,,1,,,,,,,,,,,,,,,,,,,,,,,,,,,,,,,,,,,,,,,,,,,,,,118,157549,19,Female,1,2024/03/25_08:50:32,YZ,None,
1,./instructions/inst_prac_main/Slide53.png,left,11.600873996998416,862.7112268940255,874.3121008910239,,,,,,,,,,,,,,,,,,,,,,,,,,,,,,,,,1,,,,,,,,,,,,,,,,,,,,,,,,,,,,,,,,,,,,,,,,,,,,,,118,157549,19,Female,1,2024/03/25_08:50:32,YZ,None,
0,./instructions/inst_prac_main/Slide52.png,left,0.20063381499494426,874.3356797080196,874.5363135230145,,,,,,,,,,,,,,,,,,,,,,,,,,,,,,,,,1,,,,,,,,,,,,,,,,,,,,,,,,,,,,,,,,,,,,,,,,,,,,,,118,157549,19,Female,1,2024/03/25_08:50:32,YZ,None,
-1,./instructions/inst_prac_main/Slide51.png,left,0.20033286698162556,874.5546348100179,874.7549676769995,,,,,,,,,,,,,,,,,,,,,,,,,,,,,,,,,1,,,,,,,,,,,,,,,,,,,,,,,,,,,,,,,,,,,,,,,,,,,,,,118,157549,19,Female,1,2024/03/25_08:50:32,YZ,None,
0,./instructions/inst_prac_main/Slide54.png,right,24.181463802990038,874.7787132040248,898.9601770070149,,,,,,,,,,,,,,,,,,,,,,,,,,,,,,,,,1,,,,,,,,,,,,,,,,,,,,,,,,,,,,,,,,,,,,,,,,,,,,,,118,157549,19,Female,1,2024/03/25_08:50:32,YZ,None,
1,./instructions/inst_prac_main/Slide51.png,right,3.3271408359869383,898.9849451090267,902.3120859450137,,,,,,,,,,,,,,,,,,,,,,,,,,,,,,,,,1,,,,,,,,,,,,,,,,,,,,,,,,,,,,,,,,,,,,,,,,,,,,,,118,157549,19,Female,1,2024/03/25_08:50:32,YZ,None,
2,./instructions/inst_prac_main/Slide52.png,right,3.444990461022826,902.3390663879982,905.784056849021,,,,,,,,,,,,,,,,,,,,,,,,,,,,,,,,,1,,,,,,,,,,,,,,,,,,,,,,,,,,,,,,,,,,,,,,,,,,,,,,118,157549,19,Female,1,2024/03/25_08:50:32,YZ,None,
3,./instructions/inst_prac_main/Slide53.png,right,1.0785954050079454,905.8093440530065,906.8879394580144,,,,,,,,,,,,,,,,,,,,,,,,,,,,,,,,,1,,,,,,,,,,,,,,,,,,,,,,,,,,,,,,,,,,,,,,,,,,,,,,118,157549,19,Female,1,2024/03/25_08:50:32,YZ,None,
4,./instructions/inst_prac_main/Slide54.png,right,4.787640413007466,906.9163895210077,911.7040299340151,,,,,,,,,,,,,,,,,,,,,,,,,,,,,,,,,1,,,,,,,,,,,,,,,,,,,,,,,,,,,,,,,,,,,,,,,,,,,,,,118,157549,19,Female,1,2024/03/25_08:50:32,YZ,None,
,,,,,,practice_main,0,1,3,303,1,F,0,right,0.3547603230108507,1,0,,,,,,,,,,,,,,,,,,,,,1,,,,,,,,,,,,,,,,,,,,,,,,,,,,,,,,,,,,,,,,,,,,,,118,157549,19,Female,1,2024/03/25_08:50:32,YZ,None,
,,,,,,practice_main,0,1,3,303,2,N,0,right,0.34361260797595605,1,0,,,,,,,,,,,,,,,,,,,,,1,,,,,,,,,,,,,,,,,,,,,,,,,,,,,,,,,,,,,,,,,,,,,,118,157549,19,Female,1,2024/03/25_08:50:32,YZ,None,
,,,,,,practice_main,0,1,3,303,3,S,0,right,0.3132178949890658,1,0,,,,,,,,,,,,,,,,,,,,,1,,,,,,,,,,,,,,,,,,,,,,,,,,,,,,,,,,,,,,,,,,,,,,118,157549,19,Female,1,2024/03/25_08:50:32,YZ,None,
,,,,,,practice_main,0,1,3,303,4,N,0,right,0.380678914982127,1,0,,,,,,,,,,,,,,,,,,,,,1,,,,,,,,,,,,,,,,,,,,,,,,,,,,,,,,,,,,,,,,,,,,,,118,157549,19,Female,1,2024/03/25_08:50:32,YZ,None,
,,,,,,practice_main,0,1,3,303,5,X,0,right,0.43168004701146856,1,0,,,,,,,,,,,,,,,,,,,,,1,,,,,,,,,,,,,,,,,,,,,,,,,,,,,,,,,,,,,,,,,,,,,,118,157549,19,Female,1,2024/03/25_08:50:32,YZ,None,
,,,,,,practice_main,0,1,3,303,6,S,1,left,0.6155798170075286,1,0,,,,,,,,,,,,,,,,,,,,,1,,,,,,,,,,,,,,,,,,,,,,,,,,,,,,,,,,,,,,,,,,,,,,118,157549,19,Female,1,2024/03/25_08:50:32,YZ,None,
,,,,,,practice_main,0,1,3,303,7,N,1,left,0.5817038779787254,1,0,,,,,,,,,,,,,,,,,,,,,1,,,,,,,,,,,,,,,,,,,,,,,,,,,,,,,,,,,,,,,,,,,,,,118,157549,19,Female,1,2024/03/25_08:50:32,YZ,None,
,,,,,,practice_main,0,1,3,303,8,N,0,left,0.6424670239794068,0,0,,,,,,,,,,,,,,,,,,,,,1,,,,,,,,,,,,,,,,,,,,,,,,,,,,,,,,,,,,,,,,,,,,,,118,157549,19,Female,1,2024/03/25_08:50:32,YZ,None,
,,,,,,practice_main,0,1,3,303,9,J,0,right,0.32923314298386686,1,0,,,,,,,,,,,,,,,,,,,,,1,,,,,,,,,,,,,,,,,,,,,,,,,,,,,,,,,,,,,,,,,,,,,,118,157549,19,Female,1,2024/03/25_08:50:32,YZ,None,
,,,,,,practice_main,0,1,3,303,10,J,0,right,0.32766511099180207,1,0,,,,,,,,,,,,,,,,,,,,,1,,,,,,,,,,,,,,,,,,,,,,,,,,,,,,,,,,,,,,,,,,,,,,118,157549,19,Female,1,2024/03/25_08:50:32,YZ,None,
,,,,,,practice_main,0,1,3,303,11,X,0,right,0.5124001169751864,1,0,,,,,,,,,,,,,,,,,,,,,1,,,,,,,,,,,,,,,,,,,,,,,,,,,,,,,,,,,,,,,,,,,,,,118,157549,19,Female,1,2024/03/25_08:50:32,YZ,None,
,,,,,,practice_main,0,1,3,303,12,N,0,left,0.5805104890023358,0,0,,,,,,,,,,,,,,,,,,,,,1,,,,,,,,,,,,,,,,,,,,,,,,,,,,,,,,,,,,,,,,,,,,,,118,157549,19,Female,1,2024/03/25_08:50:32,YZ,None,
,,,,,,practice_main,0,1,3,303,13,V,0,right,0.32929357400280423,1,0,,,,,,,,,,,,,,,,,,,,,1,,,,,,,,,,,,,,,,,,,,,,,,,,,,,,,,,,,,,,,,,,,,,,118,157549,19,Female,1,2024/03/25_08:50:32,YZ,None,
,,,,,,practice_main,0,1,3,303,14,F,0,left,0.6560761359869502,0,0,,,,,,,,,,,,,,,,,,,,,1,,,,,,,,,,,,,,,,,,,,,,,,,,,,,,,,,,,,,,,,,,,,,,118,157549,19,Female,1,2024/03/25_08:50:32,YZ,None,
,,,,,,practice_main,0,1,3,303,15,F,0,left,0.38600903801852837,0,0,,,,,,,,,,,,,,,,,,,,,1,,,,,,,,,,,,,,,,,,,,,,,,,,,,,,,,,,,,,,,,,,,,,,118,157549,19,Female,1,2024/03/25_08:50:32,YZ,None,
,,,,,,practice_main,0,1,3,303,16,V,1,right,0.44951243299874477,0,0,,,,,,,,,,,,,,,,,,,,,1,,,,,,,,,,,,,,,,,,,,,,,,,,,,,,,,,,,,,,,,,,,,,,118,157549,19,Female,1,2024/03/25_08:50:32,YZ,None,
,,,,,,practice_main,0,1,3,303,17,F,1,right,0.8668904410151299,0,0,,,,,,,,,,,,,,,,,,,,,1,,,,,,,,,,,,,,,,,,,,,,,,,,,,,,,,,,,,,,,,,,,,,,118,157549,19,Female,1,2024/03/25_08:50:32,YZ,None,
,,,,,,practice_main,0,1,3,303,18,Q,0,right,0.4314738739922177,1,0,,,,,,,,,,,,,,,,,,,,,1,,,,,,,,,,,,,,,,,,,,,,,,,,,,,,,,,,,,,,,,,,,,,,118,157549,19,Female,1,2024/03/25_08:50:32,YZ,None,
,,,,,,practice_main,0,1,3,303,19,V,1,right,0.4821531450143084,0,0,,,,,,,,,,,,,,,,,,,,,1,,,,,,,,,,,,,,,,,,,,,,,,,,,,,,,,,,,,,,,,,,,,,,118,157549,19,Female,1,2024/03/25_08:50:32,YZ,None,
,,,,,,practice_main,0,1,3,303,,,,,,,,0.6000000000000001,0.4,0.2857142857142857,0.7142857142857143,0.0,0.7142857142857143,0.47446936883773705,2,4,0,0,0,10,12,5,14,0,,,,1,,,,,,,,,,,,,,,,,,,,,,,,,,,,,,,,,,,,,,,,,,,,,,118,157549,19,Female,1,2024/03/25_08:50:32,YZ,None,
,,,,,240325_091430,PRACTICE,0,1,3,303,,,,,,,,,,,,,,,,,,,,,,,,,,,,1,38,2,1,cue1.png,hard,B,20,1.0022716039966326,0,922.9820267420146,924.0008427740249,,,,,,,,,,,,,,,,,,,,,,,,,,,,,,,,,,,118,157549,19,Female,1,2024/03/25_08:50:32,YZ,None,
,,,,,,practice_main,0,2,3,303,1,J,0,right,0.4194882439915091,1,0,,,,,,,,,,,,,,,,,,,,,1,,,,,,,,,,,,,,,,,,,,,,,,,,,,,,,,,,,,,,,,,,,,,,118,157549,19,Female,1,2024/03/25_08:50:32,YZ,None,
,,,,,,practice_main,0,2,3,303,2,N,0,right,0.25868018699111417,1,0,,,,,,,,,,,,,,,,,,,,,1,,,,,,,,,,,,,,,,,,,,,,,,,,,,,,,,,,,,,,,,,,,,,,118,157549,19,Female,1,2024/03/25_08:50:32,YZ,None,
,,,,,,practice_main,0,2,3,303,3,J,0,right,0.5900290730060078,1,0,,,,,,,,,,,,,,,,,,,,,1,,,,,,,,,,,,,,,,,,,,,,,,,,,,,,,,,,,,,,,,,,,,,,118,157549,19,Female,1,2024/03/25_08:50:32,YZ,None,
,,,,,,practice_main,0,2,3,303,4,J,1,right,0.3487806979974266,0,0,,,,,,,,,,,,,,,,,,,,,1,,,,,,,,,,,,,,,,,,,,,,,,,,,,,,,,,,,,,,,,,,,,,,118,157549,19,Female,1,2024/03/25_08:50:32,YZ,None,
,,,,,,practice_main,0,2,3,303,5,Q,0,right,0.5119852889911272,1,0,,,,,,,,,,,,,,,,,,,,,1,,,,,,,,,,,,,,,,,,,,,,,,,,,,,,,,,,,,,,,,,,,,,,118,157549,19,Female,1,2024/03/25_08:50:32,YZ,None,
,,,,,,practice_main,0,2,3,303,6,J,1,left,0.40748865201021545,1,0,,,,,,,,,,,,,,,,,,,,,1,,,,,,,,,,,,,,,,,,,,,,,,,,,,,,,,,,,,,,,,,,,,,,118,157549,19,Female,1,2024/03/25_08:50:32,YZ,None,
,,,,,,practice_main,0,2,3,303,7,J,1,left,0.4016323759860825,1,0,,,,,,,,,,,,,,,,,,,,,1,,,,,,,,,,,,,,,,,,,,,,,,,,,,,,,,,,,,,,,,,,,,,,118,157549,19,Female,1,2024/03/25_08:50:32,YZ,None,
,,,,,,practice_main,0,2,3,303,8,F,0,right,0.5818272120086476,1,0,,,,,,,,,,,,,,,,,,,,,1,,,,,,,,,,,,,,,,,,,,,,,,,,,,,,,,,,,,,,,,,,,,,,118,157549,19,Female,1,2024/03/25_08:50:32,YZ,None,
,,,,,,practice_main,0,2,3,303,9,X,0,right,0.5124546390143223,1,0,,,,,,,,,,,,,,,,,,,,,1,,,,,,,,,,,,,,,,,,,,,,,,,,,,,,,,,,,,,,,,,,,,,,118,157549,19,Female,1,2024/03/25_08:50:32,YZ,None,
