Instruction,Stimulus,Key,RT,START,END,Phase,Block,TrialN,NbackLevel,ISI,LetterN,Letter,Letter_isSame,Letter_Resp,Letter_RT,Letter_Accuracy,Letter_Timeout,Trial_A_measure,Trial_HR,Trial_FAR,Trial_CDR,Trial_MSR,Trial_ACC,Trial_RT,Trial_HitsCount,Trial_FAsCount,Trial_SameNoRespCount,Trial_DiffNoRespCount,Trial_NoRespCount,Trial_CDsCount,Trial_CorrectRespCount,Trial_SameLetterCount,Trial_DiffLetterCount,Trial_InvalidLetterCount,TrialCountCali,CaliEnd_A_measure,ISI_calibrated,Run,TrialIndex,TrialNumber_total,TrialNumber_valid,CueLearning,TrialDemandLearning,CueMapping,OnlineRating,OnlineRatingRT,OnlineRatingTimeOut,CueSTART,RatingSTART,OfflineRatingTimePoint,OfflineRatingQuesIndex,CueFigure,TrialDemand,OfflineRating,OfflineRatingRT,CueStart,OfflineRatingStart,PhaseType,CueLeft,CueDemandLeft,CueRight,CueDemandRight,Choice,ChoiceDemand,TaskDemand,ChoiceRT,ChoiceTimeOut,ChoiceSTART,CueCheck,CueDemandCheck,CorrectAnswer,Answer,AnswerDemand,AnswerRT,AnswerACC,AnswerTimeOut,CheckSTART,DemandRatingQuesIndex,QuesTLX,DemandLevel,DemandRating,DemandRatingRT,QuesStart,PID,SONA,Age,Gender,Run,TIME,EXPERIMENTER,frameRate,
1,./instructions/inst_begin/Slide2.png,right,61.79406563800876,0.12318002700340003,61.91724566501216,,,,,,,,,,,,,,,,,,,,,,,,,,,,,,,,,1,,,,,,,,,,,,,,,,,,,,,,,,,,,,,,,,,,,,,,,,,,,,,,74,153772,21,Female,1,2024/02/22_08:49:34,YZ,None,
2,./instructions/inst_begin/Slide3.png,right,8.124872137996135,61.94443376202253,70.06930590001866,,,,,,,,,,,,,,,,,,,,,,,,,,,,,,,,,1,,,,,,,,,,,,,,,,,,,,,,,,,,,,,,,,,,,,,,,,,,,,,,74,153772,21,Female,1,2024/02/22_08:49:34,YZ,None,
3,./instructions/inst_begin/Slide4.png,right,11.682690224988619,70.09874091201345,81.78143113700207,,,,,,,,,,,,,,,,,,,,,,,,,,,,,,,,,1,,,,,,,,,,,,,,,,,,,,,,,,,,,,,,,,,,,,,,,,,,,,,,74,153772,21,Female,1,2024/02/22_08:49:34,YZ,None,
1,./instructions/inst_prac_2/Slide6.png,right,12.62496266400558,81.82002403200022,94.4449866960058,,,,,,,,,,,,,,,,,,,,,,,,,,,,,,,,,1,,,,,,,,,,,,,,,,,,,,,,,,,,,,,,,,,,,,,,,,,,,,,,74,153772,21,Female,1,2024/02/22_08:49:34,YZ,None,
2,./instructions/inst_prac_2/Slide7.png,right,14.594496698991861,94.47467002802296,109.06916672701482,,,,,,,,,,,,,,,,,,,,,,,,,,,,,,,,,1,,,,,,,,,,,,,,,,,,,,,,,,,,,,,,,,,,,,,,,,,,,,,,74,153772,21,Female,1,2024/02/22_08:49:34,YZ,None,
3,./instructions/inst_prac_2/Slide8.png,right,18.58158510798239,109.09569693202502,127.67728204000741,,,,,,,,,,,,,,,,,,,,,,,,,,,,,,,,,1,,,,,,,,,,,,,,,,,,,,,,,,,,,,,,,,,,,,,,,,,,,,,,74,153772,21,Female,1,2024/02/22_08:49:34,YZ,None,
4,./instructions/inst_prac_2/Slide9.png,right,3.698466023983201,127.70679847101565,131.40526449499885,,,,,,,,,,,,,,,,,,,,,,,,,,,,,,,,,1,,,,,,,,,,,,,,,,,,,,,,,,,,,,,,,,,,,,,,,,,,,,,,74,153772,21,Female,1,2024/02/22_08:49:34,YZ,None,
5,./instructions/inst_prac_2/Slide10.png,right,1.8505967670062091,131.4346320030163,133.2852287700225,,,,,,,,,,,,,,,,,,,,,,,,,,,,,,,,,1,,,,,,,,,,,,,,,,,,,,,,,,,,,,,,,,,,,,,,,,,,,,,,74,153772,21,Female,1,2024/02/22_08:49:34,YZ,None,
6,./instructions/inst_prac_2/Slide11.png,right,1.1729259290150367,133.31227780500194,134.48520373401698,,,,,,,,,,,,,,,,,,,,,,,,,,,,,,,,,1,,,,,,,,,,,,,,,,,,,,,,,,,,,,,,,,,,,,,,,,,,,,,,74,153772,21,Female,1,2024/02/22_08:49:34,YZ,None,
7,./instructions/inst_prac_2/Slide12.png,right,1.5321463589789346,134.51293655502377,136.0450829140027,,,,,,,,,,,,,,,,,,,,,,,,,,,,,,,,,1,,,,,,,,,,,,,,,,,,,,,,,,,,,,,,,,,,,,,,,,,,,,,,74,153772,21,Female,1,2024/02/22_08:49:34,YZ,None,
8,./instructions/inst_prac_2/Slide13.png,right,1.6509017200150993,136.0742014090065,137.7251031290216,,,,,,,,,,,,,,,,,,,,,,,,,,,,,,,,,1,,,,,,,,,,,,,,,,,,,,,,,,,,,,,,,,,,,,,,,,,,,,,,74,153772,21,Female,1,2024/02/22_08:49:34,YZ,None,
9,./instructions/inst_prac_2/Slide14.png,right,11.290644638007507,137.75462232599966,149.04526696400717,,,,,,,,,,,,,,,,,,,,,,,,,,,,,,,,,1,,,,,,,,,,,,,,,,,,,,,,,,,,,,,,,,,,,,,,,,,,,,,,74,153772,21,Female,1,2024/02/22_08:49:34,YZ,None,
10,./instructions/inst_prac_2/Slide15.png,right,14.219430161989294,149.0736485470261,163.2930787090154,,,,,,,,,,,,,,,,,,,,,,,,,,,,,,,,,1,,,,,,,,,,,,,,,,,,,,,,,,,,,,,,,,,,,,,,,,,,,,,,74,153772,21,Female,1,2024/02/22_08:49:34,YZ,None,
,,,,,,practice,0,35,2,2583,1,F,0,right,2.3292933630000334,1,0,,,,,,,,,,,,,,,,,,,,,1,,,,,,,,,,,,,,,,,,,,,,,,,,,,,,,,,,,,,,,,,,,,,,74,153772,21,Female,1,2024/02/22_08:49:34,YZ,None,
,,,,,,practice,0,35,2,2583,2,V,0,right,0.8410812160000205,1,0,,,,,,,,,,,,,,,,,,,,,1,,,,,,,,,,,,,,,,,,,,,,,,,,,,,,,,,,,,,,,,,,,,,,74,153772,21,Female,1,2024/02/22_08:49:34,YZ,None,
,,,,,,practice,0,35,2,2583,3,F,1,left,0.5660527430009097,1,0,,,,,,,,,,,,,,,,,,,,,1,,,,,,,,,,,,,,,,,,,,,,,,,,,,,,,,,,,,,,,,,,,,,,74,153772,21,Female,1,2024/02/22_08:49:34,YZ,None,
,,,,,,practice,0,35,2,2583,4,J,0,right,0.5321504510066006,1,0,,,,,,,,,,,,,,,,,,,,,1,,,,,,,,,,,,,,,,,,,,,,,,,,,,,,,,,,,,,,,,,,,,,,74,153772,21,Female,1,2024/02/22_08:49:34,YZ,None,
,,,,,,practice,0,35,2,2583,5,C,0,right,0.9686582100111991,1,0,,,,,,,,,,,,,,,,,,,,,1,,,,,,,,,,,,,,,,,,,,,,,,,,,,,,,,,,,,,,,,,,,,,,74,153772,21,Female,1,2024/02/22_08:49:34,YZ,None,
,,,,,,practice,0,35,2,2583,6,J,1,left,0.7160162079962902,1,0,,,,,,,,,,,,,,,,,,,,,1,,,,,,,,,,,,,,,,,,,,,,,,,,,,,,,,,,,,,,,,,,,,,,74,153772,21,Female,1,2024/02/22_08:49:34,YZ,None,
,,,,,,practice,0,35,2,2583,,,,,,,,1.0,1.0,0.0,1.0,0.0,1.0,0.9922086985025089,2,0,0,0,0,4,6,2,4,0,,,,1,,,,,,,,,,,,,,,,,,,,,,,,,,,,,,,,,,,,,,,,,,,,,,74,153772,21,Female,1,2024/02/22_08:49:34,YZ,None,
1,./instructions/inst_to_cali/Slide20.png,right,36.071915784006706,175.6053678120079,211.6772835960146,,,,,,,,,,,,,,,,,,,,,,,,,,,,,,,,,1,,,,,,,,,,,,,,,,,,,,,,,,,,,,,,,,,,,,,,,,,,,,,,74,153772,21,Female,1,2024/02/22_08:49:34,YZ,None,
1,./instructions/inst_cali/Slide22.png,right,17.47410735100857,211.71516716401675,229.18927451502532,,,,,,,,,,,,,,,,,,,,,,,,,,,,,,,,,1,,,,,,,,,,,,,,,,,,,,,,,,,,,,,,,,,,,,,,,,,,,,,,74,153772,21,Female,1,2024/02/22_08:49:34,YZ,None,
,,,,,,calibration,0,22,2,583,1,F,0,right,0.3243033940088935,1,0,,,,,,,,,,,,,,,,,,,,,1,,,,,,,,,,,,,,,,,,,,,,,,,,,,,,,,,,,,,,,,,,,,,,74,153772,21,Female,1,2024/02/22_08:49:34,YZ,None,
,,,,,,calibration,0,22,2,583,2,F,0,right,0.41720345299108885,1,0,,,,,,,,,,,,,,,,,,,,,1,,,,,,,,,,,,,,,,,,,,,,,,,,,,,,,,,,,,,,,,,,,,,,74,153772,21,Female,1,2024/02/22_08:49:34,YZ,None,
,,,,,,calibration,0,22,2,583,3,F,1,left,0.9325483029824682,1,0,,,,,,,,,,,,,,,,,,,,,1,,,,,,,,,,,,,,,,,,,,,,,,,,,,,,,,,,,,,,,,,,,,,,74,153772,21,Female,1,2024/02/22_08:49:34,YZ,None,
,,,,,,calibration,0,22,2,583,4,F,1,left,0.43868321101763286,1,0,,,,,,,,,,,,,,,,,,,,,1,,,,,,,,,,,,,,,,,,,,,,,,,,,,,,,,,,,,,,,,,,,,,,74,153772,21,Female,1,2024/02/22_08:49:34,YZ,None,
,,,,,,calibration,0,22,2,583,5,X,0,right,0.4325807820132468,1,0,,,,,,,,,,,,,,,,,,,,,1,,,,,,,,,,,,,,,,,,,,,,,,,,,,,,,,,,,,,,,,,,,,,,74,153772,21,Female,1,2024/02/22_08:49:34,YZ,None,
,,,,,,calibration,0,22,2,583,6,F,1,left,0.3451311370008625,1,0,,,,,,,,,,,,,,,,,,,,,1,,,,,,,,,,,,,,,,,,,,,,,,,,,,,,,,,,,,,,,,,,,,,,74,153772,21,Female,1,2024/02/22_08:49:34,YZ,None,
,,,,,,calibration,0,22,2,583,7,N,0,right,0.47530229898984544,1,0,,,,,,,,,,,,,,,,,,,,,1,,,,,,,,,,,,,,,,,,,,,,,,,,,,,,,,,,,,,,,,,,,,,,74,153772,21,Female,1,2024/02/22_08:49:34,YZ,None,
,,,,,,calibration,0,22,2,583,8,S,0,right,0.4439604600192979,1,0,,,,,,,,,,,,,,,,,,,,,1,,,,,,,,,,,,,,,,,,,,,,,,,,,,,,,,,,,,,,,,,,,,,,74,153772,21,Female,1,2024/02/22_08:49:34,YZ,None,
,,,,,,calibration,0,22,2,583,9,X,0,left,0.815138019999722,0,0,,,,,,,,,,,,,,,,,,,,,1,,,,,,,,,,,,,,,,,,,,,,,,,,,,,,,,,,,,,,,,,,,,,,74,153772,21,Female,1,2024/02/22_08:49:34,YZ,None,
,,,,,,calibration,0,22,2,583,10,S,1,right,0.5743278430018108,0,0,,,,,,,,,,,,,,,,,,,,,1,,,,,,,,,,,,,,,,,,,,,,,,,,,,,,,,,,,,,,,,,,,,,,74,153772,21,Female,1,2024/02/22_08:49:34,YZ,None,
,,,,,,calibration,0,22,2,583,11,X,1,right,0.41235024100751616,0,0,,,,,,,,,,,,,,,,,,,,,1,,,,,,,,,,,,,,,,,,,,,,,,,,,,,,,,,,,,,,,,,,,,,,74,153772,21,Female,1,2024/02/22_08:49:34,YZ,None,
,,,,,,calibration,0,22,2,583,12,J,0,right,0.6784700450079981,1,0,,,,,,,,,,,,,,,,,,,,,1,,,,,,,,,,,,,,,,,,,,,,,,,,,,,,,,,,,,,,,,,,,,,,74,153772,21,Female,1,2024/02/22_08:49:34,YZ,None,
,,,,,,calibration,0,22,2,583,13,N,0,left,0.43217906600330025,0,0,,,,,,,,,,,,,,,,,,,,,1,,,,,,,,,,,,,,,,,,,,,,,,,,,,,,,,,,,,,,,,,,,,,,74,153772,21,Female,1,2024/02/22_08:49:34,YZ,None,
,,,,,,calibration,0,22,2,583,14,X,0,right,0.3448878450144548,1,0,,,,,,,,,,,,,,,,,,,,,1,,,,,,,,,,,,,,,,,,,,,,,,,,,,,,,,,,,,,,,,,,,,,,74,153772,21,Female,1,2024/02/22_08:49:34,YZ,None,
,,,,,,calibration,0,22,2,583,15,J,0,right,0.5493382950080559,1,0,,,,,,,,,,,,,,,,,,,,,1,,,,,,,,,,,,,,,,,,,,,,,,,,,,,,,,,,,,,,,,,,,,,,74,153772,21,Female,1,2024/02/22_08:49:34,YZ,None,
,,,,,,calibration,0,22,2,583,,,,,,,,0.77,0.6,0.2,0.8,0.0,0.8,0.5077602929377463,3,2,0,0,0,8,11,5,10,0,,,,1,,,,,,,,,,,,,,,,,,,,,,,,,,,,,,,,,,,,,,,,,,,,,,74,153772,21,Female,1,2024/02/22_08:49:34,YZ,None,
,,,,,,Calibration,0,,2,583,,,,,,,,,,,,,,,,,,,,,,,,,1,,,1,,,,,,,,,,,,,,,,,,,,,,,,,,,,,,,,,,,,,,,,,,,,,,74,153772,21,Female,1,2024/02/22_08:49:34,YZ,None,
,,,,,,calibration,0,30,2,583,1,C,0,right,0.4988663900003303,1,0,,,,,,,,,,,,,,,,,,,,,1,,,,,,,,,,,,,,,,,,,,,,,,,,,,,,,,,,,,,,,,,,,,,,74,153772,21,Female,1,2024/02/22_08:49:34,YZ,None,
,,,,,,calibration,0,30,2,583,2,X,0,right,0.23988513700896874,1,0,,,,,,,,,,,,,,,,,,,,,1,,,,,,,,,,,,,,,,,,,,,,,,,,,,,,,,,,,,,,,,,,,,,,74,153772,21,Female,1,2024/02/22_08:49:34,YZ,None,
,,,,,,calibration,0,30,2,583,3,F,0,right,0.460394636989804,1,0,,,,,,,,,,,,,,,,,,,,,1,,,,,,,,,,,,,,,,,,,,,,,,,,,,,,,,,,,,,,,,,,,,,,74,153772,21,Female,1,2024/02/22_08:49:34,YZ,None,
,,,,,,calibration,0,30,2,583,4,Q,0,right,0.44341253201127984,1,0,,,,,,,,,,,,,,,,,,,,,1,,,,,,,,,,,,,,,,,,,,,,,,,,,,,,,,,,,,,,,,,,,,,,74,153772,21,Female,1,2024/02/22_08:49:34,YZ,None,
,,,,,,calibration,0,30,2,583,5,F,1,left,0.50085150700761,1,0,,,,,,,,,,,,,,,,,,,,,1,,,,,,,,,,,,,,,,,,,,,,,,,,,,,,,,,,,,,,,,,,,,,,74,153772,21,Female,1,2024/02/22_08:49:34,YZ,None,
,,,,,,calibration,0,30,2,583,6,N,0,right,0.28955149598186836,1,0,,,,,,,,,,,,,,,,,,,,,1,,,,,,,,,,,,,,,,,,,,,,,,,,,,,,,,,,,,,,,,,,,,,,74,153772,21,Female,1,2024/02/22_08:49:34,YZ,None,
,,,,,,calibration,0,30,2,583,7,Q,0,right,0.625066399021307,1,0,,,,,,,,,,,,,,,,,,,,,1,,,,,,,,,,,,,,,,,,,,,,,,,,,,,,,,,,,,,,,,,,,,,,74,153772,21,Female,1,2024/02/22_08:49:34,YZ,None,
,,,,,,calibration,0,30,2,583,8,N,1,left,0.3273453139991034,1,0,,,,,,,,,,,,,,,,,,,,,1,,,,,,,,,,,,,,,,,,,,,,,,,,,,,,,,,,,,,,,,,,,,,,74,153772,21,Female,1,2024/02/22_08:49:34,YZ,None,
,,,,,,calibration,0,30,2,583,9,S,0,right,0.2765014330216218,1,0,,,,,,,,,,,,,,,,,,,,,1,,,,,,,,,,,,,,,,,,,,,,,,,,,,,,,,,,,,,,,,,,,,,,74,153772,21,Female,1,2024/02/22_08:49:34,YZ,None,
,,,,,,calibration,0,30,2,583,10,J,0,left,0.45223801900283433,0,0,,,,,,,,,,,,,,,,,,,,,1,,,,,,,,,,,,,,,,,,,,,,,,,,,,,,,,,,,,,,,,,,,,,,74,153772,21,Female,1,2024/02/22_08:49:34,YZ,None,
,,,,,,calibration,0,30,2,583,11,N,0,right,0.21577484399313107,1,0,,,,,,,,,,,,,,,,,,,,,1,,,,,,,,,,,,,,,,,,,,,,,,,,,,,,,,,,,,,,,,,,,,,,74,153772,21,Female,1,2024/02/22_08:49:34,YZ,None,
,,,,,,calibration,0,30,2,583,12,J,1,right,0.30016268699546345,0,0,,,,,,,,,,,,,,,,,,,,,1,,,,,,,,,,,,,,,,,,,,,,,,,,,,,,,,,,,,,,,,,,,,,,74,153772,21,Female,1,2024/02/22_08:49:34,YZ,None,
,,,,,,calibration,0,30,2,583,13,F,0,left,0.3364698029763531,0,0,,,,,,,,,,,,,,,,,,,,,1,,,,,,,,,,,,,,,,,,,,,,,,,,,,,,,,,,,,,,,,,,,,,,74,153772,21,Female,1,2024/02/22_08:49:34,YZ,None,
,,,,,,calibration,0,30,2,583,14,J,1,right,0.26479054099763744,0,0,,,,,,,,,,,,,,,,,,,,,1,,,,,,,,,,,,,,,,,,,,,,,,,,,,,,,,,,,,,,,,,,,,,,74,153772,21,Female,1,2024/02/22_08:49:34,YZ,None,
,,,,,,calibration,0,30,2,583,15,N,0,right,0.23422116599977016,1,0,,,,,,,,,,,,,,,,,,,,,1,,,,,,,,,,,,,,,,,,,,,,,,,,,,,,,,,,,,,,,,,,,,,,74,153772,21,Female,1,2024/02/22_08:49:34,YZ,None,
,,,,,,calibration,0,30,2,583,,,,,,,,0.7386363636363636,0.5,0.18181818181818182,0.8181818181818182,0.0,0.8181818181818181,0.36436879366713887,2,2,0,0,0,9,11,4,11,0,,,,1,,,,,,,,,,,,,,,,,,,,,,,,,,,,,,,,,,,,,,,,,,,,,,74,153772,21,Female,1,2024/02/22_08:49:34,YZ,None,
,,,,,,Calibration,0,,2,583,,,,,,,,,,,,,,,,,,,,,,,,,2,,,1,,,,,,,,,,,,,,,,,,,,,,,,,,,,,,,,,,,,,,,,,,,,,,74,153772,21,Female,1,2024/02/22_08:49:34,YZ,None,
,,,,,,calibration,0,33,2,679,1,S,0,right,0.6396441539982334,1,0,,,,,,,,,,,,,,,,,,,,,1,,,,,,,,,,,,,,,,,,,,,,,,,,,,,,,,,,,,,,,,,,,,,,74,153772,21,Female,1,2024/02/22_08:49:34,YZ,None,
,,,,,,calibration,0,33,2,679,2,S,0,right,0.15984619600931183,1,0,,,,,,,,,,,,,,,,,,,,,1,,,,,,,,,,,,,,,,,,,,,,,,,,,,,,,,,,,,,,,,,,,,,,74,153772,21,Female,1,2024/02/22_08:49:34,YZ,None,
,,,,,,calibration,0,33,2,679,3,S,1,left,0.27233121200697497,1,0,,,,,,,,,,,,,,,,,,,,,1,,,,,,,,,,,,,,,,,,,,,,,,,,,,,,,,,,,,,,,,,,,,,,74,153772,21,Female,1,2024/02/22_08:49:34,YZ,None,
,,,,,,calibration,0,33,2,679,4,J,0,right,0.33665818700683303,1,0,,,,,,,,,,,,,,,,,,,,,1,,,,,,,,,,,,,,,,,,,,,,,,,,,,,,,,,,,,,,,,,,,,,,74,153772,21,Female,1,2024/02/22_08:49:34,YZ,None,
,,,,,,calibration,0,33,2,679,5,X,0,right,0.5230469899834134,1,0,,,,,,,,,,,,,,,,,,,,,1,,,,,,,,,,,,,,,,,,,,,,,,,,,,,,,,,,,,,,,,,,,,,,74,153772,21,Female,1,2024/02/22_08:49:34,YZ,None,
,,,,,,calibration,0,33,2,679,6,N,0,right,0.3737576490093488,1,0,,,,,,,,,,,,,,,,,,,,,1,,,,,,,,,,,,,,,,,,,,,,,,,,,,,,,,,,,,,,,,,,,,,,74,153772,21,Female,1,2024/02/22_08:49:34,YZ,None,
,,,,,,calibration,0,33,2,679,7,S,0,right,0.4129362920066342,1,0,,,,,,,,,,,,,,,,,,,,,1,,,,,,,,,,,,,,,,,,,,,,,,,,,,,,,,,,,,,,,,,,,,,,74,153772,21,Female,1,2024/02/22_08:49:34,YZ,None,
,,,,,,calibration,0,33,2,679,8,N,1,right,0.42493983401800506,0,0,,,,,,,,,,,,,,,,,,,,,1,,,,,,,,,,,,,,,,,,,,,,,,,,,,,,,,,,,,,,,,,,,,,,74,153772,21,Female,1,2024/02/22_08:49:34,YZ,None,
,,,,,,calibration,0,33,2,679,9,X,0,right,0.6809834520099685,1,0,,,,,,,,,,,,,,,,,,,,,1,,,,,,,,,,,,,,,,,,,,,,,,,,,,,,,,,,,,,,,,,,,,,,74,153772,21,Female,1,2024/02/22_08:49:34,YZ,None,
,,,,,,calibration,0,33,2,679,10,F,0,left,0.5224418219877407,0,0,,,,,,,,,,,,,,,,,,,,,1,,,,,,,,,,,,,,,,,,,,,,,,,,,,,,,,,,,,,,,,,,,,,,74,153772,21,Female,1,2024/02/22_08:49:34,YZ,None,
,,,,,,calibration,0,33,2,679,11,X,1,right,0.24748334800824523,0,0,,,,,,,,,,,,,,,,,,,,,1,,,,,,,,,,,,,,,,,,,,,,,,,,,,,,,,,,,,,,,,,,,,,,74,153772,21,Female,1,2024/02/22_08:49:34,YZ,None,
,,,,,,calibration,0,33,2,679,12,Q,0,right,0.38345079999999143,1,0,,,,,,,,,,,,,,,,,,,,,1,,,,,,,,,,,,,,,,,,,,,,,,,,,,,,,,,,,,,,,,,,,,,,74,153772,21,Female,1,2024/02/22_08:49:34,YZ,None,
,,,,,,calibration,0,33,2,679,13,X,1,left,0.24138547902111895,1,0,,,,,,,,,,,,,,,,,,,,,1,,,,,,,,,,,,,,,,,,,,,,,,,,,,,,,,,,,,,,,,,,,,,,74,153772,21,Female,1,2024/02/22_08:49:34,YZ,None,
,,,,,,calibration,0,33,2,679,14,C,0,right,0.344675869011553,1,0,,,,,,,,,,,,,,,,,,,,,1,,,,,,,,,,,,,,,,,,,,,,,,,,,,,,,,,,,,,,,,,,,,,,74,153772,21,Female,1,2024/02/22_08:49:34,YZ,None,
,,,,,,calibration,0,33,2,679,,,,,,,,0.7999999999999999,0.5,0.1,0.9,0.0,0.9,0.39739866314838374,2,1,0,0,0,9,11,4,10,0,,,,1,,,,,,,,,,,,,,,,,,,,,,,,,,,,,,,,,,,,,,,,,,,,,,74,153772,21,Female,1,2024/02/22_08:49:34,YZ,None,
,,,,,,Calibration,0,,2,679,,,,,,,,,,,,,,,,,,,,,,,,,3,,,1,,,,,,,,,,,,,,,,,,,,,,,,,,,,,,,,,,,,,,,,,,,,,,74,153772,21,Female,1,2024/02/22_08:49:34,YZ,None,
,,,,,,calibration,0,4,2,679,1,F,0,right,0.3338229719956871,1,0,,,,,,,,,,,,,,,,,,,,,1,,,,,,,,,,,,,,,,,,,,,,,,,,,,,,,,,,,,,,,,,,,,,,74,153772,21,Female,1,2024/02/22_08:49:34,YZ,None,
,,,,,,calibration,0,4,2,679,2,N,0,right,0.20402424299390987,1,0,,,,,,,,,,,,,,,,,,,,,1,,,,,,,,,,,,,,,,,,,,,,,,,,,,,,,,,,,,,,,,,,,,,,74,153772,21,Female,1,2024/02/22_08:49:34,YZ,None,
,,,,,,calibration,0,4,2,679,3,Q,0,right,0.3359334450215101,1,0,,,,,,,,,,,,,,,,,,,,,1,,,,,,,,,,,,,,,,,,,,,,,,,,,,,,,,,,,,,,,,,,,,,,74,153772,21,Female,1,2024/02/22_08:49:34,YZ,None,
,,,,,,calibration,0,4,2,679,4,X,0,right,0.22502369197900407,1,0,,,,,,,,,,,,,,,,,,,,,1,,,,,,,,,,,,,,,,,,,,,,,,,,,,,,,,,,,,,,,,,,,,,,74,153772,21,Female,1,2024/02/22_08:49:34,YZ,None,
,,,,,,calibration,0,4,2,679,5,Q,1,right,0.2716938389930874,0,0,,,,,,,,,,,,,,,,,,,,,1,,,,,,,,,,,,,,,,,,,,,,,,,,,,,,,,,,,,,,,,,,,,,,74,153772,21,Female,1,2024/02/22_08:49:34,YZ,None,
,,,,,,calibration,0,4,2,679,6,J,0,right,0.22427661399706267,1,0,,,,,,,,,,,,,,,,,,,,,1,,,,,,,,,,,,,,,,,,,,,,,,,,,,,,,,,,,,,,,,,,,,,,74,153772,21,Female,1,2024/02/22_08:49:34,YZ,None,
,,,,,,calibration,0,4,2,679,7,C,0,right,0.5453165160142817,1,0,,,,,,,,,,,,,,,,,,,,,1,,,,,,,,,,,,,,,,,,,,,,,,,,,,,,,,,,,,,,,,,,,,,,74,153772,21,Female,1,2024/02/22_08:49:34,YZ,None,
,,,,,,calibration,0,4,2,679,8,S,0,right,0.2881416540185455,1,0,,,,,,,,,,,,,,,,,,,,,1,,,,,,,,,,,,,,,,,,,,,,,,,,,,,,,,,,,,,,,,,,,,,,74,153772,21,Female,1,2024/02/22_08:49:34,YZ,None,
,,,,,,calibration,0,4,2,679,9,C,1,right,0.5246698480041232,0,0,,,,,,,,,,,,,,,,,,,,,1,,,,,,,,,,,,,,,,,,,,,,,,,,,,,,,,,,,,,,,,,,,,,,74,153772,21,Female,1,2024/02/22_08:49:34,YZ,None,
,,,,,,calibration,0,4,2,679,10,X,0,right,0.5915797369962092,1,0,,,,,,,,,,,,,,,,,,,,,1,,,,,,,,,,,,,,,,,,,,,,,,,,,,,,,,,,,,,,,,,,,,,,74,153772,21,Female,1,2024/02/22_08:49:34,YZ,None,
,,,,,,calibration,0,4,2,679,11,C,1,right,0.38498205598443747,0,0,,,,,,,,,,,,,,,,,,,,,1,,,,,,,,,,,,,,,,,,,,,,,,,,,,,,,,,,,,,,,,,,,,,,74,153772,21,Female,1,2024/02/22_08:49:34,YZ,None,
,,,,,,calibration,0,4,2,679,12,J,0,right,0.3862630609946791,1,0,,,,,,,,,,,,,,,,,,,,,1,,,,,,,,,,,,,,,,,,,,,,,,,,,,,,,,,,,,,,,,,,,,,,74,153772,21,Female,1,2024/02/22_08:49:34,YZ,None,
,,,,,,calibration,0,4,2,679,13,X,0,left,0.5761401999916416,0,0,,,,,,,,,,,,,,,,,,,,,1,,,,,,,,,,,,,,,,,,,,,,,,,,,,,,,,,,,,,,,,,,,,,,74,153772,21,Female,1,2024/02/22_08:49:34,YZ,None,
,,,,,,calibration,0,4,2,679,14,J,1,right,0.3755145829927642,0,0,,,,,,,,,,,,,,,,,,,,,1,,,,,,,,,,,,,,,,,,,,,,,,,,,,,,,,,,,,,,,,,,,,,,74,153772,21,Female,1,2024/02/22_08:49:34,YZ,None,
,,,,,,calibration,0,4,2,679,,,,,,,,0.225,0.0,0.1,0.9,0.0,0.9,0.3762416042840674,0,1,0,0,0,9,9,4,10,0,,,,1,,,,,,,,,,,,,,,,,,,,,,,,,,,,,,,,,,,,,,,,,,,,,,74,153772,21,Female,1,2024/02/22_08:49:34,YZ,None,
,,,,,,Calibration,0,,2,679,,,,,,,,,,,,,,,,,,,,,,,,,4,,,1,,,,,,,,,,,,,,,,,,,,,,,,,,,,,,,,,,,,,,,,,,,,,,74,153772,21,Female,1,2024/02/22_08:49:34,YZ,None,
,,,,,,calibration,0,22,2,788,1,V,0,right,0.4652987809968181,1,0,,,,,,,,,,,,,,,,,,,,,1,,,,,,,,,,,,,,,,,,,,,,,,,,,,,,,,,,,,,,,,,,,,,,74,153772,21,Female,1,2024/02/22_08:49:34,YZ,None,
,,,,,,calibration,0,22,2,788,2,Q,0,right,0.2769296689948533,1,0,,,,,,,,,,,,,,,,,,,,,1,,,,,,,,,,,,,,,,,,,,,,,,,,,,,,,,,,,,,,,,,,,,,,74,153772,21,Female,1,2024/02/22_08:49:34,YZ,None,
,,,,,,calibration,0,22,2,788,3,F,0,right,0.3325571680034045,1,0,,,,,,,,,,,,,,,,,,,,,1,,,,,,,,,,,,,,,,,,,,,,,,,,,,,,,,,,,,,,,,,,,,,,74,153772,21,Female,1,2024/02/22_08:49:34,YZ,None,
,,,,,,calibration,0,22,2,788,4,N,0,right,0.449225509975804,1,0,,,,,,,,,,,,,,,,,,,,,1,,,,,,,,,,,,,,,,,,,,,,,,,,,,,,,,,,,,,,,,,,,,,,74,153772,21,Female,1,2024/02/22_08:49:34,YZ,None,
,,,,,,calibration,0,22,2,788,5,C,0,right,0.41768745201989077,1,0,,,,,,,,,,,,,,,,,,,,,1,,,,,,,,,,,,,,,,,,,,,,,,,,,,,,,,,,,,,,,,,,,,,,74,153772,21,Female,1,2024/02/22_08:49:34,YZ,None,
,,,,,,calibration,0,22,2,788,6,V,0,left,0.22367249499075115,0,0,,,,,,,,,,,,,,,,,,,,,1,,,,,,,,,,,,,,,,,,,,,,,,,,,,,,,,,,,,,,,,,,,,,,74,153772,21,Female,1,2024/02/22_08:49:34,YZ,None,
,,,,,,calibration,0,22,2,788,7,C,1,right,0.3839941979967989,0,0,,,,,,,,,,,,,,,,,,,,,1,,,,,,,,,,,,,,,,,,,,,,,,,,,,,,,,,,,,,,,,,,,,,,74,153772,21,Female,1,2024/02/22_08:49:34,YZ,None,
,,,,,,calibration,0,22,2,788,8,X,0,right,0.37804545898688957,1,0,,,,,,,,,,,,,,,,,,,,,1,,,,,,,,,,,,,,,,,,,,,,,,,,,,,,,,,,,,,,,,,,,,,,74,153772,21,Female,1,2024/02/22_08:49:34,YZ,None,
,,,,,,calibration,0,22,2,788,9,C,1,left,0.3198687419935595,1,0,,,,,,,,,,,,,,,,,,,,,1,,,,,,,,,,,,,,,,,,,,,,,,,,,,,,,,,,,,,,,,,,,,,,74,153772,21,Female,1,2024/02/22_08:49:34,YZ,None,
,,,,,,calibration,0,22,2,788,10,S,0,right,0.2336232780071441,1,0,,,,,,,,,,,,,,,,,,,,,1,,,,,,,,,,,,,,,,,,,,,,,,,,,,,,,,,,,,,,,,,,,,,,74,153772,21,Female,1,2024/02/22_08:49:34,YZ,None,
,,,,,,calibration,0,22,2,788,11,C,1,right,0.25732527900254354,0,0,,,,,,,,,,,,,,,,,,,,,1,,,,,,,,,,,,,,,,,,,,,,,,,,,,,,,,,,,,,,,,,,,,,,74,153772,21,Female,1,2024/02/22_08:49:34,YZ,None,
,,,,,,calibration,0,22,2,788,12,S,1,left,0.209193171991501,1,0,,,,,,,,,,,,,,,,,,,,,1,,,,,,,,,,,,,,,,,,,,,,,,,,,,,,,,,,,,,,,,,,,,,,74,153772,21,Female,1,2024/02/22_08:49:34,YZ,None,
,,,,,,calibration,0,22,2,788,13,Q,0,right,0.2202647530066315,1,0,,,,,,,,,,,,,,,,,,,,,1,,,,,,,,,,,,,,,,,,,,,,,,,,,,,,,,,,,,,,,,,,,,,,74,153772,21,Female,1,2024/02/22_08:49:34,YZ,None,
,,,,,,calibration,0,22,2,788,,,,,,,,0.7916666666666666,0.5,0.1111111111111111,0.8888888888888888,0.0,0.8888888888888888,0.3205912273820454,2,1,0,0,0,8,10,4,9,0,,,,1,,,,,,,,,,,,,,,,,,,,,,,,,,,,,,,,,,,,,,,,,,,,,,74,153772,21,Female,1,2024/02/22_08:49:34,YZ,None,
,,,,,,Calibration,0,,2,788,,,,,,,,,,,,,,,,,,,,,,,,,5,,,1,,,,,,,,,,,,,,,,,,,,,,,,,,,,,,,,,,,,,,,,,,,,,,74,153772,21,Female,1,2024/02/22_08:49:34,YZ,None,
,,,,,,calibration,0,10,2,788,1,N,0,right,0.28391409100731835,1,0,,,,,,,,,,,,,,,,,,,,,1,,,,,,,,,,,,,,,,,,,,,,,,,,,,,,,,,,,,,,,,,,,,,,74,153772,21,Female,1,2024/02/22_08:49:34,YZ,None,
,,,,,,calibration,0,10,2,788,2,S,0,right,0.22445633300230838,1,0,,,,,,,,,,,,,,,,,,,,,1,,,,,,,,,,,,,,,,,,,,,,,,,,,,,,,,,,,,,,,,,,,,,,74,153772,21,Female,1,2024/02/22_08:49:34,YZ,None,
,,,,,,calibration,0,10,2,788,3,N,1,right,0.3761154770036228,0,0,,,,,,,,,,,,,,,,,,,,,1,,,,,,,,,,,,,,,,,,,,,,,,,,,,,,,,,,,,,,,,,,,,,,74,153772,21,Female,1,2024/02/22_08:49:34,YZ,None,
,,,,,,calibration,0,10,2,788,4,J,0,right,0.3776031589950435,1,0,,,,,,,,,,,,,,,,,,,,,1,,,,,,,,,,,,,,,,,,,,,,,,,,,,,,,,,,,,,,,,,,,,,,74,153772,21,Female,1,2024/02/22_08:49:34,YZ,None,
,,,,,,calibration,0,10,2,788,5,N,1,left,0.1881947620131541,1,0,,,,,,,,,,,,,,,,,,,,,1,,,,,,,,,,,,,,,,,,,,,,,,,,,,,,,,,,,,,,,,,,,,,,74,153772,21,Female,1,2024/02/22_08:49:34,YZ,None,
,,,,,,calibration,0,10,2,788,6,S,0,right,0.5124167629983276,1,0,,,,,,,,,,,,,,,,,,,,,1,,,,,,,,,,,,,,,,,,,,,,,,,,,,,,,,,,,,,,,,,,,,,,74,153772,21,Female,1,2024/02/22_08:49:34,YZ,None,
,,,,,,calibration,0,10,2,788,7,V,0,right,0.2291183580236975,1,0,,,,,,,,,,,,,,,,,,,,,1,,,,,,,,,,,,,,,,,,,,,,,,,,,,,,,,,,,,,,,,,,,,,,74,153772,21,Female,1,2024/02/22_08:49:34,YZ,None,
,,,,,,calibration,0,10,2,788,8,S,1,right,0.2834545389923733,0,0,,,,,,,,,,,,,,,,,,,,,1,,,,,,,,,,,,,,,,,,,,,,,,,,,,,,,,,,,,,,,,,,,,,,74,153772,21,Female,1,2024/02/22_08:49:34,YZ,None,
,,,,,,calibration,0,10,2,788,9,N,0,left,0.27171646000351757,0,0,,,,,,,,,,,,,,,,,,,,,1,,,,,,,,,,,,,,,,,,,,,,,,,,,,,,,,,,,,,,,,,,,,,,74,153772,21,Female,1,2024/02/22_08:49:34,YZ,None,
,,,,,,calibration,0,10,2,788,10,C,0,right,0.21625521199894138,1,0,,,,,,,,,,,,,,,,,,,,,1,,,,,,,,,,,,,,,,,,,,,,,,,,,,,,,,,,,,,,,,,,,,,,74,153772,21,Female,1,2024/02/22_08:49:34,YZ,None,
,,,,,,calibration,0,10,2,788,11,F,0,right,0.2766359770030249,1,0,,,,,,,,,,,,,,,,,,,,,1,,,,,,,,,,,,,,,,,,,,,,,,,,,,,,,,,,,,,,,,,,,,,,74,153772,21,Female,1,2024/02/22_08:49:34,YZ,None,
,,,,,,calibration,0,10,2,788,12,C,1,left,0.3898658549878746,1,0,,,,,,,,,,,,,,,,,,,,,1,,,,,,,,,,,,,,,,,,,,,,,,,,,,,,,,,,,,,,,,,,,,,,74,153772,21,Female,1,2024/02/22_08:49:34,YZ,None,
,,,,,,calibration,0,10,2,788,13,J,0,right,0.2649958999827504,1,0,,,,,,,,,,,,,,,,,,,,,1,,,,,,,,,,,,,,,,,,,,,,,,,,,,,,,,,,,,,,,,,,,,,,74,153772,21,Female,1,2024/02/22_08:49:34,YZ,None,
,,,,,,calibration,0,10,2,788,,,,,,,,0.7916666666666666,0.5,0.1111111111111111,0.8888888888888888,0.0,0.8888888888888888,0.2995956066163042,2,1,0,0,0,8,10,4,9,0,,,,1,,,,,,,,,,,,,,,,,,,,,,,,,,,,,,,,,,,,,,,,,,,,,,74,153772,21,Female,1,2024/02/22_08:49:34,YZ,None,
,,,,,,Calibration,0,,2,788,,,,,,,,,,,,,,,,,,,,,,,,,6,,,1,,,,,,,,,,,,,,,,,,,,,,,,,,,,,,,,,,,,,,,,,,,,,,74,153772,21,Female,1,2024/02/22_08:49:34,YZ,None,
,,,,,,calibration,0,5,2,788,1,X,0,right,0.33730633300729096,1,0,,,,,,,,,,,,,,,,,,,,,1,,,,,,,,,,,,,,,,,,,,,,,,,,,,,,,,,,,,,,,,,,,,,,74,153772,21,Female,1,2024/02/22_08:49:34,YZ,None,
,,,,,,calibration,0,5,2,788,2,S,0,right,0.3119760679837782,1,0,,,,,,,,,,,,,,,,,,,,,1,,,,,,,,,,,,,,,,,,,,,,,,,,,,,,,,,,,,,,,,,,,,,,74,153772,21,Female,1,2024/02/22_08:49:34,YZ,None,
,,,,,,calibration,0,5,2,788,3,F,0,right,0.3562831029994413,1,0,,,,,,,,,,,,,,,,,,,,,1,,,,,,,,,,,,,,,,,,,,,,,,,,,,,,,,,,,,,,,,,,,,,,74,153772,21,Female,1,2024/02/22_08:49:34,YZ,None,
,,,,,,calibration,0,5,2,788,4,N,0,left,0.33732339399284683,0,0,,,,,,,,,,,,,,,,,,,,,1,,,,,,,,,,,,,,,,,,,,,,,,,,,,,,,,,,,,,,,,,,,,,,74,153772,21,Female,1,2024/02/22_08:49:34,YZ,None,
,,,,,,calibration,0,5,2,788,5,X,0,right,0.2642439219926018,1,0,,,,,,,,,,,,,,,,,,,,,1,,,,,,,,,,,,,,,,,,,,,,,,,,,,,,,,,,,,,,,,,,,,,,74,153772,21,Female,1,2024/02/22_08:49:34,YZ,None,
,,,,,,calibration,0,5,2,788,6,N,1,right,0.3885680020030122,0,0,,,,,,,,,,,,,,,,,,,,,1,,,,,,,,,,,,,,,,,,,,,,,,,,,,,,,,,,,,,,,,,,,,,,74,153772,21,Female,1,2024/02/22_08:49:34,YZ,None,
,,,,,,calibration,0,5,2,788,7,X,1,left,0.24050346302101389,1,0,,,,,,,,,,,,,,,,,,,,,1,,,,,,,,,,,,,,,,,,,,,,,,,,,,,,,,,,,,,,,,,,,,,,74,153772,21,Female,1,2024/02/22_08:49:34,YZ,None,
,,,,,,calibration,0,5,2,788,8,Q,0,right,0.3139421259984374,1,0,,,,,,,,,,,,,,,,,,,,,1,,,,,,,,,,,,,,,,,,,,,,,,,,,,,,,,,,,,,,,,,,,,,,74,153772,21,Female,1,2024/02/22_08:49:34,YZ,None,
,,,,,,calibration,0,5,2,788,9,X,1,right,0.3091670720023103,0,0,,,,,,,,,,,,,,,,,,,,,1,,,,,,,,,,,,,,,,,,,,,,,,,,,,,,,,,,,,,,,,,,,,,,74,153772,21,Female,1,2024/02/22_08:49:34,YZ,None,
,,,,,,calibration,0,5,2,788,10,N,0,left,0.3571706649963744,0,0,,,,,,,,,,,,,,,,,,,,,1,,,,,,,,,,,,,,,,,,,,,,,,,,,,,,,,,,,,,,,,,,,,,,74,153772,21,Female,1,2024/02/22_08:49:34,YZ,None,
,,,,,,calibration,0,5,2,788,11,V,0,right,0.5577212509815581,1,0,,,,,,,,,,,,,,,,,,,,,1,,,,,,,,,,,,,,,,,,,,,,,,,,,,,,,,,,,,,,,,,,,,,,74,153772,21,Female,1,2024/02/22_08:49:34,YZ,None,
,,,,,,calibration,0,5,2,788,12,X,0,right,0.3053810510027688,1,0,,,,,,,,,,,,,,,,,,,,,1,,,,,,,,,,,,,,,,,,,,,,,,,,,,,,,,,,,,,,,,,,,,,,74,153772,21,Female,1,2024/02/22_08:49:34,YZ,None,
,,,,,,calibration,0,5,2,788,13,V,1,right,0.31686711197835393,0,0,,,,,,,,,,,,,,,,,,,,,1,,,,,,,,,,,,,,,,,,,,,,,,,,,,,,,,,,,,,,,,,,,,,,74,153772,21,Female,1,2024/02/22_08:49:34,YZ,None,
,,,,,,calibration,0,5,2,788,,,,,,,,0.5347222222222222,0.25,0.2222222222222222,0.7777777777777778,0.0,0.7777777777777778,0.3381887355353683,1,2,0,0,0,7,8,4,9,0,,,,1,,,,,,,,,,,,,,,,,,,,,,,,,,,,,,,,,,,,,,,,,,,,,,74,153772,21,Female,1,2024/02/22_08:49:34,YZ,None,
,,,,,,Calibration,0,,2,788,,,,,,,,,,,,,,,,,,,,,,,,,7,,,1,,,,,,,,,,,,,,,,,,,,,,,,,,,,,,,,,,,,,,,,,,,,,,74,153772,21,Female,1,2024/02/22_08:49:34,YZ,None,
,,,,,,calibration,0,16,2,917,1,X,0,right,0.31399721300113015,1,0,,,,,,,,,,,,,,,,,,,,,1,,,,,,,,,,,,,,,,,,,,,,,,,,,,,,,,,,,,,,,,,,,,,,74,153772,21,Female,1,2024/02/22_08:49:34,YZ,None,
,,,,,,calibration,0,16,2,917,2,S,0,right,0.25976163099403493,1,0,,,,,,,,,,,,,,,,,,,,,1,,,,,,,,,,,,,,,,,,,,,,,,,,,,,,,,,,,,,,,,,,,,,,74,153772,21,Female,1,2024/02/22_08:49:34,YZ,None,
,,,,,,calibration,0,16,2,917,3,X,1,right,0.3855887860117946,0,0,,,,,,,,,,,,,,,,,,,,,1,,,,,,,,,,,,,,,,,,,,,,,,,,,,,,,,,,,,,,,,,,,,,,74,153772,21,Female,1,2024/02/22_08:49:34,YZ,None,
,,,,,,calibration,0,16,2,917,4,S,1,right,0.3239616990031209,0,0,,,,,,,,,,,,,,,,,,,,,1,,,,,,,,,,,,,,,,,,,,,,,,,,,,,,,,,,,,,,,,,,,,,,74,153772,21,Female,1,2024/02/22_08:49:34,YZ,None,
,,,,,,calibration,0,16,2,917,5,F,0,right,0.4959878439840395,1,0,,,,,,,,,,,,,,,,,,,,,1,,,,,,,,,,,,,,,,,,,,,,,,,,,,,,,,,,,,,,,,,,,,,,74,153772,21,Female,1,2024/02/22_08:49:34,YZ,None,
,,,,,,calibration,0,16,2,917,6,V,0,right,0.5727431830018759,1,0,,,,,,,,,,,,,,,,,,,,,1,,,,,,,,,,,,,,,,,,,,,,,,,,,,,,,,,,,,,,,,,,,,,,74,153772,21,Female,1,2024/02/22_08:49:34,YZ,None,
,,,,,,calibration,0,16,2,917,7,X,0,right,0.7431841260113288,1,0,,,,,,,,,,,,,,,,,,,,,1,,,,,,,,,,,,,,,,,,,,,,,,,,,,,,,,,,,,,,,,,,,,,,74,153772,21,Female,1,2024/02/22_08:49:34,YZ,None,
,,,,,,calibration,0,16,2,917,8,N,0,right,0.5467097729851957,1,0,,,,,,,,,,,,,,,,,,,,,1,,,,,,,,,,,,,,,,,,,,,,,,,,,,,,,,,,,,,,,,,,,,,,74,153772,21,Female,1,2024/02/22_08:49:34,YZ,None,
,,,,,,calibration,0,16,2,917,9,V,0,right,0.675146241002949,1,0,,,,,,,,,,,,,,,,,,,,,1,,,,,,,,,,,,,,,,,,,,,,,,,,,,,,,,,,,,,,,,,,,,,,74,153772,21,Female,1,2024/02/22_08:49:34,YZ,None,
,,,,,,calibration,0,16,2,917,10,N,1,right,0.7427575289912056,0,0,,,,,,,,,,,,,,,,,,,,,1,,,,,,,,,,,,,,,,,,,,,,,,,,,,,,,,,,,,,,,,,,,,,,74,153772,21,Female,1,2024/02/22_08:49:34,YZ,None,
,,,,,,calibration,0,16,2,917,11,J,0,right,nan,0,1,,,,,,,,,,,,,,,,,,,,,1,,,,,,,,,,,,,,,,,,,,,,,,,,,,,,,,,,,,,,,,,,,,,,74,153772,21,Female,1,2024/02/22_08:49:34,YZ,None,
,,,,,,calibration,0,16,2,917,12,N,1,right,0.7922291730064899,0,0,,,,,,,,,,,,,,,,,,,,,1,,,,,,,,,,,,,,,,,,,,,,,,,,,,,,,,,,,,,,,,,,,,,,74,153772,21,Female,1,2024/02/22_08:49:34,YZ,None,
,,,,,,calibration,0,16,2,917,,,,,,,,0.5,0.0,0.0,1.0,0.08333333333333333,0.9166666666666666,0.5320061089084696,0,0,0,1,1,7,7,4,8,0,,,,1,,,,,,,,,,,,,,,,,,,,,,,,,,,,,,,,,,,,,,,,,,,,,,74,153772,21,Female,1,2024/02/22_08:49:34,YZ,None,
,,,,,,Calibration,0,,2,917,,,,,,,,,,,,,,,,,,,,,,,,,8,,,1,,,,,,,,,,,,,,,,,,,,,,,,,,,,,,,,,,,,,,,,,,,,,,74,153772,21,Female,1,2024/02/22_08:49:34,YZ,None,
,,,,,,calibration,0,9,2,1068,1,S,0,right,0.288476276997244,1,0,,,,,,,,,,,,,,,,,,,,,1,,,,,,,,,,,,,,,,,,,,,,,,,,,,,,,,,,,,,,,,,,,,,,74,153772,21,Female,1,2024/02/22_08:49:34,YZ,None,
,,,,,,calibration,0,9,2,1068,2,Q,0,right,0.3686825239856262,1,0,,,,,,,,,,,,,,,,,,,,,1,,,,,,,,,,,,,,,,,,,,,,,,,,,,,,,,,,,,,,,,,,,,,,74,153772,21,Female,1,2024/02/22_08:49:34,YZ,None,
,,,,,,calibration,0,9,2,1068,3,X,0,left,0.37594648599042557,0,0,,,,,,,,,,,,,,,,,,,,,1,,,,,,,,,,,,,,,,,,,,,,,,,,,,,,,,,,,,,,,,,,,,,,74,153772,21,Female,1,2024/02/22_08:49:34,YZ,None,
,,,,,,calibration,0,9,2,1068,4,V,0,right,0.4795871699752752,1,0,,,,,,,,,,,,,,,,,,,,,1,,,,,,,,,,,,,,,,,,,,,,,,,,,,,,,,,,,,,,,,,,,,,,74,153772,21,Female,1,2024/02/22_08:49:34,YZ,None,
,,,,,,calibration,0,9,2,1068,5,Q,0,right,0.5303417449758854,1,0,,,,,,,,,,,,,,,,,,,,,1,,,,,,,,,,,,,,,,,,,,,,,,,,,,,,,,,,,,,,,,,,,,,,74,153772,21,Female,1,2024/02/22_08:49:34,YZ,None,
,,,,,,calibration,0,9,2,1068,6,X,0,left,0.3138359269942157,0,0,,,,,,,,,,,,,,,,,,,,,1,,,,,,,,,,,,,,,,,,,,,,,,,,,,,,,,,,,,,,,,,,,,,,74,153772,21,Female,1,2024/02/22_08:49:34,YZ,None,
,,,,,,calibration,0,9,2,1068,7,Q,1,right,0.2982530930021312,0,0,,,,,,,,,,,,,,,,,,,,,1,,,,,,,,,,,,,,,,,,,,,,,,,,,,,,,,,,,,,,,,,,,,,,74,153772,21,Female,1,2024/02/22_08:49:34,YZ,None,
,,,,,,calibration,0,9,2,1068,8,V,0,left,0.30366411499562673,0,0,,,,,,,,,,,,,,,,,,,,,1,,,,,,,,,,,,,,,,,,,,,,,,,,,,,,,,,,,,,,,,,,,,,,74,153772,21,Female,1,2024/02/22_08:49:34,YZ,None,
,,,,,,calibration,0,9,2,1068,9,Q,1,right,0.5255712720099837,0,0,,,,,,,,,,,,,,,,,,,,,1,,,,,,,,,,,,,,,,,,,,,,,,,,,,,,,,,,,,,,,,,,,,,,74,153772,21,Female,1,2024/02/22_08:49:34,YZ,None,
,,,,,,calibration,0,9,2,1068,10,X,0,left,0.3729239390231669,0,0,,,,,,,,,,,,,,,,,,,,,1,,,,,,,,,,,,,,,,,,,,,,,,,,,,,,,,,,,,,,,,,,,,,,74,153772,21,Female,1,2024/02/22_08:49:34,YZ,None,
,,,,,,calibration,0,9,2,1068,11,Q,1,left,0.5790840680128895,1,0,,,,,,,,,,,,,,,,,,,,,1,,,,,,,,,,,,,,,,,,,,,,,,,,,,,,,,,,,,,,,,,,,,,,74,153772,21,Female,1,2024/02/22_08:49:34,YZ,None,
,,,,,,calibration,0,9,2,1068,,,,,,,,0.04166666666666666,0.3333333333333333,0.5,0.5,0.0,0.5,0.4033060559965882,1,4,0,0,0,4,5,3,8,0,,,,1,,,,,,,,,,,,,,,,,,,,,,,,,,,,,,,,,,,,,,,,,,,,,,74,153772,21,Female,1,2024/02/22_08:49:34,YZ,None,
,,,,,,Calibration,0,,2,1068,,,,,,,,,,,,,,,,,,,,,,,,,9,,,1,,,,,,,,,,,,,,,,,,,,,,,,,,,,,,,,,,,,,,,,,,,,,,74,153772,21,Female,1,2024/02/22_08:49:34,YZ,None,
,,,,,,calibration,0,8,2,1250,1,N,0,right,0.3625341879960615,1,0,,,,,,,,,,,,,,,,,,,,,1,,,,,,,,,,,,,,,,,,,,,,,,,,,,,,,,,,,,,,,,,,,,,,74,153772,21,Female,1,2024/02/22_08:49:34,YZ,None,
,,,,,,calibration,0,8,2,1250,2,S,0,right,0.6972355140023865,1,0,,,,,,,,,,,,,,,,,,,,,1,,,,,,,,,,,,,,,,,,,,,,,,,,,,,,,,,,,,,,,,,,,,,,74,153772,21,Female,1,2024/02/22_08:49:34,YZ,None,
,,,,,,calibration,0,8,2,1250,3,N,1,left,0.45878618699498475,1,0,,,,,,,,,,,,,,,,,,,,,1,,,,,,,,,,,,,,,,,,,,,,,,,,,,,,,,,,,,,,,,,,,,,,74,153772,21,Female,1,2024/02/22_08:49:34,YZ,None,
,,,,,,calibration,0,8,2,1250,4,X,0,right,0.39631345399538986,1,0,,,,,,,,,,,,,,,,,,,,,1,,,,,,,,,,,,,,,,,,,,,,,,,,,,,,,,,,,,,,,,,,,,,,74,153772,21,Female,1,2024/02/22_08:49:34,YZ,None,
,,,,,,calibration,0,8,2,1250,5,V,0,left,0.3482673420221545,0,0,,,,,,,,,,,,,,,,,,,,,1,,,,,,,,,,,,,,,,,,,,,,,,,,,,,,,,,,,,,,,,,,,,,,74,153772,21,Female,1,2024/02/22_08:49:34,YZ,None,
,,,,,,calibration,0,8,2,1250,6,N,0,right,0.48882546299137175,1,0,,,,,,,,,,,,,,,,,,,,,1,,,,,,,,,,,,,,,,,,,,,,,,,,,,,,,,,,,,,,,,,,,,,,74,153772,21,Female,1,2024/02/22_08:49:34,YZ,None,
,,,,,,calibration,0,8,2,1250,7,C,0,left,0.5418212559889071,0,0,,,,,,,,,,,,,,,,,,,,,1,,,,,,,,,,,,,,,,,,,,,,,,,,,,,,,,,,,,,,,,,,,,,,74,153772,21,Female,1,2024/02/22_08:49:34,YZ,None,
,,,,,,calibration,0,8,2,1250,8,N,1,right,0.2601867140037939,0,0,,,,,,,,,,,,,,,,,,,,,1,,,,,,,,,,,,,,,,,,,,,,,,,,,,,,,,,,,,,,,,,,,,,,74,153772,21,Female,1,2024/02/22_08:49:34,YZ,None,
,,,,,,calibration,0,8,2,1250,9,Q,0,left,0.4282947980100289,0,0,,,,,,,,,,,,,,,,,,,,,1,,,,,,,,,,,,,,,,,,,,,,,,,,,,,,,,,,,,,,,,,,,,,,74,153772,21,Female,1,2024/02/22_08:49:34,YZ,None,
,,,,,,calibration,0,8,2,1250,10,N,1,left,0.6645213380106725,1,0,,,,,,,,,,,,,,,,,,,,,1,,,,,,,,,,,,,,,,,,,,,,,,,,,,,,,,,,,,,,,,,,,,,,74,153772,21,Female,1,2024/02/22_08:49:34,YZ,None,
,,,,,,calibration,0,8,2,1250,,,,,,,,0.6666666666666666,0.6666666666666666,0.42857142857142855,0.5714285714285714,0.0,0.5714285714285714,0.4646786254015751,2,3,0,0,0,4,6,3,7,0,,,,1,,,,,,,,,,,,,,,,,,,,,,,,,,,,,,,,,,,,,,,,,,,,,,74,153772,21,Female,1,2024/02/22_08:49:34,YZ,None,
,,,,,,Calibration,0,,2,1250,,,,,,,,,,,,,,,,,,,,,,,,,10,,,1,,,,,,,,,,,,,,,,,,,,,,,,,,,,,,,,,,,,,,,,,,,,,,74,153772,21,Female,1,2024/02/22_08:49:34,YZ,None,
,,,,,,calibration,0,18,2,1472,1,Q,0,right,0.25894178499584086,1,0,,,,,,,,,,,,,,,,,,,,,1,,,,,,,,,,,,,,,,,,,,,,,,,,,,,,,,,,,,,,,,,,,,,,74,153772,21,Female,1,2024/02/22_08:49:34,YZ,None,
,,,,,,calibration,0,18,2,1472,2,V,0,right,0.2551130979845766,1,0,,,,,,,,,,,,,,,,,,,,,1,,,,,,,,,,,,,,,,,,,,,,,,,,,,,,,,,,,,,,,,,,,,,,74,153772,21,Female,1,2024/02/22_08:49:34,YZ,None,
,,,,,,calibration,0,18,2,1472,3,J,0,right,0.4157276950136293,1,0,,,,,,,,,,,,,,,,,,,,,1,,,,,,,,,,,,,,,,,,,,,,,,,,,,,,,,,,,,,,,,,,,,,,74,153772,21,Female,1,2024/02/22_08:49:34,YZ,None,
,,,,,,calibration,0,18,2,1472,4,V,1,left,0.3338572990032844,1,0,,,,,,,,,,,,,,,,,,,,,1,,,,,,,,,,,,,,,,,,,,,,,,,,,,,,,,,,,,,,,,,,,,,,74,153772,21,Female,1,2024/02/22_08:49:34,YZ,None,
,,,,,,calibration,0,18,2,1472,5,J,1,right,0.27974668101524003,0,0,,,,,,,,,,,,,,,,,,,,,1,,,,,,,,,,,,,,,,,,,,,,,,,,,,,,,,,,,,,,,,,,,,,,74,153772,21,Female,1,2024/02/22_08:49:34,YZ,None,
,,,,,,calibration,0,18,2,1472,6,X,0,left,0.46976844701566733,0,0,,,,,,,,,,,,,,,,,,,,,1,,,,,,,,,,,,,,,,,,,,,,,,,,,,,,,,,,,,,,,,,,,,,,74,153772,21,Female,1,2024/02/22_08:49:34,YZ,None,
,,,,,,calibration,0,18,2,1472,7,J,1,right,0.26405720302136615,0,0,,,,,,,,,,,,,,,,,,,,,1,,,,,,,,,,,,,,,,,,,,,,,,,,,,,,,,,,,,,,,,,,,,,,74,153772,21,Female,1,2024/02/22_08:49:34,YZ,None,
,,,,,,calibration,0,18,2,1472,8,S,0,right,0.6334437890036497,1,0,,,,,,,,,,,,,,,,,,,,,1,,,,,,,,,,,,,,,,,,,,,,,,,,,,,,,,,,,,,,,,,,,,,,74,153772,21,Female,1,2024/02/22_08:49:34,YZ,None,
,,,,,,calibration,0,18,2,1472,9,C,0,right,0.4516982189961709,1,0,,,,,,,,,,,,,,,,,,,,,1,,,,,,,,,,,,,,,,,,,,,,,,,,,,,,,,,,,,,,,,,,,,,,74,153772,21,Female,1,2024/02/22_08:49:34,YZ,None,
,,,,,,calibration,0,18,2,1472,,,,,,,,0.6666666666666666,0.3333333333333333,0.16666666666666666,0.8333333333333334,0.0,0.8333333333333334,0.37359491289438057,1,1,0,0,0,5,6,3,6,0,,,,1,,,,,,,,,,,,,,,,,,,,,,,,,,,,,,,,,,,,,,,,,,,,,,74,153772,21,Female,1,2024/02/22_08:49:34,YZ,None,
,,,,,,Calibration,0,,2,1472,,,,,,,,,,,,,,,,,,,,,,,,,11,,,1,,,,,,,,,,,,,,,,,,,,,,,,,,,,,,,,,,,,,,,,,,,,,,74,153772,21,Female,1,2024/02/22_08:49:34,YZ,None,
,,,,,,calibration,0,25,2,1750,1,J,0,right,0.24231318800593726,1,0,,,,,,,,,,,,,,,,,,,,,1,,,,,,,,,,,,,,,,,,,,,,,,,,,,,,,,,,,,,,,,,,,,,,74,153772,21,Female,1,2024/02/22_08:49:34,YZ,None,
,,,,,,calibration,0,25,2,1750,2,V,0,right,0.42031756398500875,1,0,,,,,,,,,,,,,,,,,,,,,1,,,,,,,,,,,,,,,,,,,,,,,,,,,,,,,,,,,,,,,,,,,,,,74,153772,21,Female,1,2024/02/22_08:49:34,YZ,None,
,,,,,,calibration,0,25,2,1750,3,J,1,left,0.22466160799376667,1,0,,,,,,,,,,,,,,,,,,,,,1,,,,,,,,,,,,,,,,,,,,,,,,,,,,,,,,,,,,,,,,,,,,,,74,153772,21,Female,1,2024/02/22_08:49:34,YZ,None,
,,,,,,calibration,0,25,2,1750,4,S,0,right,0.3524940159986727,1,0,,,,,,,,,,,,,,,,,,,,,1,,,,,,,,,,,,,,,,,,,,,,,,,,,,,,,,,,,,,,,,,,,,,,74,153772,21,Female,1,2024/02/22_08:49:34,YZ,None,
,,,,,,calibration,0,25,2,1750,5,X,0,left,0.32778295199386775,0,0,,,,,,,,,,,,,,,,,,,,,1,,,,,,,,,,,,,,,,,,,,,,,,,,,,,,,,,,,,,,,,,,,,,,74,153772,21,Female,1,2024/02/22_08:49:34,YZ,None,
,,,,,,calibration,0,25,2,1750,6,Q,0,right,0.00038997401134110987,1,0,,,,,,,,,,,,,,,,,,,,,1,,,,,,,,,,,,,,,,,,,,,,,,,,,,,,,,,,,,,,,,,,,,,,74,153772,21,Female,1,2024/02/22_08:49:34,YZ,None,
,,,,,,calibration,0,25,2,1750,7,F,1,right,0.4491027430049144,0,0,,,,,,,,,,,,,,,,,,,,,1,,,,,,,,,,,,,,,,,,,,,,,,,,,,,,,,,,,,,,,,,,,,,,74,153772,21,Female,1,2024/02/22_08:49:34,YZ,None,
,,,,,,calibration,0,25,2,1750,8,Q,0,left,0.8247369139862712,0,0,,,,,,,,,,,,,,,,,,,,,1,,,,,,,,,,,,,,,,,,,,,,,,,,,,,,,,,,,,,,,,,,,,,,74,153772,21,Female,1,2024/02/22_08:49:34,YZ,None,
,,,,,,calibration,0,25,2,1750,,,,,,,,0.625,0.5,0.3333333333333333,0.6666666666666666,0.0,0.6666666666666667,0.3552248698724725,1,2,0,0,0,4,5,2,6,0,,,,1,,,,,,,,,,,,,,,,,,,,,,,,,,,,,,,,,,,,,,,,,,,,,,74,153772,21,Female,1,2024/02/22_08:49:34,YZ,None,
,,,,,,Calibration,0,,2,1750,,,,,,,,,,,,,,,,,,,,,,,,,12,,,1,,,,,,,,,,,,,,,,,,,,,,,,,,,,,,,,,,,,,,,,,,,,,,74,153772,21,Female,1,2024/02/22_08:49:34,YZ,None,
,,,,,,calibration,0,8,2,2107,1,N,0,right,0.3668435320141725,1,0,,,,,,,,,,,,,,,,,,,,,1,,,,,,,,,,,,,,,,,,,,,,,,,,,,,,,,,,,,,,,,,,,,,,74,153772,21,Female,1,2024/02/22_08:49:34,YZ,None,
,,,,,,calibration,0,8,2,2107,2,N,0,right,0.4396865460148547,1,0,,,,,,,,,,,,,,,,,,,,,1,,,,,,,,,,,,,,,,,,,,,,,,,,,,,,,,,,,,,,,,,,,,,,74,153772,21,Female,1,2024/02/22_08:49:34,YZ,None,
,,,,,,calibration,0,8,2,2107,3,V,0,right,0.6030054680013563,1,0,,,,,,,,,,,,,,,,,,,,,1,,,,,,,,,,,,,,,,,,,,,,,,,,,,,,,,,,,,,,,,,,,,,,74,153772,21,Female,1,2024/02/22_08:49:34,YZ,None,
,,,,,,calibration,0,8,2,2107,4,N,1,left,0.5753516349941492,1,0,,,,,,,,,,,,,,,,,,,,,1,,,,,,,,,,,,,,,,,,,,,,,,,,,,,,,,,,,,,,,,,,,,,,74,153772,21,Female,1,2024/02/22_08:49:34,YZ,None,
,,,,,,calibration,0,8,2,2107,5,X,0,right,0.40533437399426475,1,0,,,,,,,,,,,,,,,,,,,,,1,,,,,,,,,,,,,,,,,,,,,,,,,,,,,,,,,,,,,,,,,,,,,,74,153772,21,Female,1,2024/02/22_08:49:34,YZ,None,
,,,,,,calibration,0,8,2,2107,6,V,0,left,0.44994049798697233,0,0,,,,,,,,,,,,,,,,,,,,,1,,,,,,,,,,,,,,,,,,,,,,,,,,,,,,,,,,,,,,,,,,,,,,74,153772,21,Female,1,2024/02/22_08:49:34,YZ,None,
,,,,,,calibration,0,8,2,2107,7,X,1,right,0.4092585490143392,0,0,,,,,,,,,,,,,,,,,,,,,1,,,,,,,,,,,,,,,,,,,,,,,,,,,,,,,,,,,,,,,,,,,,,,74,153772,21,Female,1,2024/02/22_08:49:34,YZ,None,
,,,,,,calibration,0,8,2,2107,,,,,,,,0.725,0.5,0.2,0.8,0.0,0.8,0.46420294314572985,1,1,0,0,0,4,5,2,5,0,,,,1,,,,,,,,,,,,,,,,,,,,,,,,,,,,,,,,,,,,,,,,,,,,,,74,153772,21,Female,1,2024/02/22_08:49:34,YZ,None,
,,,,,,Calibration,0,,2,2107,,,,,,,,,,,,,,,,,,,,,,,,,13,,,1,,,,,,,,,,,,,,,,,,,,,,,,,,,,,,,,,,,,,,,,,,,,,,74,153772,21,Female,1,2024/02/22_08:49:34,YZ,None,
,,,,,,calibration,0,15,2,2583,1,J,0,right,0.31551509600831196,1,0,,,,,,,,,,,,,,,,,,,,,1,,,,,,,,,,,,,,,,,,,,,,,,,,,,,,,,,,,,,,,,,,,,,,74,153772,21,Female,1,2024/02/22_08:49:34,YZ,None,
,,,,,,calibration,0,15,2,2583,2,C,0,right,0.3593767730053514,1,0,,,,,,,,,,,,,,,,,,,,,1,,,,,,,,,,,,,,,,,,,,,,,,,,,,,,,,,,,,,,,,,,,,,,74,153772,21,Female,1,2024/02/22_08:49:34,YZ,None,
,,,,,,calibration,0,15,2,2583,3,J,1,left,0.5126555619935971,1,0,,,,,,,,,,,,,,,,,,,,,1,,,,,,,,,,,,,,,,,,,,,,,,,,,,,,,,,,,,,,,,,,,,,,74,153772,21,Female,1,2024/02/22_08:49:34,YZ,None,
,,,,,,calibration,0,15,2,2583,4,F,0,right,0.3725336210045498,1,0,,,,,,,,,,,,,,,,,,,,,1,,,,,,,,,,,,,,,,,,,,,,,,,,,,,,,,,,,,,,,,,,,,,,74,153772,21,Female,1,2024/02/22_08:49:34,YZ,None,
,,,,,,calibration,0,15,2,2583,5,X,0,right,0.5121963789861184,1,0,,,,,,,,,,,,,,,,,,,,,1,,,,,,,,,,,,,,,,,,,,,,,,,,,,,,,,,,,,,,,,,,,,,,74,153772,21,Female,1,2024/02/22_08:49:34,YZ,None,
,,,,,,calibration,0,15,2,2583,6,F,1,right,0.5405783870082814,0,0,,,,,,,,,,,,,,,,,,,,,1,,,,,,,,,,,,,,,,,,,,,,,,,,,,,,,,,,,,,,,,,,,,,,74,153772,21,Female,1,2024/02/22_08:49:34,YZ,None,
,,,,,,calibration,0,15,2,2583,,,,,,,,0.875,0.5,0.0,1.0,0.0,1.0,0.4354759696677017,1,0,0,0,0,4,5,2,4,0,,,,1,,,,,,,,,,,,,,,,,,,,,,,,,,,,,,,,,,,,,,,,,,,,,,74,153772,21,Female,1,2024/02/22_08:49:34,YZ,None,
,,,,,,Calibration,0,,2,2583,,,,,,,,,,,,,,,,,,,,,,,,,14,,,1,,,,,,,,,,,,,,,,,,,,,,,,,,,,,,,,,,,,,,,,,,,,,,74,153772,21,Female,1,2024/02/22_08:49:34,YZ,None,
,,,,,,calibration,0,33,2,2107,1,Q,0,right,0.3874530080065597,1,0,,,,,,,,,,,,,,,,,,,,,1,,,,,,,,,,,,,,,,,,,,,,,,,,,,,,,,,,,,,,,,,,,,,,74,153772,21,Female,1,2024/02/22_08:49:34,YZ,None,
,,,,,,calibration,0,33,2,2107,2,J,0,right,0.27223427101853304,1,0,,,,,,,,,,,,,,,,,,,,,1,,,,,,,,,,,,,,,,,,,,,,,,,,,,,,,,,,,,,,,,,,,,,,74,153772,21,Female,1,2024/02/22_08:49:34,YZ,None,
,,,,,,calibration,0,33,2,2107,3,V,0,left,0.4238050790154375,0,0,,,,,,,,,,,,,,,,,,,,,1,,,,,,,,,,,,,,,,,,,,,,,,,,,,,,,,,,,,,,,,,,,,,,74,153772,21,Female,1,2024/02/22_08:49:34,YZ,None,
,,,,,,calibration,0,33,2,2107,4,C,0,right,0.5609663650102448,1,0,,,,,,,,,,,,,,,,,,,,,1,,,,,,,,,,,,,,,,,,,,,,,,,,,,,,,,,,,,,,,,,,,,,,74,153772,21,Female,1,2024/02/22_08:49:34,YZ,None,
,,,,,,calibration,0,33,2,2107,5,V,1,right,0.4906837370072026,0,0,,,,,,,,,,,,,,,,,,,,,1,,,,,,,,,,,,,,,,,,,,,,,,,,,,,,,,,,,,,,,,,,,,,,74,153772,21,Female,1,2024/02/22_08:49:34,YZ,None,
,,,,,,calibration,0,33,2,2107,6,N,0,right,0.6366817170055583,1,0,,,,,,,,,,,,,,,,,,,,,1,,,,,,,,,,,,,,,,,,,,,,,,,,,,,,,,,,,,,,,,,,,,,,74,153772,21,Female,1,2024/02/22_08:49:34,YZ,None,
,,,,,,calibration,0,33,2,2107,7,V,1,right,0.33998356299707666,0,0,,,,,,,,,,,,,,,,,,,,,1,,,,,,,,,,,,,,,,,,,,,,,,,,,,,,,,,,,,,,,,,,,,,,74,153772,21,Female,1,2024/02/22_08:49:34,YZ,None,
,,,,,,calibration,0,33,2,2107,,,,,,,,0.2,0.0,0.2,0.8,0.0,0.8,0.4445439628658018,0,1,0,0,0,4,4,2,5,0,,,,1,,,,,,,,,,,,,,,,,,,,,,,,,,,,,,,,,,,,,,,,,,,,,,74,153772,21,Female,1,2024/02/22_08:49:34,YZ,None,
,,,,,,Calibration,0,,2,2107,,,,,,,,,,,,,,,,,,,,,,,,,15,,,1,,,,,,,,,,,,,,,,,,,,,,,,,,,,,,,,,,,,,,,,,,,,,,74,153772,21,Female,1,2024/02/22_08:49:34,YZ,None,
,,,,,,calibration,0,16,2,2583,1,F,0,right,0.3238225929962937,1,0,,,,,,,,,,,,,,,,,,,,,1,,,,,,,,,,,,,,,,,,,,,,,,,,,,,,,,,,,,,,,,,,,,,,74,153772,21,Female,1,2024/02/22_08:49:34,YZ,None,
,,,,,,calibration,0,16,2,2583,2,F,0,right,0.2567189199908171,1,0,,,,,,,,,,,,,,,,,,,,,1,,,,,,,,,,,,,,,,,,,,,,,,,,,,,,,,,,,,,,,,,,,,,,74,153772,21,Female,1,2024/02/22_08:49:34,YZ,None,
,,,,,,calibration,0,16,2,2583,3,Q,0,right,1.245424319000449,1,0,,,,,,,,,,,,,,,,,,,,,1,,,,,,,,,,,,,,,,,,,,,,,,,,,,,,,,,,,,,,,,,,,,,,74,153772,21,Female,1,2024/02/22_08:49:34,YZ,None,
,,,,,,calibration,0,16,2,2583,4,F,1,left,0.5959786280000117,1,0,,,,,,,,,,,,,,,,,,,,,1,,,,,,,,,,,,,,,,,,,,,,,,,,,,,,,,,,,,,,,,,,,,,,74,153772,21,Female,1,2024/02/22_08:49:34,YZ,None,
,,,,,,calibration,0,16,2,2583,5,S,0,right,0.4291773269942496,1,0,,,,,,,,,,,,,,,,,,,,,1,,,,,,,,,,,,,,,,,,,,,,,,,,,,,,,,,,,,,,,,,,,,,,74,153772,21,Female,1,2024/02/22_08:49:34,YZ,None,
,,,,,,calibration,0,16,2,2583,6,F,1,left,0.6227477100037504,1,0,,,,,,,,,,,,,,,,,,,,,1,,,,,,,,,,,,,,,,,,,,,,,,,,,,,,,,,,,,,,,,,,,,,,74,153772,21,Female,1,2024/02/22_08:49:34,YZ,None,
,,,,,,calibration,0,16,2,2583,,,,,,,,1.0,1.0,0.0,1.0,0.0,1.0,0.5789782494975952,2,0,0,0,0,4,6,2,4,0,,,,1,,,,,,,,,,,,,,,,,,,,,,,,,,,,,,,,,,,,,,,,,,,,,,74,153772,21,Female,1,2024/02/22_08:49:34,YZ,None,
,,,,,,Calibration,0,,2,2583,,,,,,,,,,,,,,,,,,,,,,,,,16,,,1,,,,,,,,,,,,,,,,,,,,,,,,,,,,,,,,,,,,,,,,,,,,,,74,153772,21,Female,1,2024/02/22_08:49:34,YZ,None,
,,,,,,CALIBRATION,0,,,,,,,,,,,,,,,,,,,,,,,,,,,,16,1.0,2583,1,,,,,,,,,,,,,,,,,,,,,,,,,,,,,,,,,,,,,,,,,,,,,,74,153772,21,Female,1,2024/02/22_08:49:34,YZ,None,
1,./instructions/inst_prac_1/Slide24.png,right,9.766689129988663,434.98235374101205,444.7490428710007,,,,,,,,,,,,,,,,,,,,,,,,,,,,,,,,,1,,,,,,,,,,,,,,,,,,,,,,,,,,,,,,,,,,,,,,,,,,,,,,74,153772,21,Female,1,2024/02/22_08:49:34,YZ,None,
2,./instructions/inst_prac_1/Slide25.png,right,1.866808738996042,444.7784056740056,446.64521441300167,,,,,,,,,,,,,,,,,,,,,,,,,,,,,,,,,1,,,,,,,,,,,,,,,,,,,,,,,,,,,,,,,,,,,,,,,,,,,,,,74,153772,21,Female,1,2024/02/22_08:49:34,YZ,None,
3,./instructions/inst_prac_1/Slide26.png,right,0.7476912830024958,446.67347231300664,447.42116359600914,,,,,,,,,,,,,,,,,,,,,,,,,,,,,,,,,1,,,,,,,,,,,,,,,,,,,,,,,,,,,,,,,,,,,,,,,,,,,,,,74,153772,21,Female,1,2024/02/22_08:49:34,YZ,None,
4,./instructions/inst_prac_1/Slide27.png,right,0.762922311987495,447.45033423701534,448.21325654900284,,,,,,,,,,,,,,,,,,,,,,,,,,,,,,,,,1,,,,,,,,,,,,,,,,,,,,,,,,,,,,,,,,,,,,,,,,,,,,,,74,153772,21,Female,1,2024/02/22_08:49:34,YZ,None,
5,./instructions/inst_prac_1/Slide28.png,right,0.6677761289756745,448.2413265470241,448.90910267599975,,,,,,,,,,,,,,,,,,,,,,,,,,,,,,,,,1,,,,,,,,,,,,,,,,,,,,,,,,,,,,,,,,,,,,,,,,,,,,,,74,153772,21,Female,1,2024/02/22_08:49:34,YZ,None,
6,./instructions/inst_prac_1/Slide29.png,right,7.330781455995748,448.93840566300787,456.2691871190036,,,,,,,,,,,,,,,,,,,,,,,,,,,,,,,,,1,,,,,,,,,,,,,,,,,,,,,,,,,,,,,,,,,,,,,,,,,,,,,,74,153772,21,Female,1,2024/02/22_08:49:34,YZ,None,
7,./instructions/inst_prac_1/Slide30.png,right,3.91574562099413,456.29742197701125,460.2131675980054,,,,,,,,,,,,,,,,,,,,,,,,,,,,,,,,,1,,,,,,,,,,,,,,,,,,,,,,,,,,,,,,,,,,,,,,,,,,,,,,74,153772,21,Female,1,2024/02/22_08:49:34,YZ,None,
,,,,,,practice,0,36,1,1250,1,C,0,right,2.4328229980019387,1,0,,,,,,,,,,,,,,,,,,,,,1,,,,,,,,,,,,,,,,,,,,,,,,,,,,,,,,,,,,,,,,,,,,,,74,153772,21,Female,1,2024/02/22_08:49:34,YZ,None,
,,,,,,practice,0,36,1,1250,2,F,0,right,0.7800668800191488,1,0,,,,,,,,,,,,,,,,,,,,,1,,,,,,,,,,,,,,,,,,,,,,,,,,,,,,,,,,,,,,,,,,,,,,74,153772,21,Female,1,2024/02/22_08:49:34,YZ,None,
,,,,,,practice,0,36,1,1250,3,F,1,left,0.5325190880103037,1,0,,,,,,,,,,,,,,,,,,,,,1,,,,,,,,,,,,,,,,,,,,,,,,,,,,,,,,,,,,,,,,,,,,,,74,153772,21,Female,1,2024/02/22_08:49:34,YZ,None,
,,,,,,practice,0,36,1,1250,4,Q,0,right,0.5781082449830137,1,0,,,,,,,,,,,,,,,,,,,,,1,,,,,,,,,,,,,,,,,,,,,,,,,,,,,,,,,,,,,,,,,,,,,,74,153772,21,Female,1,2024/02/22_08:49:34,YZ,None,
,,,,,,practice,0,36,1,1250,5,Q,1,right,0.36126795000745915,0,0,,,,,,,,,,,,,,,,,,,,,1,,,,,,,,,,,,,,,,,,,,,,,,,,,,,,,,,,,,,,,,,,,,,,74,153772,21,Female,1,2024/02/22_08:49:34,YZ,None,
,,,,,,practice,0,36,1,1250,6,X,0,right,2.7381147090054583,1,0,,,,,,,,,,,,,,,,,,,,,1,,,,,,,,,,,,,,,,,,,,,,,,,,,,,,,,,,,,,,,,,,,,,,74,153772,21,Female,1,2024/02/22_08:49:34,YZ,None,
,,,,,,practice,0,36,1,1250,7,V,0,right,0.7571813389949966,1,0,,,,,,,,,,,,,,,,,,,,,1,,,,,,,,,,,,,,,,,,,,,,,,,,,,,,,,,,,,,,,,,,,,,,74,153772,21,Female,1,2024/02/22_08:49:34,YZ,None,
,,,,,,practice,0,36,1,1250,8,V,1,left,0.33927347298595123,1,0,,,,,,,,,,,,,,,,,,,,,1,,,,,,,,,,,,,,,,,,,,,,,,,,,,,,,,,,,,,,,,,,,,,,74,153772,21,Female,1,2024/02/22_08:49:34,YZ,None,
,,,,,,practice,0,36,1,1250,9,X,0,right,0.6109124530048575,1,0,,,,,,,,,,,,,,,,,,,,,1,,,,,,,,,,,,,,,,,,,,,,,,,,,,,,,,,,,,,,,,,,,,,,74,153772,21,Female,1,2024/02/22_08:49:34,YZ,None,
,,,,,,practice,0,36,1,1250,10,V,0,right,0.8106115779955871,1,0,,,,,,,,,,,,,,,,,,,,,1,,,,,,,,,,,,,,,,,,,,,,,,,,,,,,,,,,,,,,,,,,,,,,74,153772,21,Female,1,2024/02/22_08:49:34,YZ,None,
,,,,,,practice,0,36,1,1250,,,,,,,,0.9166666666666666,0.6666666666666666,0.0,1.0,0.0,1.0,0.9940878713008715,2,0,0,0,0,7,9,3,7,0,,,,1,,,,,,,,,,,,,,,,,,,,,,,,,,,,,,,,,,,,,,,,,,,,,,74,153772,21,Female,1,2024/02/22_08:49:34,YZ,None,
1,./instructions/inst_prac_1_next/Slide35.png,right,2.126220344012836,481.1909084660001,483.31712881001295,,,,,,,,,,,,,,,,,,,,,,,,,,,,,,,,,1,,,,,,,,,,,,,,,,,,,,,,,,,,,,,,,,,,,,,,,,,,,,,,74,153772,21,Female,1,2024/02/22_08:49:34,YZ,None,
,,,,,,practice,0,23,1,2583,1,J,0,right,0.44170371297514066,1,0,,,,,,,,,,,,,,,,,,,,,1,,,,,,,,,,,,,,,,,,,,,,,,,,,,,,,,,,,,,,,,,,,,,,74,153772,21,Female,1,2024/02/22_08:49:34,YZ,None,
,,,,,,practice,0,23,1,2583,2,F,0,right,0.5359051150153391,1,0,,,,,,,,,,,,,,,,,,,,,1,,,,,,,,,,,,,,,,,,,,,,,,,,,,,,,,,,,,,,,,,,,,,,74,153772,21,Female,1,2024/02/22_08:49:34,YZ,None,
,,,,,,practice,0,23,1,2583,3,F,1,left,0.34473442801390775,1,0,,,,,,,,,,,,,,,,,,,,,1,,,,,,,,,,,,,,,,,,,,,,,,,,,,,,,,,,,,,,,,,,,,,,74,153772,21,Female,1,2024/02/22_08:49:34,YZ,None,
,,,,,,practice,0,23,1,2583,4,Q,0,right,0.4655999039823655,1,0,,,,,,,,,,,,,,,,,,,,,1,,,,,,,,,,,,,,,,,,,,,,,,,,,,,,,,,,,,,,,,,,,,,,74,153772,21,Female,1,2024/02/22_08:49:34,YZ,None,
,,,,,,practice,0,23,1,2583,5,Q,1,left,0.3281409830087796,1,0,,,,,,,,,,,,,,,,,,,,,1,,,,,,,,,,,,,,,,,,,,,,,,,,,,,,,,,,,,,,,,,,,,,,74,153772,21,Female,1,2024/02/22_08:49:34,YZ,None,
,,,,,,practice,0,23,1,2583,6,X,0,right,0.4280577879981138,1,0,,,,,,,,,,,,,,,,,,,,,1,,,,,,,,,,,,,,,,,,,,,,,,,,,,,,,,,,,,,,,,,,,,,,74,153772,21,Female,1,2024/02/22_08:49:34,YZ,None,
,,,,,,practice,0,23,1,2583,,,,,,,,1.0,1.0,0.0,1.0,0.0,1.0,0.42402365516560775,2,0,0,0,0,4,6,2,4,0,,,,1,,,,,,,,,,,,,,,,,,,,,,,,,,,,,,,,,,,,,,,,,,,,,,74,153772,21,Female,1,2024/02/22_08:49:34,YZ,None,
,,,,,,practice,0,21,1,2583,1,N,0,right,0.5499138360028155,1,0,,,,,,,,,,,,,,,,,,,,,1,,,,,,,,,,,,,,,,,,,,,,,,,,,,,,,,,,,,,,,,,,,,,,74,153772,21,Female,1,2024/02/22_08:49:34,YZ,None,
,,,,,,practice,0,21,1,2583,2,Q,0,left,0.39021560599212535,0,0,,,,,,,,,,,,,,,,,,,,,1,,,,,,,,,,,,,,,,,,,,,,,,,,,,,,,,,,,,,,,,,,,,,,74,153772,21,Female,1,2024/02/22_08:49:34,YZ,None,
,,,,,,practice,0,21,1,2583,3,Q,1,right,0.5491579509980511,0,0,,,,,,,,,,,,,,,,,,,,,1,,,,,,,,,,,,,,,,,,,,,,,,,,,,,,,,,,,,,,,,,,,,,,74,153772,21,Female,1,2024/02/22_08:49:34,YZ,None,
,,,,,,practice,0,21,1,2583,4,J,0,right,0.6607934089843184,1,0,,,,,,,,,,,,,,,,,,,,,1,,,,,,,,,,,,,,,,,,,,,,,,,,,,,,,,,,,,,,,,,,,,,,74,153772,21,Female,1,2024/02/22_08:49:34,YZ,None,
,,,,,,practice,0,21,1,2583,5,S,0,right,0.44394181898678653,1,0,,,,,,,,,,,,,,,,,,,,,1,,,,,,,,,,,,,,,,,,,,,,,,,,,,,,,,,,,,,,,,,,,,,,74,153772,21,Female,1,2024/02/22_08:49:34,YZ,None,
,,,,,,practice,0,21,1,2583,6,S,1,left,0.5437173429818358,1,0,,,,,,,,,,,,,,,,,,,,,1,,,,,,,,,,,,,,,,,,,,,,,,,,,,,,,,,,,,,,,,,,,,,,74,153772,21,Female,1,2024/02/22_08:49:34,YZ,None,
,,,,,,practice,0,21,1,2583,,,,,,,,0.6875,0.5,0.25,0.75,0.0,0.75,0.5229566606576554,1,1,0,0,0,3,4,2,4,0,,,,1,,,,,,,,,,,,,,,,,,,,,,,,,,,,,,,,,,,,,,,,,,,,,,74,153772,21,Female,1,2024/02/22_08:49:34,YZ,None,
1,./instructions/inst_redo_1/Slide33.png,right,8.599161656980868,497.87788959001773,506.4770512469986,,,,,,,,,,,,,,,,,,,,,,,,,,,,,,,,,1,,,,,,,,,,,,,,,,,,,,,,,,,,,,,,,,,,,,,,,,,,,,,,74,153772,21,Female,1,2024/02/22_08:49:34,YZ,None,
,,,,,,practice,0,11,1,2583,1,C,0,right,0.5625766110024415,1,0,,,,,,,,,,,,,,,,,,,,,1,,,,,,,,,,,,,,,,,,,,,,,,,,,,,,,,,,,,,,,,,,,,,,74,153772,21,Female,1,2024/02/22_08:49:34,YZ,None,
,,,,,,practice,0,11,1,2583,2,X,0,left,0.40126814899849705,0,0,,,,,,,,,,,,,,,,,,,,,1,,,,,,,,,,,,,,,,,,,,,,,,,,,,,,,,,,,,,,,,,,,,,,74,153772,21,Female,1,2024/02/22_08:49:34,YZ,None,
,,,,,,practice,0,11,1,2583,3,X,1,right,0.6394622130028438,0,0,,,,,,,,,,,,,,,,,,,,,1,,,,,,,,,,,,,,,,,,,,,,,,,,,,,,,,,,,,,,,,,,,,,,74,153772,21,Female,1,2024/02/22_08:49:34,YZ,None,
,,,,,,practice,0,11,1,2583,4,S,0,right,1.1586476030061021,1,0,,,,,,,,,,,,,,,,,,,,,1,,,,,,,,,,,,,,,,,,,,,,,,,,,,,,,,,,,,,,,,,,,,,,74,153772,21,Female,1,2024/02/22_08:49:34,YZ,None,
,,,,,,practice,0,11,1,2583,5,S,1,left,0.32874165201792493,1,0,,,,,,,,,,,,,,,,,,,,,1,,,,,,,,,,,,,,,,,,,,,,,,,,,,,,,,,,,,,,,,,,,,,,74,153772,21,Female,1,2024/02/22_08:49:34,YZ,None,
,,,,,,practice,0,11,1,2583,6,X,0,right,0.5207879450172186,1,0,,,,,,,,,,,,,,,,,,,,,1,,,,,,,,,,,,,,,,,,,,,,,,,,,,,,,,,,,,,,,,,,,,,,74,153772,21,Female,1,2024/02/22_08:49:34,YZ,None,
,,,,,,practice,0,11,1,2583,,,,,,,,0.6875,0.5,0.25,0.75,0.0,0.75,0.601914028840838,1,1,0,0,0,3,4,2,4,0,,,,1,,,,,,,,,,,,,,,,,,,,,,,,,,,,,,,,,,,,,,,,,,,,,,74,153772,21,Female,1,2024/02/22_08:49:34,YZ,None,
1,./instructions/inst_redo_1/Slide33.png,right,1.186290782992728,514.2829028020205,515.4691935850133,,,,,,,,,,,,,,,,,,,,,,,,,,,,,,,,,1,,,,,,,,,,,,,,,,,,,,,,,,,,,,,,,,,,,,,,,,,,,,,,74,153772,21,Female,1,2024/02/22_08:49:34,YZ,None,
,,,,,,practice,0,6,1,2583,1,C,0,right,0.4516209599969443,1,0,,,,,,,,,,,,,,,,,,,,,1,,,,,,,,,,,,,,,,,,,,,,,,,,,,,,,,,,,,,,,,,,,,,,74,153772,21,Female,1,2024/02/22_08:49:34,YZ,None,
,,,,,,practice,0,6,1,2583,2,C,1,left,0.3219524410087615,1,0,,,,,,,,,,,,,,,,,,,,,1,,,,,,,,,,,,,,,,,,,,,,,,,,,,,,,,,,,,,,,,,,,,,,74,153772,21,Female,1,2024/02/22_08:49:34,YZ,None,
,,,,,,practice,0,6,1,2583,3,N,0,right,0.4093037669954356,1,0,,,,,,,,,,,,,,,,,,,,,1,,,,,,,,,,,,,,,,,,,,,,,,,,,,,,,,,,,,,,,,,,,,,,74,153772,21,Female,1,2024/02/22_08:49:34,YZ,None,
,,,,,,practice,0,6,1,2583,4,N,1,left,0.6096251500130165,1,0,,,,,,,,,,,,,,,,,,,,,1,,,,,,,,,,,,,,,,,,,,,,,,,,,,,,,,,,,,,,,,,,,,,,74,153772,21,Female,1,2024/02/22_08:49:34,YZ,None,
,,,,,,practice,0,6,1,2583,5,S,0,right,0.4766989170166198,1,0,,,,,,,,,,,,,,,,,,,,,1,,,,,,,,,,,,,,,,,,,,,,,,,,,,,,,,,,,,,,,,,,,,,,74,153772,21,Female,1,2024/02/22_08:49:34,YZ,None,
,,,,,,practice,0,6,1,2583,6,F,0,right,0.4927410180098377,1,0,,,,,,,,,,,,,,,,,,,,,1,,,,,,,,,,,,,,,,,,,,,,,,,,,,,,,,,,,,,,,,,,,,,,74,153772,21,Female,1,2024/02/22_08:49:34,YZ,None,
,,,,,,practice,0,6,1,2583,,,,,,,,1.0,1.0,0.0,1.0,0.0,1.0,0.4603237088401026,2,0,0,0,0,4,6,2,4,0,,,,1,,,,,,,,,,,,,,,,,,,,,,,,,,,,,,,,,,,,,,,,,,,,,,74,153772,21,Female,1,2024/02/22_08:49:34,YZ,None,
1,./instructions/inst_prac_3/Slide37.png,right,9.674911251000594,523.9463802830142,533.6212915340147,,,,,,,,,,,,,,,,,,,,,,,,,,,,,,,,,1,,,,,,,,,,,,,,,,,,,,,,,,,,,,,,,,,,,,,,,,,,,,,,74,153772,21,Female,1,2024/02/22_08:49:34,YZ,None,
2,./instructions/inst_prac_3/Slide38.png,right,1.4743284030118957,533.650870190002,535.1251985930139,,,,,,,,,,,,,,,,,,,,,,,,,,,,,,,,,1,,,,,,,,,,,,,,,,,,,,,,,,,,,,,,,,,,,,,,,,,,,,,,74,153772,21,Female,1,2024/02/22_08:49:34,YZ,None,
3,./instructions/inst_prac_3/Slide39.png,right,0.30680532500264235,535.1543620270095,535.4611673520121,,,,,,,,,,,,,,,,,,,,,,,,,,,,,,,,,1,,,,,,,,,,,,,,,,,,,,,,,,,,,,,,,,,,,,,,,,,,,,,,74,153772,21,Female,1,2024/02/22_08:49:34,YZ,None,
4,./instructions/inst_prac_3/Slide40.png,right,0.8286875399935525,535.488628030027,536.3173155700206,,,,,,,,,,,,,,,,,,,,,,,,,,,,,,,,,1,,,,,,,,,,,,,,,,,,,,,,,,,,,,,,,,,,,,,,,,,,,,,,74,153772,21,Female,1,2024/02/22_08:49:34,YZ,None,
5,./instructions/inst_prac_3/Slide41.png,right,0.9061163099831901,536.3471428220219,537.253259132005,,,,,,,,,,,,,,,,,,,,,,,,,,,,,,,,,1,,,,,,,,,,,,,,,,,,,,,,,,,,,,,,,,,,,,,,,,,,,,,,74,153772,21,Female,1,2024/02/22_08:49:34,YZ,None,
6,./instructions/inst_prac_3/Slide42.png,right,0.5466848479991313,537.2824511479994,537.8291359959985,,,,,,,,,,,,,,,,,,,,,,,,,,,,,,,,,1,,,,,,,,,,,,,,,,,,,,,,,,,,,,,,,,,,,,,,,,,,,,,,74,153772,21,Female,1,2024/02/22_08:49:34,YZ,None,
7,./instructions/inst_prac_3/Slide43.png,right,4.31651785998838,537.8567839880125,542.1733018480008,,,,,,,,,,,,,,,,,,,,,,,,,,,,,,,,,1,,,,,,,,,,,,,,,,,,,,,,,,,,,,,,,,,,,,,,,,,,,,,,74,153772,21,Female,1,2024/02/22_08:49:34,YZ,None,
8,./instructions/inst_prac_3/Slide44.png,right,2.5384637149982154,542.2026514240133,544.7411151390115,,,,,,,,,,,,,,,,,,,,,,,,,,,,,,,,,1,,,,,,,,,,,,,,,,,,,,,,,,,,,,,,,,,,,,,,,,,,,,,,74,153772,21,Female,1,2024/02/22_08:49:34,YZ,None,
,,,,,,practice,0,28,3,788,1,C,0,right,1.5856757659930736,1,0,,,,,,,,,,,,,,,,,,,,,1,,,,,,,,,,,,,,,,,,,,,,,,,,,,,,,,,,,,,,,,,,,,,,74,153772,21,Female,1,2024/02/22_08:49:34,YZ,None,
,,,,,,practice,0,28,3,788,2,J,0,right,0.5013115720066708,1,0,,,,,,,,,,,,,,,,,,,,,1,,,,,,,,,,,,,,,,,,,,,,,,,,,,,,,,,,,,,,,,,,,,,,74,153772,21,Female,1,2024/02/22_08:49:34,YZ,None,
,,,,,,practice,0,28,3,788,3,C,0,left,0.5103376740007661,0,0,,,,,,,,,,,,,,,,,,,,,1,,,,,,,,,,,,,,,,,,,,,,,,,,,,,,,,,,,,,,,,,,,,,,74,153772,21,Female,1,2024/02/22_08:49:34,YZ,None,
,,,,,,practice,0,28,3,788,4,C,1,left,0.6211971529992297,1,0,,,,,,,,,,,,,,,,,,,,,1,,,,,,,,,,,,,,,,,,,,,,,,,,,,,,,,,,,,,,,,,,,,,,74,153772,21,Female,1,2024/02/22_08:49:34,YZ,None,
,,,,,,practice,0,28,3,788,5,S,0,right,0.5385601629968733,1,0,,,,,,,,,,,,,,,,,,,,,1,,,,,,,,,,,,,,,,,,,,,,,,,,,,,,,,,,,,,,,,,,,,,,74,153772,21,Female,1,2024/02/22_08:49:34,YZ,None,
,,,,,,practice,0,28,3,788,6,C,1,left,0.9089440050011035,1,0,,,,,,,,,,,,,,,,,,,,,1,,,,,,,,,,,,,,,,,,,,,,,,,,,,,,,,,,,,,,,,,,,,,,74,153772,21,Female,1,2024/02/22_08:49:34,YZ,None,
,,,,,,practice,0,28,3,788,7,S,0,right,1.3957462290127296,1,0,,,,,,,,,,,,,,,,,,,,,1,,,,,,,,,,,,,,,,,,,,,,,,,,,,,,,,,,,,,,,,,,,,,,74,153772,21,Female,1,2024/02/22_08:49:34,YZ,None,
,,,,,,practice,0,28,3,788,8,X,0,right,0.592836001975229,1,0,,,,,,,,,,,,,,,,,,,,,1,,,,,,,,,,,,,,,,,,,,,,,,,,,,,,,,,,,,,,,,,,,,,,74,153772,21,Female,1,2024/02/22_08:49:34,YZ,None,
,,,,,,practice,0,28,3,788,9,C,1,left,0.7063681750150863,1,0,,,,,,,,,,,,,,,,,,,,,1,,,,,,,,,,,,,,,,,,,,,,,,,,,,,,,,,,,,,,,,,,,,,,74,153772,21,Female,1,2024/02/22_08:49:34,YZ,None,
,,,,,,practice,0,28,3,788,10,F,0,right,0.6365830069989897,1,0,,,,,,,,,,,,,,,,,,,,,1,,,,,,,,,,,,,,,,,,,,,,,,,,,,,,,,,,,,,,,,,,,,,,74,153772,21,Female,1,2024/02/22_08:49:34,YZ,None,
,,,,,,practice,0,28,3,788,11,N,0,right,0.47281753801507875,1,0,,,,,,,,,,,,,,,,,,,,,1,,,,,,,,,,,,,,,,,,,,,,,,,,,,,,,,,,,,,,,,,,,,,,74,153772,21,Female,1,2024/02/22_08:49:34,YZ,None,
,,,,,,practice,0,28,3,788,12,C,1,right,0.267136748007033,0,0,,,,,,,,,,,,,,,,,,,,,1,,,,,,,,,,,,,,,,,,,,,,,,,,,,,,,,,,,,,,,,,,,,,,74,153772,21,Female,1,2024/02/22_08:49:34,YZ,None,
,,,,,,practice,0,28,3,788,13,V,0,right,0.6508993679890409,1,0,,,,,,,,,,,,,,,,,,,,,1,,,,,,,,,,,,,,,,,,,,,,,,,,,,,,,,,,,,,,,,,,,,,,74,153772,21,Female,1,2024/02/22_08:49:34,YZ,None,
,,,,,,practice,0,28,3,788,,,,,,,,0.8819444444444444,0.75,0.1111111111111111,0.8888888888888888,0.0,0.8888888888888888,0.722185646154685,3,1,0,0,0,8,11,4,9,0,,,,1,,,,,,,,,,,,,,,,,,,,,,,,,,,,,,,,,,,,,,,,,,,,,,74,153772,21,Female,1,2024/02/22_08:49:34,YZ,None,
1,./instructions/inst_prac_3_next/Slide49.png,right,2.5888894379895646,568.8243391220167,571.4132285600062,,,,,,,,,,,,,,,,,,,,,,,,,,,,,,,,,1,,,,,,,,,,,,,,,,,,,,,,,,,,,,,,,,,,,,,,,,,,,,,,74,153772,21,Female,1,2024/02/22_08:49:34,YZ,None,
,,,,,,practice,0,35,3,2583,1,C,0,right,0.4521887770097237,1,0,,,,,,,,,,,,,,,,,,,,,1,,,,,,,,,,,,,,,,,,,,,,,,,,,,,,,,,,,,,,,,,,,,,,74,153772,21,Female,1,2024/02/22_08:49:34,YZ,None,
,,,,,,practice,0,35,3,2583,2,F,0,right,0.3245086219976656,1,0,,,,,,,,,,,,,,,,,,,,,1,,,,,,,,,,,,,,,,,,,,,,,,,,,,,,,,,,,,,,,,,,,,,,74,153772,21,Female,1,2024/02/22_08:49:34,YZ,None,
,,,,,,practice,0,35,3,2583,3,Q,0,right,0.4977863450185396,1,0,,,,,,,,,,,,,,,,,,,,,1,,,,,,,,,,,,,,,,,,,,,,,,,,,,,,,,,,,,,,,,,,,,,,74,153772,21,Female,1,2024/02/22_08:49:34,YZ,None,
,,,,,,practice,0,35,3,2583,4,V,0,right,0.7306168620125391,1,0,,,,,,,,,,,,,,,,,,,,,1,,,,,,,,,,,,,,,,,,,,,,,,,,,,,,,,,,,,,,,,,,,,,,74,153772,21,Female,1,2024/02/22_08:49:34,YZ,None,
,,,,,,practice,0,35,3,2583,5,F,1,left,0.5642942910199054,1,0,,,,,,,,,,,,,,,,,,,,,1,,,,,,,,,,,,,,,,,,,,,,,,,,,,,,,,,,,,,,,,,,,,,,74,153772,21,Female,1,2024/02/22_08:49:34,YZ,None,
,,,,,,practice,0,35,3,2583,6,Q,1,right,0.2842276440060232,0,0,,,,,,,,,,,,,,,,,,,,,1,,,,,,,,,,,,,,,,,,,,,,,,,,,,,,,,,,,,,,,,,,,,,,74,153772,21,Female,1,2024/02/22_08:49:34,YZ,None,
,,,,,,practice,0,35,3,2583,,,,,,,,0.875,0.5,0.0,1.0,0.0,1.0,0.4756037568440661,1,0,0,0,0,4,5,2,4,0,,,,1,,,,,,,,,,,,,,,,,,,,,,,,,,,,,,,,,,,,,,,,,,,,,,74,153772,21,Female,1,2024/02/22_08:49:34,YZ,None,
,,,,,,practice,0,14,3,2583,1,N,0,right,0.43714968900894746,1,0,,,,,,,,,,,,,,,,,,,,,1,,,,,,,,,,,,,,,,,,,,,,,,,,,,,,,,,,,,,,,,,,,,,,74,153772,21,Female,1,2024/02/22_08:49:34,YZ,None,
,,,,,,practice,0,14,3,2583,2,F,0,right,0.36758532997919247,1,0,,,,,,,,,,,,,,,,,,,,,1,,,,,,,,,,,,,,,,,,,,,,,,,,,,,,,,,,,,,,,,,,,,,,74,153772,21,Female,1,2024/02/22_08:49:34,YZ,None,
,,,,,,practice,0,14,3,2583,3,F,0,right,0.674714060005499,1,0,,,,,,,,,,,,,,,,,,,,,1,,,,,,,,,,,,,,,,,,,,,,,,,,,,,,,,,,,,,,,,,,,,,,74,153772,21,Female,1,2024/02/22_08:49:34,YZ,None,
,,,,,,practice,0,14,3,2583,4,N,1,left,0.3963135920057539,1,0,,,,,,,,,,,,,,,,,,,,,1,,,,,,,,,,,,,,,,,,,,,,,,,,,,,,,,,,,,,,,,,,,,,,74,153772,21,Female,1,2024/02/22_08:49:34,YZ,None,
,,,,,,practice,0,14,3,2583,5,C,0,right,0.30511990102240816,1,0,,,,,,,,,,,,,,,,,,,,,1,,,,,,,,,,,,,,,,,,,,,,,,,,,,,,,,,,,,,,,,,,,,,,74,153772,21,Female,1,2024/02/22_08:49:34,YZ,None,
,,,,,,practice,0,14,3,2583,6,F,1,right,0.466840075008804,0,0,,,,,,,,,,,,,,,,,,,,,1,,,,,,,,,,,,,,,,,,,,,,,,,,,,,,,,,,,,,,,,,,,,,,74,153772,21,Female,1,2024/02/22_08:49:34,YZ,None,
,,,,,,practice,0,14,3,2583,,,,,,,,0.875,0.5,0.0,1.0,0.0,1.0,0.44128710783843417,1,0,0,0,0,4,5,2,4,0,,,,1,,,,,,,,,,,,,,,,,,,,,,,,,,,,,,,,,,,,,,,,,,,,,,74,153772,21,Female,1,2024/02/22_08:49:34,YZ,None,
1,./instructions/inst_prac_main/Slide51.png,right,1.3884211520198733,587.3048949670047,588.6933161190245,,,,,,,,,,,,,,,,,,,,,,,,,,,,,,,,,1,,,,,,,,,,,,,,,,,,,,,,,,,,,,,,,,,,,,,,,,,,,,,,74,153772,21,Female,1,2024/02/22_08:49:34,YZ,None,
2,./instructions/inst_prac_main/Slide52.png,right,13.626856182003394,588.7222907610121,602.3491469430155,,,,,,,,,,,,,,,,,,,,,,,,,,,,,,,,,1,,,,,,,,,,,,,,,,,,,,,,,,,,,,,,,,,,,,,,,,,,,,,,74,153772,21,Female,1,2024/02/22_08:49:34,YZ,None,
3,./instructions/inst_prac_main/Slide53.png,right,0.2004638780199457,602.3788074360054,602.5792713140254,,,,,,,,,,,,,,,,,,,,,,,,,,,,,,,,,1,,,,,,,,,,,,,,,,,,,,,,,,,,,,,,,,,,,,,,,,,,,,,,74,153772,21,Female,1,2024/02/22_08:49:34,YZ,None,
2,./instructions/inst_prac_main/Slide54.png,left,8.650861792993965,602.6025819450151,611.2534437380091,,,,,,,,,,,,,,,,,,,,,,,,,,,,,,,,,1,,,,,,,,,,,,,,,,,,,,,,,,,,,,,,,,,,,,,,,,,,,,,,74,153772,21,Female,1,2024/02/22_08:49:34,YZ,None,
1,./instructions/inst_prac_main/Slide53.png,left,4.976545591023751,611.2767682260019,616.2533138170256,,,,,,,,,,,,,,,,,,,,,,,,,,,,,,,,,1,,,,,,,,,,,,,,,,,,,,,,,,,,,,,,,,,,,,,,,,,,,,,,74,153772,21,Female,1,2024/02/22_08:49:34,YZ,None,
2,./instructions/inst_prac_main/Slide52.png,right,1.8725741420057602,616.2765108640015,618.1490850060072,,,,,,,,,,,,,,,,,,,,,,,,,,,,,,,,,1,,,,,,,,,,,,,,,,,,,,,,,,,,,,,,,,,,,,,,,,,,,,,,74,153772,21,Female,1,2024/02/22_08:49:34,YZ,None,
1,./instructions/inst_prac_main/Slide53.png,left,1.082603727991227,618.1786395920208,619.261243320012,,,,,,,,,,,,,,,,,,,,,,,,,,,,,,,,,1,,,,,,,,,,,,,,,,,,,,,,,,,,,,,,,,,,,,,,,,,,,,,,74,153772,21,Female,1,2024/02/22_08:49:34,YZ,None,
2,./instructions/inst_prac_main/Slide52.png,right,1.1469619669951499,619.2901760110108,620.4371379780059,,,,,,,,,,,,,,,,,,,,,,,,,,,,,,,,,1,,,,,,,,,,,,,,,,,,,,,,,,,,,,,,,,,,,,,,,,,,,,,,74,153772,21,Female,1,2024/02/22_08:49:34,YZ,None,
1,./instructions/inst_prac_main/Slide53.png,left,0.6351206969993655,620.4662669820245,621.1013876790239,,,,,,,,,,,,,,,,,,,,,,,,,,,,,,,,,1,,,,,,,,,,,,,,,,,,,,,,,,,,,,,,,,,,,,,,,,,,,,,,74,153772,21,Female,1,2024/02/22_08:49:34,YZ,None,
2,./instructions/inst_prac_main/Slide52.png,right,7.778691243001958,621.1305575389997,628.9092487820017,,,,,,,,,,,,,,,,,,,,,,,,,,,,,,,,,1,,,,,,,,,,,,,,,,,,,,,,,,,,,,,,,,,,,,,,,,,,,,,,74,153772,21,Female,1,2024/02/22_08:49:34,YZ,None,
1,./instructions/inst_prac_main/Slide53.png,left,4.522785706009017,628.9385293670057,633.4613150730147,,,,,,,,,,,,,,,,,,,,,,,,,,,,,,,,,1,,,,,,,,,,,,,,,,,,,,,,,,,,,,,,,,,,,,,,,,,,,,,,74,153772,21,Female,1,2024/02/22_08:49:34,YZ,None,
0,./instructions/inst_prac_main/Slide52.png,left,0.20080530099221505,633.4914652070147,633.6922705080069,,,,,,,,,,,,,,,,,,,,,,,,,,,,,,,,,1,,,,,,,,,,,,,,,,,,,,,,,,,,,,,,,,,,,,,,,,,,,,,,74,153772,21,Female,1,2024/02/22_08:49:34,YZ,None,
-1,./instructions/inst_prac_main/Slide51.png,left,0.20029962601256557,633.7117865530017,633.9120861790143,,,,,,,,,,,,,,,,,,,,,,,,,,,,,,,,,1,,,,,,,,,,,,,,,,,,,,,,,,,,,,,,,,,,,,,,,,,,,,,,74,153772,21,Female,1,2024/02/22_08:49:34,YZ,None,
-2,./instructions/inst_prac_main/Slide54.png,left,0.8222031129989773,633.9349741160113,634.7571772290103,,,,,,,,,,,,,,,,,,,,,,,,,,,,,,,,,1,,,,,,,,,,,,,,,,,,,,,,,,,,,,,,,,,,,,,,,,,,,,,,74,153772,21,Female,1,2024/02/22_08:49:34,YZ,None,
-1,./instructions/inst_prac_main/Slide53.png,right,1.1069234139868058,634.7862087550166,635.8931321690034,,,,,,,,,,,,,,,,,,,,,,,,,,,,,,,,,1,,,,,,,,,,,,,,,,,,,,,,,,,,,,,,,,,,,,,,,,,,,,,,74,153772,21,Female,1,2024/02/22_08:49:34,YZ,None,
0,./instructions/inst_prac_main/Slide54.png,right,6.2589495169813745,635.9223338040174,642.1812833209988,,,,,,,,,,,,,,,,,,,,,,,,,,,,,,,,,1,,,,,,,,,,,,,,,,,,,,,,,,,,,,,,,,,,,,,,,,,,,,,,74,153772,21,Female,1,2024/02/22_08:49:34,YZ,None,
1,./instructions/inst_prac_main/Slide51.png,right,1.48639872300555,642.2067689230025,643.6931676460081,,,,,,,,,,,,,,,,,,,,,,,,,,,,,,,,,1,,,,,,,,,,,,,,,,,,,,,,,,,,,,,,,,,,,,,,,,,,,,,,74,153772,21,Female,1,2024/02/22_08:49:34,YZ,None,
2,./instructions/inst_prac_main/Slide52.png,right,3.1424183289927896,643.7188818080176,646.8613001370104,,,,,,,,,,,,,,,,,,,,,,,,,,,,,,,,,1,,,,,,,,,,,,,,,,,,,,,,,,,,,,,,,,,,,,,,,,,,,,,,74,153772,21,Female,1,2024/02/22_08:49:34,YZ,None,
3,./instructions/inst_prac_main/Slide53.png,right,2.8937723859853577,646.8874172950163,649.7811896810017,,,,,,,,,,,,,,,,,,,,,,,,,,,,,,,,,1,,,,,,,,,,,,,,,,,,,,,,,,,,,,,,,,,,,,,,,,,,,,,,74,153772,21,Female,1,2024/02/22_08:49:34,YZ,None,
4,./instructions/inst_prac_main/Slide54.png,right,3.4466260529879946,649.8066291340219,653.2532551870099,,,,,,,,,,,,,,,,,,,,,,,,,,,,,,,,,1,,,,,,,,,,,,,,,,,,,,,,,,,,,,,,,,,,,,,,,,,,,,,,74,153772,21,Female,1,2024/02/22_08:49:34,YZ,None,
,,,,,,practice_main,0,1,3,2583,1,J,0,right,0.7086768489971291,1,0,,,,,,,,,,,,,,,,,,,,,1,,,,,,,,,,,,,,,,,,,,,,,,,,,,,,,,,,,,,,,,,,,,,,74,153772,21,Female,1,2024/02/22_08:49:34,YZ,None,
,,,,,,practice_main,0,1,3,2583,2,V,0,right,0.4132925760059152,1,0,,,,,,,,,,,,,,,,,,,,,1,,,,,,,,,,,,,,,,,,,,,,,,,,,,,,,,,,,,,,,,,,,,,,74,153772,21,Female,1,2024/02/22_08:49:34,YZ,None,
,,,,,,practice_main,0,1,3,2583,3,F,0,right,0.3908703600172885,1,0,,,,,,,,,,,,,,,,,,,,,1,,,,,,,,,,,,,,,,,,,,,,,,,,,,,,,,,,,,,,,,,,,,,,74,153772,21,Female,1,2024/02/22_08:49:34,YZ,None,
,,,,,,practice_main,0,1,3,2583,4,J,1,left,0.3444390019867569,1,0,,,,,,,,,,,,,,,,,,,,,1,,,,,,,,,,,,,,,,,,,,,,,,,,,,,,,,,,,,,,,,,,,,,,74,153772,21,Female,1,2024/02/22_08:49:34,YZ,None,
,,,,,,practice_main,0,1,3,2583,5,F,0,right,0.25297253200551495,1,0,,,,,,,,,,,,,,,,,,,,,1,,,,,,,,,,,,,,,,,,,,,,,,,,,,,,,,,,,,,,,,,,,,,,74,153772,21,Female,1,2024/02/22_08:49:34,YZ,None,
,,,,,,practice_main,0,1,3,2583,6,F,1,right,0.36810535899712704,0,0,,,,,,,,,,,,,,,,,,,,,1,,,,,,,,,,,,,,,,,,,,,,,,,,,,,,,,,,,,,,,,,,,,,,74,153772,21,Female,1,2024/02/22_08:49:34,YZ,None,
,,,,,,practice_main,0,1,3,2583,,,,,,,,0.875,0.5,0.0,1.0,0.0,1.0,0.4130594463349553,1,0,0,0,0,4,5,2,4,0,,,,1,,,,,,,,,,,,,,,,,,,,,,,,,,,,,,,,,,,,,,,,,,,,,,74,153772,21,Female,1,2024/02/22_08:49:34,YZ,None,
,,,,,240222_090814,PRACTICE,0,1,3,2583,,,,,,,,,,,,,,,,,,,,,,,,,,,,1,7,1,1,cue1.png,hard,B,44,1.8957761739729904,0,656.3206638170232,658.2461305030156,,,,,,,,,,,,,,,,,,,,,,,,,,,,,,,,,,,74,153772,21,Female,1,2024/02/22_08:49:34,YZ,None,
,,,,,,practice_main,0,2,3,2583,1,S,0,right,0.41550660101347603,1,0,,,,,,,,,,,,,,,,,,,,,1,,,,,,,,,,,,,,,,,,,,,,,,,,,,,,,,,,,,,,,,,,,,,,74,153772,21,Female,1,2024/02/22_08:49:34,YZ,None,
,,,,,,practice_main,0,2,3,2583,2,Q,0,right,0.4200805370055605,1,0,,,,,,,,,,,,,,,,,,,,,1,,,,,,,,,,,,,,,,,,,,,,,,,,,,,,,,,,,,,,,,,,,,,,74,153772,21,Female,1,2024/02/22_08:49:34,YZ,None,
,,,,,,practice_main,0,2,3,2583,3,C,0,right,0.5601738370023668,1,0,,,,,,,,,,,,,,,,,,,,,1,,,,,,,,,,,,,,,,,,,,,,,,,,,,,,,,,,,,,,,,,,,,,,74,153772,21,Female,1,2024/02/22_08:49:34,YZ,None,
,,,,,,practice_main,0,2,3,2583,4,S,1,left,0.4310847089800518,1,0,,,,,,,,,,,,,,,,,,,,,1,,,,,,,,,,,,,,,,,,,,,,,,,,,,,,,,,,,,,,,,,,,,,,74,153772,21,Female,1,2024/02/22_08:49:34,YZ,None,
,,,,,,practice_main,0,2,3,2583,5,Q,1,right,0.2494527220260352,0,0,,,,,,,,,,,,,,,,,,,,,1,,,,,,,,,,,,,,,,,,,,,,,,,,,,,,,,,,,,,,,,,,,,,,74,153772,21,Female,1,2024/02/22_08:49:34,YZ,None,
,,,,,,practice_main,0,2,3,2583,6,X,0,right,0.3936161480087321,1,0,,,,,,,,,,,,,,,,,,,,,1,,,,,,,,,,,,,,,,,,,,,,,,,,,,,,,,,,,,,,,,,,,,,,74,153772,21,Female,1,2024/02/22_08:49:34,YZ,None,
,,,,,,practice_main,0,2,3,2583,,,,,,,,0.875,0.5,0.0,1.0,0.0,1.0,0.4116524256727037,1,0,0,0,0,4,5,2,4,0,,,,1,,,,,,,,,,,,,,,,,,,,,,,,,,,,,,,,,,,,,,,,,,,,,,74,153772,21,Female,1,2024/02/22_08:49:34,YZ,None,
,,,,,240222_090829,PRACTICE,0,2,3,2583,,,,,,,,,,,,,,,,,,,,,,,,,,,,1,14,2,2,cue1.png,hard,B,53,0.6958895460120402,0,672.975551230018,673.682766050013,,,,,,,,,,,,,,,,,,,,,,,,,,,,,,,,,,,74,153772,21,Female,1,2024/02/22_08:49:34,YZ,None,
,,,,,,practice_main,0,3,3,2583,1,X,0,right,0.4425803139747586,1,0,,,,,,,,,,,,,,,,,,,,,1,,,,,,,,,,,,,,,,,,,,,,,,,,,,,,,,,,,,,,,,,,,,,,74,153772,21,Female,1,2024/02/22_08:49:34,YZ,None,
,,,,,,practice_main,0,3,3,2583,2,N,0,right,0.41175640001893044,1,0,,,,,,,,,,,,,,,,,,,,,1,,,,,,,,,,,,,,,,,,,,,,,,,,,,,,,,,,,,,,,,,,,,,,74,153772,21,Female,1,2024/02/22_08:49:34,YZ,None,
,,,,,,practice_main,0,3,3,2583,3,N,0,right,0.4774033749999944,1,0,,,,,,,,,,,,,,,,,,,,,1,,,,,,,,,,,,,,,,,,,,,,,,,,,,,,,,,,,,,,,,,,,,,,74,153772,21,Female,1,2024/02/22_08:49:34,YZ,None,
,,,,,,practice_main,0,3,3,2583,4,X,1,left,0.3646234910120256,1,0,,,,,,,,,,,,,,,,,,,,,1,,,,,,,,,,,,,,,,,,,,,,,,,,,,,,,,,,,,,,,,,,,,,,74,153772,21,Female,1,2024/02/22_08:49:34,YZ,None,
,,,,,,practice_main,0,3,3,2583,5,N,1,left,0.9379874780133832,1,0,,,,,,,,,,,,,,,,,,,,,1,,,,,,,,,,,,,,,,,,,,,,,,,,,,,,,,,,,,,,,,,,,,,,74,153772,21,Female,1,2024/02/22_08:49:34,YZ,None,
,,,,,,practice_main,0,3,3,2583,6,J,0,right,0.49553697599912994,1,0,,,,,,,,,,,,,,,,,,,,,1,,,,,,,,,,,,,,,,,,,,,,,,,,,,,,,,,,,,,,,,,,,,,,74,153772,21,Female,1,2024/02/22_08:49:34,YZ,None,
,,,,,,practice_main,0,3,3,2583,,,,,,,,1.0,1.0,0.0,1.0,0.0,1.0,0.5216480056697037,2,0,0,0,0,4,6,2,4,0,,,,1,,,,,,,,,,,,,,,,,,,,,,,,,,,,,,,,,,,,,,,,,,,,,,74,153772,21,Female,1,2024/02/22_08:49:34,YZ,None,
,,,,,240222_090846,PRACTICE,0,3,3,2583,,,,,,,,,,,,,,,,,,,,,,,,,,,,1,23,3,3,cue1.png,hard,B,46,0.7865102629875764,0,688.392946345004,689.2088544480212,,,,,,,,,,,,,,,,,,,,,,,,,,,,,,,,,,,74,153772,21,Female,1,2024/02/22_08:49:34,YZ,None,
-1,./instructions/inst_prac_end/Slide56.png,left,18.744946774007985,703.0925383110007,721.8374850850087,,,,,,,,,,,,,,,,,,,,,,,,,,,,,,,,,1,,,,,,,,,,,,,,,,,,,,,,,,,,,,,,,,,,,,,,,,,,,,,,74,153772,21,Female,1,2024/02/22_08:49:34,YZ,None,
1,./instructions/inst_test/Slide57.png,right,50.65309718900244,721.8721065820137,772.5252037710161,,,,,,,,,,,,,,,,,,,,,,,,,,,,,,,,,1,,,,,,,,,,,,,,,,,,,,,,,,,,,,,,,,,,,,,,,,,,,,,,74,153772,21,Female,1,2024/02/22_08:49:34,YZ,None,
,,,,,,test,1,1,1,2583,1,C,0,right,0.35895688997698016,1,0,,,,,,,,,,,,,,,,,,,,,1,,,,,,,,,,,,,,,,,,,,,,,,,,,,,,,,,,,,,,,,,,,,,,74,153772,21,Female,1,2024/02/22_08:49:34,YZ,None,
,,,,,,test,1,1,1,2583,2,S,0,right,0.32430447099613957,1,0,,,,,,,,,,,,,,,,,,,,,1,,,,,,,,,,,,,,,,,,,,,,,,,,,,,,,,,,,,,,,,,,,,,,74,153772,21,Female,1,2024/02/22_08:49:34,YZ,None,
,,,,,,test,1,1,1,2583,3,F,0,right,0.4023632599855773,1,0,,,,,,,,,,,,,,,,,,,,,1,,,,,,,,,,,,,,,,,,,,,,,,,,,,,,,,,,,,,,,,,,,,,,74,153772,21,Female,1,2024/02/22_08:49:34,YZ,None,
,,,,,,test,1,1,1,2583,4,F,1,left,0.3925275609944947,1,0,,,,,,,,,,,,,,,,,,,,,1,,,,,,,,,,,,,,,,,,,,,,,,,,,,,,,,,,,,,,,,,,,,,,74,153772,21,Female,1,2024/02/22_08:49:34,YZ,None,
,,,,,,test,1,1,1,2583,5,Q,0,right,0.3433883379912004,1,0,,,,,,,,,,,,,,,,,,,,,1,,,,,,,,,,,,,,,,,,,,,,,,,,,,,,,,,,,,,,,,,,,,,,74,153772,21,Female,1,2024/02/22_08:49:34,YZ,None,
,,,,,,test,1,1,1,2583,6,Q,1,left,0.2684719859971665,1,0,,,,,,,,,,,,,,,,,,,,,1,,,,,,,,,,,,,,,,,,,,,,,,,,,,,,,,,,,,,,,,,,,,,,74,153772,21,Female,1,2024/02/22_08:49:34,YZ,None,
,,,,,,Test,1,1,1,2583,,,,,,,,1.0,1.0,0.0,1.0,0.0,1.0,0.34833541765692644,2,0,0,0,0,4,6,2,4,0,,,,1,,,,,,,,,,,,,,,,,,,,,,,,,,,,,,,,,,,,,,,,,,,,,,74,153772,21,Female,1,2024/02/22_08:49:34,YZ,None,
,,,,,240222_091014,TEST,1,1,1,2583,,,,,,,,,,,,,,,,,,,,,,,,,,,,1,1,1,1,cue2.png,easy,B,39,1.0707229420077056,0,777.585036805016,778.6734499529994,,,,,,,,,,,,,,,,,,,,,,,,,,,,,,,,,,,74,153772,21,Female,1,2024/02/22_08:49:34,YZ,None,
,,,,,,test,1,2,3,2583,1,C,0,right,0.30100151800434105,1,0,,,,,,,,,,,,,,,,,,,,,1,,,,,,,,,,,,,,,,,,,,,,,,,,,,,,,,,,,,,,,,,,,,,,74,153772,21,Female,1,2024/02/22_08:49:34,YZ,None,
,,,,,,test,1,2,3,2583,2,S,0,right,0.28118696800083853,1,0,,,,,,,,,,,,,,,,,,,,,1,,,,,,,,,,,,,,,,,,,,,,,,,,,,,,,,,,,,,,,,,,,,,,74,153772,21,Female,1,2024/02/22_08:49:34,YZ,None,
,,,,,,test,1,2,3,2583,3,V,0,right,0.4415573709993623,1,0,,,,,,,,,,,,,,,,,,,,,1,,,,,,,,,,,,,,,,,,,,,,,,,,,,,,,,,,,,,,,,,,,,,,74,153772,21,Female,1,2024/02/22_08:49:34,YZ,None,
,,,,,,test,1,2,3,2583,4,C,1,left,0.24181490900809877,1,0,,,,,,,,,,,,,,,,,,,,,1,,,,,,,,,,,,,,,,,,,,,,,,,,,,,,,,,,,,,,,,,,,,,,74,153772,21,Female,1,2024/02/22_08:49:34,YZ,None,
,,,,,,test,1,2,3,2583,5,S,1,right,0.2849899509747047,0,0,,,,,,,,,,,,,,,,,,,,,1,,,,,,,,,,,,,,,,,,,,,,,,,,,,,,,,,,,,,,,,,,,,,,74,153772,21,Female,1,2024/02/22_08:49:34,YZ,None,
,,,,,,test,1,2,3,2583,6,X,0,right,0.5111486070090905,1,0,,,,,,,,,,,,,,,,,,,,,1,,,,,,,,,,,,,,,,,,,,,,,,,,,,,,,,,,,,,,,,,,,,,,74,153772,21,Female,1,2024/02/22_08:49:34,YZ,None,
,,,,,,Test,1,2,3,2583,,,,,,,,0.875,0.5,0.0,1.0,0.0,1.0,0.343616553999406,1,0,0,0,0,4,5,2,4,0,,,,1,,,,,,,,,,,,,,,,,,,,,,,,,,,,,,,,,,,,,,,,,,,,,,74,153772,21,Female,1,2024/02/22_08:49:34,YZ,None,
,,,,,240222_091029,TEST,1,2,3,2583,,,,,,,,,,,,,,,,,,,,,,,,,,,,1,2,2,2,cue1.png,hard,B,41,0.9217080310045276,0,793.0024707700068,793.944770282018,,,,,,,,,,,,,,,,,,,,,,,,,,,,,,,,,,,74,153772,21,Female,1,2024/02/22_08:49:34,YZ,None,
,,,,,,test,1,3,3,2583,1,F,0,right,0.3863001049903687,1,0,,,,,,,,,,,,,,,,,,,,,1,,,,,,,,,,,,,,,,,,,,,,,,,,,,,,,,,,,,,,,,,,,,,,74,153772,21,Female,1,2024/02/22_08:49:34,YZ,None,
,,,,,,test,1,3,3,2583,2,F,0,right,0.352252076001605,1,0,,,,,,,,,,,,,,,,,,,,,1,,,,,,,,,,,,,,,,,,,,,,,,,,,,,,,,,,,,,,,,,,,,,,74,153772,21,Female,1,2024/02/22_08:49:34,YZ,None,
,,,,,,test,1,3,3,2583,3,X,0,right,0.4583749120065477,1,0,,,,,,,,,,,,,,,,,,,,,1,,,,,,,,,,,,,,,,,,,,,,,,,,,,,,,,,,,,,,,,,,,,,,74,153772,21,Female,1,2024/02/22_08:49:34,YZ,None,
,,,,,,test,1,3,3,2583,4,F,1,left,0.2843690119916573,1,0,,,,,,,,,,,,,,,,,,,,,1,,,,,,,,,,,,,,,,,,,,,,,,,,,,,,,,,,,,,,,,,,,,,,74,153772,21,Female,1,2024/02/22_08:49:34,YZ,None,
,,,,,,test,1,3,3,2583,5,S,0,right,0.3689756570092868,1,0,,,,,,,,,,,,,,,,,,,,,1,,,,,,,,,,,,,,,,,,,,,,,,,,,,,,,,,,,,,,,,,,,,,,74,153772,21,Female,1,2024/02/22_08:49:34,YZ,None,
,,,,,,test,1,3,3,2583,6,X,1,right,0.4825555369898211,0,0,,,,,,,,,,,,,,,,,,,,,1,,,,,,,,,,,,,,,,,,,,,,,,,,,,,,,,,,,,,,,,,,,,,,74,153772,21,Female,1,2024/02/22_08:49:34,YZ,None,
,,,,,,Test,1,3,3,2583,,,,,,,,0.875,0.5,0.0,1.0,0.0,1.0,0.3888045498315478,1,0,0,0,0,4,5,2,4,0,,,,1,,,,,,,,,,,,,,,,,,,,,,,,,,,,,,,,,,,,,,,,,,,,,,74,153772,21,Female,1,2024/02/22_08:49:34,YZ,None,
,,,,,240222_091045,TEST,1,3,3,2583,,,,,,,,,,,,,,,,,,,,,,,,,,,,1,3,3,3,cue1.png,hard,B,45,0.8382104700140189,0,808.2573554750124,809.1123714200221,,,,,,,,,,,,,,,,,,,,,,,,,,,,,,,,,,,74,153772,21,Female,1,2024/02/22_08:49:34,YZ,None,
,,,,,,test,1,4,3,2583,1,N,0,right,0.41845476799062453,1,0,,,,,,,,,,,,,,,,,,,,,1,,,,,,,,,,,,,,,,,,,,,,,,,,,,,,,,,,,,,,,,,,,,,,74,153772,21,Female,1,2024/02/22_08:49:34,YZ,None,
,,,,,,test,1,4,3,2583,2,F,0,right,0.6750472259882372,1,0,,,,,,,,,,,,,,,,,,,,,1,,,,,,,,,,,,,,,,,,,,,,,,,,,,,,,,,,,,,,,,,,,,,,74,153772,21,Female,1,2024/02/22_08:49:34,YZ,None,
,,,,,,test,1,4,3,2583,3,S,0,right,0.4967105239920784,1,0,,,,,,,,,,,,,,,,,,,,,1,,,,,,,,,,,,,,,,,,,,,,,,,,,,,,,,,,,,,,,,,,,,,,74,153772,21,Female,1,2024/02/22_08:49:34,YZ,None,
,,,,,,test,1,4,3,2583,4,N,1,left,0.3231275709986221,1,0,,,,,,,,,,,,,,,,,,,,,1,,,,,,,,,,,,,,,,,,,,,,,,,,,,,,,,,,,,,,,,,,,,,,74,153772,21,Female,1,2024/02/22_08:49:34,YZ,None,
,,,,,,test,1,4,3,2583,5,F,1,right,0.3275277499924414,0,0,,,,,,,,,,,,,,,,,,,,,1,,,,,,,,,,,,,,,,,,,,,,,,,,,,,,,,,,,,,,,,,,,,,,74,153772,21,Female,1,2024/02/22_08:49:34,YZ,None,
,,,,,,test,1,4,3,2583,6,F,0,right,0.7332043420174159,1,0,,,,,,,,,,,,,,,,,,,,,1,,,,,,,,,,,,,,,,,,,,,,,,,,,,,,,,,,,,,,,,,,,,,,74,153772,21,Female,1,2024/02/22_08:49:34,YZ,None,
,,,,,,Test,1,4,3,2583,,,,,,,,0.875,0.5,0.0,1.0,0.0,1.0,0.49567869682990323,1,0,0,0,0,4,5,2,4,0,,,,1,,,,,,,,,,,,,,,,,,,,,,,,,,,,,,,,,,,,,,,,,,,,,,74,153772,21,Female,1,2024/02/22_08:49:34,YZ,None,
,,,,,240222_091101,TEST,1,4,3,2583,,,,,,,,,,,,,,,,,,,,,,,,,,,,1,4,4,4,cue1.png,hard,B,47,0.7522035089787096,0,823.6749351239996,824.4425683540176,,,,,,,,,,,,,,,,,,,,,,,,,,,,,,,,,,,74,153772,21,Female,1,2024/02/22_08:49:34,YZ,None,
,,,,,,test,1,5,1,2583,1,V,0,right,0.3217750540061388,1,0,,,,,,,,,,,,,,,,,,,,,1,,,,,,,,,,,,,,,,,,,,,,,,,,,,,,,,,,,,,,,,,,,,,,74,153772,21,Female,1,2024/02/22_08:49:34,YZ,None,
,,,,,,test,1,5,1,2583,2,F,0,left,0.3810236410063226,0,0,,,,,,,,,,,,,,,,,,,,,1,,,,,,,,,,,,,,,,,,,,,,,,,,,,,,,,,,,,,,,,,,,,,,74,153772,21,Female,1,2024/02/22_08:49:34,YZ,None,
,,,,,,test,1,5,1,2583,3,F,1,left,0.5727632050111424,1,0,,,,,,,,,,,,,,,,,,,,,1,,,,,,,,,,,,,,,,,,,,,,,,,,,,,,,,,,,,,,,,,,,,,,74,153772,21,Female,1,2024/02/22_08:49:34,YZ,None,
,,,,,,test,1,5,1,2583,4,Q,0,right,0.34840712501318194,1,0,,,,,,,,,,,,,,,,,,,,,1,,,,,,,,,,,,,,,,,,,,,,,,,,,,,,,,,,,,,,,,,,,,,,74,153772,21,Female,1,2024/02/22_08:49:34,YZ,None,
,,,,,,test,1,5,1,2583,5,Q,1,left,0.22594910699990578,1,0,,,,,,,,,,,,,,,,,,,,,1,,,,,,,,,,,,,,,,,,,,,,,,,,,,,,,,,,,,,,,,,,,,,,74,153772,21,Female,1,2024/02/22_08:49:34,YZ,None,
,,,,,,test,1,5,1,2583,6,N,0,right,0.456605314015178,1,0,,,,,,,,,,,,,,,,,,,,,1,,,,,,,,,,,,,,,,,,,,,,,,,,,,,,,,,,,,,,,,,,,,,,74,153772,21,Female,1,2024/02/22_08:49:34,YZ,None,
,,,,,,Test,1,5,1,2583,,,,,,,,0.9375,1.0,0.25,0.75,0.0,0.75,0.38442057434197824,2,1,0,0,0,3,5,2,4,0,,,,1,,,,,,,,,,,,,,,,,,,,,,,,,,,,,,,,,,,,,,,,,,,,,,74,153772,21,Female,1,2024/02/22_08:49:34,YZ,None,
,,,,,240222_091116,TEST,1,5,1,2583,,,,,,,,,,,,,,,,,,,,,,,,,,,,1,5,5,5,cue2.png,easy,B,42,0.6944698290026281,0,839.6815106330032,840.3885221250239,,,,,,,,,,,,,,,,,,,,,,,,,,,,,,,,,,,74,153772,21,Female,1,2024/02/22_08:49:34,YZ,None,
,,,,,,test,1,6,3,2583,1,V,0,right,0.4230588510108646,1,0,,,,,,,,,,,,,,,,,,,,,1,,,,,,,,,,,,,,,,,,,,,,,,,,,,,,,,,,,,,,,,,,,,,,74,153772,21,Female,1,2024/02/22_08:49:34,YZ,None,
,,,,,,test,1,6,3,2583,2,Q,0,right,0.3855819540040102,1,0,,,,,,,,,,,,,,,,,,,,,1,,,,,,,,,,,,,,,,,,,,,,,,,,,,,,,,,,,,,,,,,,,,,,74,153772,21,Female,1,2024/02/22_08:49:34,YZ,None,
,,,,,,test,1,6,3,2583,3,V,0,left,0.47727308300090954,0,0,,,,,,,,,,,,,,,,,,,,,1,,,,,,,,,,,,,,,,,,,,,,,,,,,,,,,,,,,,,,,,,,,,,,74,153772,21,Female,1,2024/02/22_08:49:34,YZ,None,
,,,,,,test,1,6,3,2583,4,V,1,left,0.41044228299870156,1,0,,,,,,,,,,,,,,,,,,,,,1,,,,,,,,,,,,,,,,,,,,,,,,,,,,,,,,,,,,,,,,,,,,,,74,153772,21,Female,1,2024/02/22_08:49:34,YZ,None,
,,,,,,test,1,6,3,2583,5,Q,1,right,3.2009330579894595,0,0,,,,,,,,,,,,,,,,,,,,,1,,,,,,,,,,,,,,,,,,,,,,,,,,,,,,,,,,,,,,,,,,,,,,74,153772,21,Female,1,2024/02/22_08:49:34,YZ,None,
,,,,,,test,1,6,3,2583,6,Q,0,right,0.8980458520236425,1,0,,,,,,,,,,,,,,,,,,,,,1,,,,,,,,,,,,,,,,,,,,,,,,,,,,,,,,,,,,,,,,,,,,,,74,153772,21,Female,1,2024/02/22_08:49:34,YZ,None,
,,,,,,Test,1,6,3,2583,,,,,,,,0.6875,0.5,0.25,0.75,0.0,0.75,0.9658891801712647,1,1,0,0,0,3,4,2,4,0,,,,1,,,,,,,,,,,,,,,,,,,,,,,,,,,,,,,,,,,,,,,,,,,,,,74,153772,21,Female,1,2024/02/22_08:49:34,YZ,None,
,,,,,240222_091136,TEST,1,6,3,2583,,,,,,,,,,,,,,,,,,,,,,,,,,,,1,6,6,6,cue1.png,hard,B,48,1.6121271239826456,0,854.9424199180212,856.5669553680054,,,,,,,,,,,,,,,,,,,,,,,,,,,,,,,,,,,74,153772,21,Female,1,2024/02/22_08:49:34,YZ,None,
,,,,,,test,1,7,3,2583,1,Q,0,right,0.6251761899911799,1,0,,,,,,,,,,,,,,,,,,,,,1,,,,,,,,,,,,,,,,,,,,,,,,,,,,,,,,,,,,,,,,,,,,,,74,153772,21,Female,1,2024/02/22_08:49:34,YZ,None,
,,,,,,test,1,7,3,2583,2,F,0,right,0.3382912630040664,1,0,,,,,,,,,,,,,,,,,,,,,1,,,,,,,,,,,,,,,,,,,,,,,,,,,,,,,,,,,,,,,,,,,,,,74,153772,21,Female,1,2024/02/22_08:49:34,YZ,None,
,,,,,,test,1,7,3,2583,3,J,0,right,0.35222369100665674,1,0,,,,,,,,,,,,,,,,,,,,,1,,,,,,,,,,,,,,,,,,,,,,,,,,,,,,,,,,,,,,,,,,,,,,74,153772,21,Female,1,2024/02/22_08:49:34,YZ,None,
,,,,,,test,1,7,3,2583,4,Q,1,left,0.20749164099106565,1,0,,,,,,,,,,,,,,,,,,,,,1,,,,,,,,,,,,,,,,,,,,,,,,,,,,,,,,,,,,,,,,,,,,,,74,153772,21,Female,1,2024/02/22_08:49:34,YZ,None,
,,,,,,test,1,7,3,2583,5,F,1,left,0.38465933001134545,1,0,,,,,,,,,,,,,,,,,,,,,1,,,,,,,,,,,,,,,,,,,,,,,,,,,,,,,,,,,,,,,,,,,,,,74,153772,21,Female,1,2024/02/22_08:49:34,YZ,None,
,,,,,,test,1,7,3,2583,6,Q,0,right,0.5774731609853916,1,0,,,,,,,,,,,,,,,,,,,,,1,,,,,,,,,,,,,,,,,,,,,,,,,,,,,,,,,,,,,,,,,,,,,,74,153772,21,Female,1,2024/02/22_08:49:34,YZ,None,
,,,,,,Test,1,7,3,2583,,,,,,,,1.0,1.0,0.0,1.0,0.0,1.0,0.41421921266495093,2,0,0,0,0,4,6,2,4,0,,,,1,,,,,,,,,,,,,,,,,,,,,,,,,,,,,,,,,,,,,,,,,,,,,,74,153772,21,Female,1,2024/02/22_08:49:34,YZ,None,
,,,,,240222_091152,TEST,1,7,3,2583,,,,,,,,,,,,,,,,,,,,,,,,,,,,1,7,7,7,cue1.png,hard,B,44,1.748044925974682,0,874.6071952840139,876.3721683010226,,,,,,,,,,,,,,,,,,,,,,,,,,,,,,,,,,,74,153772,21,Female,1,2024/02/22_08:49:34,YZ,None,
,,,,,,test,1,8,1,2583,1,N,0,right,0.35696437500882894,1,0,,,,,,,,,,,,,,,,,,,,,1,,,,,,,,,,,,,,,,,,,,,,,,,,,,,,,,,,,,,,,,,,,,,,74,153772,21,Female,1,2024/02/22_08:49:34,YZ,None,
,,,,,,test,1,8,1,2583,2,Q,0,right,0.4249557150178589,1,0,,,,,,,,,,,,,,,,,,,,,1,,,,,,,,,,,,,,,,,,,,,,,,,,,,,,,,,,,,,,,,,,,,,,74,153772,21,Female,1,2024/02/22_08:49:34,YZ,None,
,,,,,,test,1,8,1,2583,3,Q,1,left,0.5128469610062893,1,0,,,,,,,,,,,,,,,,,,,,,1,,,,,,,,,,,,,,,,,,,,,,,,,,,,,,,,,,,,,,,,,,,,,,74,153772,21,Female,1,2024/02/22_08:49:34,YZ,None,
,,,,,,test,1,8,1,2583,4,J,0,right,0.39245090598706156,1,0,,,,,,,,,,,,,,,,,,,,,1,,,,,,,,,,,,,,,,,,,,,,,,,,,,,,,,,,,,,,,,,,,,,,74,153772,21,Female,1,2024/02/22_08:49:34,YZ,None,
,,,,,,test,1,8,1,2583,5,J,1,right,0.39462331900722347,0,0,,,,,,,,,,,,,,,,,,,,,1,,,,,,,,,,,,,,,,,,,,,,,,,,,,,,,,,,,,,,,,,,,,,,74,153772,21,Female,1,2024/02/22_08:49:34,YZ,None,
,,,,,,test,1,8,1,2583,6,F,0,right,0.5122850479965564,1,0,,,,,,,,,,,,,,,,,,,,,1,,,,,,,,,,,,,,,,,,,,,,,,,,,,,,,,,,,,,,,,,,,,,,74,153772,21,Female,1,2024/02/22_08:49:34,YZ,None,
,,,,,,Test,1,8,1,2583,,,,,,,,0.875,0.5,0.0,1.0,0.0,1.0,0.4323543873373031,1,0,0,0,0,4,5,2,4,0,,,,1,,,,,,,,,,,,,,,,,,,,,,,,,,,,,,,,,,,,,,,,,,,,,,74,153772,21,Female,1,2024/02/22_08:49:34,YZ,None,
,,,,,240222_091208,TEST,1,8,1,2583,,,,,,,,,,,,,,,,,,,,,,,,,,,,1,8,8,8,cue2.png,easy,B,47,0.679036306013586,0,891.1087701299984,891.8069715989986,,,,,,,,,,,,,,,,,,,,,,,,,,,,,,,,,,,74,153772,21,Female,1,2024/02/22_08:49:34,YZ,None,
,,,,,,test,1,9,1,2583,1,C,0,right,0.4401778859901242,1,0,,,,,,,,,,,,,,,,,,,,,1,,,,,,,,,,,,,,,,,,,,,,,,,,,,,,,,,,,,,,,,,,,,,,74,153772,21,Female,1,2024/02/22_08:49:34,YZ,None,
,,,,,,test,1,9,1,2583,2,X,0,right,0.40908410801785067,1,0,,,,,,,,,,,,,,,,,,,,,1,,,,,,,,,,,,,,,,,,,,,,,,,,,,,,,,,,,,,,,,,,,,,,74,153772,21,Female,1,2024/02/22_08:49:34,YZ,None,
,,,,,,test,1,9,1,2583,3,Q,0,left,0.18380474200239405,0,0,,,,,,,,,,,,,,,,,,,,,1,,,,,,,,,,,,,,,,,,,,,,,,,,,,,,,,,,,,,,,,,,,,,,74,153772,21,Female,1,2024/02/22_08:49:34,YZ,None,
,,,,,,test,1,9,1,2583,4,Q,1,left,0.6880958279944025,1,0,,,,,,,,,,,,,,,,,,,,,1,,,,,,,,,,,,,,,,,,,,,,,,,,,,,,,,,,,,,,,,,,,,,,74,153772,21,Female,1,2024/02/22_08:49:34,YZ,None,
,,,,,,test,1,9,1,2583,5,N,0,right,0.3763810119999107,1,0,,,,,,,,,,,,,,,,,,,,,1,,,,,,,,,,,,,,,,,,,,,,,,,,,,,,,,,,,,,,,,,,,,,,74,153772,21,Female,1,2024/02/22_08:49:34,YZ,None,
,,,,,,test,1,9,1,2583,6,N,1,left,0.3228891159815248,1,0,,,,,,,,,,,,,,,,,,,,,1,,,,,,,,,,,,,,,,,,,,,,,,,,,,,,,,,,,,,,,,,,,,,,74,153772,21,Female,1,2024/02/22_08:49:34,YZ,None,
,,,,,,Test,1,9,1,2583,,,,,,,,0.9375,1.0,0.25,0.75,0.0,0.75,0.40340544866436784,2,1,0,0,0,3,5,2,4,0,,,,1,,,,,,,,,,,,,,,,,,,,,,,,,,,,,,,,,,,,,,,,,,,,,,74,153772,21,Female,1,2024/02/22_08:49:34,YZ,None,
,,,,,240222_091223,TEST,1,9,1,2583,,,,,,,,,,,,,,,,,,,,,,,,,,,,1,9,9,9,cue2.png,easy,B,45,0.5525566450087354,0,906.6528237470193,907.2203560060007,,,,,,,,,,,,,,,,,,,,,,,,,,,,,,,,,,,74,153772,21,Female,1,2024/02/22_08:49:34,YZ,None,
,,,,,,test,1,10,3,2583,1,C,0,right,0.30245263600954786,1,0,,,,,,,,,,,,,,,,,,,,,1,,,,,,,,,,,,,,,,,,,,,,,,,,,,,,,,,,,,,,,,,,,,,,74,153772,21,Female,1,2024/02/22_08:49:34,YZ,None,
,,,,,,test,1,10,3,2583,2,X,0,right,0.4561164980113972,1,0,,,,,,,,,,,,,,,,,,,,,1,,,,,,,,,,,,,,,,,,,,,,,,,,,,,,,,,,,,,,,,,,,,,,74,153772,21,Female,1,2024/02/22_08:49:34,YZ,None,
,,,,,,test,1,10,3,2583,3,C,0,right,0.5125408770109061,1,0,,,,,,,,,,,,,,,,,,,,,1,,,,,,,,,,,,,,,,,,,,,,,,,,,,,,,,,,,,,,,,,,,,,,74,153772,21,Female,1,2024/02/22_08:49:34,YZ,None,
,,,,,,test,1,10,3,2583,4,C,1,left,0.26581747000454925,1,0,,,,,,,,,,,,,,,,,,,,,1,,,,,,,,,,,,,,,,,,,,,,,,,,,,,,,,,,,,,,,,,,,,,,74,153772,21,Female,1,2024/02/22_08:49:34,YZ,None,
,,,,,,test,1,10,3,2583,5,F,0,right,0.3926249390060548,1,0,,,,,,,,,,,,,,,,,,,,,1,,,,,,,,,,,,,,,,,,,,,,,,,,,,,,,,,,,,,,,,,,,,,,74,153772,21,Female,1,2024/02/22_08:49:34,YZ,None,
,,,,,,test,1,10,3,2583,6,C,1,left,0.6814126429962926,1,0,,,,,,,,,,,,,,,,,,,,,1,,,,,,,,,,,,,,,,,,,,,,,,,,,,,,,,,,,,,,,,,,,,,,74,153772,21,Female,1,2024/02/22_08:49:34,YZ,None,
,,,,,,Test,1,10,3,2583,,,,,,,,1.0,1.0,0.0,1.0,0.0,1.0,0.4351608438397913,2,0,0,0,0,4,6,2,4,0,,,,1,,,,,,,,,,,,,,,,,,,,,,,,,,,,,,,,,,,,,,,,,,,,,,74,153772,21,Female,1,2024/02/22_08:49:34,YZ,None,
,,,,,240222_091239,TEST,1,10,3,2583,,,,,,,,,,,,,,,,,,,,,,,,,,,,1,10,10,10,cue1.png,hard,B,48,0.7214035759971011,0,921.8903079560259,922.6289038770192,,,,,,,,,,,,,,,,,,,,,,,,,,,,,,,,,,,74,153772,21,Female,1,2024/02/22_08:49:34,YZ,None,
,,,,,,test,1,11,1,2583,1,S,0,right,0.4741171299829148,1,0,,,,,,,,,,,,,,,,,,,,,1,,,,,,,,,,,,,,,,,,,,,,,,,,,,,,,,,,,,,,,,,,,,,,74,153772,21,Female,1,2024/02/22_08:49:34,YZ,None,
,,,,,,test,1,11,1,2583,2,S,1,left,0.31372135199490003,1,0,,,,,,,,,,,,,,,,,,,,,1,,,,,,,,,,,,,,,,,,,,,,,,,,,,,,,,,,,,,,,,,,,,,,74,153772,21,Female,1,2024/02/22_08:49:34,YZ,None,
,,,,,,test,1,11,1,2583,3,F,0,right,0.34717890500905924,1,0,,,,,,,,,,,,,,,,,,,,,1,,,,,,,,,,,,,,,,,,,,,,,,,,,,,,,,,,,,,,,,,,,,,,74,153772,21,Female,1,2024/02/22_08:49:34,YZ,None,
,,,,,,test,1,11,1,2583,4,S,0,right,0.4881247860030271,1,0,,,,,,,,,,,,,,,,,,,,,1,,,,,,,,,,,,,,,,,,,,,,,,,,,,,,,,,,,,,,,,,,,,,,74,153772,21,Female,1,2024/02/22_08:49:34,YZ,None,
,,,,,,test,1,11,1,2583,5,C,0,right,0.49634751299163327,1,0,,,,,,,,,,,,,,,,,,,,,1,,,,,,,,,,,,,,,,,,,,,,,,,,,,,,,,,,,,,,,,,,,,,,74,153772,21,Female,1,2024/02/22_08:49:34,YZ,None,
,,,,,,test,1,11,1,2583,6,C,1,left,0.296915834012907,1,0,,,,,,,,,,,,,,,,,,,,,1,,,,,,,,,,,,,,,,,,,,,,,,,,,,,,,,,,,,,,,,,,,,,,74,153772,21,Female,1,2024/02/22_08:49:34,YZ,None,
,,,,,,Test,1,11,1,2583,,,,,,,,1.0,1.0,0.0,1.0,0.0,1.0,0.4027342533324069,2,0,0,0,0,4,6,2,4,0,,,,1,,,,,,,,,,,,,,,,,,,,,,,,,,,,,,,,,,,,,,,,,,,,,,74,153772,21,Female,1,2024/02/22_08:49:34,YZ,None,
,,,,,240222_091254,TEST,1,11,1,2583,,,,,,,,,,,,,,,,,,,,,,,,,,,,1,11,11,11,cue2.png,easy,B,44,0.519702644989593,0,937.5078560750117,938.0569346109987,,,,,,,,,,,,,,,,,,,,,,,,,,,,,,,,,,,74,153772,21,Female,1,2024/02/22_08:49:34,YZ,None,
,,,,,,test,1,12,3,2583,1,N,0,right,0.46476809098385274,1,0,,,,,,,,,,,,,,,,,,,,,1,,,,,,,,,,,,,,,,,,,,,,,,,,,,,,,,,,,,,,,,,,,,,,74,153772,21,Female,1,2024/02/22_08:49:34,YZ,None,
,,,,,,test,1,12,3,2583,2,Q,0,right,0.4181338250054978,1,0,,,,,,,,,,,,,,,,,,,,,1,,,,,,,,,,,,,,,,,,,,,,,,,,,,,,,,,,,,,,,,,,,,,,74,153772,21,Female,1,2024/02/22_08:49:34,YZ,None,
,,,,,,test,1,12,3,2583,3,C,0,right,0.46338594899862073,1,0,,,,,,,,,,,,,,,,,,,,,1,,,,,,,,,,,,,,,,,,,,,,,,,,,,,,,,,,,,,,,,,,,,,,74,153772,21,Female,1,2024/02/22_08:49:34,YZ,None,
,,,,,,test,1,12,3,2583,4,S,0,right,0.4921012640115805,1,0,,,,,,,,,,,,,,,,,,,,,1,,,,,,,,,,,,,,,,,,,,,,,,,,,,,,,,,,,,,,,,,,,,,,74,153772,21,Female,1,2024/02/22_08:49:34,YZ,None,
,,,,,,test,1,12,3,2583,5,Q,1,left,0.5913790010090452,1,0,,,,,,,,,,,,,,,,,,,,,1,,,,,,,,,,,,,,,,,,,,,,,,,,,,,,,,,,,,,,,,,,,,,,74,153772,21,Female,1,2024/02/22_08:49:34,YZ,None,
,,,,,,test,1,12,3,2583,6,C,1,left,0.6029824590077624,1,0,,,,,,,,,,,,,,,,,,,,,1,,,,,,,,,,,,,,,,,,,,,,,,,,,,,,,,,,,,,,,,,,,,,,74,153772,21,Female,1,2024/02/22_08:49:34,YZ,None,
,,,,,,Test,1,12,3,2583,,,,,,,,1.0,1.0,0.0,1.0,0.0,1.0,0.5054584315027265,2,0,0,0,0,4,6,2,4,0,,,,1,,,,,,,,,,,,,,,,,,,,,,,,,,,,,,,,,,,,,,,,,,,,,,74,153772,21,Female,1,2024/02/22_08:49:34,YZ,None,
,,,,,240222_091311,TEST,1,12,3,2583,,,,,,,,,,,,,,,,,,,,,,,,,,,,1,12,12,12,cue1.png,hard,B,49,2.2143506900174543,0,952.712740278017,954.938806391001,,,,,,,,,,,,,,,,,,,,,,,,,,,,,,,,,,,74,153772,21,Female,1,2024/02/22_08:49:34,YZ,None,
,,,,,,test,1,13,1,2583,1,X,0,right,0.3590744210232515,1,0,,,,,,,,,,,,,,,,,,,,,1,,,,,,,,,,,,,,,,,,,,,,,,,,,,,,,,,,,,,,,,,,,,,,74,153772,21,Female,1,2024/02/22_08:49:34,YZ,None,
,,,,,,test,1,13,1,2583,2,X,1,right,0.597078908002004,0,0,,,,,,,,,,,,,,,,,,,,,1,,,,,,,,,,,,,,,,,,,,,,,,,,,,,,,,,,,,,,,,,,,,,,74,153772,21,Female,1,2024/02/22_08:49:34,YZ,None,
,,,,,,test,1,13,1,2583,3,C,0,right,0.32783729798393324,1,0,,,,,,,,,,,,,,,,,,,,,1,,,,,,,,,,,,,,,,,,,,,,,,,,,,,,,,,,,,,,,,,,,,,,74,153772,21,Female,1,2024/02/22_08:49:34,YZ,None,
,,,,,,test,1,13,1,2583,4,V,0,left,0.5168731930025388,0,0,,,,,,,,,,,,,,,,,,,,,1,,,,,,,,,,,,,,,,,,,,,,,,,,,,,,,,,,,,,,,,,,,,,,74,153772,21,Female,1,2024/02/22_08:49:34,YZ,None,
,,,,,,test,1,13,1,2583,5,N,0,right,0.2550354369741399,1,0,,,,,,,,,,,,,,,,,,,,,1,,,,,,,,,,,,,,,,,,,,,,,,,,,,,,,,,,,,,,,,,,,,,,74,153772,21,Female,1,2024/02/22_08:49:34,YZ,None,
,,,,,,test,1,13,1,2583,6,N,1,right,0.564304222993087,0,0,,,,,,,,,,,,,,,,,,,,,1,,,,,,,,,,,,,,,,,,,,,,,,,,,,,,,,,,,,,,,,,,,,,,74,153772,21,Female,1,2024/02/22_08:49:34,YZ,None,
,,,,,,Test,1,13,1,2583,,,,,,,,0.1875,0.0,0.25,0.75,0.0,0.75,0.4367005799964924,0,1,0,0,0,3,3,2,4,0,,,,1,,,,,,,,,,,,,,,,,,,,,,,,,,,,,,,,,,,,,,,,,,,,,,74,153772,21,Female,1,2024/02/22_08:49:34,YZ,None,
,,,,,240222_091327,TEST,1,13,1,2583,,,,,,,,,,,,,,,,,,,,,,,,,,,,1,13,13,13,cue2.png,easy,B,50,1.1117365829995833,0,970.2264447460184,971.3517115800059,,,,,,,,,,,,,,,,,,,,,,,,,,,,,,,,,,,74,153772,21,Female,1,2024/02/22_08:49:34,YZ,None,
,,,,,,test,1,14,3,2583,1,X,0,right,0.4392590239876881,1,0,,,,,,,,,,,,,,,,,,,,,1,,,,,,,,,,,,,,,,,,,,,,,,,,,,,,,,,,,,,,,,,,,,,,74,153772,21,Female,1,2024/02/22_08:49:34,YZ,None,
,,,,,,test,1,14,3,2583,2,N,0,right,0.292314588004956,1,0,,,,,,,,,,,,,,,,,,,,,1,,,,,,,,,,,,,,,,,,,,,,,,,,,,,,,,,,,,,,,,,,,,,,74,153772,21,Female,1,2024/02/22_08:49:34,YZ,None,
,,,,,,test,1,14,3,2583,3,S,0,right,0.39651093998691067,1,0,,,,,,,,,,,,,,,,,,,,,1,,,,,,,,,,,,,,,,,,,,,,,,,,,,,,,,,,,,,,,,,,,,,,74,153772,21,Female,1,2024/02/22_08:49:34,YZ,None,
,,,,,,test,1,14,3,2583,4,V,0,right,0.4646048519934993,1,0,,,,,,,,,,,,,,,,,,,,,1,,,,,,,,,,,,,,,,,,,,,,,,,,,,,,,,,,,,,,,,,,,,,,74,153772,21,Female,1,2024/02/22_08:49:34,YZ,None,
,,,,,,test,1,14,3,2583,5,N,1,left,0.376050849998137,1,0,,,,,,,,,,,,,,,,,,,,,1,,,,,,,,,,,,,,,,,,,,,,,,,,,,,,,,,,,,,,,,,,,,,,74,153772,21,Female,1,2024/02/22_08:49:34,YZ,None,
,,,,,,test,1,14,3,2583,6,S,1,left,0.5996521220076829,1,0,,,,,,,,,,,,,,,,,,,,,1,,,,,,,,,,,,,,,,,,,,,,,,,,,,,,,,,,,,,,,,,,,,,,74,153772,21,Female,1,2024/02/22_08:49:34,YZ,None,
,,,,,,Test,1,14,3,2583,,,,,,,,1.0,1.0,0.0,1.0,0.0,1.0,0.428065395996479,2,0,0,0,0,4,6,2,4,0,,,,1,,,,,,,,,,,,,,,,,,,,,,,,,,,,,,,,,,,,,,,,,,,,,,74,153772,21,Female,1,2024/02/22_08:49:34,YZ,None,
,,,,,240222_091344,TEST,1,14,3,2583,,,,,,,,,,,,,,,,,,,,,,,,,,,,1,14,14,14,cue1.png,hard,B,48,2.21936722000828,0,986.2444402240217,988.4790341510088,,,,,,,,,,,,,,,,,,,,,,,,,,,,,,,,,,,74,153772,21,Female,1,2024/02/22_08:49:34,YZ,None,
,,,,,,test,1,15,1,2583,1,S,0,right,0.7980759850179311,1,0,,,,,,,,,,,,,,,,,,,,,1,,,,,,,,,,,,,,,,,,,,,,,,,,,,,,,,,,,,,,,,,,,,,,74,153772,21,Female,1,2024/02/22_08:49:34,YZ,None,
,,,,,,test,1,15,1,2583,2,F,0,right,0.3737925240129698,1,0,,,,,,,,,,,,,,,,,,,,,1,,,,,,,,,,,,,,,,,,,,,,,,,,,,,,,,,,,,,,,,,,,,,,74,153772,21,Female,1,2024/02/22_08:49:34,YZ,None,
,,,,,,test,1,15,1,2583,3,F,1,left,0.36146717000519857,1,0,,,,,,,,,,,,,,,,,,,,,1,,,,,,,,,,,,,,,,,,,,,,,,,,,,,,,,,,,,,,,,,,,,,,74,153772,21,Female,1,2024/02/22_08:49:34,YZ,None,
,,,,,,test,1,15,1,2583,4,J,0,right,0.3178459680057131,1,0,,,,,,,,,,,,,,,,,,,,,1,,,,,,,,,,,,,,,,,,,,,,,,,,,,,,,,,,,,,,,,,,,,,,74,153772,21,Female,1,2024/02/22_08:49:34,YZ,None,
,,,,,,test,1,15,1,2583,5,N,0,right,0.473185103997821,1,0,,,,,,,,,,,,,,,,,,,,,1,,,,,,,,,,,,,,,,,,,,,,,,,,,,,,,,,,,,,,,,,,,,,,74,153772,21,Female,1,2024/02/22_08:49:34,YZ,None,
,,,,,,test,1,15,1,2583,6,N,1,left,0.5488585570128635,1,0,,,,,,,,,,,,,,,,,,,,,1,,,,,,,,,,,,,,,,,,,,,,,,,,,,,,,,,,,,,,,,,,,,,,74,153772,21,Female,1,2024/02/22_08:49:34,YZ,None,
,,,,,,Test,1,15,1,2583,,,,,,,,1.0,1.0,0.0,1.0,0.0,1.0,0.47887088467541616,2,0,0,0,0,4,6,2,4,0,,,,1,,,,,,,,,,,,,,,,,,,,,,,,,,,,,,,,,,,,,,,,,,,,,,74,153772,21,Female,1,2024/02/22_08:49:34,YZ,None,
,,,,,240222_091400,TEST,1,15,1,2583,,,,,,,,,,,,,,,,,,,,,,,,,,,,1,15,15,15,cue2.png,easy,B,50,0.5615204440255184,0,1003.2890732060187,1003.8711052639992,,,,,,,,,,,,,,,,,,,,,,,,,,,,,,,,,,,74,153772,21,Female,1,2024/02/22_08:49:34,YZ,None,
,,,,,,test,1,16,1,2583,1,N,0,right,0.4383225469791796,1,0,,,,,,,,,,,,,,,,,,,,,1,,,,,,,,,,,,,,,,,,,,,,,,,,,,,,,,,,,,,,,,,,,,,,74,153772,21,Female,1,2024/02/22_08:49:34,YZ,None,
,,,,,,test,1,16,1,2583,2,J,0,right,0.35910813498776406,1,0,,,,,,,,,,,,,,,,,,,,,1,,,,,,,,,,,,,,,,,,,,,,,,,,,,,,,,,,,,,,,,,,,,,,74,153772,21,Female,1,2024/02/22_08:49:34,YZ,None,
,,,,,,test,1,16,1,2583,3,J,1,left,0.34524611599044874,1,0,,,,,,,,,,,,,,,,,,,,,1,,,,,,,,,,,,,,,,,,,,,,,,,,,,,,,,,,,,,,,,,,,,,,74,153772,21,Female,1,2024/02/22_08:49:34,YZ,None,
,,,,,,test,1,16,1,2583,4,X,0,right,0.30001707398332655,1,0,,,,,,,,,,,,,,,,,,,,,1,,,,,,,,,,,,,,,,,,,,,,,,,,,,,,,,,,,,,,,,,,,,,,74,153772,21,Female,1,2024/02/22_08:49:34,YZ,None,
,,,,,,test,1,16,1,2583,5,X,1,left,0.3037814139970578,1,0,,,,,,,,,,,,,,,,,,,,,1,,,,,,,,,,,,,,,,,,,,,,,,,,,,,,,,,,,,,,,,,,,,,,74,153772,21,Female,1,2024/02/22_08:49:34,YZ,None,
,,,,,,test,1,16,1,2583,6,F,0,right,0.38393750600516796,1,0,,,,,,,,,,,,,,,,,,,,,1,,,,,,,,,,,,,,,,,,,,,,,,,,,,,,,,,,,,,,,,,,,,,,74,153772,21,Female,1,2024/02/22_08:49:34,YZ,None,
,,,,,,Test,1,16,1,2583,,,,,,,,1.0,1.0,0.0,1.0,0.0,1.0,0.35506879865715746,2,0,0,0,0,4,6,2,4,0,,,,1,,,,,,,,,,,,,,,,,,,,,,,,,,,,,,,,,,,,,,,,,,,,,,74,153772,21,Female,1,2024/02/22_08:49:34,YZ,None,
,,,,,240222_091415,TEST,1,16,1,2583,,,,,,,,,,,,,,,,,,,,,,,,,,,,1,16,16,16,cue2.png,easy,B,50,0.7730848549981602,0,1018.9939566090179,1019.7838808240194,,,,,,,,,,,,,,,,,,,,,,,,,,,,,,,,,,,74,153772,21,Female,1,2024/02/22_08:49:34,YZ,None,
,,,,,,test,1,17,3,2583,1,F,0,right,0.36126041499665007,1,0,,,,,,,,,,,,,,,,,,,,,1,,,,,,,,,,,,,,,,,,,,,,,,,,,,,,,,,,,,,,,,,,,,,,74,153772,21,Female,1,2024/02/22_08:49:34,YZ,None,
,,,,,,test,1,17,3,2583,2,F,0,right,0.3014732110023033,1,0,,,,,,,,,,,,,,,,,,,,,1,,,,,,,,,,,,,,,,,,,,,,,,,,,,,,,,,,,,,,,,,,,,,,74,153772,21,Female,1,2024/02/22_08:49:34,YZ,None,
,,,,,,test,1,17,3,2583,3,Q,0,right,0.3120240650023334,1,0,,,,,,,,,,,,,,,,,,,,,1,,,,,,,,,,,,,,,,,,,,,,,,,,,,,,,,,,,,,,,,,,,,,,74,153772,21,Female,1,2024/02/22_08:49:34,YZ,None,
,,,,,,test,1,17,3,2583,4,V,0,right,0.4655421450152062,1,0,,,,,,,,,,,,,,,,,,,,,1,,,,,,,,,,,,,,,,,,,,,,,,,,,,,,,,,,,,,,,,,,,,,,74,153772,21,Female,1,2024/02/22_08:49:34,YZ,None,
,,,,,,test,1,17,3,2583,5,F,1,left,0.40113661301438697,1,0,,,,,,,,,,,,,,,,,,,,,1,,,,,,,,,,,,,,,,,,,,,,,,,,,,,,,,,,,,,,,,,,,,,,74,153772,21,Female,1,2024/02/22_08:49:34,YZ,None,
,,,,,,test,1,17,3,2583,6,Q,1,right,0.31662184800370596,0,0,,,,,,,,,,,,,,,,,,,,,1,,,,,,,,,,,,,,,,,,,,,,,,,,,,,,,,,,,,,,,,,,,,,,74,153772,21,Female,1,2024/02/22_08:49:34,YZ,None,
,,,,,,Test,1,17,3,2583,,,,,,,,0.875,0.5,0.0,1.0,0.0,1.0,0.35967638283909764,1,0,0,0,0,4,5,2,4,0,,,,1,,,,,,,,,,,,,,,,,,,,,,,,,,,,,,,,,,,,,,,,,,,,,,74,153772,21,Female,1,2024/02/22_08:49:34,YZ,None,
,,,,,240222_091431,TEST,1,17,3,2583,,,,,,,,,,,,,,,,,,,,,,,,,,,,1,17,17,17,cue1.png,hard,B,49,1.206819789018482,0,1034.1547459470166,1035.3783090950164,,,,,,,,,,,,,,,,,,,,,,,,,,,,,,,,,,,74,153772,21,Female,1,2024/02/22_08:49:34,YZ,None,
,,,,,,test,1,18,3,2583,1,C,0,right,0.3906761510006618,1,0,,,,,,,,,,,,,,,,,,,,,1,,,,,,,,,,,,,,,,,,,,,,,,,,,,,,,,,,,,,,,,,,,,,,74,153772,21,Female,1,2024/02/22_08:49:34,YZ,None,
,,,,,,test,1,18,3,2583,2,J,0,right,0.4091415480070282,1,0,,,,,,,,,,,,,,,,,,,,,1,,,,,,,,,,,,,,,,,,,,,,,,,,,,,,,,,,,,,,,,,,,,,,74,153772,21,Female,1,2024/02/22_08:49:34,YZ,None,
,,,,,,test,1,18,3,2583,3,X,0,right,0.41572334099328145,1,0,,,,,,,,,,,,,,,,,,,,,1,,,,,,,,,,,,,,,,,,,,,,,,,,,,,,,,,,,,,,,,,,,,,,74,153772,21,Female,1,2024/02/22_08:49:34,YZ,None,
,,,,,,test,1,18,3,2583,4,C,1,left,0.37272884498815984,1,0,,,,,,,,,,,,,,,,,,,,,1,,,,,,,,,,,,,,,,,,,,,,,,,,,,,,,,,,,,,,,,,,,,,,74,153772,21,Female,1,2024/02/22_08:49:34,YZ,None,
,,,,,,test,1,18,3,2583,5,J,1,right,0.3131142469937913,0,0,,,,,,,,,,,,,,,,,,,,,1,,,,,,,,,,,,,,,,,,,,,,,,,,,,,,,,,,,,,,,,,,,,,,74,153772,21,Female,1,2024/02/22_08:49:34,YZ,None,
,,,,,,test,1,18,3,2583,6,V,0,right,0.5617477329797111,1,0,,,,,,,,,,,,,,,,,,,,,1,,,,,,,,,,,,,,,,,,,,,,,,,,,,,,,,,,,,,,,,,,,,,,74,153772,21,Female,1,2024/02/22_08:49:34,YZ,None,
,,,,,,Test,1,18,3,2583,,,,,,,,0.875,0.5,0.0,1.0,0.0,1.0,0.4105219774937723,1,0,0,0,0,4,5,2,4,0,,,,1,,,,,,,,,,,,,,,,,,,,,,,,,,,,,,,,,,,,,,,,,,,,,,74,153772,21,Female,1,2024/02/22_08:49:34,YZ,None,
,,,,,240222_091447,TEST,1,18,3,2583,,,,,,,,,,,,,,,,,,,,,,,,,,,,1,18,18,18,cue1.png,hard,B,48,1.3784727469901554,0,1049.7679598430113,1051.1587122040219,,,,,,,,,,,,,,,,,,,,,,,,,,,,,,,,,,,74,153772,21,Female,1,2024/02/22_08:49:34,YZ,None,
,,,,,,test,1,19,1,2583,1,N,0,right,0.37096673500491306,1,0,,,,,,,,,,,,,,,,,,,,,1,,,,,,,,,,,,,,,,,,,,,,,,,,,,,,,,,,,,,,,,,,,,,,74,153772,21,Female,1,2024/02/22_08:49:34,YZ,None,
,,,,,,test,1,19,1,2583,2,N,1,right,0.3680555160099175,0,0,,,,,,,,,,,,,,,,,,,,,1,,,,,,,,,,,,,,,,,,,,,,,,,,,,,,,,,,,,,,,,,,,,,,74,153772,21,Female,1,2024/02/22_08:49:34,YZ,None,
,,,,,,test,1,19,1,2583,3,J,0,right,0.4799289370130282,1,0,,,,,,,,,,,,,,,,,,,,,1,,,,,,,,,,,,,,,,,,,,,,,,,,,,,,,,,,,,,,,,,,,,,,74,153772,21,Female,1,2024/02/22_08:49:34,YZ,None,
,,,,,,test,1,19,1,2583,4,Q,0,right,0.5647498549951706,1,0,,,,,,,,,,,,,,,,,,,,,1,,,,,,,,,,,,,,,,,,,,,,,,,,,,,,,,,,,,,,,,,,,,,,74,153772,21,Female,1,2024/02/22_08:49:34,YZ,None,
,,,,,,test,1,19,1,2583,5,F,0,left,0.44447378200129606,0,0,,,,,,,,,,,,,,,,,,,,,1,,,,,,,,,,,,,,,,,,,,,,,,,,,,,,,,,,,,,,,,,,,,,,74,153772,21,Female,1,2024/02/22_08:49:34,YZ,None,
,,,,,,test,1,19,1,2583,6,F,1,right,0.30033426100271754,0,0,,,,,,,,,,,,,,,,,,,,,1,,,,,,,,,,,,,,,,,,,,,,,,,,,,,,,,,,,,,,,,,,,,,,74,153772,21,Female,1,2024/02/22_08:49:34,YZ,None,
,,,,,,Test,1,19,1,2583,,,,,,,,0.1875,0.0,0.25,0.75,0.0,0.75,0.4214181810045072,0,1,0,0,0,3,3,2,4,0,,,,1,,,,,,,,,,,,,,,,,,,,,,,,,,,,,,,,,,,,,,,,,,,,,,74,153772,21,Female,1,2024/02/22_08:49:34,YZ,None,
,,,,,240222_091503,TEST,1,19,1,2583,,,,,,,,,,,,,,,,,,,,,,,,,,,,1,19,19,19,cue2.png,easy,B,49,0.9040337990154512,0,1065.8688217320014,1066.7934958650148,,,,,,,,,,,,,,,,,,,,,,,,,,,,,,,,,,,74,153772,21,Female,1,2024/02/22_08:49:34,YZ,None,
,,,,,,test,1,20,1,2583,1,Q,0,right,0.46702294098213315,1,0,,,,,,,,,,,,,,,,,,,,,1,,,,,,,,,,,,,,,,,,,,,,,,,,,,,,,,,,,,,,,,,,,,,,74,153772,21,Female,1,2024/02/22_08:49:34,YZ,None,
,,,,,,test,1,20,1,2583,2,F,0,right,0.3771018389961682,1,0,,,,,,,,,,,,,,,,,,,,,1,,,,,,,,,,,,,,,,,,,,,,,,,,,,,,,,,,,,,,,,,,,,,,74,153772,21,Female,1,2024/02/22_08:49:34,YZ,None,
,,,,,,test,1,20,1,2583,3,C,0,right,0.4470554819854442,1,0,,,,,,,,,,,,,,,,,,,,,1,,,,,,,,,,,,,,,,,,,,,,,,,,,,,,,,,,,,,,,,,,,,,,74,153772,21,Female,1,2024/02/22_08:49:34,YZ,None,
,,,,,,test,1,20,1,2583,4,C,1,left,0.4683967779856175,1,0,,,,,,,,,,,,,,,,,,,,,1,,,,,,,,,,,,,,,,,,,,,,,,,,,,,,,,,,,,,,,,,,,,,,74,153772,21,Female,1,2024/02/22_08:49:34,YZ,None,
,,,,,,test,1,20,1,2583,5,F,0,right,0.5764023829833604,1,0,,,,,,,,,,,,,,,,,,,,,1,,,,,,,,,,,,,,,,,,,,,,,,,,,,,,,,,,,,,,,,,,,,,,74,153772,21,Female,1,2024/02/22_08:49:34,YZ,None,
,,,,,,test,1,20,1,2583,6,F,1,left,0.5744288550049532,1,0,,,,,,,,,,,,,,,,,,,,,1,,,,,,,,,,,,,,,,,,,,,,,,,,,,,,,,,,,,,,,,,,,,,,74,153772,21,Female,1,2024/02/22_08:49:34,YZ,None,
,,,,,,Test,1,20,1,2583,,,,,,,,1.0,1.0,0.0,1.0,0.0,1.0,0.48506804632294614,2,0,0,0,0,4,6,2,4,0,,,,1,,,,,,,,,,,,,,,,,,,,,,,,,,,,,,,,,,,,,,,,,,,,,,74,153772,21,Female,1,2024/02/22_08:49:34,YZ,None,
,,,,,240222_091518,TEST,1,20,1,2583,,,,,,,,,,,,,,,,,,,,,,,,,,,,1,20,20,20,cue2.png,easy,B,50,0.5311739220051095,0,1081.5735305130074,1082.1217931600113,,,,,,,,,,,,,,,,,,,,,,,,,,,,,,,,,,,74,153772,21,Female,1,2024/02/22_08:49:34,YZ,None,
