Instruction,Stimulus,Key,RT,START,END,Phase,Block,TrialN,NbackLevel,ISI,LetterN,Letter,Letter_isSame,Letter_Resp,Letter_RT,Letter_Accuracy,Letter_Timeout,Trial_A_measure,Trial_HR,Trial_FAR,Trial_CDR,Trial_MSR,Trial_ACC,Trial_RT,Trial_HitsCount,Trial_FAsCount,Trial_SameNoRespCount,Trial_DiffNoRespCount,Trial_NoRespCount,Trial_CDsCount,Trial_CorrectRespCount,Trial_SameLetterCount,Trial_DiffLetterCount,Trial_InvalidLetterCount,TrialCountCali,CaliEnd_A_measure,ISI_calibrated,Run,TrialIndex,TrialNumber_total,TrialNumber_valid,CueLearning,TrialDemandLearning,CueMapping,OnlineRating,OnlineRatingRT,OnlineRatingTimeOut,CueSTART,RatingSTART,OfflineRatingTimePoint,OfflineRatingQuesIndex,CueFigure,TrialDemand,OfflineRating,OfflineRatingRT,CueStart,OfflineRatingStart,PhaseType,CueLeft,CueDemandLeft,CueRight,CueDemandRight,Choice,ChoiceDemand,TaskDemand,ChoiceRT,ChoiceTimeOut,ChoiceSTART,CueCheck,CueDemandCheck,CorrectAnswer,Answer,AnswerDemand,AnswerRT,AnswerACC,AnswerTimeOut,CheckSTART,DemandRatingQuesIndex,QuesTLX,DemandLevel,DemandRating,DemandRatingRT,QuesStart,PID,SONA,Age,Gender,Run,TIME,EXPERIMENTER,frameRate,
-1,./instructions/inst_begin/Slide2.png,left,29.993867295997916,0.1082012019760441,30.10206849797396,,,,,,,,,,,,,,,,,,,,,,,,,,,,,,,,,1,,,,,,,,,,,,,,,,,,,,,,,,,,,,,,,,,,,,,,,,,,,,,,120,156973,19,Female,1,2024/03/25_12:27:02,YZ,None,
0,./instructions/inst_begin/Slide4.png,right,15.512677685997915,30.12553353997646,45.63821122597437,,,,,,,,,,,,,,,,,,,,,,,,,,,,,,,,,1,,,,,,,,,,,,,,,,,,,,,,,,,,,,,,,,,,,,,,,,,,,,,,120,156973,19,Female,1,2024/03/25_12:27:02,YZ,None,
1,./instructions/inst_begin/Slide2.png,right,8.074706211016746,45.66716257497319,53.741868785989936,,,,,,,,,,,,,,,,,,,,,,,,,,,,,,,,,1,,,,,,,,,,,,,,,,,,,,,,,,,,,,,,,,,,,,,,,,,,,,,,120,156973,19,Female,1,2024/03/25_12:27:02,YZ,None,
2,./instructions/inst_begin/Slide3.png,right,8.262202104990138,53.76771859699511,62.02992070198525,,,,,,,,,,,,,,,,,,,,,,,,,,,,,,,,,1,,,,,,,,,,,,,,,,,,,,,,,,,,,,,,,,,,,,,,,,,,,,,,120,156973,19,Female,1,2024/03/25_12:27:02,YZ,None,
3,./instructions/inst_begin/Slide4.png,right,7.605214076000266,62.05667881699628,69.66189289299655,,,,,,,,,,,,,,,,,,,,,,,,,,,,,,,,,1,,,,,,,,,,,,,,,,,,,,,,,,,,,,,,,,,,,,,,,,,,,,,,120,156973,19,Female,1,2024/03/25_12:27:02,YZ,None,
1,./instructions/inst_prac_2/Slide6.png,right,18.071413313999074,69.69453345498187,87.76594676898094,,,,,,,,,,,,,,,,,,,,,,,,,,,,,,,,,1,,,,,,,,,,,,,,,,,,,,,,,,,,,,,,,,,,,,,,,,,,,,,,120,156973,19,Female,1,2024/03/25_12:27:02,YZ,None,
2,./instructions/inst_prac_2/Slide7.png,right,18.645872938999673,87.79237845499301,106.43825139399269,,,,,,,,,,,,,,,,,,,,,,,,,,,,,,,,,1,,,,,,,,,,,,,,,,,,,,,,,,,,,,,,,,,,,,,,,,,,,,,,120,156973,19,Female,1,2024/03/25_12:27:02,YZ,None,
3,./instructions/inst_prac_2/Slide8.png,right,12.627044921013294,106.46682287898147,119.09386779999477,,,,,,,,,,,,,,,,,,,,,,,,,,,,,,,,,1,,,,,,,,,,,,,,,,,,,,,,,,,,,,,,,,,,,,,,,,,,,,,,120,156973,19,Female,1,2024/03/25_12:27:02,YZ,None,
4,./instructions/inst_prac_2/Slide9.png,right,5.218915168981766,119.12288709799759,124.34180226697936,,,,,,,,,,,,,,,,,,,,,,,,,,,,,,,,,1,,,,,,,,,,,,,,,,,,,,,,,,,,,,,,,,,,,,,,,,,,,,,,120,156973,19,Female,1,2024/03/25_12:27:02,YZ,None,
5,./instructions/inst_prac_2/Slide10.png,right,2.389514958980726,124.3684212389926,126.75793619797332,,,,,,,,,,,,,,,,,,,,,,,,,,,,,,,,,1,,,,,,,,,,,,,,,,,,,,,,,,,,,,,,,,,,,,,,,,,,,,,,120,156973,19,Female,1,2024/03/25_12:27:02,YZ,None,
6,./instructions/inst_prac_2/Slide11.png,right,1.5475963130011223,126.78642143798061,128.33401775098173,,,,,,,,,,,,,,,,,,,,,,,,,,,,,,,,,1,,,,,,,,,,,,,,,,,,,,,,,,,,,,,,,,,,,,,,,,,,,,,,120,156973,19,Female,1,2024/03/25_12:27:02,YZ,None,
7,./instructions/inst_prac_2/Slide12.png,right,1.0595272109785583,128.36249998799758,129.42202719897614,,,,,,,,,,,,,,,,,,,,,,,,,,,,,,,,,1,,,,,,,,,,,,,,,,,,,,,,,,,,,,,,,,,,,,,,,,,,,,,,120,156973,19,Female,1,2024/03/25_12:27:02,YZ,None,
8,./instructions/inst_prac_2/Slide13.png,right,2.6274912049993873,129.45065366398194,132.07814486898133,,,,,,,,,,,,,,,,,,,,,,,,,,,,,,,,,1,,,,,,,,,,,,,,,,,,,,,,,,,,,,,,,,,,,,,,,,,,,,,,120,156973,19,Female,1,2024/03/25_12:27:02,YZ,None,
9,./instructions/inst_prac_2/Slide14.png,right,16.179212325019762,132.10679057997186,148.28600290499162,,,,,,,,,,,,,,,,,,,,,,,,,,,,,,,,,1,,,,,,,,,,,,,,,,,,,,,,,,,,,,,,,,,,,,,,,,,,,,,,120,156973,19,Female,1,2024/03/25_12:27:02,YZ,None,
10,./instructions/inst_prac_2/Slide15.png,right,32.082941025000764,148.31504464597674,180.3979856709775,,,,,,,,,,,,,,,,,,,,,,,,,,,,,,,,,1,,,,,,,,,,,,,,,,,,,,,,,,,,,,,,,,,,,,,,,,,,,,,,120,156973,19,Female,1,2024/03/25_12:27:02,YZ,None,
,,,,,,practice,0,6,2,2583,1,Q,0,left,4.610026310983812,0,0,,,,,,,,,,,,,,,,,,,,,1,,,,,,,,,,,,,,,,,,,,,,,,,,,,,,,,,,,,,,,,,,,,,,120,156973,19,Female,1,2024/03/25_12:27:02,YZ,None,
,,,,,,practice,0,6,2,2583,2,J,0,right,3.0251923089963384,1,0,,,,,,,,,,,,,,,,,,,,,1,,,,,,,,,,,,,,,,,,,,,,,,,,,,,,,,,,,,,,,,,,,,,,120,156973,19,Female,1,2024/03/25_12:27:02,YZ,None,
,,,,,,practice,0,6,2,2583,3,Q,1,left,1.2271709159831516,1,0,,,,,,,,,,,,,,,,,,,,,1,,,,,,,,,,,,,,,,,,,,,,,,,,,,,,,,,,,,,,,,,,,,,,120,156973,19,Female,1,2024/03/25_12:27:02,YZ,None,
,,,,,,practice,0,6,2,2583,4,N,0,right,3.846869286004221,1,0,,,,,,,,,,,,,,,,,,,,,1,,,,,,,,,,,,,,,,,,,,,,,,,,,,,,,,,,,,,,,,,,,,,,120,156973,19,Female,1,2024/03/25_12:27:02,YZ,None,
,,,,,,practice,0,6,2,2583,5,Q,1,left,1.0210081589757465,1,0,,,,,,,,,,,,,,,,,,,,,1,,,,,,,,,,,,,,,,,,,,,,,,,,,,,,,,,,,,,,,,,,,,,,120,156973,19,Female,1,2024/03/25_12:27:02,YZ,None,
,,,,,,practice,0,6,2,2583,6,X,0,right,0.7684298780222889,1,0,,,,,,,,,,,,,,,,,,,,,1,,,,,,,,,,,,,,,,,,,,,,,,,,,,,,,,,,,,,,,,,,,,,,120,156973,19,Female,1,2024/03/25_12:27:02,YZ,None,
,,,,,,practice,0,6,2,2583,,,,,,,,0.9375,1.0,0.25,0.75,0.0,0.75,2.4164494764942597,2,1,0,0,0,3,5,2,4,0,,,,1,,,,,,,,,,,,,,,,,,,,,,,,,,,,,,,,,,,,,,,,,,,,,,120,156973,19,Female,1,2024/03/25_12:27:02,YZ,None,
1,./instructions/inst_to_cali/Slide20.png,right,6.296974297001725,201.75688585697208,208.0538601539738,,,,,,,,,,,,,,,,,,,,,,,,,,,,,,,,,1,,,,,,,,,,,,,,,,,,,,,,,,,,,,,,,,,,,,,,,,,,,,,,120,156973,19,Female,1,2024/03/25_12:27:02,YZ,None,
1,./instructions/inst_cali/Slide22.png,right,17.806786714005284,208.08691772198654,225.89370443599182,,,,,,,,,,,,,,,,,,,,,,,,,,,,,,,,,1,,,,,,,,,,,,,,,,,,,,,,,,,,,,,,,,,,,,,,,,,,,,,,120,156973,19,Female,1,2024/03/25_12:27:02,YZ,None,
,,,,,,calibration,0,12,2,583,1,F,0,right,0.4255417340027634,1,0,,,,,,,,,,,,,,,,,,,,,1,,,,,,,,,,,,,,,,,,,,,,,,,,,,,,,,,,,,,,,,,,,,,,120,156973,19,Female,1,2024/03/25_12:27:02,YZ,None,
,,,,,,calibration,0,12,2,583,2,X,0,right,0.48934792599175125,1,0,,,,,,,,,,,,,,,,,,,,,1,,,,,,,,,,,,,,,,,,,,,,,,,,,,,,,,,,,,,,,,,,,,,,120,156973,19,Female,1,2024/03/25_12:27:02,YZ,None,
,,,,,,calibration,0,12,2,583,3,F,1,left,0.5119892429793254,1,0,,,,,,,,,,,,,,,,,,,,,1,,,,,,,,,,,,,,,,,,,,,,,,,,,,,,,,,,,,,,,,,,,,,,120,156973,19,Female,1,2024/03/25_12:27:02,YZ,None,
,,,,,,calibration,0,12,2,583,4,X,1,right,0.3796559280017391,0,0,,,,,,,,,,,,,,,,,,,,,1,,,,,,,,,,,,,,,,,,,,,,,,,,,,,,,,,,,,,,,,,,,,,,120,156973,19,Female,1,2024/03/25_12:27:02,YZ,None,
,,,,,,calibration,0,12,2,583,5,S,0,left,0.30022111200378276,0,0,,,,,,,,,,,,,,,,,,,,,1,,,,,,,,,,,,,,,,,,,,,,,,,,,,,,,,,,,,,,,,,,,,,,120,156973,19,Female,1,2024/03/25_12:27:02,YZ,None,
,,,,,,calibration,0,12,2,583,6,X,1,right,0.46552340599009767,0,0,,,,,,,,,,,,,,,,,,,,,1,,,,,,,,,,,,,,,,,,,,,,,,,,,,,,,,,,,,,,,,,,,,,,120,156973,19,Female,1,2024/03/25_12:27:02,YZ,None,
,,,,,,calibration,0,12,2,583,7,V,0,right,0.5403382040094584,1,0,,,,,,,,,,,,,,,,,,,,,1,,,,,,,,,,,,,,,,,,,,,,,,,,,,,,,,,,,,,,,,,,,,,,120,156973,19,Female,1,2024/03/25_12:27:02,YZ,None,
,,,,,,calibration,0,12,2,583,8,X,1,left,0.5788650389877148,1,0,,,,,,,,,,,,,,,,,,,,,1,,,,,,,,,,,,,,,,,,,,,,,,,,,,,,,,,,,,,,,,,,,,,,120,156973,19,Female,1,2024/03/25_12:27:02,YZ,None,
,,,,,,calibration,0,12,2,583,9,S,0,right,0.35607174297911115,1,0,,,,,,,,,,,,,,,,,,,,,1,,,,,,,,,,,,,,,,,,,,,,,,,,,,,,,,,,,,,,,,,,,,,,120,156973,19,Female,1,2024/03/25_12:27:02,YZ,None,
,,,,,,calibration,0,12,2,583,10,C,0,right,0.4800442880077753,1,0,,,,,,,,,,,,,,,,,,,,,1,,,,,,,,,,,,,,,,,,,,,,,,,,,,,,,,,,,,,,,,,,,,,,120,156973,19,Female,1,2024/03/25_12:27:02,YZ,None,
,,,,,,calibration,0,12,2,583,11,S,1,left,0.8299239460029639,1,0,,,,,,,,,,,,,,,,,,,,,1,,,,,,,,,,,,,,,,,,,,,,,,,,,,,,,,,,,,,,,,,,,,,,120,156973,19,Female,1,2024/03/25_12:27:02,YZ,None,
,,,,,,calibration,0,12,2,583,12,N,0,right,0.43971870598034,1,0,,,,,,,,,,,,,,,,,,,,,1,,,,,,,,,,,,,,,,,,,,,,,,,,,,,,,,,,,,,,,,,,,,,,120,156973,19,Female,1,2024/03/25_12:27:02,YZ,None,
,,,,,,calibration,0,12,2,583,13,X,0,right,0.4889338659995701,1,0,,,,,,,,,,,,,,,,,,,,,1,,,,,,,,,,,,,,,,,,,,,,,,,,,,,,,,,,,,,,,,,,,,,,120,156973,19,Female,1,2024/03/25_12:27:02,YZ,None,
,,,,,,calibration,0,12,2,583,14,Q,0,right,0.6436839360103477,1,0,,,,,,,,,,,,,,,,,,,,,1,,,,,,,,,,,,,,,,,,,,,,,,,,,,,,,,,,,,,,,,,,,,,,120,156973,19,Female,1,2024/03/25_12:27:02,YZ,None,
,,,,,,calibration,0,12,2,583,15,V,0,right,0.34953726100502536,1,0,,,,,,,,,,,,,,,,,,,,,1,,,,,,,,,,,,,,,,,,,,,,,,,,,,,,,,,,,,,,,,,,,,,,120,156973,19,Female,1,2024/03/25_12:27:02,YZ,None,
,,,,,,calibration,0,12,2,583,,,,,,,,0.835,0.6,0.1,0.9,0.0,0.9,0.48529308919678443,3,1,0,0,0,9,12,5,10,0,,,,1,,,,,,,,,,,,,,,,,,,,,,,,,,,,,,,,,,,,,,,,,,,,,,120,156973,19,Female,1,2024/03/25_12:27:02,YZ,None,
,,,,,,Calibration,0,,2,583,,,,,,,,,,,,,,,,,,,,,,,,,1,,,1,,,,,,,,,,,,,,,,,,,,,,,,,,,,,,,,,,,,,,,,,,,,,,120,156973,19,Female,1,2024/03/25_12:27:02,YZ,None,
,,,,,,calibration,0,8,2,583,1,J,0,right,0.6473223500070162,1,0,,,,,,,,,,,,,,,,,,,,,1,,,,,,,,,,,,,,,,,,,,,,,,,,,,,,,,,,,,,,,,,,,,,,120,156973,19,Female,1,2024/03/25_12:27:02,YZ,None,
,,,,,,calibration,0,8,2,583,2,Q,0,right,0.748770031001186,1,0,,,,,,,,,,,,,,,,,,,,,1,,,,,,,,,,,,,,,,,,,,,,,,,,,,,,,,,,,,,,,,,,,,,,120,156973,19,Female,1,2024/03/25_12:27:02,YZ,None,
,,,,,,calibration,0,8,2,583,3,J,1,left,0.4052801729994826,1,0,,,,,,,,,,,,,,,,,,,,,1,,,,,,,,,,,,,,,,,,,,,,,,,,,,,,,,,,,,,,,,,,,,,,120,156973,19,Female,1,2024/03/25_12:27:02,YZ,None,
,,,,,,calibration,0,8,2,583,4,N,0,right,0.4257874040049501,1,0,,,,,,,,,,,,,,,,,,,,,1,,,,,,,,,,,,,,,,,,,,,,,,,,,,,,,,,,,,,,,,,,,,,,120,156973,19,Female,1,2024/03/25_12:27:02,YZ,None,
,,,,,,calibration,0,8,2,583,5,J,1,left,0.49243720702361315,1,0,,,,,,,,,,,,,,,,,,,,,1,,,,,,,,,,,,,,,,,,,,,,,,,,,,,,,,,,,,,,,,,,,,,,120,156973,19,Female,1,2024/03/25_12:27:02,YZ,None,
,,,,,,calibration,0,8,2,583,6,C,0,right,0.482262380013708,1,0,,,,,,,,,,,,,,,,,,,,,1,,,,,,,,,,,,,,,,,,,,,,,,,,,,,,,,,,,,,,,,,,,,,,120,156973,19,Female,1,2024/03/25_12:27:02,YZ,None,
,,,,,,calibration,0,8,2,583,7,X,0,right,0.353390088013839,1,0,,,,,,,,,,,,,,,,,,,,,1,,,,,,,,,,,,,,,,,,,,,,,,,,,,,,,,,,,,,,,,,,,,,,120,156973,19,Female,1,2024/03/25_12:27:02,YZ,None,
,,,,,,calibration,0,8,2,583,8,V,0,right,0.46906758402474225,1,0,,,,,,,,,,,,,,,,,,,,,1,,,,,,,,,,,,,,,,,,,,,,,,,,,,,,,,,,,,,,,,,,,,,,120,156973,19,Female,1,2024/03/25_12:27:02,YZ,None,
,,,,,,calibration,0,8,2,583,9,N,0,right,0.44068713099113666,1,0,,,,,,,,,,,,,,,,,,,,,1,,,,,,,,,,,,,,,,,,,,,,,,,,,,,,,,,,,,,,,,,,,,,,120,156973,19,Female,1,2024/03/25_12:27:02,YZ,None,
,,,,,,calibration,0,8,2,583,10,J,0,right,0.48949929600348696,1,0,,,,,,,,,,,,,,,,,,,,,1,,,,,,,,,,,,,,,,,,,,,,,,,,,,,,,,,,,,,,,,,,,,,,120,156973,19,Female,1,2024/03/25_12:27:02,YZ,None,
,,,,,,calibration,0,8,2,583,11,N,1,left,0.4251541520061437,1,0,,,,,,,,,,,,,,,,,,,,,1,,,,,,,,,,,,,,,,,,,,,,,,,,,,,,,,,,,,,,,,,,,,,,120,156973,19,Female,1,2024/03/25_12:27:02,YZ,None,
,,,,,,calibration,0,8,2,583,12,J,1,right,0.32116585699259304,0,0,,,,,,,,,,,,,,,,,,,,,1,,,,,,,,,,,,,,,,,,,,,,,,,,,,,,,,,,,,,,,,,,,,,,120,156973,19,Female,1,2024/03/25_12:27:02,YZ,None,
,,,,,,calibration,0,8,2,583,13,C,0,right,0.6227524610003456,1,0,,,,,,,,,,,,,,,,,,,,,1,,,,,,,,,,,,,,,,,,,,,,,,,,,,,,,,,,,,,,,,,,,,,,120,156973,19,Female,1,2024/03/25_12:27:02,YZ,None,
,,,,,,calibration,0,8,2,583,14,F,0,right,0.4600350279943086,1,0,,,,,,,,,,,,,,,,,,,,,1,,,,,,,,,,,,,,,,,,,,,,,,,,,,,,,,,,,,,,,,,,,,,,120,156973,19,Female,1,2024/03/25_12:27:02,YZ,None,
,,,,,,calibration,0,8,2,583,15,Q,0,right,0.5814935509988572,1,0,,,,,,,,,,,,,,,,,,,,,1,,,,,,,,,,,,,,,,,,,,,,,,,,,,,,,,,,,,,,,,,,,,,,120,156973,19,Female,1,2024/03/25_12:27:02,YZ,None,
,,,,,,calibration,0,8,2,583,,,,,,,,0.9375,0.75,0.0,1.0,0.0,1.0,0.4910069795383606,3,0,0,0,0,11,14,4,11,0,,,,1,,,,,,,,,,,,,,,,,,,,,,,,,,,,,,,,,,,,,,,,,,,,,,120,156973,19,Female,1,2024/03/25_12:27:02,YZ,None,
,,,,,,Calibration,0,,2,583,,,,,,,,,,,,,,,,,,,,,,,,,2,,,1,,,,,,,,,,,,,,,,,,,,,,,,,,,,,,,,,,,,,,,,,,,,,,120,156973,19,Female,1,2024/03/25_12:27:02,YZ,None,
,,,,,,calibration,0,16,2,500,1,F,0,left,0.9039677340188064,0,0,,,,,,,,,,,,,,,,,,,,,1,,,,,,,,,,,,,,,,,,,,,,,,,,,,,,,,,,,,,,,,,,,,,,120,156973,19,Female,1,2024/03/25_12:27:02,YZ,None,
,,,,,,calibration,0,16,2,500,2,S,0,right,0.38884987897472456,1,0,,,,,,,,,,,,,,,,,,,,,1,,,,,,,,,,,,,,,,,,,,,,,,,,,,,,,,,,,,,,,,,,,,,,120,156973,19,Female,1,2024/03/25_12:27:02,YZ,None,
,,,,,,calibration,0,16,2,500,3,J,0,right,0.2567161390034016,1,0,,,,,,,,,,,,,,,,,,,,,1,,,,,,,,,,,,,,,,,,,,,,,,,,,,,,,,,,,,,,,,,,,,,,120,156973,19,Female,1,2024/03/25_12:27:02,YZ,None,
,,,,,,calibration,0,16,2,500,4,N,0,right,0.23271981099969707,1,0,,,,,,,,,,,,,,,,,,,,,1,,,,,,,,,,,,,,,,,,,,,,,,,,,,,,,,,,,,,,,,,,,,,,120,156973,19,Female,1,2024/03/25_12:27:02,YZ,None,
,,,,,,calibration,0,16,2,500,5,J,1,left,0.5245404949819203,1,0,,,,,,,,,,,,,,,,,,,,,1,,,,,,,,,,,,,,,,,,,,,,,,,,,,,,,,,,,,,,,,,,,,,,120,156973,19,Female,1,2024/03/25_12:27:02,YZ,None,
,,,,,,calibration,0,16,2,500,6,X,0,right,0.013490517012542114,1,0,,,,,,,,,,,,,,,,,,,,,1,,,,,,,,,,,,,,,,,,,,,,,,,,,,,,,,,,,,,,,,,,,,,,120,156973,19,Female,1,2024/03/25_12:27:02,YZ,None,
,,,,,,calibration,0,16,2,500,7,J,1,left,0.44331844898988493,1,0,,,,,,,,,,,,,,,,,,,,,1,,,,,,,,,,,,,,,,,,,,,,,,,,,,,,,,,,,,,,,,,,,,,,120,156973,19,Female,1,2024/03/25_12:27:02,YZ,None,
,,,,,,calibration,0,16,2,500,8,S,0,right,0.44244453197461553,1,0,,,,,,,,,,,,,,,,,,,,,1,,,,,,,,,,,,,,,,,,,,,,,,,,,,,,,,,,,,,,,,,,,,,,120,156973,19,Female,1,2024/03/25_12:27:02,YZ,None,
,,,,,,calibration,0,16,2,500,9,Q,0,right,0.42640585702611133,1,0,,,,,,,,,,,,,,,,,,,,,1,,,,,,,,,,,,,,,,,,,,,,,,,,,,,,,,,,,,,,,,,,,,,,120,156973,19,Female,1,2024/03/25_12:27:02,YZ,None,
,,,,,,calibration,0,16,2,500,10,S,1,right,0.939120112976525,0,0,,,,,,,,,,,,,,,,,,,,,1,,,,,,,,,,,,,,,,,,,,,,,,,,,,,,,,,,,,,,,,,,,,,,120,156973,19,Female,1,2024/03/25_12:27:02,YZ,None,
,,,,,,calibration,0,16,2,500,11,J,0,right,0.5121738149900921,1,0,,,,,,,,,,,,,,,,,,,,,1,,,,,,,,,,,,,,,,,,,,,,,,,,,,,,,,,,,,,,,,,,,,,,120,156973,19,Female,1,2024/03/25_12:27:02,YZ,None,
,,,,,,calibration,0,16,2,500,12,S,1,right,0.31544997901073657,0,0,,,,,,,,,,,,,,,,,,,,,1,,,,,,,,,,,,,,,,,,,,,,,,,,,,,,,,,,,,,,,,,,,,,,120,156973,19,Female,1,2024/03/25_12:27:02,YZ,None,
,,,,,,calibration,0,16,2,500,13,Q,0,right,0.2989509920007549,1,0,,,,,,,,,,,,,,,,,,,,,1,,,,,,,,,,,,,,,,,,,,,,,,,,,,,,,,,,,,,,,,,,,,,,120,156973,19,Female,1,2024/03/25_12:27:02,YZ,None,
,,,,,,calibration,0,16,2,500,14,J,0,right,0.3846478369960096,1,0,,,,,,,,,,,,,,,,,,,,,1,,,,,,,,,,,,,,,,,,,,,,,,,,,,,,,,,,,,,,,,,,,,,,120,156973,19,Female,1,2024/03/25_12:27:02,YZ,None,
,,,,,,calibration,0,16,2,500,15,V,0,right,0.27338557998882607,1,0,,,,,,,,,,,,,,,,,,,,,1,,,,,,,,,,,,,,,,,,,,,,,,,,,,,,,,,,,,,,,,,,,,,,120,156973,19,Female,1,2024/03/25_12:27:02,YZ,None,
,,,,,,calibration,0,16,2,500,16,J,1,left,0.45803742899443023,1,0,,,,,,,,,,,,,,,,,,,,,1,,,,,,,,,,,,,,,,,,,,,,,,,,,,,,,,,,,,,,,,,,,,,,120,156973,19,Female,1,2024/03/25_12:27:02,YZ,None,
,,,,,,calibration,0,16,2,500,,,,,,,,0.8409090909090908,0.6,0.09090909090909091,0.9090909090909091,0.0,0.9090909090909091,0.4258886973711924,3,1,0,0,0,10,13,5,11,0,,,,1,,,,,,,,,,,,,,,,,,,,,,,,,,,,,,,,,,,,,,,,,,,,,,120,156973,19,Female,1,2024/03/25_12:27:02,YZ,None,
,,,,,,Calibration,0,,2,500,,,,,,,,,,,,,,,,,,,,,,,,,3,,,1,,,,,,,,,,,,,,,,,,,,,,,,,,,,,,,,,,,,,,,,,,,,,,120,156973,19,Female,1,2024/03/25_12:27:02,YZ,None,
,,,,,,calibration,0,27,2,500,1,C,0,right,0.8096984309959225,1,0,,,,,,,,,,,,,,,,,,,,,1,,,,,,,,,,,,,,,,,,,,,,,,,,,,,,,,,,,,,,,,,,,,,,120,156973,19,Female,1,2024/03/25_12:27:02,YZ,None,
,,,,,,calibration,0,27,2,500,2,X,0,left,0.5394004849949852,0,0,,,,,,,,,,,,,,,,,,,,,1,,,,,,,,,,,,,,,,,,,,,,,,,,,,,,,,,,,,,,,,,,,,,,120,156973,19,Female,1,2024/03/25_12:27:02,YZ,None,
,,,,,,calibration,0,27,2,500,3,F,0,right,0.46177193397306837,1,0,,,,,,,,,,,,,,,,,,,,,1,,,,,,,,,,,,,,,,,,,,,,,,,,,,,,,,,,,,,,,,,,,,,,120,156973,19,Female,1,2024/03/25_12:27:02,YZ,None,
,,,,,,calibration,0,27,2,500,4,X,1,left,0.6676463360199705,1,0,,,,,,,,,,,,,,,,,,,,,1,,,,,,,,,,,,,,,,,,,,,,,,,,,,,,,,,,,,,,,,,,,,,,120,156973,19,Female,1,2024/03/25_12:27:02,YZ,None,
,,,,,,calibration,0,27,2,500,5,N,0,right,0.27849117800360546,1,0,,,,,,,,,,,,,,,,,,,,,1,,,,,,,,,,,,,,,,,,,,,,,,,,,,,,,,,,,,,,,,,,,,,,120,156973,19,Female,1,2024/03/25_12:27:02,YZ,None,
,,,,,,calibration,0,27,2,500,6,V,0,right,0.5121134400251321,1,0,,,,,,,,,,,,,,,,,,,,,1,,,,,,,,,,,,,,,,,,,,,,,,,,,,,,,,,,,,,,,,,,,,,,120,156973,19,Female,1,2024/03/25_12:27:02,YZ,None,
,,,,,,calibration,0,27,2,500,7,X,0,right,0.4222131449787412,1,0,,,,,,,,,,,,,,,,,,,,,1,,,,,,,,,,,,,,,,,,,,,,,,,,,,,,,,,,,,,,,,,,,,,,120,156973,19,Female,1,2024/03/25_12:27:02,YZ,None,
,,,,,,calibration,0,27,2,500,8,V,1,right,0.31170833299984224,0,0,,,,,,,,,,,,,,,,,,,,,1,,,,,,,,,,,,,,,,,,,,,,,,,,,,,,,,,,,,,,,,,,,,,,120,156973,19,Female,1,2024/03/25_12:27:02,YZ,None,
,,,,,,calibration,0,27,2,500,9,X,1,right,0.40465200401376933,0,0,,,,,,,,,,,,,,,,,,,,,1,,,,,,,,,,,,,,,,,,,,,,,,,,,,,,,,,,,,,,,,,,,,,,120,156973,19,Female,1,2024/03/25_12:27:02,YZ,None,
,,,,,,calibration,0,27,2,500,10,S,0,right,0.4557639700069558,1,0,,,,,,,,,,,,,,,,,,,,,1,,,,,,,,,,,,,,,,,,,,,,,,,,,,,,,,,,,,,,,,,,,,,,120,156973,19,Female,1,2024/03/25_12:27:02,YZ,None,
,,,,,,calibration,0,27,2,500,11,C,0,right,0.39193048400920816,1,0,,,,,,,,,,,,,,,,,,,,,1,,,,,,,,,,,,,,,,,,,,,,,,,,,,,,,,,,,,,,,,,,,,,,120,156973,19,Female,1,2024/03/25_12:27:02,YZ,None,
,,,,,,calibration,0,27,2,500,12,V,0,right,0.33710720800445415,1,0,,,,,,,,,,,,,,,,,,,,,1,,,,,,,,,,,,,,,,,,,,,,,,,,,,,,,,,,,,,,,,,,,,,,120,156973,19,Female,1,2024/03/25_12:27:02,YZ,None,
,,,,,,calibration,0,27,2,500,13,C,1,left,0.700226296990877,1,0,,,,,,,,,,,,,,,,,,,,,1,,,,,,,,,,,,,,,,,,,,,,,,,,,,,,,,,,,,,,,,,,,,,,120,156973,19,Female,1,2024/03/25_12:27:02,YZ,None,
,,,,,,calibration,0,27,2,500,14,Q,0,right,0.21141279602306895,1,0,,,,,,,,,,,,,,,,,,,,,1,,,,,,,,,,,,,,,,,,,,,,,,,,,,,,,,,,,,,,,,,,,,,,120,156973,19,Female,1,2024/03/25_12:27:02,YZ,None,
,,,,,,calibration,0,27,2,500,15,N,0,right,0.4922191340010613,1,0,,,,,,,,,,,,,,,,,,,,,1,,,,,,,,,,,,,,,,,,,,,,,,,,,,,,,,,,,,,,,,,,,,,,120,156973,19,Female,1,2024/03/25_12:27:02,YZ,None,
,,,,,,calibration,0,27,2,500,16,F,0,right,0.5308360639901366,1,0,,,,,,,,,,,,,,,,,,,,,1,,,,,,,,,,,,,,,,,,,,,,,,,,,,,,,,,,,,,,,,,,,,,,120,156973,19,Female,1,2024/03/25_12:27:02,YZ,None,
,,,,,,calibration,0,27,2,500,,,,,,,,0.8125,0.5,0.08333333333333333,0.9166666666666666,0.0,0.9166666666666666,0.47044945243942493,2,1,0,0,0,11,13,4,12,0,,,,1,,,,,,,,,,,,,,,,,,,,,,,,,,,,,,,,,,,,,,,,,,,,,,120,156973,19,Female,1,2024/03/25_12:27:02,YZ,None,
,,,,,,Calibration,0,,2,500,,,,,,,,,,,,,,,,,,,,,,,,,4,,,1,,,,,,,,,,,,,,,,,,,,,,,,,,,,,,,,,,,,,,,,,,,,,,120,156973,19,Female,1,2024/03/25_12:27:02,YZ,None,
,,,,,,calibration,0,35,2,500,1,X,0,right,0.5710336679767352,1,0,,,,,,,,,,,,,,,,,,,,,1,,,,,,,,,,,,,,,,,,,,,,,,,,,,,,,,,,,,,,,,,,,,,,120,156973,19,Female,1,2024/03/25_12:27:02,YZ,None,
,,,,,,calibration,0,35,2,500,2,N,0,right,0.5304810180095956,1,0,,,,,,,,,,,,,,,,,,,,,1,,,,,,,,,,,,,,,,,,,,,,,,,,,,,,,,,,,,,,,,,,,,,,120,156973,19,Female,1,2024/03/25_12:27:02,YZ,None,
,,,,,,calibration,0,35,2,500,3,C,0,right,0.4809992289810907,1,0,,,,,,,,,,,,,,,,,,,,,1,,,,,,,,,,,,,,,,,,,,,,,,,,,,,,,,,,,,,,,,,,,,,,120,156973,19,Female,1,2024/03/25_12:27:02,YZ,None,
,,,,,,calibration,0,35,2,500,4,N,1,right,0.3397813350020442,0,0,,,,,,,,,,,,,,,,,,,,,1,,,,,,,,,,,,,,,,,,,,,,,,,,,,,,,,,,,,,,,,,,,,,,120,156973,19,Female,1,2024/03/25_12:27:02,YZ,None,
,,,,,,calibration,0,35,2,500,5,S,0,right,0.5122054739913438,1,0,,,,,,,,,,,,,,,,,,,,,1,,,,,,,,,,,,,,,,,,,,,,,,,,,,,,,,,,,,,,,,,,,,,,120,156973,19,Female,1,2024/03/25_12:27:02,YZ,None,
,,,,,,calibration,0,35,2,500,6,C,0,right,0.3467790999857243,1,0,,,,,,,,,,,,,,,,,,,,,1,,,,,,,,,,,,,,,,,,,,,,,,,,,,,,,,,,,,,,,,,,,,,,120,156973,19,Female,1,2024/03/25_12:27:02,YZ,None,
,,,,,,calibration,0,35,2,500,7,N,0,right,0.4765302450105082,1,0,,,,,,,,,,,,,,,,,,,,,1,,,,,,,,,,,,,,,,,,,,,,,,,,,,,,,,,,,,,,,,,,,,,,120,156973,19,Female,1,2024/03/25_12:27:02,YZ,None,
,,,,,,calibration,0,35,2,500,8,C,1,left,0.476773314003367,1,0,,,,,,,,,,,,,,,,,,,,,1,,,,,,,,,,,,,,,,,,,,,,,,,,,,,,,,,,,,,,,,,,,,,,120,156973,19,Female,1,2024/03/25_12:27:02,YZ,None,
,,,,,,calibration,0,35,2,500,9,Q,0,right,0.3328372940013651,1,0,,,,,,,,,,,,,,,,,,,,,1,,,,,,,,,,,,,,,,,,,,,,,,,,,,,,,,,,,,,,,,,,,,,,120,156973,19,Female,1,2024/03/25_12:27:02,YZ,None,
,,,,,,calibration,0,35,2,500,10,C,1,right,0.5711699039966334,0,0,,,,,,,,,,,,,,,,,,,,,1,,,,,,,,,,,,,,,,,,,,,,,,,,,,,,,,,,,,,,,,,,,,,,120,156973,19,Female,1,2024/03/25_12:27:02,YZ,None,
,,,,,,calibration,0,35,2,500,11,N,0,right,0.4451570989913307,1,0,,,,,,,,,,,,,,,,,,,,,1,,,,,,,,,,,,,,,,,,,,,,,,,,,,,,,,,,,,,,,,,,,,,,120,156973,19,Female,1,2024/03/25_12:27:02,YZ,None,
,,,,,,calibration,0,35,2,500,12,C,1,right,0.42159963899757713,0,0,,,,,,,,,,,,,,,,,,,,,1,,,,,,,,,,,,,,,,,,,,,,,,,,,,,,,,,,,,,,,,,,,,,,120,156973,19,Female,1,2024/03/25_12:27:02,YZ,None,
,,,,,,calibration,0,35,2,500,13,N,1,right,0.48064421000890434,0,0,,,,,,,,,,,,,,,,,,,,,1,,,,,,,,,,,,,,,,,,,,,,,,,,,,,,,,,,,,,,,,,,,,,,120,156973,19,Female,1,2024/03/25_12:27:02,YZ,None,
,,,,,,calibration,0,35,2,500,14,V,0,right,0.33259910898050293,1,0,,,,,,,,,,,,,,,,,,,,,1,,,,,,,,,,,,,,,,,,,,,,,,,,,,,,,,,,,,,,,,,,,,,,120,156973,19,Female,1,2024/03/25_12:27:02,YZ,None,
,,,,,,calibration,0,35,2,500,15,J,0,right,0.2560015160124749,1,0,,,,,,,,,,,,,,,,,,,,,1,,,,,,,,,,,,,,,,,,,,,,,,,,,,,,,,,,,,,,,,,,,,,,120,156973,19,Female,1,2024/03/25_12:27:02,YZ,None,
,,,,,,calibration,0,35,2,500,16,S,0,right,0.2721638380025979,1,0,,,,,,,,,,,,,,,,,,,,,1,,,,,,,,,,,,,,,,,,,,,,,,,,,,,,,,,,,,,,,,,,,,,,120,156973,19,Female,1,2024/03/25_12:27:02,YZ,None,
,,,,,,calibration,0,35,2,500,,,,,,,,0.8,0.2,0.0,1.0,0.0,1.0,0.4279222494969872,1,0,0,0,0,11,12,5,11,0,,,,1,,,,,,,,,,,,,,,,,,,,,,,,,,,,,,,,,,,,,,,,,,,,,,120,156973,19,Female,1,2024/03/25_12:27:02,YZ,None,
,,,,,,Calibration,0,,2,500,,,,,,,,,,,,,,,,,,,,,,,,,5,,,1,,,,,,,,,,,,,,,,,,,,,,,,,,,,,,,,,,,,,,,,,,,,,,120,156973,19,Female,1,2024/03/25_12:27:02,YZ,None,
,,,,,,calibration,0,34,2,500,1,Q,0,right,0.4669716739736032,1,0,,,,,,,,,,,,,,,,,,,,,1,,,,,,,,,,,,,,,,,,,,,,,,,,,,,,,,,,,,,,,,,,,,,,120,156973,19,Female,1,2024/03/25_12:27:02,YZ,None,
,,,,,,calibration,0,34,2,500,2,S,0,right,0.35228953199111857,1,0,,,,,,,,,,,,,,,,,,,,,1,,,,,,,,,,,,,,,,,,,,,,,,,,,,,,,,,,,,,,,,,,,,,,120,156973,19,Female,1,2024/03/25_12:27:02,YZ,None,
,,,,,,calibration,0,34,2,500,3,N,0,right,0.2101676989987027,1,0,,,,,,,,,,,,,,,,,,,,,1,,,,,,,,,,,,,,,,,,,,,,,,,,,,,,,,,,,,,,,,,,,,,,120,156973,19,Female,1,2024/03/25_12:27:02,YZ,None,
,,,,,,calibration,0,34,2,500,4,S,1,right,0.4970013550191652,0,0,,,,,,,,,,,,,,,,,,,,,1,,,,,,,,,,,,,,,,,,,,,,,,,,,,,,,,,,,,,,,,,,,,,,120,156973,19,Female,1,2024/03/25_12:27:02,YZ,None,
,,,,,,calibration,0,34,2,500,5,Q,0,right,0.2564749209850561,1,0,,,,,,,,,,,,,,,,,,,,,1,,,,,,,,,,,,,,,,,,,,,,,,,,,,,,,,,,,,,,,,,,,,,,120,156973,19,Female,1,2024/03/25_12:27:02,YZ,None,
,,,,,,calibration,0,34,2,500,6,F,0,right,0.2245812779874541,1,0,,,,,,,,,,,,,,,,,,,,,1,,,,,,,,,,,,,,,,,,,,,,,,,,,,,,,,,,,,,,,,,,,,,,120,156973,19,Female,1,2024/03/25_12:27:02,YZ,None,
,,,,,,calibration,0,34,2,500,7,V,0,right,0.37032411800464615,1,0,,,,,,,,,,,,,,,,,,,,,1,,,,,,,,,,,,,,,,,,,,,,,,,,,,,,,,,,,,,,,,,,,,,,120,156973,19,Female,1,2024/03/25_12:27:02,YZ,None,
,,,,,,calibration,0,34,2,500,8,X,0,right,0.3053992820205167,1,0,,,,,,,,,,,,,,,,,,,,,1,,,,,,,,,,,,,,,,,,,,,,,,,,,,,,,,,,,,,,,,,,,,,,120,156973,19,Female,1,2024/03/25_12:27:02,YZ,None,
,,,,,,calibration,0,34,2,500,9,Q,0,right,0.4566791219986044,1,0,,,,,,,,,,,,,,,,,,,,,1,,,,,,,,,,,,,,,,,,,,,,,,,,,,,,,,,,,,,,,,,,,,,,120,156973,19,Female,1,2024/03/25_12:27:02,YZ,None,
,,,,,,calibration,0,34,2,500,10,N,0,right,0.5332097089849412,1,0,,,,,,,,,,,,,,,,,,,,,1,,,,,,,,,,,,,,,,,,,,,,,,,,,,,,,,,,,,,,,,,,,,,,120,156973,19,Female,1,2024/03/25_12:27:02,YZ,None,
,,,,,,calibration,0,34,2,500,11,Q,1,right,0.12968078200356103,0,0,,,,,,,,,,,,,,,,,,,,,1,,,,,,,,,,,,,,,,,,,,,,,,,,,,,,,,,,,,,,,,,,,,,,120,156973,19,Female,1,2024/03/25_12:27:02,YZ,None,
,,,,,,calibration,0,34,2,500,12,V,0,right,0.30453381000552326,1,0,,,,,,,,,,,,,,,,,,,,,1,,,,,,,,,,,,,,,,,,,,,,,,,,,,,,,,,,,,,,,,,,,,,,120,156973,19,Female,1,2024/03/25_12:27:02,YZ,None,
,,,,,,calibration,0,34,2,500,13,Q,1,right,0.22470676200464368,0,0,,,,,,,,,,,,,,,,,,,,,1,,,,,,,,,,,,,,,,,,,,,,,,,,,,,,,,,,,,,,,,,,,,,,120,156973,19,Female,1,2024/03/25_12:27:02,YZ,None,
,,,,,,calibration,0,34,2,500,14,C,0,right,0.2159375210176222,1,0,,,,,,,,,,,,,,,,,,,,,1,,,,,,,,,,,,,,,,,,,,,,,,,,,,,,,,,,,,,,,,,,,,,,120,156973,19,Female,1,2024/03/25_12:27:02,YZ,None,
,,,,,,calibration,0,34,2,500,15,Q,1,right,0.22098530200310051,0,0,,,,,,,,,,,,,,,,,,,,,1,,,,,,,,,,,,,,,,,,,,,,,,,,,,,,,,,,,,,,,,,,,,,,120,156973,19,Female,1,2024/03/25_12:27:02,YZ,None,
,,,,,,calibration,0,34,2,500,16,S,0,right,0.2890644120052457,1,0,,,,,,,,,,,,,,,,,,,,,1,,,,,,,,,,,,,,,,,,,,,,,,,,,,,,,,,,,,,,,,,,,,,,120,156973,19,Female,1,2024/03/25_12:27:02,YZ,None,
,,,,,,calibration,0,34,2,500,,,,,,,,0.5,0.0,0.0,1.0,0.0,1.0,0.31612545493771904,0,0,0,0,0,12,12,4,12,0,,,,1,,,,,,,,,,,,,,,,,,,,,,,,,,,,,,,,,,,,,,,,,,,,,,120,156973,19,Female,1,2024/03/25_12:27:02,YZ,None,
,,,,,,Calibration,0,,2,500,,,,,,,,,,,,,,,,,,,,,,,,,6,,,1,,,,,,,,,,,,,,,,,,,,,,,,,,,,,,,,,,,,,,,,,,,,,,120,156973,19,Female,1,2024/03/25_12:27:02,YZ,None,
,,,,,,calibration,0,10,2,583,1,F,0,right,0.3360960599966347,1,0,,,,,,,,,,,,,,,,,,,,,1,,,,,,,,,,,,,,,,,,,,,,,,,,,,,,,,,,,,,,,,,,,,,,120,156973,19,Female,1,2024/03/25_12:27:02,YZ,None,
,,,,,,calibration,0,10,2,583,2,V,0,right,0.5413463290024083,1,0,,,,,,,,,,,,,,,,,,,,,1,,,,,,,,,,,,,,,,,,,,,,,,,,,,,,,,,,,,,,,,,,,,,,120,156973,19,Female,1,2024/03/25_12:27:02,YZ,None,
,,,,,,calibration,0,10,2,583,3,S,0,right,0.41636164201190695,1,0,,,,,,,,,,,,,,,,,,,,,1,,,,,,,,,,,,,,,,,,,,,,,,,,,,,,,,,,,,,,,,,,,,,,120,156973,19,Female,1,2024/03/25_12:27:02,YZ,None,
,,,,,,calibration,0,10,2,583,4,N,0,right,0.713624937023269,1,0,,,,,,,,,,,,,,,,,,,,,1,,,,,,,,,,,,,,,,,,,,,,,,,,,,,,,,,,,,,,,,,,,,,,120,156973,19,Female,1,2024/03/25_12:27:02,YZ,None,
,,,,,,calibration,0,10,2,583,5,V,0,left,0.6866124380030669,0,0,,,,,,,,,,,,,,,,,,,,,1,,,,,,,,,,,,,,,,,,,,,,,,,,,,,,,,,,,,,,,,,,,,,,120,156973,19,Female,1,2024/03/25_12:27:02,YZ,None,
,,,,,,calibration,0,10,2,583,6,N,1,right,0.436600388988154,0,0,,,,,,,,,,,,,,,,,,,,,1,,,,,,,,,,,,,,,,,,,,,,,,,,,,,,,,,,,,,,,,,,,,,,120,156973,19,Female,1,2024/03/25_12:27:02,YZ,None,
,,,,,,calibration,0,10,2,583,7,Q,0,right,0.4655305169872008,1,0,,,,,,,,,,,,,,,,,,,,,1,,,,,,,,,,,,,,,,,,,,,,,,,,,,,,,,,,,,,,,,,,,,,,120,156973,19,Female,1,2024/03/25_12:27:02,YZ,None,
,,,,,,calibration,0,10,2,583,8,N,1,left,0.5436196319933515,1,0,,,,,,,,,,,,,,,,,,,,,1,,,,,,,,,,,,,,,,,,,,,,,,,,,,,,,,,,,,,,,,,,,,,,120,156973,19,Female,1,2024/03/25_12:27:02,YZ,None,
,,,,,,calibration,0,10,2,583,9,S,0,right,0.33156336899264716,1,0,,,,,,,,,,,,,,,,,,,,,1,,,,,,,,,,,,,,,,,,,,,,,,,,,,,,,,,,,,,,,,,,,,,,120,156973,19,Female,1,2024/03/25_12:27:02,YZ,None,
,,,,,,calibration,0,10,2,583,10,N,1,right,0.7070374480099417,0,0,,,,,,,,,,,,,,,,,,,,,1,,,,,,,,,,,,,,,,,,,,,,,,,,,,,,,,,,,,,,,,,,,,,,120,156973,19,Female,1,2024/03/25_12:27:02,YZ,None,
,,,,,,calibration,0,10,2,583,11,C,0,right,0.2863206560141407,1,0,,,,,,,,,,,,,,,,,,,,,1,,,,,,,,,,,,,,,,,,,,,,,,,,,,,,,,,,,,,,,,,,,,,,120,156973,19,Female,1,2024/03/25_12:27:02,YZ,None,
,,,,,,calibration,0,10,2,583,12,S,0,right,0.313329894997878,1,0,,,,,,,,,,,,,,,,,,,,,1,,,,,,,,,,,,,,,,,,,,,,,,,,,,,,,,,,,,,,,,,,,,,,120,156973,19,Female,1,2024/03/25_12:27:02,YZ,None,
,,,,,,calibration,0,10,2,583,13,C,1,right,0.34651097099413164,0,0,,,,,,,,,,,,,,,,,,,,,1,,,,,,,,,,,,,,,,,,,,,,,,,,,,,,,,,,,,,,,,,,,,,,120,156973,19,Female,1,2024/03/25_12:27:02,YZ,None,
,,,,,,calibration,0,10,2,583,14,Q,0,right,0.35667458598618396,1,0,,,,,,,,,,,,,,,,,,,,,1,,,,,,,,,,,,,,,,,,,,,,,,,,,,,,,,,,,,,,,,,,,,,,120,156973,19,Female,1,2024/03/25_12:27:02,YZ,None,
,,,,,,calibration,0,10,2,583,15,S,0,right,0.3969511319883168,1,0,,,,,,,,,,,,,,,,,,,,,1,,,,,,,,,,,,,,,,,,,,,,,,,,,,,,,,,,,,,,,,,,,,,,120,156973,19,Female,1,2024/03/25_12:27:02,YZ,None,
,,,,,,calibration,0,10,2,583,,,,,,,,0.6988636363636364,0.25,0.09090909090909091,0.9090909090909091,0.0,0.9090909090909091,0.45854533339928216,1,1,0,0,0,10,11,4,11,0,,,,1,,,,,,,,,,,,,,,,,,,,,,,,,,,,,,,,,,,,,,,,,,,,,,120,156973,19,Female,1,2024/03/25_12:27:02,YZ,None,
,,,,,,Calibration,0,,2,583,,,,,,,,,,,,,,,,,,,,,,,,,7,,,1,,,,,,,,,,,,,,,,,,,,,,,,,,,,,,,,,,,,,,,,,,,,,,120,156973,19,Female,1,2024/03/25_12:27:02,YZ,None,
,,,,,,calibration,0,34,2,679,1,Q,0,right,0.9438481390243396,1,0,,,,,,,,,,,,,,,,,,,,,1,,,,,,,,,,,,,,,,,,,,,,,,,,,,,,,,,,,,,,,,,,,,,,120,156973,19,Female,1,2024/03/25_12:27:02,YZ,None,
,,,,,,calibration,0,34,2,679,2,Q,0,right,0.384634319023462,1,0,,,,,,,,,,,,,,,,,,,,,1,,,,,,,,,,,,,,,,,,,,,,,,,,,,,,,,,,,,,,,,,,,,,,120,156973,19,Female,1,2024/03/25_12:27:02,YZ,None,
,,,,,,calibration,0,34,2,679,3,Q,1,left,0.7765841929940507,1,0,,,,,,,,,,,,,,,,,,,,,1,,,,,,,,,,,,,,,,,,,,,,,,,,,,,,,,,,,,,,,,,,,,,,120,156973,19,Female,1,2024/03/25_12:27:02,YZ,None,
,,,,,,calibration,0,34,2,679,4,Q,1,right,0.7386166180076543,0,0,,,,,,,,,,,,,,,,,,,,,1,,,,,,,,,,,,,,,,,,,,,,,,,,,,,,,,,,,,,,,,,,,,,,120,156973,19,Female,1,2024/03/25_12:27:02,YZ,None,
,,,,,,calibration,0,34,2,679,5,X,0,right,nan,0,1,,,,,,,,,,,,,,,,,,,,,1,,,,,,,,,,,,,,,,,,,,,,,,,,,,,,,,,,,,,,,,,,,,,,120,156973,19,Female,1,2024/03/25_12:27:02,YZ,None,
,,,,,,calibration,0,34,2,679,6,C,0,right,0.4955076139885932,1,0,,,,,,,,,,,,,,,,,,,,,1,,,,,,,,,,,,,,,,,,,,,,,,,,,,,,,,,,,,,,,,,,,,,,120,156973,19,Female,1,2024/03/25_12:27:02,YZ,None,
,,,,,,calibration,0,34,2,679,7,F,0,right,0.6136255160090514,1,0,,,,,,,,,,,,,,,,,,,,,1,,,,,,,,,,,,,,,,,,,,,,,,,,,,,,,,,,,,,,,,,,,,,,120,156973,19,Female,1,2024/03/25_12:27:02,YZ,None,
,,,,,,calibration,0,34,2,679,8,J,0,right,0.5592075989989098,1,0,,,,,,,,,,,,,,,,,,,,,1,,,,,,,,,,,,,,,,,,,,,,,,,,,,,,,,,,,,,,,,,,,,,,120,156973,19,Female,1,2024/03/25_12:27:02,YZ,None,
,,,,,,calibration,0,34,2,679,9,F,1,right,0.8257493730052374,0,0,,,,,,,,,,,,,,,,,,,,,1,,,,,,,,,,,,,,,,,,,,,,,,,,,,,,,,,,,,,,,,,,,,,,120,156973,19,Female,1,2024/03/25_12:27:02,YZ,None,
,,,,,,calibration,0,34,2,679,10,Q,0,right,0.23460661701392382,1,0,,,,,,,,,,,,,,,,,,,,,1,,,,,,,,,,,,,,,,,,,,,,,,,,,,,,,,,,,,,,,,,,,,,,120,156973,19,Female,1,2024/03/25_12:27:02,YZ,None,
,,,,,,calibration,0,34,2,679,11,V,0,right,0.36004157800925896,1,0,,,,,,,,,,,,,,,,,,,,,1,,,,,,,,,,,,,,,,,,,,,,,,,,,,,,,,,,,,,,,,,,,,,,120,156973,19,Female,1,2024/03/25_12:27:02,YZ,None,
,,,,,,calibration,0,34,2,679,12,C,0,right,0.30530121599440463,1,0,,,,,,,,,,,,,,,,,,,,,1,,,,,,,,,,,,,,,,,,,,,,,,,,,,,,,,,,,,,,,,,,,,,,120,156973,19,Female,1,2024/03/25_12:27:02,YZ,None,
,,,,,,calibration,0,34,2,679,13,J,0,right,0.35209828699589707,1,0,,,,,,,,,,,,,,,,,,,,,1,,,,,,,,,,,,,,,,,,,,,,,,,,,,,,,,,,,,,,,,,,,,,,120,156973,19,Female,1,2024/03/25_12:27:02,YZ,None,
,,,,,,calibration,0,34,2,679,14,C,1,right,0.31429220299469307,0,0,,,,,,,,,,,,,,,,,,,,,1,,,,,,,,,,,,,,,,,,,,,,,,,,,,,,,,,,,,,,,,,,,,,,120,156973,19,Female,1,2024/03/25_12:27:02,YZ,None,
,,,,,,calibration,0,34,2,679,,,,,,,,0.8125,0.25,0.0,1.0,0.07142857142857142,0.9285714285714286,0.5310856363122674,1,0,0,1,1,9,10,4,10,0,,,,1,,,,,,,,,,,,,,,,,,,,,,,,,,,,,,,,,,,,,,,,,,,,,,120,156973,19,Female,1,2024/03/25_12:27:02,YZ,None,
,,,,,,Calibration,0,,2,679,,,,,,,,,,,,,,,,,,,,,,,,,8,,,1,,,,,,,,,,,,,,,,,,,,,,,,,,,,,,,,,,,,,,,,,,,,,,120,156973,19,Female,1,2024/03/25_12:27:02,YZ,None,
,,,,,,calibration,0,23,2,679,1,J,0,right,0.4232275639951695,1,0,,,,,,,,,,,,,,,,,,,,,1,,,,,,,,,,,,,,,,,,,,,,,,,,,,,,,,,,,,,,,,,,,,,,120,156973,19,Female,1,2024/03/25_12:27:02,YZ,None,
,,,,,,calibration,0,23,2,679,2,S,0,right,0.25756298401392996,1,0,,,,,,,,,,,,,,,,,,,,,1,,,,,,,,,,,,,,,,,,,,,,,,,,,,,,,,,,,,,,,,,,,,,,120,156973,19,Female,1,2024/03/25_12:27:02,YZ,None,
,,,,,,calibration,0,23,2,679,3,F,0,right,0.30539372499333695,1,0,,,,,,,,,,,,,,,,,,,,,1,,,,,,,,,,,,,,,,,,,,,,,,,,,,,,,,,,,,,,,,,,,,,,120,156973,19,Female,1,2024/03/25_12:27:02,YZ,None,
,,,,,,calibration,0,23,2,679,4,S,1,right,0.4938968750066124,0,0,,,,,,,,,,,,,,,,,,,,,1,,,,,,,,,,,,,,,,,,,,,,,,,,,,,,,,,,,,,,,,,,,,,,120,156973,19,Female,1,2024/03/25_12:27:02,YZ,None,
,,,,,,calibration,0,23,2,679,5,Q,0,right,0.2208606349886395,1,0,,,,,,,,,,,,,,,,,,,,,1,,,,,,,,,,,,,,,,,,,,,,,,,,,,,,,,,,,,,,,,,,,,,,120,156973,19,Female,1,2024/03/25_12:27:02,YZ,None,
,,,,,,calibration,0,23,2,679,6,C,0,right,0.2819580479990691,1,0,,,,,,,,,,,,,,,,,,,,,1,,,,,,,,,,,,,,,,,,,,,,,,,,,,,,,,,,,,,,,,,,,,,,120,156973,19,Female,1,2024/03/25_12:27:02,YZ,None,
,,,,,,calibration,0,23,2,679,7,S,0,left,0.46828855999046937,0,0,,,,,,,,,,,,,,,,,,,,,1,,,,,,,,,,,,,,,,,,,,,,,,,,,,,,,,,,,,,,,,,,,,,,120,156973,19,Female,1,2024/03/25_12:27:02,YZ,None,
,,,,,,calibration,0,23,2,679,8,X,0,right,0.2730010859959293,1,0,,,,,,,,,,,,,,,,,,,,,1,,,,,,,,,,,,,,,,,,,,,,,,,,,,,,,,,,,,,,,,,,,,,,120,156973,19,Female,1,2024/03/25_12:27:02,YZ,None,
,,,,,,calibration,0,23,2,679,9,S,1,right,0.41633307602023706,0,0,,,,,,,,,,,,,,,,,,,,,1,,,,,,,,,,,,,,,,,,,,,,,,,,,,,,,,,,,,,,,,,,,,,,120,156973,19,Female,1,2024/03/25_12:27:02,YZ,None,
,,,,,,calibration,0,23,2,679,10,C,0,right,0.2667537609813735,1,0,,,,,,,,,,,,,,,,,,,,,1,,,,,,,,,,,,,,,,,,,,,,,,,,,,,,,,,,,,,,,,,,,,,,120,156973,19,Female,1,2024/03/25_12:27:02,YZ,None,
,,,,,,calibration,0,23,2,679,11,N,0,right,0.24153040800592862,1,0,,,,,,,,,,,,,,,,,,,,,1,,,,,,,,,,,,,,,,,,,,,,,,,,,,,,,,,,,,,,,,,,,,,,120,156973,19,Female,1,2024/03/25_12:27:02,YZ,None,
,,,,,,calibration,0,23,2,679,12,C,1,right,0.2809237639885396,0,0,,,,,,,,,,,,,,,,,,,,,1,,,,,,,,,,,,,,,,,,,,,,,,,,,,,,,,,,,,,,,,,,,,,,120,156973,19,Female,1,2024/03/25_12:27:02,YZ,None,
,,,,,,calibration,0,23,2,679,13,S,0,right,0.28304403499350883,1,0,,,,,,,,,,,,,,,,,,,,,1,,,,,,,,,,,,,,,,,,,,,,,,,,,,,,,,,,,,,,,,,,,,,,120,156973,19,Female,1,2024/03/25_12:27:02,YZ,None,
,,,,,,calibration,0,23,2,679,14,C,1,right,0.48838130201329477,0,0,,,,,,,,,,,,,,,,,,,,,1,,,,,,,,,,,,,,,,,,,,,,,,,,,,,,,,,,,,,,,,,,,,,,120,156973,19,Female,1,2024/03/25_12:27:02,YZ,None,
,,,,,,calibration,0,23,2,679,,,,,,,,0.225,0.0,0.1,0.9,0.0,0.9,0.33579684449900277,0,1,0,0,0,9,9,4,10,0,,,,1,,,,,,,,,,,,,,,,,,,,,,,,,,,,,,,,,,,,,,,,,,,,,,120,156973,19,Female,1,2024/03/25_12:27:02,YZ,None,
,,,,,,Calibration,0,,2,679,,,,,,,,,,,,,,,,,,,,,,,,,9,,,1,,,,,,,,,,,,,,,,,,,,,,,,,,,,,,,,,,,,,,,,,,,,,,120,156973,19,Female,1,2024/03/25_12:27:02,YZ,None,
,,,,,,calibration,0,24,2,788,1,N,0,right,0.6218892580072861,1,0,,,,,,,,,,,,,,,,,,,,,1,,,,,,,,,,,,,,,,,,,,,,,,,,,,,,,,,,,,,,,,,,,,,,120,156973,19,Female,1,2024/03/25_12:27:02,YZ,None,
,,,,,,calibration,0,24,2,788,2,J,0,right,0.3101542830117978,1,0,,,,,,,,,,,,,,,,,,,,,1,,,,,,,,,,,,,,,,,,,,,,,,,,,,,,,,,,,,,,,,,,,,,,120,156973,19,Female,1,2024/03/25_12:27:02,YZ,None,
,,,,,,calibration,0,24,2,788,3,S,0,right,0.3012909459939692,1,0,,,,,,,,,,,,,,,,,,,,,1,,,,,,,,,,,,,,,,,,,,,,,,,,,,,,,,,,,,,,,,,,,,,,120,156973,19,Female,1,2024/03/25_12:27:02,YZ,None,
,,,,,,calibration,0,24,2,788,4,N,0,right,0.3837887400004547,1,0,,,,,,,,,,,,,,,,,,,,,1,,,,,,,,,,,,,,,,,,,,,,,,,,,,,,,,,,,,,,,,,,,,,,120,156973,19,Female,1,2024/03/25_12:27:02,YZ,None,
,,,,,,calibration,0,24,2,788,5,J,0,right,0.37321370298741385,1,0,,,,,,,,,,,,,,,,,,,,,1,,,,,,,,,,,,,,,,,,,,,,,,,,,,,,,,,,,,,,,,,,,,,,120,156973,19,Female,1,2024/03/25_12:27:02,YZ,None,
,,,,,,calibration,0,24,2,788,6,N,1,left,0.5120544809906278,1,0,,,,,,,,,,,,,,,,,,,,,1,,,,,,,,,,,,,,,,,,,,,,,,,,,,,,,,,,,,,,,,,,,,,,120,156973,19,Female,1,2024/03/25_12:27:02,YZ,None,
,,,,,,calibration,0,24,2,788,7,C,0,right,0.31349191200570203,1,0,,,,,,,,,,,,,,,,,,,,,1,,,,,,,,,,,,,,,,,,,,,,,,,,,,,,,,,,,,,,,,,,,,,,120,156973,19,Female,1,2024/03/25_12:27:02,YZ,None,
,,,,,,calibration,0,24,2,788,8,N,1,right,0.3560641410003882,0,0,,,,,,,,,,,,,,,,,,,,,1,,,,,,,,,,,,,,,,,,,,,,,,,,,,,,,,,,,,,,,,,,,,,,120,156973,19,Female,1,2024/03/25_12:27:02,YZ,None,
,,,,,,calibration,0,24,2,788,9,X,0,right,0.490382279996993,1,0,,,,,,,,,,,,,,,,,,,,,1,,,,,,,,,,,,,,,,,,,,,,,,,,,,,,,,,,,,,,,,,,,,,,120,156973,19,Female,1,2024/03/25_12:27:02,YZ,None,
,,,,,,calibration,0,24,2,788,10,J,0,right,0.3373990469845012,1,0,,,,,,,,,,,,,,,,,,,,,1,,,,,,,,,,,,,,,,,,,,,,,,,,,,,,,,,,,,,,,,,,,,,,120,156973,19,Female,1,2024/03/25_12:27:02,YZ,None,
,,,,,,calibration,0,24,2,788,11,C,0,right,0.4401998190151062,1,0,,,,,,,,,,,,,,,,,,,,,1,,,,,,,,,,,,,,,,,,,,,,,,,,,,,,,,,,,,,,,,,,,,,,120,156973,19,Female,1,2024/03/25_12:27:02,YZ,None,
,,,,,,calibration,0,24,2,788,12,J,1,left,0.4881984549865592,1,0,,,,,,,,,,,,,,,,,,,,,1,,,,,,,,,,,,,,,,,,,,,,,,,,,,,,,,,,,,,,,,,,,,,,120,156973,19,Female,1,2024/03/25_12:27:02,YZ,None,
,,,,,,calibration,0,24,2,788,13,C,1,right,0.2179184010019526,0,0,,,,,,,,,,,,,,,,,,,,,1,,,,,,,,,,,,,,,,,,,,,,,,,,,,,,,,,,,,,,,,,,,,,,120,156973,19,Female,1,2024/03/25_12:27:02,YZ,None,
,,,,,,calibration,0,24,2,788,,,,,,,,0.875,0.5,0.0,1.0,0.0,1.0,0.39584965122944243,2,0,0,0,0,9,11,4,9,0,,,,1,,,,,,,,,,,,,,,,,,,,,,,,,,,,,,,,,,,,,,,,,,,,,,120,156973,19,Female,1,2024/03/25_12:27:02,YZ,None,
,,,,,,Calibration,0,,2,788,,,,,,,,,,,,,,,,,,,,,,,,,10,,,1,,,,,,,,,,,,,,,,,,,,,,,,,,,,,,,,,,,,,,,,,,,,,,120,156973,19,Female,1,2024/03/25_12:27:02,YZ,None,
,,,,,,calibration,0,23,2,679,1,J,0,right,0.8263801859866362,1,0,,,,,,,,,,,,,,,,,,,,,1,,,,,,,,,,,,,,,,,,,,,,,,,,,,,,,,,,,,,,,,,,,,,,120,156973,19,Female,1,2024/03/25_12:27:02,YZ,None,
,,,,,,calibration,0,23,2,679,2,S,0,right,0.6414065530116204,1,0,,,,,,,,,,,,,,,,,,,,,1,,,,,,,,,,,,,,,,,,,,,,,,,,,,,,,,,,,,,,,,,,,,,,120,156973,19,Female,1,2024/03/25_12:27:02,YZ,None,
,,,,,,calibration,0,23,2,679,3,F,0,right,0.4225018460128922,1,0,,,,,,,,,,,,,,,,,,,,,1,,,,,,,,,,,,,,,,,,,,,,,,,,,,,,,,,,,,,,,,,,,,,,120,156973,19,Female,1,2024/03/25_12:27:02,YZ,None,
,,,,,,calibration,0,23,2,679,4,S,1,left,0.6751854189787991,1,0,,,,,,,,,,,,,,,,,,,,,1,,,,,,,,,,,,,,,,,,,,,,,,,,,,,,,,,,,,,,,,,,,,,,120,156973,19,Female,1,2024/03/25_12:27:02,YZ,None,
,,,,,,calibration,0,23,2,679,5,Q,0,right,0.4155188889999408,1,0,,,,,,,,,,,,,,,,,,,,,1,,,,,,,,,,,,,,,,,,,,,,,,,,,,,,,,,,,,,,,,,,,,,,120,156973,19,Female,1,2024/03/25_12:27:02,YZ,None,
,,,,,,calibration,0,23,2,679,6,C,0,left,0.38423147599678487,0,0,,,,,,,,,,,,,,,,,,,,,1,,,,,,,,,,,,,,,,,,,,,,,,,,,,,,,,,,,,,,,,,,,,,,120,156973,19,Female,1,2024/03/25_12:27:02,YZ,None,
,,,,,,calibration,0,23,2,679,7,S,0,right,0.28448031601146795,1,0,,,,,,,,,,,,,,,,,,,,,1,,,,,,,,,,,,,,,,,,,,,,,,,,,,,,,,,,,,,,,,,,,,,,120,156973,19,Female,1,2024/03/25_12:27:02,YZ,None,
,,,,,,calibration,0,23,2,679,8,X,0,left,0.30490089100203477,0,0,,,,,,,,,,,,,,,,,,,,,1,,,,,,,,,,,,,,,,,,,,,,,,,,,,,,,,,,,,,,,,,,,,,,120,156973,19,Female,1,2024/03/25_12:27:02,YZ,None,
,,,,,,calibration,0,23,2,679,9,S,1,right,0.23202368200873025,0,0,,,,,,,,,,,,,,,,,,,,,1,,,,,,,,,,,,,,,,,,,,,,,,,,,,,,,,,,,,,,,,,,,,,,120,156973,19,Female,1,2024/03/25_12:27:02,YZ,None,
,,,,,,calibration,0,23,2,679,10,C,0,left,0.30830245299148373,0,0,,,,,,,,,,,,,,,,,,,,,1,,,,,,,,,,,,,,,,,,,,,,,,,,,,,,,,,,,,,,,,,,,,,,120,156973,19,Female,1,2024/03/25_12:27:02,YZ,None,
,,,,,,calibration,0,23,2,679,11,N,0,right,0.2663107780099381,1,0,,,,,,,,,,,,,,,,,,,,,1,,,,,,,,,,,,,,,,,,,,,,,,,,,,,,,,,,,,,,,,,,,,,,120,156973,19,Female,1,2024/03/25_12:27:02,YZ,None,
,,,,,,calibration,0,23,2,679,12,C,1,left,0.2644718869996723,1,0,,,,,,,,,,,,,,,,,,,,,1,,,,,,,,,,,,,,,,,,,,,,,,,,,,,,,,,,,,,,,,,,,,,,120,156973,19,Female,1,2024/03/25_12:27:02,YZ,None,
,,,,,,calibration,0,23,2,679,13,S,0,right,0.2419261489994824,1,0,,,,,,,,,,,,,,,,,,,,,1,,,,,,,,,,,,,,,,,,,,,,,,,,,,,,,,,,,,,,,,,,,,,,120,156973,19,Female,1,2024/03/25_12:27:02,YZ,None,
,,,,,,calibration,0,23,2,679,14,C,1,left,0.21248004600056447,1,0,,,,,,,,,,,,,,,,,,,,,1,,,,,,,,,,,,,,,,,,,,,,,,,,,,,,,,,,,,,,,,,,,,,,120,156973,19,Female,1,2024/03/25_12:27:02,YZ,None,
,,,,,,calibration,0,23,2,679,,,,,,,,0.7875000000000001,0.75,0.3,0.7,0.0,0.7,0.3914371836435748,3,3,0,0,0,7,10,4,10,0,,,,1,,,,,,,,,,,,,,,,,,,,,,,,,,,,,,,,,,,,,,,,,,,,,,120,156973,19,Female,1,2024/03/25_12:27:02,YZ,None,
,,,,,,Calibration,0,,2,679,,,,,,,,,,,,,,,,,,,,,,,,,11,,,1,,,,,,,,,,,,,,,,,,,,,,,,,,,,,,,,,,,,,,,,,,,,,,120,156973,19,Female,1,2024/03/25_12:27:02,YZ,None,
,,,,,,calibration,0,14,2,679,1,J,0,right,0.5603626040101517,1,0,,,,,,,,,,,,,,,,,,,,,1,,,,,,,,,,,,,,,,,,,,,,,,,,,,,,,,,,,,,,,,,,,,,,120,156973,19,Female,1,2024/03/25_12:27:02,YZ,None,
,,,,,,calibration,0,14,2,679,2,F,0,right,0.6906002009927761,1,0,,,,,,,,,,,,,,,,,,,,,1,,,,,,,,,,,,,,,,,,,,,,,,,,,,,,,,,,,,,,,,,,,,,,120,156973,19,Female,1,2024/03/25_12:27:02,YZ,None,
,,,,,,calibration,0,14,2,679,3,V,0,right,0.4338613589934539,1,0,,,,,,,,,,,,,,,,,,,,,1,,,,,,,,,,,,,,,,,,,,,,,,,,,,,,,,,,,,,,,,,,,,,,120,156973,19,Female,1,2024/03/25_12:27:02,YZ,None,
,,,,,,calibration,0,14,2,679,4,Q,0,right,0.45733565601403825,1,0,,,,,,,,,,,,,,,,,,,,,1,,,,,,,,,,,,,,,,,,,,,,,,,,,,,,,,,,,,,,,,,,,,,,120,156973,19,Female,1,2024/03/25_12:27:02,YZ,None,
,,,,,,calibration,0,14,2,679,5,N,0,right,0.38484367498313077,1,0,,,,,,,,,,,,,,,,,,,,,1,,,,,,,,,,,,,,,,,,,,,,,,,,,,,,,,,,,,,,,,,,,,,,120,156973,19,Female,1,2024/03/25_12:27:02,YZ,None,
,,,,,,calibration,0,14,2,679,6,Q,1,left,0.4403566900000442,1,0,,,,,,,,,,,,,,,,,,,,,1,,,,,,,,,,,,,,,,,,,,,,,,,,,,,,,,,,,,,,,,,,,,,,120,156973,19,Female,1,2024/03/25_12:27:02,YZ,None,
,,,,,,calibration,0,14,2,679,7,N,1,right,0.3041380670038052,0,0,,,,,,,,,,,,,,,,,,,,,1,,,,,,,,,,,,,,,,,,,,,,,,,,,,,,,,,,,,,,,,,,,,,,120,156973,19,Female,1,2024/03/25_12:27:02,YZ,None,
,,,,,,calibration,0,14,2,679,8,C,0,right,0.5821102320041973,1,0,,,,,,,,,,,,,,,,,,,,,1,,,,,,,,,,,,,,,,,,,,,,,,,,,,,,,,,,,,,,,,,,,,,,120,156973,19,Female,1,2024/03/25_12:27:02,YZ,None,
,,,,,,calibration,0,14,2,679,9,S,0,right,0.4024478369974531,1,0,,,,,,,,,,,,,,,,,,,,,1,,,,,,,,,,,,,,,,,,,,,,,,,,,,,,,,,,,,,,,,,,,,,,120,156973,19,Female,1,2024/03/25_12:27:02,YZ,None,
,,,,,,calibration,0,14,2,679,10,C,1,left,0.4008658830134664,1,0,,,,,,,,,,,,,,,,,,,,,1,,,,,,,,,,,,,,,,,,,,,,,,,,,,,,,,,,,,,,,,,,,,,,120,156973,19,Female,1,2024/03/25_12:27:02,YZ,None,
,,,,,,calibration,0,14,2,679,11,X,0,right,0.2271835379942786,1,0,,,,,,,,,,,,,,,,,,,,,1,,,,,,,,,,,,,,,,,,,,,,,,,,,,,,,,,,,,,,,,,,,,,,120,156973,19,Female,1,2024/03/25_12:27:02,YZ,None,
,,,,,,calibration,0,14,2,679,12,Q,0,right,0.45656994701130316,1,0,,,,,,,,,,,,,,,,,,,,,1,,,,,,,,,,,,,,,,,,,,,,,,,,,,,,,,,,,,,,,,,,,,,,120,156973,19,Female,1,2024/03/25_12:27:02,YZ,None,
,,,,,,calibration,0,14,2,679,13,V,0,left,0.288381335005397,0,0,,,,,,,,,,,,,,,,,,,,,1,,,,,,,,,,,,,,,,,,,,,,,,,,,,,,,,,,,,,,,,,,,,,,120,156973,19,Female,1,2024/03/25_12:27:02,YZ,None,
,,,,,,calibration,0,14,2,679,14,Q,1,right,0.2733453339897096,0,0,,,,,,,,,,,,,,,,,,,,,1,,,,,,,,,,,,,,,,,,,,,,,,,,,,,,,,,,,,,,,,,,,,,,120,156973,19,Female,1,2024/03/25_12:27:02,YZ,None,
,,,,,,calibration,0,14,2,679,,,,,,,,0.7999999999999999,0.5,0.1,0.9,0.0,0.9,0.42160016842951464,2,1,0,0,0,9,11,4,10,0,,,,1,,,,,,,,,,,,,,,,,,,,,,,,,,,,,,,,,,,,,,,,,,,,,,120,156973,19,Female,1,2024/03/25_12:27:02,YZ,None,
,,,,,,Calibration,0,,2,679,,,,,,,,,,,,,,,,,,,,,,,,,12,,,1,,,,,,,,,,,,,,,,,,,,,,,,,,,,,,,,,,,,,,,,,,,,,,120,156973,19,Female,1,2024/03/25_12:27:02,YZ,None,
,,,,,,calibration,0,22,2,679,1,V,0,right,0.5479291189985815,1,0,,,,,,,,,,,,,,,,,,,,,1,,,,,,,,,,,,,,,,,,,,,,,,,,,,,,,,,,,,,,,,,,,,,,120,156973,19,Female,1,2024/03/25_12:27:02,YZ,None,
,,,,,,calibration,0,22,2,679,2,Q,0,right,0.882371058978606,1,0,,,,,,,,,,,,,,,,,,,,,1,,,,,,,,,,,,,,,,,,,,,,,,,,,,,,,,,,,,,,,,,,,,,,120,156973,19,Female,1,2024/03/25_12:27:02,YZ,None,
,,,,,,calibration,0,22,2,679,3,V,1,left,0.6417405560205225,1,0,,,,,,,,,,,,,,,,,,,,,1,,,,,,,,,,,,,,,,,,,,,,,,,,,,,,,,,,,,,,,,,,,,,,120,156973,19,Female,1,2024/03/25_12:27:02,YZ,None,
,,,,,,calibration,0,22,2,679,4,J,0,right,0.37025336700025946,1,0,,,,,,,,,,,,,,,,,,,,,1,,,,,,,,,,,,,,,,,,,,,,,,,,,,,,,,,,,,,,,,,,,,,,120,156973,19,Female,1,2024/03/25_12:27:02,YZ,None,
,,,,,,calibration,0,22,2,679,5,N,0,right,0.5585212820151355,1,0,,,,,,,,,,,,,,,,,,,,,1,,,,,,,,,,,,,,,,,,,,,,,,,,,,,,,,,,,,,,,,,,,,,,120,156973,19,Female,1,2024/03/25_12:27:02,YZ,None,
,,,,,,calibration,0,22,2,679,6,J,1,left,0.5641377510037273,1,0,,,,,,,,,,,,,,,,,,,,,1,,,,,,,,,,,,,,,,,,,,,,,,,,,,,,,,,,,,,,,,,,,,,,120,156973,19,Female,1,2024/03/25_12:27:02,YZ,None,
,,,,,,calibration,0,22,2,679,7,S,0,right,0.23128035801346414,1,0,,,,,,,,,,,,,,,,,,,,,1,,,,,,,,,,,,,,,,,,,,,,,,,,,,,,,,,,,,,,,,,,,,,,120,156973,19,Female,1,2024/03/25_12:27:02,YZ,None,
,,,,,,calibration,0,22,2,679,8,V,0,right,0.5691142870055046,1,0,,,,,,,,,,,,,,,,,,,,,1,,,,,,,,,,,,,,,,,,,,,,,,,,,,,,,,,,,,,,,,,,,,,,120,156973,19,Female,1,2024/03/25_12:27:02,YZ,None,
,,,,,,calibration,0,22,2,679,9,X,0,right,0.4735239270085003,1,0,,,,,,,,,,,,,,,,,,,,,1,,,,,,,,,,,,,,,,,,,,,,,,,,,,,,,,,,,,,,,,,,,,,,120,156973,19,Female,1,2024/03/25_12:27:02,YZ,None,
,,,,,,calibration,0,22,2,679,10,N,0,right,0.5740849289868493,1,0,,,,,,,,,,,,,,,,,,,,,1,,,,,,,,,,,,,,,,,,,,,,,,,,,,,,,,,,,,,,,,,,,,,,120,156973,19,Female,1,2024/03/25_12:27:02,YZ,None,
,,,,,,calibration,0,22,2,679,11,S,0,right,0.5969367139914539,1,0,,,,,,,,,,,,,,,,,,,,,1,,,,,,,,,,,,,,,,,,,,,,,,,,,,,,,,,,,,,,,,,,,,,,120,156973,19,Female,1,2024/03/25_12:27:02,YZ,None,
,,,,,,calibration,0,22,2,679,12,N,1,right,0.6813683119835332,0,0,,,,,,,,,,,,,,,,,,,,,1,,,,,,,,,,,,,,,,,,,,,,,,,,,,,,,,,,,,,,,,,,,,,,120,156973,19,Female,1,2024/03/25_12:27:02,YZ,None,
,,,,,,calibration,0,22,2,679,13,Q,0,right,0.4788808810117189,1,0,,,,,,,,,,,,,,,,,,,,,1,,,,,,,,,,,,,,,,,,,,,,,,,,,,,,,,,,,,,,,,,,,,,,120,156973,19,Female,1,2024/03/25_12:27:02,YZ,None,
,,,,,,calibration,0,22,2,679,14,N,1,right,0.5563533559907228,0,0,,,,,,,,,,,,,,,,,,,,,1,,,,,,,,,,,,,,,,,,,,,,,,,,,,,,,,,,,,,,,,,,,,,,120,156973,19,Female,1,2024/03/25_12:27:02,YZ,None,
,,,,,,calibration,0,22,2,679,,,,,,,,0.875,0.5,0.0,1.0,0.0,1.0,0.55189256414347,2,0,0,0,0,10,12,4,10,0,,,,1,,,,,,,,,,,,,,,,,,,,,,,,,,,,,,,,,,,,,,,,,,,,,,120,156973,19,Female,1,2024/03/25_12:27:02,YZ,None,
,,,,,,Calibration,0,,2,679,,,,,,,,,,,,,,,,,,,,,,,,,13,,,1,,,,,,,,,,,,,,,,,,,,,,,,,,,,,,,,,,,,,,,,,,,,,,120,156973,19,Female,1,2024/03/25_12:27:02,YZ,None,
,,,,,,calibration,0,3,2,583,1,F,0,right,0.7994690129999071,1,0,,,,,,,,,,,,,,,,,,,,,1,,,,,,,,,,,,,,,,,,,,,,,,,,,,,,,,,,,,,,,,,,,,,,120,156973,19,Female,1,2024/03/25_12:27:02,YZ,None,
,,,,,,calibration,0,3,2,583,2,S,0,right,0.3234164189780131,1,0,,,,,,,,,,,,,,,,,,,,,1,,,,,,,,,,,,,,,,,,,,,,,,,,,,,,,,,,,,,,,,,,,,,,120,156973,19,Female,1,2024/03/25_12:27:02,YZ,None,
,,,,,,calibration,0,3,2,583,3,V,0,right,0.49846693000290543,1,0,,,,,,,,,,,,,,,,,,,,,1,,,,,,,,,,,,,,,,,,,,,,,,,,,,,,,,,,,,,,,,,,,,,,120,156973,19,Female,1,2024/03/25_12:27:02,YZ,None,
,,,,,,calibration,0,3,2,583,4,S,1,left,0.4660826530016493,1,0,,,,,,,,,,,,,,,,,,,,,1,,,,,,,,,,,,,,,,,,,,,,,,,,,,,,,,,,,,,,,,,,,,,,120,156973,19,Female,1,2024/03/25_12:27:02,YZ,None,
,,,,,,calibration,0,3,2,583,5,F,0,right,0.2976409099937882,1,0,,,,,,,,,,,,,,,,,,,,,1,,,,,,,,,,,,,,,,,,,,,,,,,,,,,,,,,,,,,,,,,,,,,,120,156973,19,Female,1,2024/03/25_12:27:02,YZ,None,
,,,,,,calibration,0,3,2,583,6,C,0,right,0.45249936199979857,1,0,,,,,,,,,,,,,,,,,,,,,1,,,,,,,,,,,,,,,,,,,,,,,,,,,,,,,,,,,,,,,,,,,,,,120,156973,19,Female,1,2024/03/25_12:27:02,YZ,None,
,,,,,,calibration,0,3,2,583,7,Q,0,right,0.2648464000085369,1,0,,,,,,,,,,,,,,,,,,,,,1,,,,,,,,,,,,,,,,,,,,,,,,,,,,,,,,,,,,,,,,,,,,,,120,156973,19,Female,1,2024/03/25_12:27:02,YZ,None,
,,,,,,calibration,0,3,2,583,8,C,1,right,0.36446119198808447,0,0,,,,,,,,,,,,,,,,,,,,,1,,,,,,,,,,,,,,,,,,,,,,,,,,,,,,,,,,,,,,,,,,,,,,120,156973,19,Female,1,2024/03/25_12:27:02,YZ,None,
,,,,,,calibration,0,3,2,583,9,V,0,right,0.4567263490171172,1,0,,,,,,,,,,,,,,,,,,,,,1,,,,,,,,,,,,,,,,,,,,,,,,,,,,,,,,,,,,,,,,,,,,,,120,156973,19,Female,1,2024/03/25_12:27:02,YZ,None,
,,,,,,calibration,0,3,2,583,10,C,1,right,0.4091123630059883,0,0,,,,,,,,,,,,,,,,,,,,,1,,,,,,,,,,,,,,,,,,,,,,,,,,,,,,,,,,,,,,,,,,,,,,120,156973,19,Female,1,2024/03/25_12:27:02,YZ,None,
,,,,,,calibration,0,3,2,583,11,V,1,right,0.2964544979913626,0,0,,,,,,,,,,,,,,,,,,,,,1,,,,,,,,,,,,,,,,,,,,,,,,,,,,,,,,,,,,,,,,,,,,,,120,156973,19,Female,1,2024/03/25_12:27:02,YZ,None,
,,,,,,calibration,0,3,2,583,12,J,0,right,0.27624349598772824,1,0,,,,,,,,,,,,,,,,,,,,,1,,,,,,,,,,,,,,,,,,,,,,,,,,,,,,,,,,,,,,,,,,,,,,120,156973,19,Female,1,2024/03/25_12:27:02,YZ,None,
,,,,,,calibration,0,3,2,583,13,Q,0,right,0.41818457999033853,1,0,,,,,,,,,,,,,,,,,,,,,1,,,,,,,,,,,,,,,,,,,,,,,,,,,,,,,,,,,,,,,,,,,,,,120,156973,19,Female,1,2024/03/25_12:27:02,YZ,None,
,,,,,,calibration,0,3,2,583,14,F,0,right,0.21642034000251442,1,0,,,,,,,,,,,,,,,,,,,,,1,,,,,,,,,,,,,,,,,,,,,,,,,,,,,,,,,,,,,,,,,,,,,,120,156973,19,Female,1,2024/03/25_12:27:02,YZ,None,
,,,,,,calibration,0,3,2,583,15,C,0,right,0.28488700700108893,1,0,,,,,,,,,,,,,,,,,,,,,1,,,,,,,,,,,,,,,,,,,,,,,,,,,,,,,,,,,,,,,,,,,,,,120,156973,19,Female,1,2024/03/25_12:27:02,YZ,None,
,,,,,,calibration,0,3,2,583,,,,,,,,0.8125,0.25,0.0,1.0,0.0,1.0,0.38832743413125476,1,0,0,0,0,11,12,4,11,0,,,,1,,,,,,,,,,,,,,,,,,,,,,,,,,,,,,,,,,,,,,,,,,,,,,120,156973,19,Female,1,2024/03/25_12:27:02,YZ,None,
,,,,,,Calibration,0,,2,583,,,,,,,,,,,,,,,,,,,,,,,,,14,,,1,,,,,,,,,,,,,,,,,,,,,,,,,,,,,,,,,,,,,,,,,,,,,,120,156973,19,Female,1,2024/03/25_12:27:02,YZ,None,
,,,,,,calibration,0,1,2,583,1,Q,0,right,0.5384084300021641,1,0,,,,,,,,,,,,,,,,,,,,,1,,,,,,,,,,,,,,,,,,,,,,,,,,,,,,,,,,,,,,,,,,,,,,120,156973,19,Female,1,2024/03/25_12:27:02,YZ,None,
,,,,,,calibration,0,1,2,583,2,V,0,right,0.8971365729812533,1,0,,,,,,,,,,,,,,,,,,,,,1,,,,,,,,,,,,,,,,,,,,,,,,,,,,,,,,,,,,,,,,,,,,,,120,156973,19,Female,1,2024/03/25_12:27:02,YZ,None,
,,,,,,calibration,0,1,2,583,3,Q,1,left,0.7113727199903224,1,0,,,,,,,,,,,,,,,,,,,,,1,,,,,,,,,,,,,,,,,,,,,,,,,,,,,,,,,,,,,,,,,,,,,,120,156973,19,Female,1,2024/03/25_12:27:02,YZ,None,
,,,,,,calibration,0,1,2,583,4,N,0,right,0.4650451870111283,1,0,,,,,,,,,,,,,,,,,,,,,1,,,,,,,,,,,,,,,,,,,,,,,,,,,,,,,,,,,,,,,,,,,,,,120,156973,19,Female,1,2024/03/25_12:27:02,YZ,None,
,,,,,,calibration,0,1,2,583,5,J,0,right,1.2447087190230377,1,0,,,,,,,,,,,,,,,,,,,,,1,,,,,,,,,,,,,,,,,,,,,,,,,,,,,,,,,,,,,,,,,,,,,,120,156973,19,Female,1,2024/03/25_12:27:02,YZ,None,
,,,,,,calibration,0,1,2,583,6,S,0,right,0.4116612799989525,1,0,,,,,,,,,,,,,,,,,,,,,1,,,,,,,,,,,,,,,,,,,,,,,,,,,,,,,,,,,,,,,,,,,,,,120,156973,19,Female,1,2024/03/25_12:27:02,YZ,None,
,,,,,,calibration,0,1,2,583,7,N,0,right,0.9622655870043673,1,0,,,,,,,,,,,,,,,,,,,,,1,,,,,,,,,,,,,,,,,,,,,,,,,,,,,,,,,,,,,,,,,,,,,,120,156973,19,Female,1,2024/03/25_12:27:02,YZ,None,
,,,,,,calibration,0,1,2,583,8,F,0,right,0.258638196013635,1,0,,,,,,,,,,,,,,,,,,,,,1,,,,,,,,,,,,,,,,,,,,,,,,,,,,,,,,,,,,,,,,,,,,,,120,156973,19,Female,1,2024/03/25_12:27:02,YZ,None,
,,,,,,calibration,0,1,2,583,9,N,1,right,0.34634143600123934,0,0,,,,,,,,,,,,,,,,,,,,,1,,,,,,,,,,,,,,,,,,,,,,,,,,,,,,,,,,,,,,,,,,,,,,120,156973,19,Female,1,2024/03/25_12:27:02,YZ,None,
,,,,,,calibration,0,1,2,583,10,C,0,right,0.3733938029909041,1,0,,,,,,,,,,,,,,,,,,,,,1,,,,,,,,,,,,,,,,,,,,,,,,,,,,,,,,,,,,,,,,,,,,,,120,156973,19,Female,1,2024/03/25_12:27:02,YZ,None,
,,,,,,calibration,0,1,2,583,11,N,1,right,0.4667085699911695,0,0,,,,,,,,,,,,,,,,,,,,,1,,,,,,,,,,,,,,,,,,,,,,,,,,,,,,,,,,,,,,,,,,,,,,120,156973,19,Female,1,2024/03/25_12:27:02,YZ,None,
,,,,,,calibration,0,1,2,583,12,C,1,right,0.5483651859976817,0,0,,,,,,,,,,,,,,,,,,,,,1,,,,,,,,,,,,,,,,,,,,,,,,,,,,,,,,,,,,,,,,,,,,,,120,156973,19,Female,1,2024/03/25_12:27:02,YZ,None,
,,,,,,calibration,0,1,2,583,13,V,0,right,0.7887373049743474,1,0,,,,,,,,,,,,,,,,,,,,,1,,,,,,,,,,,,,,,,,,,,,,,,,,,,,,,,,,,,,,,,,,,,,,120,156973,19,Female,1,2024/03/25_12:27:02,YZ,None,
,,,,,,calibration,0,1,2,583,14,N,0,right,0.3900027250056155,1,0,,,,,,,,,,,,,,,,,,,,,1,,,,,,,,,,,,,,,,,,,,,,,,,,,,,,,,,,,,,,,,,,,,,,120,156973,19,Female,1,2024/03/25_12:27:02,YZ,None,
,,,,,,calibration,0,1,2,583,15,F,0,right,0.25061482199816965,1,0,,,,,,,,,,,,,,,,,,,,,1,,,,,,,,,,,,,,,,,,,,,,,,,,,,,,,,,,,,,,,,,,,,,,120,156973,19,Female,1,2024/03/25_12:27:02,YZ,None,
,,,,,,calibration,0,1,2,583,,,,,,,,0.8125,0.25,0.0,1.0,0.0,1.0,0.5768933692655992,1,0,0,0,0,11,12,4,11,0,,,,1,,,,,,,,,,,,,,,,,,,,,,,,,,,,,,,,,,,,,,,,,,,,,,120,156973,19,Female,1,2024/03/25_12:27:02,YZ,None,
,,,,,,Calibration,0,,2,583,,,,,,,,,,,,,,,,,,,,,,,,,15,,,1,,,,,,,,,,,,,,,,,,,,,,,,,,,,,,,,,,,,,,,,,,,,,,120,156973,19,Female,1,2024/03/25_12:27:02,YZ,None,
,,,,,,CALIBRATION,0,,,,,,,,,,,,,,,,,,,,,,,,,,,,15,0.8125,583,1,,,,,,,,,,,,,,,,,,,,,,,,,,,,,,,,,,,,,,,,,,,,,,120,156973,19,Female,1,2024/03/25_12:27:02,YZ,None,
1,./instructions/inst_prac_1/Slide24.png,right,14.985603918001289,483.1399964779848,498.1256003959861,,,,,,,,,,,,,,,,,,,,,,,,,,,,,,,,,1,,,,,,,,,,,,,,,,,,,,,,,,,,,,,,,,,,,,,,,,,,,,,,120,156973,19,Female,1,2024/03/25_12:27:02,YZ,None,
2,./instructions/inst_prac_1/Slide25.png,right,7.395503200008534,498.1543646819773,505.54986788198585,,,,,,,,,,,,,,,,,,,,,,,,,,,,,,,,,1,,,,,,,,,,,,,,,,,,,,,,,,,,,,,,,,,,,,,,,,,,,,,,120,156973,19,Female,1,2024/03/25_12:27:02,YZ,None,
3,./instructions/inst_prac_1/Slide26.png,right,1.643295568996109,505.5784521509777,507.2217477199738,,,,,,,,,,,,,,,,,,,,,,,,,,,,,,,,,1,,,,,,,,,,,,,,,,,,,,,,,,,,,,,,,,,,,,,,,,,,,,,,120,156973,19,Female,1,2024/03/25_12:27:02,YZ,None,
4,./instructions/inst_prac_1/Slide27.png,right,0.7740364850033075,507.2478489209898,508.0218854059931,,,,,,,,,,,,,,,,,,,,,,,,,,,,,,,,,1,,,,,,,,,,,,,,,,,,,,,,,,,,,,,,,,,,,,,,,,,,,,,,120,156973,19,Female,1,2024/03/25_12:27:02,YZ,None,
5,./instructions/inst_prac_1/Slide28.png,right,1.0536734370107297,508.0484117929882,509.1020852299989,,,,,,,,,,,,,,,,,,,,,,,,,,,,,,,,,1,,,,,,,,,,,,,,,,,,,,,,,,,,,,,,,,,,,,,,,,,,,,,,120,156973,19,Female,1,2024/03/25_12:27:02,YZ,None,
6,./instructions/inst_prac_1/Slide29.png,right,11.931139377004001,509.13087003398687,521.0620094109909,,,,,,,,,,,,,,,,,,,,,,,,,,,,,,,,,1,,,,,,,,,,,,,,,,,,,,,,,,,,,,,,,,,,,,,,,,,,,,,,120,156973,19,Female,1,2024/03/25_12:27:02,YZ,None,
7,./instructions/inst_prac_1/Slide30.png,right,2.188124042004347,521.0907698699739,523.2788939119782,,,,,,,,,,,,,,,,,,,,,,,,,,,,,,,,,1,,,,,,,,,,,,,,,,,,,,,,,,,,,,,,,,,,,,,,,,,,,,,,120,156973,19,Female,1,2024/03/25_12:27:02,YZ,None,
,,,,,,practice,0,34,1,1250,1,F,0,right,2.962813254009234,1,0,,,,,,,,,,,,,,,,,,,,,1,,,,,,,,,,,,,,,,,,,,,,,,,,,,,,,,,,,,,,,,,,,,,,120,156973,19,Female,1,2024/03/25_12:27:02,YZ,None,
,,,,,,practice,0,34,1,1250,2,F,1,left,0.9003035020141397,1,0,,,,,,,,,,,,,,,,,,,,,1,,,,,,,,,,,,,,,,,,,,,,,,,,,,,,,,,,,,,,,,,,,,,,120,156973,19,Female,1,2024/03/25_12:27:02,YZ,None,
,,,,,,practice,0,34,1,1250,3,C,0,right,0.6603984890098218,1,0,,,,,,,,,,,,,,,,,,,,,1,,,,,,,,,,,,,,,,,,,,,,,,,,,,,,,,,,,,,,,,,,,,,,120,156973,19,Female,1,2024/03/25_12:27:02,YZ,None,
,,,,,,practice,0,34,1,1250,4,F,0,left,0.7252572920115199,0,0,,,,,,,,,,,,,,,,,,,,,1,,,,,,,,,,,,,,,,,,,,,,,,,,,,,,,,,,,,,,,,,,,,,,120,156973,19,Female,1,2024/03/25_12:27:02,YZ,None,
,,,,,,practice,0,34,1,1250,5,C,0,right,2.604819109023083,1,0,,,,,,,,,,,,,,,,,,,,,1,,,,,,,,,,,,,,,,,,,,,,,,,,,,,,,,,,,,,,,,,,,,,,120,156973,19,Female,1,2024/03/25_12:27:02,YZ,None,
,,,,,,practice,0,34,1,1250,6,C,1,left,0.5963626849988941,1,0,,,,,,,,,,,,,,,,,,,,,1,,,,,,,,,,,,,,,,,,,,,,,,,,,,,,,,,,,,,,,,,,,,,,120,156973,19,Female,1,2024/03/25_12:27:02,YZ,None,
,,,,,,practice,0,34,1,1250,7,N,0,right,1.1332690929993987,1,0,,,,,,,,,,,,,,,,,,,,,1,,,,,,,,,,,,,,,,,,,,,,,,,,,,,,,,,,,,,,,,,,,,,,120,156973,19,Female,1,2024/03/25_12:27:02,YZ,None,
,,,,,,practice,0,34,1,1250,8,C,0,right,0.8453040749882348,1,0,,,,,,,,,,,,,,,,,,,,,1,,,,,,,,,,,,,,,,,,,,,,,,,,,,,,,,,,,,,,,,,,,,,,120,156973,19,Female,1,2024/03/25_12:27:02,YZ,None,
,,,,,,practice,0,34,1,1250,9,V,0,right,0.8387863820244092,1,0,,,,,,,,,,,,,,,,,,,,,1,,,,,,,,,,,,,,,,,,,,,,,,,,,,,,,,,,,,,,,,,,,,,,120,156973,19,Female,1,2024/03/25_12:27:02,YZ,None,
,,,,,,practice,0,34,1,1250,10,V,1,left,0.8925881149771158,1,0,,,,,,,,,,,,,,,,,,,,,1,,,,,,,,,,,,,,,,,,,,,,,,,,,,,,,,,,,,,,,,,,,,,,120,156973,19,Female,1,2024/03/25_12:27:02,YZ,None,
,,,,,,practice,0,34,1,1250,,,,,,,,0.9642857142857143,1.0,0.14285714285714285,0.8571428571428571,0.0,0.8571428571428572,1.215990199605585,3,1,0,0,0,6,9,3,7,0,,,,1,,,,,,,,,,,,,,,,,,,,,,,,,,,,,,,,,,,,,,,,,,,,,,120,156973,19,Female,1,2024/03/25_12:27:02,YZ,None,
1,./instructions/inst_prac_1_next/Slide35.png,right,5.937708063982427,546.492103408993,552.4298114729754,,,,,,,,,,,,,,,,,,,,,,,,,,,,,,,,,1,,,,,,,,,,,,,,,,,,,,,,,,,,,,,,,,,,,,,,,,,,,,,,120,156973,19,Female,1,2024/03/25_12:27:02,YZ,None,
,,,,,,practice,0,16,1,583,1,F,0,right,1.1080011230078526,1,0,,,,,,,,,,,,,,,,,,,,,1,,,,,,,,,,,,,,,,,,,,,,,,,,,,,,,,,,,,,,,,,,,,,,120,156973,19,Female,1,2024/03/25_12:27:02,YZ,None,
,,,,,,practice,0,16,1,583,2,F,1,left,0.47548803000245243,1,0,,,,,,,,,,,,,,,,,,,,,1,,,,,,,,,,,,,,,,,,,,,,,,,,,,,,,,,,,,,,,,,,,,,,120,156973,19,Female,1,2024/03/25_12:27:02,YZ,None,
,,,,,,practice,0,16,1,583,3,V,0,right,0.44225692699546926,1,0,,,,,,,,,,,,,,,,,,,,,1,,,,,,,,,,,,,,,,,,,,,,,,,,,,,,,,,,,,,,,,,,,,,,120,156973,19,Female,1,2024/03/25_12:27:02,YZ,None,
,,,,,,practice,0,16,1,583,4,V,1,left,0.5788243229908403,1,0,,,,,,,,,,,,,,,,,,,,,1,,,,,,,,,,,,,,,,,,,,,,,,,,,,,,,,,,,,,,,,,,,,,,120,156973,19,Female,1,2024/03/25_12:27:02,YZ,None,
,,,,,,practice,0,16,1,583,5,F,0,right,0.44459852800355293,1,0,,,,,,,,,,,,,,,,,,,,,1,,,,,,,,,,,,,,,,,,,,,,,,,,,,,,,,,,,,,,,,,,,,,,120,156973,19,Female,1,2024/03/25_12:27:02,YZ,None,
,,,,,,practice,0,16,1,583,6,J,0,right,0.7646030130272266,1,0,,,,,,,,,,,,,,,,,,,,,1,,,,,,,,,,,,,,,,,,,,,,,,,,,,,,,,,,,,,,,,,,,,,,120,156973,19,Female,1,2024/03/25_12:27:02,YZ,None,
,,,,,,practice,0,16,1,583,7,J,1,left,0.5769120440236293,1,0,,,,,,,,,,,,,,,,,,,,,1,,,,,,,,,,,,,,,,,,,,,,,,,,,,,,,,,,,,,,,,,,,,,,120,156973,19,Female,1,2024/03/25_12:27:02,YZ,None,
,,,,,,practice,0,16,1,583,8,V,0,right,0.48182190500665456,1,0,,,,,,,,,,,,,,,,,,,,,1,,,,,,,,,,,,,,,,,,,,,,,,,,,,,,,,,,,,,,,,,,,,,,120,156973,19,Female,1,2024/03/25_12:27:02,YZ,None,
,,,,,,practice,0,16,1,583,9,C,0,left,0.5363644679891877,0,0,,,,,,,,,,,,,,,,,,,,,1,,,,,,,,,,,,,,,,,,,,,,,,,,,,,,,,,,,,,,,,,,,,,,120,156973,19,Female,1,2024/03/25_12:27:02,YZ,None,
,,,,,,practice,0,16,1,583,10,X,0,left,0.0,0,0,,,,,,,,,,,,,,,,,,,,,1,,,,,,,,,,,,,,,,,,,,,,,,,,,,,,,,,,,,,,,,,,,,,,120,156973,19,Female,1,2024/03/25_12:27:02,YZ,None,
,,,,,,practice,0,16,1,583,11,F,0,right,0.45843506397795863,1,0,,,,,,,,,,,,,,,,,,,,,1,,,,,,,,,,,,,,,,,,,,,,,,,,,,,,,,,,,,,,,,,,,,,,120,156973,19,Female,1,2024/03/25_12:27:02,YZ,None,
,,,,,,practice,0,16,1,583,12,S,0,right,0.5837463269999716,1,0,,,,,,,,,,,,,,,,,,,,,1,,,,,,,,,,,,,,,,,,,,,,,,,,,,,,,,,,,,,,,,,,,,,,120,156973,19,Female,1,2024/03/25_12:27:02,YZ,None,
,,,,,,practice,0,16,1,583,13,S,1,left,0.6851909499964677,1,0,,,,,,,,,,,,,,,,,,,,,1,,,,,,,,,,,,,,,,,,,,,,,,,,,,,,,,,,,,,,,,,,,,,,120,156973,19,Female,1,2024/03/25_12:27:02,YZ,None,
,,,,,,practice,0,16,1,583,14,Q,0,right,0.5037558750191238,1,0,,,,,,,,,,,,,,,,,,,,,1,,,,,,,,,,,,,,,,,,,,,,,,,,,,,,,,,,,,,,,,,,,,,,120,156973,19,Female,1,2024/03/25_12:27:02,YZ,None,
,,,,,,practice,0,16,1,583,15,N,0,right,0.6168848980159964,1,0,,,,,,,,,,,,,,,,,,,,,1,,,,,,,,,,,,,,,,,,,,,,,,,,,,,,,,,,,,,,,,,,,,,,120,156973,19,Female,1,2024/03/25_12:27:02,YZ,None,
,,,,,,practice,0,16,1,583,,,,,,,,0.9545454545454546,1.0,0.18181818181818182,0.8181818181818182,0.0,0.8181818181818181,0.5504588983370923,4,2,0,0,0,9,13,4,11,0,,,,1,,,,,,,,,,,,,,,,,,,,,,,,,,,,,,,,,,,,,,,,,,,,,,120,156973,19,Female,1,2024/03/25_12:27:02,YZ,None,
,,,,,,practice,0,9,1,583,1,F,0,right,0.497291192994453,1,0,,,,,,,,,,,,,,,,,,,,,1,,,,,,,,,,,,,,,,,,,,,,,,,,,,,,,,,,,,,,,,,,,,,,120,156973,19,Female,1,2024/03/25_12:27:02,YZ,None,
,,,,,,practice,0,9,1,583,2,Q,0,right,0.5003672410093714,1,0,,,,,,,,,,,,,,,,,,,,,1,,,,,,,,,,,,,,,,,,,,,,,,,,,,,,,,,,,,,,,,,,,,,,120,156973,19,Female,1,2024/03/25_12:27:02,YZ,None,
,,,,,,practice,0,9,1,583,3,Q,1,left,0.3678063789848238,1,0,,,,,,,,,,,,,,,,,,,,,1,,,,,,,,,,,,,,,,,,,,,,,,,,,,,,,,,,,,,,,,,,,,,,120,156973,19,Female,1,2024/03/25_12:27:02,YZ,None,
,,,,,,practice,0,9,1,583,4,N,0,right,0.5322185129916761,1,0,,,,,,,,,,,,,,,,,,,,,1,,,,,,,,,,,,,,,,,,,,,,,,,,,,,,,,,,,,,,,,,,,,,,120,156973,19,Female,1,2024/03/25_12:27:02,YZ,None,
,,,,,,practice,0,9,1,583,5,N,1,left,0.77749820399913,1,0,,,,,,,,,,,,,,,,,,,,,1,,,,,,,,,,,,,,,,,,,,,,,,,,,,,,,,,,,,,,,,,,,,,,120,156973,19,Female,1,2024/03/25_12:27:02,YZ,None,
,,,,,,practice,0,9,1,583,6,C,0,right,0.6491352349985391,1,0,,,,,,,,,,,,,,,,,,,,,1,,,,,,,,,,,,,,,,,,,,,,,,,,,,,,,,,,,,,,,,,,,,,,120,156973,19,Female,1,2024/03/25_12:27:02,YZ,None,
,,,,,,practice,0,9,1,583,7,Q,0,right,0.8279715349781327,1,0,,,,,,,,,,,,,,,,,,,,,1,,,,,,,,,,,,,,,,,,,,,,,,,,,,,,,,,,,,,,,,,,,,,,120,156973,19,Female,1,2024/03/25_12:27:02,YZ,None,
,,,,,,practice,0,9,1,583,8,Q,1,left,0.6502660989935976,1,0,,,,,,,,,,,,,,,,,,,,,1,,,,,,,,,,,,,,,,,,,,,,,,,,,,,,,,,,,,,,,,,,,,,,120,156973,19,Female,1,2024/03/25_12:27:02,YZ,None,
,,,,,,practice,0,9,1,583,9,S,0,right,0.4924629869929049,1,0,,,,,,,,,,,,,,,,,,,,,1,,,,,,,,,,,,,,,,,,,,,,,,,,,,,,,,,,,,,,,,,,,,,,120,156973,19,Female,1,2024/03/25_12:27:02,YZ,None,
,,,,,,practice,0,9,1,583,10,V,0,right,0.6334979490202386,1,0,,,,,,,,,,,,,,,,,,,,,1,,,,,,,,,,,,,,,,,,,,,,,,,,,,,,,,,,,,,,,,,,,,,,120,156973,19,Female,1,2024/03/25_12:27:02,YZ,None,
,,,,,,practice,0,9,1,583,11,V,1,left,0.6585800620086957,1,0,,,,,,,,,,,,,,,,,,,,,1,,,,,,,,,,,,,,,,,,,,,,,,,,,,,,,,,,,,,,,,,,,,,,120,156973,19,Female,1,2024/03/25_12:27:02,YZ,None,
,,,,,,practice,0,9,1,583,12,F,0,right,0.41714441499789245,1,0,,,,,,,,,,,,,,,,,,,,,1,,,,,,,,,,,,,,,,,,,,,,,,,,,,,,,,,,,,,,,,,,,,,,120,156973,19,Female,1,2024/03/25_12:27:02,YZ,None,
,,,,,,practice,0,9,1,583,13,J,0,right,1.0977367520099506,1,0,,,,,,,,,,,,,,,,,,,,,1,,,,,,,,,,,,,,,,,,,,,,,,,,,,,,,,,,,,,,,,,,,,,,120,156973,19,Female,1,2024/03/25_12:27:02,YZ,None,
,,,,,,practice,0,9,1,583,14,C,0,right,0.6269719630072359,1,0,,,,,,,,,,,,,,,,,,,,,1,,,,,,,,,,,,,,,,,,,,,,,,,,,,,,,,,,,,,,,,,,,,,,120,156973,19,Female,1,2024/03/25_12:27:02,YZ,None,
,,,,,,practice,0,9,1,583,15,N,0,right,0.5633193099929485,1,0,,,,,,,,,,,,,,,,,,,,,1,,,,,,,,,,,,,,,,,,,,,,,,,,,,,,,,,,,,,,,,,,,,,,120,156973,19,Female,1,2024/03/25_12:27:02,YZ,None,
,,,,,,practice,0,9,1,583,,,,,,,,1.0,1.0,0.0,1.0,0.0,1.0,0.619484522465306,4,0,0,0,0,11,15,4,11,0,,,,1,,,,,,,,,,,,,,,,,,,,,,,,,,,,,,,,,,,,,,,,,,,,,,120,156973,19,Female,1,2024/03/25_12:27:02,YZ,None,
1,./instructions/inst_prac_3/Slide37.png,right,7.794071916985558,589.8197282149922,597.6138001319778,,,,,,,,,,,,,,,,,,,,,,,,,,,,,,,,,1,,,,,,,,,,,,,,,,,,,,,,,,,,,,,,,,,,,,,,,,,,,,,,120,156973,19,Female,1,2024/03/25_12:27:02,YZ,None,
2,./instructions/inst_prac_3/Slide38.png,right,1.243300129979616,597.6425485369982,598.8858486669778,,,,,,,,,,,,,,,,,,,,,,,,,,,,,,,,,1,,,,,,,,,,,,,,,,,,,,,,,,,,,,,,,,,,,,,,,,,,,,,,120,156973,19,Female,1,2024/03/25_12:27:02,YZ,None,
3,./instructions/inst_prac_3/Slide39.png,right,0.6999786859960295,598.9139755099895,599.6139541959856,,,,,,,,,,,,,,,,,,,,,,,,,,,,,,,,,1,,,,,,,,,,,,,,,,,,,,,,,,,,,,,,,,,,,,,,,,,,,,,,120,156973,19,Female,1,2024/03/25_12:27:02,YZ,None,
4,./instructions/inst_prac_3/Slide40.png,right,0.9792658670048695,599.6426136639784,600.6218795309833,,,,,,,,,,,,,,,,,,,,,,,,,,,,,,,,,1,,,,,,,,,,,,,,,,,,,,,,,,,,,,,,,,,,,,,,,,,,,,,,120,156973,19,Female,1,2024/03/25_12:27:02,YZ,None,
5,./instructions/inst_prac_3/Slide41.png,right,0.5571662090078462,600.6489703829866,601.2061365919944,,,,,,,,,,,,,,,,,,,,,,,,,,,,,,,,,1,,,,,,,,,,,,,,,,,,,,,,,,,,,,,,,,,,,,,,,,,,,,,,120,156973,19,Female,1,2024/03/25_12:27:02,YZ,None,
6,./instructions/inst_prac_3/Slide42.png,right,0.6292262880015187,601.2327147389879,601.8619410269894,,,,,,,,,,,,,,,,,,,,,,,,,,,,,,,,,1,,,,,,,,,,,,,,,,,,,,,,,,,,,,,,,,,,,,,,,,,,,,,,120,156973,19,Female,1,2024/03/25_12:27:02,YZ,None,
7,./instructions/inst_prac_3/Slide43.png,right,2.219436275976477,601.8903890479996,604.1098253239761,,,,,,,,,,,,,,,,,,,,,,,,,,,,,,,,,1,,,,,,,,,,,,,,,,,,,,,,,,,,,,,,,,,,,,,,,,,,,,,,120,156973,19,Female,1,2024/03/25_12:27:02,YZ,None,
8,./instructions/inst_prac_3/Slide44.png,right,2.110063803003868,604.1357981609763,606.2458619639801,,,,,,,,,,,,,,,,,,,,,,,,,,,,,,,,,1,,,,,,,,,,,,,,,,,,,,,,,,,,,,,,,,,,,,,,,,,,,,,,120,156973,19,Female,1,2024/03/25_12:27:02,YZ,None,
,,,,,,practice,0,23,3,788,1,S,0,right,1.2346289200067986,1,0,,,,,,,,,,,,,,,,,,,,,1,,,,,,,,,,,,,,,,,,,,,,,,,,,,,,,,,,,,,,,,,,,,,,120,156973,19,Female,1,2024/03/25_12:27:02,YZ,None,
,,,,,,practice,0,23,3,788,2,F,0,right,1.2299545439891517,1,0,,,,,,,,,,,,,,,,,,,,,1,,,,,,,,,,,,,,,,,,,,,,,,,,,,,,,,,,,,,,,,,,,,,,120,156973,19,Female,1,2024/03/25_12:27:02,YZ,None,
,,,,,,practice,0,23,3,788,3,V,0,right,0.9357592049927916,1,0,,,,,,,,,,,,,,,,,,,,,1,,,,,,,,,,,,,,,,,,,,,,,,,,,,,,,,,,,,,,,,,,,,,,120,156973,19,Female,1,2024/03/25_12:27:02,YZ,None,
,,,,,,practice,0,23,3,788,4,S,1,left,0.6194388720032293,1,0,,,,,,,,,,,,,,,,,,,,,1,,,,,,,,,,,,,,,,,,,,,,,,,,,,,,,,,,,,,,,,,,,,,,120,156973,19,Female,1,2024/03/25_12:27:02,YZ,None,
,,,,,,practice,0,23,3,788,5,X,0,right,1.7912644460157026,1,0,,,,,,,,,,,,,,,,,,,,,1,,,,,,,,,,,,,,,,,,,,,,,,,,,,,,,,,,,,,,,,,,,,,,120,156973,19,Female,1,2024/03/25_12:27:02,YZ,None,
,,,,,,practice,0,23,3,788,6,C,0,right,0.9274747830058914,1,0,,,,,,,,,,,,,,,,,,,,,1,,,,,,,,,,,,,,,,,,,,,,,,,,,,,,,,,,,,,,,,,,,,,,120,156973,19,Female,1,2024/03/25_12:27:02,YZ,None,
,,,,,,practice,0,23,3,788,7,S,1,left,0.7252802590082865,1,0,,,,,,,,,,,,,,,,,,,,,1,,,,,,,,,,,,,,,,,,,,,,,,,,,,,,,,,,,,,,,,,,,,,,120,156973,19,Female,1,2024/03/25_12:27:02,YZ,None,
,,,,,,practice,0,23,3,788,8,X,1,left,1.0059975020121783,1,0,,,,,,,,,,,,,,,,,,,,,1,,,,,,,,,,,,,,,,,,,,,,,,,,,,,,,,,,,,,,,,,,,,,,120,156973,19,Female,1,2024/03/25_12:27:02,YZ,None,
,,,,,,practice,0,23,3,788,9,X,0,right,0.9071649659890682,1,0,,,,,,,,,,,,,,,,,,,,,1,,,,,,,,,,,,,,,,,,,,,,,,,,,,,,,,,,,,,,,,,,,,,,120,156973,19,Female,1,2024/03/25_12:27:02,YZ,None,
,,,,,,practice,0,23,3,788,10,N,0,right,0.8298484699917026,1,0,,,,,,,,,,,,,,,,,,,,,1,,,,,,,,,,,,,,,,,,,,,,,,,,,,,,,,,,,,,,,,,,,,,,120,156973,19,Female,1,2024/03/25_12:27:02,YZ,None,
,,,,,,practice,0,23,3,788,11,X,1,left,0.9433295979979448,1,0,,,,,,,,,,,,,,,,,,,,,1,,,,,,,,,,,,,,,,,,,,,,,,,,,,,,,,,,,,,,,,,,,,,,120,156973,19,Female,1,2024/03/25_12:27:02,YZ,None,
,,,,,,practice,0,23,3,788,12,N,0,right,1.6687968660262413,1,0,,,,,,,,,,,,,,,,,,,,,1,,,,,,,,,,,,,,,,,,,,,,,,,,,,,,,,,,,,,,,,,,,,,,120,156973,19,Female,1,2024/03/25_12:27:02,YZ,None,
,,,,,,practice,0,23,3,788,13,C,0,right,0.7164653140062001,1,0,,,,,,,,,,,,,,,,,,,,,1,,,,,,,,,,,,,,,,,,,,,,,,,,,,,,,,,,,,,,,,,,,,,,120,156973,19,Female,1,2024/03/25_12:27:02,YZ,None,
,,,,,,practice,0,23,3,788,,,,,,,,1.0,1.0,0.0,1.0,0.0,1.0,1.0411849034650145,4,0,0,0,0,9,13,4,9,0,,,,1,,,,,,,,,,,,,,,,,,,,,,,,,,,,,,,,,,,,,,,,,,,,,,120,156973,19,Female,1,2024/03/25_12:27:02,YZ,None,
1,./instructions/inst_prac_3_next/Slide49.png,right,4.3291696709929965,633.4526971069863,637.7818667779793,,,,,,,,,,,,,,,,,,,,,,,,,,,,,,,,,1,,,,,,,,,,,,,,,,,,,,,,,,,,,,,,,,,,,,,,,,,,,,,,120,156973,19,Female,1,2024/03/25_12:27:02,YZ,None,
,,,,,,practice,0,8,3,583,1,C,0,right,0.8366339089989197,1,0,,,,,,,,,,,,,,,,,,,,,1,,,,,,,,,,,,,,,,,,,,,,,,,,,,,,,,,,,,,,,,,,,,,,120,156973,19,Female,1,2024/03/25_12:27:02,YZ,None,
,,,,,,practice,0,8,3,583,2,J,0,right,1.4565288590092678,1,0,,,,,,,,,,,,,,,,,,,,,1,,,,,,,,,,,,,,,,,,,,,,,,,,,,,,,,,,,,,,,,,,,,,,120,156973,19,Female,1,2024/03/25_12:27:02,YZ,None,
,,,,,,practice,0,8,3,583,3,F,0,right,0.4888633039954584,1,0,,,,,,,,,,,,,,,,,,,,,1,,,,,,,,,,,,,,,,,,,,,,,,,,,,,,,,,,,,,,,,,,,,,,120,156973,19,Female,1,2024/03/25_12:27:02,YZ,None,
,,,,,,practice,0,8,3,583,4,C,1,left,0.9770921400049701,1,0,,,,,,,,,,,,,,,,,,,,,1,,,,,,,,,,,,,,,,,,,,,,,,,,,,,,,,,,,,,,,,,,,,,,120,156973,19,Female,1,2024/03/25_12:27:02,YZ,None,
,,,,,,practice,0,8,3,583,5,S,0,right,1.8904495610040613,1,0,,,,,,,,,,,,,,,,,,,,,1,,,,,,,,,,,,,,,,,,,,,,,,,,,,,,,,,,,,,,,,,,,,,,120,156973,19,Female,1,2024/03/25_12:27:02,YZ,None,
,,,,,,practice,0,8,3,583,6,N,0,right,0.7093207389989402,1,0,,,,,,,,,,,,,,,,,,,,,1,,,,,,,,,,,,,,,,,,,,,,,,,,,,,,,,,,,,,,,,,,,,,,120,156973,19,Female,1,2024/03/25_12:27:02,YZ,None,
,,,,,,practice,0,8,3,583,7,J,0,right,1.0652214830042794,1,0,,,,,,,,,,,,,,,,,,,,,1,,,,,,,,,,,,,,,,,,,,,,,,,,,,,,,,,,,,,,,,,,,,,,120,156973,19,Female,1,2024/03/25_12:27:02,YZ,None,
,,,,,,practice,0,8,3,583,8,C,0,right,0.9148651769792195,1,0,,,,,,,,,,,,,,,,,,,,,1,,,,,,,,,,,,,,,,,,,,,,,,,,,,,,,,,,,,,,,,,,,,,,120,156973,19,Female,1,2024/03/25_12:27:02,YZ,None,
,,,,,,practice,0,8,3,583,9,N,1,left,0.8322972570022102,1,0,,,,,,,,,,,,,,,,,,,,,1,,,,,,,,,,,,,,,,,,,,,,,,,,,,,,,,,,,,,,,,,,,,,,120,156973,19,Female,1,2024/03/25_12:27:02,YZ,None,
,,,,,,practice,0,8,3,583,10,F,0,right,0.508840666996548,1,0,,,,,,,,,,,,,,,,,,,,,1,,,,,,,,,,,,,,,,,,,,,,,,,,,,,,,,,,,,,,,,,,,,,,120,156973,19,Female,1,2024/03/25_12:27:02,YZ,None,
,,,,,,practice,0,8,3,583,11,C,1,right,0.39698713400866836,0,0,,,,,,,,,,,,,,,,,,,,,1,,,,,,,,,,,,,,,,,,,,,,,,,,,,,,,,,,,,,,,,,,,,,,120,156973,19,Female,1,2024/03/25_12:27:02,YZ,None,
,,,,,,practice,0,8,3,583,12,S,0,right,1.3814577120065223,1,0,,,,,,,,,,,,,,,,,,,,,1,,,,,,,,,,,,,,,,,,,,,,,,,,,,,,,,,,,,,,,,,,,,,,120,156973,19,Female,1,2024/03/25_12:27:02,YZ,None,
,,,,,,practice,0,8,3,583,13,F,1,left,0.6748502969858237,1,0,,,,,,,,,,,,,,,,,,,,,1,,,,,,,,,,,,,,,,,,,,,,,,,,,,,,,,,,,,,,,,,,,,,,120,156973,19,Female,1,2024/03/25_12:27:02,YZ,None,
,,,,,,practice,0,8,3,583,14,J,0,right,0.5938246080186218,1,0,,,,,,,,,,,,,,,,,,,,,1,,,,,,,,,,,,,,,,,,,,,,,,,,,,,,,,,,,,,,,,,,,,,,120,156973,19,Female,1,2024/03/25_12:27:02,YZ,None,
,,,,,,practice,0,8,3,583,15,S,1,right,0.4884180370136164,0,0,,,,,,,,,,,,,,,,,,,,,1,,,,,,,,,,,,,,,,,,,,,,,,,,,,,,,,,,,,,,,,,,,,,,120,156973,19,Female,1,2024/03/25_12:27:02,YZ,None,
,,,,,,practice,0,8,3,583,,,,,,,,0.9,0.6,0.0,1.0,0.0,1.0,0.8810433922684752,3,0,0,0,0,10,13,5,10,0,,,,1,,,,,,,,,,,,,,,,,,,,,,,,,,,,,,,,,,,,,,,,,,,,,,120,156973,19,Female,1,2024/03/25_12:27:02,YZ,None,
,,,,,,practice,0,32,3,583,1,V,0,right,0.6622457829944324,1,0,,,,,,,,,,,,,,,,,,,,,1,,,,,,,,,,,,,,,,,,,,,,,,,,,,,,,,,,,,,,,,,,,,,,120,156973,19,Female,1,2024/03/25_12:27:02,YZ,None,
,,,,,,practice,0,32,3,583,2,C,0,right,1.368239581992384,1,0,,,,,,,,,,,,,,,,,,,,,1,,,,,,,,,,,,,,,,,,,,,,,,,,,,,,,,,,,,,,,,,,,,,,120,156973,19,Female,1,2024/03/25_12:27:02,YZ,None,
,,,,,,practice,0,32,3,583,3,V,0,right,1.157986920006806,1,0,,,,,,,,,,,,,,,,,,,,,1,,,,,,,,,,,,,,,,,,,,,,,,,,,,,,,,,,,,,,,,,,,,,,120,156973,19,Female,1,2024/03/25_12:27:02,YZ,None,
,,,,,,practice,0,32,3,583,4,V,1,left,0.6104880310012959,1,0,,,,,,,,,,,,,,,,,,,,,1,,,,,,,,,,,,,,,,,,,,,,,,,,,,,,,,,,,,,,,,,,,,,,120,156973,19,Female,1,2024/03/25_12:27:02,YZ,None,
,,,,,,practice,0,32,3,583,5,S,0,right,0.709072247002041,1,0,,,,,,,,,,,,,,,,,,,,,1,,,,,,,,,,,,,,,,,,,,,,,,,,,,,,,,,,,,,,,,,,,,,,120,156973,19,Female,1,2024/03/25_12:27:02,YZ,None,
,,,,,,practice,0,32,3,583,6,V,1,right,1.1780060619930737,0,0,,,,,,,,,,,,,,,,,,,,,1,,,,,,,,,,,,,,,,,,,,,,,,,,,,,,,,,,,,,,,,,,,,,,120,156973,19,Female,1,2024/03/25_12:27:02,YZ,None,
,,,,,,practice,0,32,3,583,7,X,0,right,0.9248834230238572,1,0,,,,,,,,,,,,,,,,,,,,,1,,,,,,,,,,,,,,,,,,,,,,,,,,,,,,,,,,,,,,,,,,,,,,120,156973,19,Female,1,2024/03/25_12:27:02,YZ,None,
,,,,,,practice,0,32,3,583,8,V,0,left,0.6338939410052262,0,0,,,,,,,,,,,,,,,,,,,,,1,,,,,,,,,,,,,,,,,,,,,,,,,,,,,,,,,,,,,,,,,,,,,,120,156973,19,Female,1,2024/03/25_12:27:02,YZ,None,
,,,,,,practice,0,32,3,583,9,V,1,right,0.6152385439781938,0,0,,,,,,,,,,,,,,,,,,,,,1,,,,,,,,,,,,,,,,,,,,,,,,,,,,,,,,,,,,,,,,,,,,,,120,156973,19,Female,1,2024/03/25_12:27:02,YZ,None,
,,,,,,practice,0,32,3,583,10,X,1,right,0.7765785949886777,0,0,,,,,,,,,,,,,,,,,,,,,1,,,,,,,,,,,,,,,,,,,,,,,,,,,,,,,,,,,,,,,,,,,,,,120,156973,19,Female,1,2024/03/25_12:27:02,YZ,None,
,,,,,,practice,0,32,3,583,11,N,0,right,0.23215973799233325,1,0,,,,,,,,,,,,,,,,,,,,,1,,,,,,,,,,,,,,,,,,,,,,,,,,,,,,,,,,,,,,,,,,,,,,120,156973,19,Female,1,2024/03/25_12:27:02,YZ,None,
,,,,,,practice,0,32,3,583,12,C,0,right,0.12270324697601609,1,0,,,,,,,,,,,,,,,,,,,,,1,,,,,,,,,,,,,,,,,,,,,,,,,,,,,,,,,,,,,,,,,,,,,,120,156973,19,Female,1,2024/03/25_12:27:02,YZ,None,
,,,,,,practice,0,32,3,583,13,C,0,right,0.0,1,0,,,,,,,,,,,,,,,,,,,,,1,,,,,,,,,,,,,,,,,,,,,,,,,,,,,,,,,,,,,,,,,,,,,,120,156973,19,Female,1,2024/03/25_12:27:02,YZ,None,
,,,,,,practice,0,32,3,583,14,S,0,left,0.10242466401541606,0,0,,,,,,,,,,,,,,,,,,,,,1,,,,,,,,,,,,,,,,,,,,,,,,,,,,,,,,,,,,,,,,,,,,,,120,156973,19,Female,1,2024/03/25_12:27:02,YZ,None,
,,,,,,practice,0,32,3,583,15,S,0,right,0.0,1,0,,,,,,,,,,,,,,,,,,,,,1,,,,,,,,,,,,,,,,,,,,,,,,,,,,,,,,,,,,,,,,,,,,,,120,156973,19,Female,1,2024/03/25_12:27:02,YZ,None,
,,,,,,practice,0,32,3,583,,,,,,,,0.5852272727272727,0.25,0.18181818181818182,0.8181818181818182,0.0,0.8181818181818181,0.6062613851313169,1,2,0,0,0,9,10,4,11,0,,,,1,,,,,,,,,,,,,,,,,,,,,,,,,,,,,,,,,,,,,,,,,,,,,,120,156973,19,Female,1,2024/03/25_12:27:02,YZ,None,
-1,./instructions/inst_redo_3/Slide47.png,left,0.20036453899228945,678.4016685620009,678.6020331009931,,,,,,,,,,,,,,,,,,,,,,,,,,,,,,,,,1,,,,,,,,,,,,,,,,,,,,,,,,,,,,,,,,,,,,,,,,,,,,,,120,156973,19,Female,1,2024/03/25_12:27:02,YZ,None,
,,,,,,practice,0,20,3,583,1,V,0,right,0.9895651350088883,1,0,,,,,,,,,,,,,,,,,,,,,1,,,,,,,,,,,,,,,,,,,,,,,,,,,,,,,,,,,,,,,,,,,,,,120,156973,19,Female,1,2024/03/25_12:27:02,YZ,None,
,,,,,,practice,0,20,3,583,2,C,0,right,2.466772050014697,1,0,,,,,,,,,,,,,,,,,,,,,1,,,,,,,,,,,,,,,,,,,,,,,,,,,,,,,,,,,,,,,,,,,,,,120,156973,19,Female,1,2024/03/25_12:27:02,YZ,None,
,,,,,,practice,0,20,3,583,3,S,0,right,1.3932104079867713,1,0,,,,,,,,,,,,,,,,,,,,,1,,,,,,,,,,,,,,,,,,,,,,,,,,,,,,,,,,,,,,,,,,,,,,120,156973,19,Female,1,2024/03/25_12:27:02,YZ,None,
,,,,,,practice,0,20,3,583,4,V,1,right,0.5213476150238421,0,0,,,,,,,,,,,,,,,,,,,,,1,,,,,,,,,,,,,,,,,,,,,,,,,,,,,,,,,,,,,,,,,,,,,,120,156973,19,Female,1,2024/03/25_12:27:02,YZ,None,
,,,,,,practice,0,20,3,583,5,X,0,right,0.7999450310016982,1,0,,,,,,,,,,,,,,,,,,,,,1,,,,,,,,,,,,,,,,,,,,,,,,,,,,,,,,,,,,,,,,,,,,,,120,156973,19,Female,1,2024/03/25_12:27:02,YZ,None,
,,,,,,practice,0,20,3,583,6,S,1,right,0.5394470920145977,0,0,,,,,,,,,,,,,,,,,,,,,1,,,,,,,,,,,,,,,,,,,,,,,,,,,,,,,,,,,,,,,,,,,,,,120,156973,19,Female,1,2024/03/25_12:27:02,YZ,None,
,,,,,,practice,0,20,3,583,7,S,0,right,1.0359840620076284,1,0,,,,,,,,,,,,,,,,,,,,,1,,,,,,,,,,,,,,,,,,,,,,,,,,,,,,,,,,,,,,,,,,,,,,120,156973,19,Female,1,2024/03/25_12:27:02,YZ,None,
,,,,,,practice,0,20,3,583,8,X,1,left,0.6240148530050647,1,0,,,,,,,,,,,,,,,,,,,,,1,,,,,,,,,,,,,,,,,,,,,,,,,,,,,,,,,,,,,,,,,,,,,,120,156973,19,Female,1,2024/03/25_12:27:02,YZ,None,
,,,,,,practice,0,20,3,583,9,F,0,right,0.5261292209906969,1,0,,,,,,,,,,,,,,,,,,,,,1,,,,,,,,,,,,,,,,,,,,,,,,,,,,,,,,,,,,,,,,,,,,,,120,156973,19,Female,1,2024/03/25_12:27:02,YZ,None,
,,,,,,practice,0,20,3,583,10,F,0,left,1.4643500079982914,0,0,,,,,,,,,,,,,,,,,,,,,1,,,,,,,,,,,,,,,,,,,,,,,,,,,,,,,,,,,,,,,,,,,,,,120,156973,19,Female,1,2024/03/25_12:27:02,YZ,None,
,,,,,,practice,0,20,3,583,11,J,0,right,0.508940858009737,1,0,,,,,,,,,,,,,,,,,,,,,1,,,,,,,,,,,,,,,,,,,,,,,,,,,,,,,,,,,,,,,,,,,,,,120,156973,19,Female,1,2024/03/25_12:27:02,YZ,None,
,,,,,,practice,0,20,3,583,12,S,0,right,0.3611525860032998,1,0,,,,,,,,,,,,,,,,,,,,,1,,,,,,,,,,,,,,,,,,,,,,,,,,,,,,,,,,,,,,,,,,,,,,120,156973,19,Female,1,2024/03/25_12:27:02,YZ,None,
,,,,,,practice,0,20,3,583,13,F,1,right,0.6527615580125712,0,0,,,,,,,,,,,,,,,,,,,,,1,,,,,,,,,,,,,,,,,,,,,,,,,,,,,,,,,,,,,,,,,,,,,,120,156973,19,Female,1,2024/03/25_12:27:02,YZ,None,
,,,,,,practice,0,20,3,583,14,X,0,right,1.368617964006262,1,0,,,,,,,,,,,,,,,,,,,,,1,,,,,,,,,,,,,,,,,,,,,,,,,,,,,,,,,,,,,,,,,,,,,,120,156973,19,Female,1,2024/03/25_12:27:02,YZ,None,
,,,,,,practice,0,20,3,583,15,S,1,right,0.4745459810073953,0,0,,,,,,,,,,,,,,,,,,,,,1,,,,,,,,,,,,,,,,,,,,,,,,,,,,,,,,,,,,,,,,,,,,,,120,156973,19,Female,1,2024/03/25_12:27:02,YZ,None,
,,,,,,practice,0,20,3,583,,,,,,,,0.65,0.2,0.1,0.9,0.0,0.9,0.9151189614727627,1,1,0,0,0,9,10,5,10,0,,,,1,,,,,,,,,,,,,,,,,,,,,,,,,,,,,,,,,,,,,,,,,,,,,,120,156973,19,Female,1,2024/03/25_12:27:02,YZ,None,
1,./instructions/inst_redo_3/Slide47.png,right,12.890099698008271,701.2599418689788,714.150041566987,,,,,,,,,,,,,,,,,,,,,,,,,,,,,,,,,1,,,,,,,,,,,,,,,,,,,,,,,,,,,,,,,,,,,,,,,,,,,,,,120,156973,19,Female,1,2024/03/25_12:27:02,YZ,None,
,,,,,,practice,0,35,3,583,1,V,0,right,1.579443871974945,1,0,,,,,,,,,,,,,,,,,,,,,1,,,,,,,,,,,,,,,,,,,,,,,,,,,,,,,,,,,,,,,,,,,,,,120,156973,19,Female,1,2024/03/25_12:27:02,YZ,None,
,,,,,,practice,0,35,3,583,2,N,0,right,0.514074281003559,1,0,,,,,,,,,,,,,,,,,,,,,1,,,,,,,,,,,,,,,,,,,,,,,,,,,,,,,,,,,,,,,,,,,,,,120,156973,19,Female,1,2024/03/25_12:27:02,YZ,None,
,,,,,,practice,0,35,3,583,3,X,0,right,0.4751903299766127,1,0,,,,,,,,,,,,,,,,,,,,,1,,,,,,,,,,,,,,,,,,,,,,,,,,,,,,,,,,,,,,,,,,,,,,120,156973,19,Female,1,2024/03/25_12:27:02,YZ,None,
,,,,,,practice,0,35,3,583,4,X,0,right,1.6448790050053503,1,0,,,,,,,,,,,,,,,,,,,,,1,,,,,,,,,,,,,,,,,,,,,,,,,,,,,,,,,,,,,,,,,,,,,,120,156973,19,Female,1,2024/03/25_12:27:02,YZ,None,
,,,,,,practice,0,35,3,583,5,V,0,right,2.85247283699573,1,0,,,,,,,,,,,,,,,,,,,,,1,,,,,,,,,,,,,,,,,,,,,,,,,,,,,,,,,,,,,,,,,,,,,,120,156973,19,Female,1,2024/03/25_12:27:02,YZ,None,
,,,,,,practice,0,35,3,583,6,X,1,left,0.9449932609859388,1,0,,,,,,,,,,,,,,,,,,,,,1,,,,,,,,,,,,,,,,,,,,,,,,,,,,,,,,,,,,,,,,,,,,,,120,156973,19,Female,1,2024/03/25_12:27:02,YZ,None,
,,,,,,practice,0,35,3,583,7,N,0,right,1.8357096909894608,1,0,,,,,,,,,,,,,,,,,,,,,1,,,,,,,,,,,,,,,,,,,,,,,,,,,,,,,,,,,,,,,,,,,,,,120,156973,19,Female,1,2024/03/25_12:27:02,YZ,None,
,,,,,,practice,0,35,3,583,8,N,0,right,2.5860535700048786,1,0,,,,,,,,,,,,,,,,,,,,,1,,,,,,,,,,,,,,,,,,,,,,,,,,,,,,,,,,,,,,,,,,,,,,120,156973,19,Female,1,2024/03/25_12:27:02,YZ,None,
,,,,,,practice,0,35,3,583,9,X,1,left,1.1386798480234575,1,0,,,,,,,,,,,,,,,,,,,,,1,,,,,,,,,,,,,,,,,,,,,,,,,,,,,,,,,,,,,,,,,,,,,,120,156973,19,Female,1,2024/03/25_12:27:02,YZ,None,
,,,,,,practice,0,35,3,583,10,N,1,right,0.6294212589855306,0,0,,,,,,,,,,,,,,,,,,,,,1,,,,,,,,,,,,,,,,,,,,,,,,,,,,,,,,,,,,,,,,,,,,,,120,156973,19,Female,1,2024/03/25_12:27:02,YZ,None,
,,,,,,practice,0,35,3,583,11,F,0,right,0.6334550390020013,1,0,,,,,,,,,,,,,,,,,,,,,1,,,,,,,,,,,,,,,,,,,,,,,,,,,,,,,,,,,,,,,,,,,,,,120,156973,19,Female,1,2024/03/25_12:27:02,YZ,None,
,,,,,,practice,0,35,3,583,12,J,0,right,0.4663365750166122,1,0,,,,,,,,,,,,,,,,,,,,,1,,,,,,,,,,,,,,,,,,,,,,,,,,,,,,,,,,,,,,,,,,,,,,120,156973,19,Female,1,2024/03/25_12:27:02,YZ,None,
,,,,,,practice,0,35,3,583,13,X,0,right,1.7292597330233548,1,0,,,,,,,,,,,,,,,,,,,,,1,,,,,,,,,,,,,,,,,,,,,,,,,,,,,,,,,,,,,,,,,,,,,,120,156973,19,Female,1,2024/03/25_12:27:02,YZ,None,
,,,,,,practice,0,35,3,583,14,F,1,left,0.6288487639976665,1,0,,,,,,,,,,,,,,,,,,,,,1,,,,,,,,,,,,,,,,,,,,,,,,,,,,,,,,,,,,,,,,,,,,,,120,156973,19,Female,1,2024/03/25_12:27:02,YZ,None,
,,,,,,practice,0,35,3,583,15,J,1,left,2.0047760950110387,1,0,,,,,,,,,,,,,,,,,,,,,1,,,,,,,,,,,,,,,,,,,,,,,,,,,,,,,,,,,,,,,,,,,,,,120,156973,19,Female,1,2024/03/25_12:27:02,YZ,None,
,,,,,,practice,0,35,3,583,,,,,,,,0.95,0.8,0.0,1.0,0.0,1.0,1.3109062773330757,4,0,0,0,0,10,14,5,10,0,,,,1,,,,,,,,,,,,,,,,,,,,,,,,,,,,,,,,,,,,,,,,,,,,,,120,156973,19,Female,1,2024/03/25_12:27:02,YZ,None,
1,./instructions/inst_prac_main/Slide51.png,right,4.341729615000077,744.2481078229903,748.5898374379904,,,,,,,,,,,,,,,,,,,,,,,,,,,,,,,,,1,,,,,,,,,,,,,,,,,,,,,,,,,,,,,,,,,,,,,,,,,,,,,,120,156973,19,Female,1,2024/03/25_12:27:02,YZ,None,
2,./instructions/inst_prac_main/Slide52.png,right,10.634307752014138,748.6195943399798,759.253902091994,,,,,,,,,,,,,,,,,,,,,,,,,,,,,,,,,1,,,,,,,,,,,,,,,,,,,,,,,,,,,,,,,,,,,,,,,,,,,,,,120,156973,19,Female,1,2024/03/25_12:27:02,YZ,None,
1,./instructions/inst_prac_main/Slide53.png,left,2.516605779994279,759.281364052993,761.7979698329873,,,,,,,,,,,,,,,,,,,,,,,,,,,,,,,,,1,,,,,,,,,,,,,,,,,,,,,,,,,,,,,,,,,,,,,,,,,,,,,,120,156973,19,Female,1,2024/03/25_12:27:02,YZ,None,
0,./instructions/inst_prac_main/Slide52.png,left,3.259635338996304,761.8263294369972,765.0859647759935,,,,,,,,,,,,,,,,,,,,,,,,,,,,,,,,,1,,,,,,,,,,,,,,,,,,,,,,,,,,,,,,,,,,,,,,,,,,,,,,120,156973,19,Female,1,2024/03/25_12:27:02,YZ,None,
1,./instructions/inst_prac_main/Slide51.png,right,0.9727320539823268,765.104951854999,766.0776839089813,,,,,,,,,,,,,,,,,,,,,,,,,,,,,,,,,1,,,,,,,,,,,,,,,,,,,,,,,,,,,,,,,,,,,,,,,,,,,,,,120,156973,19,Female,1,2024/03/25_12:27:02,YZ,None,
2,./instructions/inst_prac_main/Slide52.png,right,0.5817324990057386,766.1039344049932,766.6856669039989,,,,,,,,,,,,,,,,,,,,,,,,,,,,,,,,,1,,,,,,,,,,,,,,,,,,,,,,,,,,,,,,,,,,,,,,,,,,,,,,120,156973,19,Female,1,2024/03/25_12:27:02,YZ,None,
3,./instructions/inst_prac_main/Slide53.png,right,1.515719026006991,766.7140469619771,768.2297659879841,,,,,,,,,,,,,,,,,,,,,,,,,,,,,,,,,1,,,,,,,,,,,,,,,,,,,,,,,,,,,,,,,,,,,,,,,,,,,,,,120,156973,19,Female,1,2024/03/25_12:27:02,YZ,None,
4,./instructions/inst_prac_main/Slide54.png,right,2.5904978989856318,768.2553754569963,770.8458733559819,,,,,,,,,,,,,,,,,,,,,,,,,,,,,,,,,1,,,,,,,,,,,,,,,,,,,,,,,,,,,,,,,,,,,,,,,,,,,,,,120,156973,19,Female,1,2024/03/25_12:27:02,YZ,None,
,,,,,,practice_main,0,1,3,583,1,C,0,None,nan,0,1,,,,,,,,,,,,,,,,,,,,,1,,,,,,,,,,,,,,,,,,,,,,,,,,,,,,,,,,,,,,,,,,,,,,120,156973,19,Female,1,2024/03/25_12:27:02,YZ,None,
,,,,,,practice_main,0,1,3,583,2,F,0,right,0.990903119003633,1,0,,,,,,,,,,,,,,,,,,,,,1,,,,,,,,,,,,,,,,,,,,,,,,,,,,,,,,,,,,,,,,,,,,,,120,156973,19,Female,1,2024/03/25_12:27:02,YZ,None,
,,,,,,practice_main,0,1,3,583,3,J,0,right,0.4616353219898883,1,0,,,,,,,,,,,,,,,,,,,,,1,,,,,,,,,,,,,,,,,,,,,,,,,,,,,,,,,,,,,,,,,,,,,,120,156973,19,Female,1,2024/03/25_12:27:02,YZ,None,
,,,,,,practice_main,0,1,3,583,4,Q,0,right,0.4352044279803522,1,0,,,,,,,,,,,,,,,,,,,,,1,,,,,,,,,,,,,,,,,,,,,,,,,,,,,,,,,,,,,,,,,,,,,,120,156973,19,Female,1,2024/03/25_12:27:02,YZ,None,
,,,,,,practice_main,0,1,3,583,5,F,1,right,0.47377779497765005,0,0,,,,,,,,,,,,,,,,,,,,,1,,,,,,,,,,,,,,,,,,,,,,,,,,,,,,,,,,,,,,,,,,,,,,120,156973,19,Female,1,2024/03/25_12:27:02,YZ,None,
,,,,,,practice_main,0,1,3,583,6,J,1,left,0.4893337890098337,1,0,,,,,,,,,,,,,,,,,,,,,1,,,,,,,,,,,,,,,,,,,,,,,,,,,,,,,,,,,,,,,,,,,,,,120,156973,19,Female,1,2024/03/25_12:27:02,YZ,None,
,,,,,,practice_main,0,1,3,583,7,X,0,right,0.27967226499458775,1,0,,,,,,,,,,,,,,,,,,,,,1,,,,,,,,,,,,,,,,,,,,,,,,,,,,,,,,,,,,,,,,,,,,,,120,156973,19,Female,1,2024/03/25_12:27:02,YZ,None,
,,,,,,practice_main,0,1,3,583,8,F,1,right,1.214929701993242,0,0,,,,,,,,,,,,,,,,,,,,,1,,,,,,,,,,,,,,,,,,,,,,,,,,,,,,,,,,,,,,,,,,,,,,120,156973,19,Female,1,2024/03/25_12:27:02,YZ,None,
,,,,,,practice_main,0,1,3,583,9,J,1,left,0.8263156970206182,1,0,,,,,,,,,,,,,,,,,,,,,1,,,,,,,,,,,,,,,,,,,,,,,,,,,,,,,,,,,,,,,,,,,,,,120,156973,19,Female,1,2024/03/25_12:27:02,YZ,None,
,,,,,,practice_main,0,1,3,583,10,J,0,right,0.2366086450056173,1,0,,,,,,,,,,,,,,,,,,,,,1,,,,,,,,,,,,,,,,,,,,,,,,,,,,,,,,,,,,,,,,,,,,,,120,156973,19,Female,1,2024/03/25_12:27:02,YZ,None,
,,,,,,practice_main,0,1,3,583,11,C,0,left,0.625674294977216,0,0,,,,,,,,,,,,,,,,,,,,,1,,,,,,,,,,,,,,,,,,,,,,,,,,,,,,,,,,,,,,,,,,,,,,120,156973,19,Female,1,2024/03/25_12:27:02,YZ,None,
,,,,,,practice_main,0,1,3,583,12,V,0,right,0.22326237600645982,1,0,,,,,,,,,,,,,,,,,,,,,1,,,,,,,,,,,,,,,,,,,,,,,,,,,,,,,,,,,,,,,,,,,,,,120,156973,19,Female,1,2024/03/25_12:27:02,YZ,None,
,,,,,,practice_main,0,1,3,583,13,N,0,right,0.34651348800980486,1,0,,,,,,,,,,,,,,,,,,,,,1,,,,,,,,,,,,,,,,,,,,,,,,,,,,,,,,,,,,,,,,,,,,,,120,156973,19,Female,1,2024/03/25_12:27:02,YZ,None,
,,,,,,practice_main,0,1,3,583,14,J,0,left,0.1414813229930587,0,0,,,,,,,,,,,,,,,,,,,,,1,,,,,,,,,,,,,,,,,,,,,,,,,,,,,,,,,,,,,,,,,,,,,,120,156973,19,Female,1,2024/03/25_12:27:02,YZ,None,
,,,,,,practice_main,0,1,3,583,15,X,0,right,0.30830742701073177,1,0,,,,,,,,,,,,,,,,,,,,,1,,,,,,,,,,,,,,,,,,,,,,,,,,,,,,,,,,,,,,,,,,,,,,120,156973,19,Female,1,2024/03/25_12:27:02,YZ,None,
,,,,,,practice_main,0,1,3,583,,,,,,,,0.7386363636363636,0.5,0.18181818181818182,0.8,0.06666666666666667,0.7515151515151515,0.5038299764980495,2,2,0,1,1,8,10,4,11,0,,,,1,,,,,,,,,,,,,,,,,,,,,,,,,,,,,,,,,,,,,,,,,,,,,,120,156973,19,Female,1,2024/03/25_12:27:02,YZ,None,
,,,,,240325_131231,PRACTICE,0,1,3,583,,,,,,,,,,,,,,,,,,,,,,,,,,,,1,3,1,1,cue1.png,hard,B,12,1.4107564570149407,0,773.9025274759915,775.3445816919848,,,,,,,,,,,,,,,,,,,,,,,,,,,,,,,,,,,120,156973,19,Female,1,2024/03/25_12:27:02,YZ,None,
,,,,,,practice_main,0,2,1,583,1,F,0,None,nan,0,1,,,,,,,,,,,,,,,,,,,,,1,,,,,,,,,,,,,,,,,,,,,,,,,,,,,,,,,,,,,,,,,,,,,,120,156973,19,Female,1,2024/03/25_12:27:02,YZ,None,
,,,,,,practice_main,0,2,1,583,2,F,1,left,0.3934337290120311,1,0,,,,,,,,,,,,,,,,,,,,,1,,,,,,,,,,,,,,,,,,,,,,,,,,,,,,,,,,,,,,,,,,,,,,120,156973,19,Female,1,2024/03/25_12:27:02,YZ,None,
,,,,,,practice_main,0,2,1,583,3,Q,0,left,0.0,0,0,,,,,,,,,,,,,,,,,,,,,1,,,,,,,,,,,,,,,,,,,,,,,,,,,,,,,,,,,,,,,,,,,,,,120,156973,19,Female,1,2024/03/25_12:27:02,YZ,None,
,,,,,,practice_main,0,2,1,583,4,C,0,right,0.9161196920031216,1,0,,,,,,,,,,,,,,,,,,,,,1,,,,,,,,,,,,,,,,,,,,,,,,,,,,,,,,,,,,,,,,,,,,,,120,156973,19,Female,1,2024/03/25_12:27:02,YZ,None,
,,,,,,practice_main,0,2,1,583,5,J,0,right,0.3756562429771293,1,0,,,,,,,,,,,,,,,,,,,,,1,,,,,,,,,,,,,,,,,,,,,,,,,,,,,,,,,,,,,,,,,,,,,,120,156973,19,Female,1,2024/03/25_12:27:02,YZ,None,
,,,,,,practice_main,0,2,1,583,6,N,0,right,0.42857236601412296,1,0,,,,,,,,,,,,,,,,,,,,,1,,,,,,,,,,,,,,,,,,,,,,,,,,,,,,,,,,,,,,,,,,,,,,120,156973,19,Female,1,2024/03/25_12:27:02,YZ,None,
,,,,,,practice_main,0,2,1,583,7,N,1,left,0.42065184298553504,1,0,,,,,,,,,,,,,,,,,,,,,1,,,,,,,,,,,,,,,,,,,,,,,,,,,,,,,,,,,,,,,,,,,,,,120,156973,19,Female,1,2024/03/25_12:27:02,YZ,None,
,,,,,,practice_main,0,2,1,583,8,F,0,right,0.2806389099860098,1,0,,,,,,,,,,,,,,,,,,,,,1,,,,,,,,,,,,,,,,,,,,,,,,,,,,,,,,,,,,,,,,,,,,,,120,156973,19,Female,1,2024/03/25_12:27:02,YZ,None,
,,,,,,practice_main,0,2,1,583,9,J,0,right,0.4526156850042753,1,0,,,,,,,,,,,,,,,,,,,,,1,,,,,,,,,,,,,,,,,,,,,,,,,,,,,,,,,,,,,,,,,,,,,,120,156973,19,Female,1,2024/03/25_12:27:02,YZ,None,
,,,,,,practice_main,0,2,1,583,10,J,1,left,0.3536367859924212,1,0,,,,,,,,,,,,,,,,,,,,,1,,,,,,,,,,,,,,,,,,,,,,,,,,,,,,,,,,,,,,,,,,,,,,120,156973,19,Female,1,2024/03/25_12:27:02,YZ,None,
,,,,,,practice_main,0,2,1,583,11,C,0,right,0.24908115199650638,1,0,,,,,,,,,,,,,,,,,,,,,1,,,,,,,,,,,,,,,,,,,,,,,,,,,,,,,,,,,,,,,,,,,,,,120,156973,19,Female,1,2024/03/25_12:27:02,YZ,None,
,,,,,,practice_main,0,2,1,583,12,C,1,left,0.45962771301856264,1,0,,,,,,,,,,,,,,,,,,,,,1,,,,,,,,,,,,,,,,,,,,,,,,,,,,,,,,,,,,,,,,,,,,,,120,156973,19,Female,1,2024/03/25_12:27:02,YZ,None,
,,,,,,practice_main,0,2,1,583,13,X,0,right,0.29258443898288533,1,0,,,,,,,,,,,,,,,,,,,,,1,,,,,,,,,,,,,,,,,,,,,,,,,,,,,,,,,,,,,,,,,,,,,,120,156973,19,Female,1,2024/03/25_12:27:02,YZ,None,
,,,,,,practice_main,0,2,1,583,14,X,1,right,0.4263517620274797,0,0,,,,,,,,,,,,,,,,,,,,,1,,,,,,,,,,,,,,,,,,,,,,,,,,,,,,,,,,,,,,,,,,,,,,120,156973,19,Female,1,2024/03/25_12:27:02,YZ,None,
,,,,,,practice_main,0,2,1,583,15,S,0,right,0.35649145900970325,1,0,,,,,,,,,,,,,,,,,,,,,1,,,,,,,,,,,,,,,,,,,,,,,,,,,,,,,,,,,,,,,,,,,,,,120,156973,19,Female,1,2024/03/25_12:27:02,YZ,None,
,,,,,,practice_main,0,2,1,583,,,,,,,,0.905,0.8,0.1,0.8888888888888888,0.06666666666666667,0.8333333333333334,0.3861044127864131,4,1,0,1,1,8,12,5,10,0,,,,1,,,,,,,,,,,,,,,,,,,,,,,,,,,,,,,,,,,,,,,,,,,,,,120,156973,19,Female,1,2024/03/25_12:27:02,YZ,None,
,,,,,240325_131257,PRACTICE,0,2,1,583,,,,,,,,,,,,,,,,,,,,,,,,,,,,1,9,2,2,cue2.png,easy,B,15,1.656102621986065,0,801.3835877599777,803.055743525998,,,,,,,,,,,,,,,,,,,,,,,,,,,,,,,,,,,120,156973,19,Female,1,2024/03/25_12:27:02,YZ,None,
,,,,,,practice_main,0,3,3,583,1,N,0,right,1.411136851995252,1,0,,,,,,,,,,,,,,,,,,,,,1,,,,,,,,,,,,,,,,,,,,,,,,,,,,,,,,,,,,,,,,,,,,,,120,156973,19,Female,1,2024/03/25_12:27:02,YZ,None,
,,,,,,practice_main,0,3,3,583,2,X,0,right,0.40483334101736546,1,0,,,,,,,,,,,,,,,,,,,,,1,,,,,,,,,,,,,,,,,,,,,,,,,,,,,,,,,,,,,,,,,,,,,,120,156973,19,Female,1,2024/03/25_12:27:02,YZ,None,
,,,,,,practice_main,0,3,3,583,3,F,0,right,0.46046622400172055,1,0,,,,,,,,,,,,,,,,,,,,,1,,,,,,,,,,,,,,,,,,,,,,,,,,,,,,,,,,,,,,,,,,,,,,120,156973,19,Female,1,2024/03/25_12:27:02,YZ,None,
,,,,,,practice_main,0,3,3,583,4,N,1,left,0.4046818579954561,1,0,,,,,,,,,,,,,,,,,,,,,1,,,,,,,,,,,,,,,,,,,,,,,,,,,,,,,,,,,,,,,,,,,,,,120,156973,19,Female,1,2024/03/25_12:27:02,YZ,None,
,,,,,,practice_main,0,3,3,583,5,S,0,right,0.5247627100034151,1,0,,,,,,,,,,,,,,,,,,,,,1,,,,,,,,,,,,,,,,,,,,,,,,,,,,,,,,,,,,,,,,,,,,,,120,156973,19,Female,1,2024/03/25_12:27:02,YZ,None,
,,,,,,practice_main,0,3,3,583,6,F,1,right,0.7432089629874099,0,0,,,,,,,,,,,,,,,,,,,,,1,,,,,,,,,,,,,,,,,,,,,,,,,,,,,,,,,,,,,,,,,,,,,,120,156973,19,Female,1,2024/03/25_12:27:02,YZ,None,
,,,,,,practice_main,0,3,3,583,7,F,0,right,0.45049379201373085,1,0,,,,,,,,,,,,,,,,,,,,,1,,,,,,,,,,,,,,,,,,,,,,,,,,,,,,,,,,,,,,,,,,,,,,120,156973,19,Female,1,2024/03/25_12:27:02,YZ,None,
,,,,,,practice_main,0,3,3,583,8,X,0,right,0.6264469899761025,1,0,,,,,,,,,,,,,,,,,,,,,1,,,,,,,,,,,,,,,,,,,,,,,,,,,,,,,,,,,,,,,,,,,,,,120,156973,19,Female,1,2024/03/25_12:27:02,YZ,None,
,,,,,,practice_main,0,3,3,583,9,F,1,right,0.6558483949920628,0,0,,,,,,,,,,,,,,,,,,,,,1,,,,,,,,,,,,,,,,,,,,,,,,,,,,,,,,,,,,,,,,,,,,,,120,156973,19,Female,1,2024/03/25_12:27:02,YZ,None,
,,,,,,practice_main,0,3,3,583,10,V,0,right,1.1637437860190403,1,0,,,,,,,,,,,,,,,,,,,,,1,,,,,,,,,,,,,,,,,,,,,,,,,,,,,,,,,,,,,,,,,,,,,,120,156973,19,Female,1,2024/03/25_12:27:02,YZ,None,
,,,,,,practice_main,0,3,3,583,11,X,1,right,0.5418570870242547,0,0,,,,,,,,,,,,,,,,,,,,,1,,,,,,,,,,,,,,,,,,,,,,,,,,,,,,,,,,,,,,,,,,,,,,120,156973,19,Female,1,2024/03/25_12:27:02,YZ,None,
,,,,,,practice_main,0,3,3,583,12,N,0,left,0.093408451997675,0,0,,,,,,,,,,,,,,,,,,,,,1,,,,,,,,,,,,,,,,,,,,,,,,,,,,,,,,,,,,,,,,,,,,,,120,156973,19,Female,1,2024/03/25_12:27:02,YZ,None,
,,,,,,practice_main,0,3,3,583,13,Q,0,right,0.5198747670219745,1,0,,,,,,,,,,,,,,,,,,,,,1,,,,,,,,,,,,,,,,,,,,,,,,,,,,,,,,,,,,,,,,,,,,,,120,156973,19,Female,1,2024/03/25_12:27:02,YZ,None,
,,,,,,practice_main,0,3,3,583,14,X,1,right,0.4860810710233636,0,0,,,,,,,,,,,,,,,,,,,,,1,,,,,,,,,,,,,,,,,,,,,,,,,,,,,,,,,,,,,,,,,,,,,,120,156973,19,Female,1,2024/03/25_12:27:02,YZ,None,
,,,,,,practice_main,0,3,3,583,15,F,0,right,0.8983295790094417,1,0,,,,,,,,,,,,,,,,,,,,,1,,,,,,,,,,,,,,,,,,,,,,,,,,,,,,,,,,,,,,,,,,,,,,120,156973,19,Female,1,2024/03/25_12:27:02,YZ,None,
,,,,,,practice_main,0,3,3,583,,,,,,,,0.65,0.2,0.1,0.9,0.0,0.9,0.6256782578052177,1,1,0,0,0,9,10,5,10,0,,,,1,,,,,,,,,,,,,,,,,,,,,,,,,,,,,,,,,,,,,,,,,,,,,,120,156973,19,Female,1,2024/03/25_12:27:02,YZ,None,
,,,,,240325_131324,PRACTICE,0,3,3,583,,,,,,,,,,,,,,,,,,,,,,,,,,,,1,33,3,3,cue1.png,hard,B,25,0.8874585549929179,0,827.4022227699752,828.3068338819721,,,,,,,,,,,,,,,,,,,,,,,,,,,,,,,,,,,120,156973,19,Female,1,2024/03/25_12:27:02,YZ,None,
1,./instructions/inst_prac_end/Slide56.png,right,22.465126302995486,853.2126373809879,875.6777636839834,,,,,,,,,,,,,,,,,,,,,,,,,,,,,,,,,1,,,,,,,,,,,,,,,,,,,,,,,,,,,,,,,,,,,,,,,,,,,,,,120,156973,19,Female,1,2024/03/25_12:27:02,YZ,None,
1,./instructions/inst_test/Slide57.png,right,90.62922637400334,875.7125283469795,966.3417547209829,,,,,,,,,,,,,,,,,,,,,,,,,,,,,,,,,1,,,,,,,,,,,,,,,,,,,,,,,,,,,,,,,,,,,,,,,,,,,,,,120,156973,19,Female,1,2024/03/25_12:27:02,YZ,None,
,,,,,,test,1,1,1,583,1,X,0,right,0.8784131840220653,1,0,,,,,,,,,,,,,,,,,,,,,1,,,,,,,,,,,,,,,,,,,,,,,,,,,,,,,,,,,,,,,,,,,,,,120,156973,19,Female,1,2024/03/25_12:27:02,YZ,None,
,,,,,,test,1,1,1,583,2,X,1,left,0.4070085730054416,1,0,,,,,,,,,,,,,,,,,,,,,1,,,,,,,,,,,,,,,,,,,,,,,,,,,,,,,,,,,,,,,,,,,,,,120,156973,19,Female,1,2024/03/25_12:27:02,YZ,None,
,,,,,,test,1,1,1,583,3,J,0,right,0.3851118320017122,1,0,,,,,,,,,,,,,,,,,,,,,1,,,,,,,,,,,,,,,,,,,,,,,,,,,,,,,,,,,,,,,,,,,,,,120,156973,19,Female,1,2024/03/25_12:27:02,YZ,None,
,,,,,,test,1,1,1,583,4,X,0,right,0.7317895370069891,1,0,,,,,,,,,,,,,,,,,,,,,1,,,,,,,,,,,,,,,,,,,,,,,,,,,,,,,,,,,,,,,,,,,,,,120,156973,19,Female,1,2024/03/25_12:27:02,YZ,None,
,,,,,,test,1,1,1,583,5,Q,0,right,0.39871032800874673,1,0,,,,,,,,,,,,,,,,,,,,,1,,,,,,,,,,,,,,,,,,,,,,,,,,,,,,,,,,,,,,,,,,,,,,120,156973,19,Female,1,2024/03/25_12:27:02,YZ,None,
,,,,,,test,1,1,1,583,6,Q,1,left,0.4028179619926959,1,0,,,,,,,,,,,,,,,,,,,,,1,,,,,,,,,,,,,,,,,,,,,,,,,,,,,,,,,,,,,,,,,,,,,,120,156973,19,Female,1,2024/03/25_12:27:02,YZ,None,
,,,,,,test,1,1,1,583,7,N,0,right,0.3067153389856685,1,0,,,,,,,,,,,,,,,,,,,,,1,,,,,,,,,,,,,,,,,,,,,,,,,,,,,,,,,,,,,,,,,,,,,,120,156973,19,Female,1,2024/03/25_12:27:02,YZ,None,
,,,,,,test,1,1,1,583,8,S,0,right,0.36952439200831577,1,0,,,,,,,,,,,,,,,,,,,,,1,,,,,,,,,,,,,,,,,,,,,,,,,,,,,,,,,,,,,,,,,,,,,,120,156973,19,Female,1,2024/03/25_12:27:02,YZ,None,
,,,,,,test,1,1,1,583,9,N,0,right,0.5861927919904701,1,0,,,,,,,,,,,,,,,,,,,,,1,,,,,,,,,,,,,,,,,,,,,,,,,,,,,,,,,,,,,,,,,,,,,,120,156973,19,Female,1,2024/03/25_12:27:02,YZ,None,
,,,,,,test,1,1,1,583,10,S,0,right,0.27148810800281353,1,0,,,,,,,,,,,,,,,,,,,,,1,,,,,,,,,,,,,,,,,,,,,,,,,,,,,,,,,,,,,,,,,,,,,,120,156973,19,Female,1,2024/03/25_12:27:02,YZ,None,
,,,,,,test,1,1,1,583,11,S,1,left,0.28888894300325774,1,0,,,,,,,,,,,,,,,,,,,,,1,,,,,,,,,,,,,,,,,,,,,,,,,,,,,,,,,,,,,,,,,,,,,,120,156973,19,Female,1,2024/03/25_12:27:02,YZ,None,
,,,,,,test,1,1,1,583,12,Q,0,right,0.2721376559929922,1,0,,,,,,,,,,,,,,,,,,,,,1,,,,,,,,,,,,,,,,,,,,,,,,,,,,,,,,,,,,,,,,,,,,,,120,156973,19,Female,1,2024/03/25_12:27:02,YZ,None,
,,,,,,test,1,1,1,583,13,F,0,right,0.42376655800035223,1,0,,,,,,,,,,,,,,,,,,,,,1,,,,,,,,,,,,,,,,,,,,,,,,,,,,,,,,,,,,,,,,,,,,,,120,156973,19,Female,1,2024/03/25_12:27:02,YZ,None,
,,,,,,test,1,1,1,583,14,C,0,right,0.368239787989296,1,0,,,,,,,,,,,,,,,,,,,,,1,,,,,,,,,,,,,,,,,,,,,,,,,,,,,,,,,,,,,,,,,,,,,,120,156973,19,Female,1,2024/03/25_12:27:02,YZ,None,
,,,,,,test,1,1,1,583,15,C,1,left,0.40151833900017664,1,0,,,,,,,,,,,,,,,,,,,,,1,,,,,,,,,,,,,,,,,,,,,,,,,,,,,,,,,,,,,,,,,,,,,,120,156973,19,Female,1,2024/03/25_12:27:02,YZ,None,
,,,,,,Test,1,1,1,583,,,,,,,,1.0,1.0,0.0,1.0,0.0,1.0,0.4328215554007329,4,0,0,0,0,11,15,4,11,0,,,,1,,,,,,,,,,,,,,,,,,,,,,,,,,,,,,,,,,,,,,,,,,,,,,120,156973,19,Female,1,2024/03/25_12:27:02,YZ,None,
,,,,,240325_131547,TEST,1,1,1,583,,,,,,,,,,,,,,,,,,,,,,,,,,,,1,1,1,1,cue2.png,easy,B,2,2.0036131810047664,0,971.3954993179941,973.4147708569944,,,,,,,,,,,,,,,,,,,,,,,,,,,,,,,,,,,120,156973,19,Female,1,2024/03/25_12:27:02,YZ,None,
,,,,,,test,1,2,3,583,1,V,0,right,1.0529764509992674,1,0,,,,,,,,,,,,,,,,,,,,,1,,,,,,,,,,,,,,,,,,,,,,,,,,,,,,,,,,,,,,,,,,,,,,120,156973,19,Female,1,2024/03/25_12:27:02,YZ,None,
,,,,,,test,1,2,3,583,2,V,0,right,0.5426715360081289,1,0,,,,,,,,,,,,,,,,,,,,,1,,,,,,,,,,,,,,,,,,,,,,,,,,,,,,,,,,,,,,,,,,,,,,120,156973,19,Female,1,2024/03/25_12:27:02,YZ,None,
,,,,,,test,1,2,3,583,3,J,0,right,0.41059444000711665,1,0,,,,,,,,,,,,,,,,,,,,,1,,,,,,,,,,,,,,,,,,,,,,,,,,,,,,,,,,,,,,,,,,,,,,120,156973,19,Female,1,2024/03/25_12:27:02,YZ,None,
,,,,,,test,1,2,3,583,4,V,1,left,0.517452628002502,1,0,,,,,,,,,,,,,,,,,,,,,1,,,,,,,,,,,,,,,,,,,,,,,,,,,,,,,,,,,,,,,,,,,,,,120,156973,19,Female,1,2024/03/25_12:27:02,YZ,None,
,,,,,,test,1,2,3,583,5,X,0,right,0.1650189140054863,1,0,,,,,,,,,,,,,,,,,,,,,1,,,,,,,,,,,,,,,,,,,,,,,,,,,,,,,,,,,,,,,,,,,,,,120,156973,19,Female,1,2024/03/25_12:27:02,YZ,None,
,,,,,,test,1,2,3,583,6,S,0,right,0.4089819439977873,1,0,,,,,,,,,,,,,,,,,,,,,1,,,,,,,,,,,,,,,,,,,,,,,,,,,,,,,,,,,,,,,,,,,,,,120,156973,19,Female,1,2024/03/25_12:27:02,YZ,None,
,,,,,,test,1,2,3,583,7,F,0,right,0.5120161970262416,1,0,,,,,,,,,,,,,,,,,,,,,1,,,,,,,,,,,,,,,,,,,,,,,,,,,,,,,,,,,,,,,,,,,,,,120,156973,19,Female,1,2024/03/25_12:27:02,YZ,None,
,,,,,,test,1,2,3,583,8,X,1,right,0.17936894297599792,0,0,,,,,,,,,,,,,,,,,,,,,1,,,,,,,,,,,,,,,,,,,,,,,,,,,,,,,,,,,,,,,,,,,,,,120,156973,19,Female,1,2024/03/25_12:27:02,YZ,None,
,,,,,,test,1,2,3,583,9,S,1,left,0.6911033219948877,1,0,,,,,,,,,,,,,,,,,,,,,1,,,,,,,,,,,,,,,,,,,,,,,,,,,,,,,,,,,,,,,,,,,,,,120,156973,19,Female,1,2024/03/25_12:27:02,YZ,None,
,,,,,,test,1,2,3,583,10,S,0,right,0.6552963530120905,1,0,,,,,,,,,,,,,,,,,,,,,1,,,,,,,,,,,,,,,,,,,,,,,,,,,,,,,,,,,,,,,,,,,,,,120,156973,19,Female,1,2024/03/25_12:27:02,YZ,None,
,,,,,,test,1,2,3,583,11,X,1,right,0.8288288870244287,0,0,,,,,,,,,,,,,,,,,,,,,1,,,,,,,,,,,,,,,,,,,,,,,,,,,,,,,,,,,,,,,,,,,,,,120,156973,19,Female,1,2024/03/25_12:27:02,YZ,None,
,,,,,,test,1,2,3,583,12,C,0,right,0.6154185039922595,1,0,,,,,,,,,,,,,,,,,,,,,1,,,,,,,,,,,,,,,,,,,,,,,,,,,,,,,,,,,,,,,,,,,,,,120,156973,19,Female,1,2024/03/25_12:27:02,YZ,None,
,,,,,,test,1,2,3,583,13,V,0,right,0.34924809099175036,1,0,,,,,,,,,,,,,,,,,,,,,1,,,,,,,,,,,,,,,,,,,,,,,,,,,,,,,,,,,,,,,,,,,,,,120,156973,19,Female,1,2024/03/25_12:27:02,YZ,None,
,,,,,,test,1,2,3,583,14,C,0,right,0.5500410120002925,1,0,,,,,,,,,,,,,,,,,,,,,1,,,,,,,,,,,,,,,,,,,,,,,,,,,,,,,,,,,,,,,,,,,,,,120,156973,19,Female,1,2024/03/25_12:27:02,YZ,None,
,,,,,,test,1,2,3,583,15,J,0,right,0.628568392014131,1,0,,,,,,,,,,,,,,,,,,,,,1,,,,,,,,,,,,,,,,,,,,,,,,,,,,,,,,,,,,,,,,,,,,,,120,156973,19,Female,1,2024/03/25_12:27:02,YZ,None,
,,,,,,Test,1,2,3,583,,,,,,,,0.875,0.5,0.0,1.0,0.0,1.0,0.5405057076034913,2,0,0,0,0,11,13,4,11,0,,,,1,,,,,,,,,,,,,,,,,,,,,,,,,,,,,,,,,,,,,,,,,,,,,,120,156973,19,Female,1,2024/03/25_12:27:02,YZ,None,
,,,,,240325_131612,TEST,1,2,3,583,,,,,,,,,,,,,,,,,,,,,,,,,,,,1,2,2,2,cue1.png,hard,B,22,0.7284866080153733,0,996.9259700989933,997.6661210859893,,,,,,,,,,,,,,,,,,,,,,,,,,,,,,,,,,,120,156973,19,Female,1,2024/03/25_12:27:02,YZ,None,
,,,,,,test,1,3,3,583,1,N,0,right,0.7020344719931018,1,0,,,,,,,,,,,,,,,,,,,,,1,,,,,,,,,,,,,,,,,,,,,,,,,,,,,,,,,,,,,,,,,,,,,,120,156973,19,Female,1,2024/03/25_12:27:02,YZ,None,
,,,,,,test,1,3,3,583,2,X,0,right,0.24299240799155086,1,0,,,,,,,,,,,,,,,,,,,,,1,,,,,,,,,,,,,,,,,,,,,,,,,,,,,,,,,,,,,,,,,,,,,,120,156973,19,Female,1,2024/03/25_12:27:02,YZ,None,
,,,,,,test,1,3,3,583,3,C,0,right,0.33027495999704115,1,0,,,,,,,,,,,,,,,,,,,,,1,,,,,,,,,,,,,,,,,,,,,,,,,,,,,,,,,,,,,,,,,,,,,,120,156973,19,Female,1,2024/03/25_12:27:02,YZ,None,
,,,,,,test,1,3,3,583,4,V,0,right,0.40826174698304385,1,0,,,,,,,,,,,,,,,,,,,,,1,,,,,,,,,,,,,,,,,,,,,,,,,,,,,,,,,,,,,,,,,,,,,,120,156973,19,Female,1,2024/03/25_12:27:02,YZ,None,
,,,,,,test,1,3,3,583,5,S,0,right,0.40950399401481263,1,0,,,,,,,,,,,,,,,,,,,,,1,,,,,,,,,,,,,,,,,,,,,,,,,,,,,,,,,,,,,,,,,,,,,,120,156973,19,Female,1,2024/03/25_12:27:02,YZ,None,
,,,,,,test,1,3,3,583,6,C,1,left,0.37031075201230124,1,0,,,,,,,,,,,,,,,,,,,,,1,,,,,,,,,,,,,,,,,,,,,,,,,,,,,,,,,,,,,,,,,,,,,,120,156973,19,Female,1,2024/03/25_12:27:02,YZ,None,
,,,,,,test,1,3,3,583,7,V,1,right,0.36010286398231983,0,0,,,,,,,,,,,,,,,,,,,,,1,,,,,,,,,,,,,,,,,,,,,,,,,,,,,,,,,,,,,,,,,,,,,,120,156973,19,Female,1,2024/03/25_12:27:02,YZ,None,
,,,,,,test,1,3,3,583,8,V,0,right,0.2899610890017357,1,0,,,,,,,,,,,,,,,,,,,,,1,,,,,,,,,,,,,,,,,,,,,,,,,,,,,,,,,,,,,,,,,,,,,,120,156973,19,Female,1,2024/03/25_12:27:02,YZ,None,
,,,,,,test,1,3,3,583,9,F,0,right,0.5419074649980757,1,0,,,,,,,,,,,,,,,,,,,,,1,,,,,,,,,,,,,,,,,,,,,,,,,,,,,,,,,,,,,,,,,,,,,,120,156973,19,Female,1,2024/03/25_12:27:02,YZ,None,
,,,,,,test,1,3,3,583,10,V,1,left,0.38700677099404857,1,0,,,,,,,,,,,,,,,,,,,,,1,,,,,,,,,,,,,,,,,,,,,,,,,,,,,,,,,,,,,,,,,,,,,,120,156973,19,Female,1,2024/03/25_12:27:02,YZ,None,
,,,,,,test,1,3,3,583,11,V,1,left,0.47327312000561506,1,0,,,,,,,,,,,,,,,,,,,,,1,,,,,,,,,,,,,,,,,,,,,,,,,,,,,,,,,,,,,,,,,,,,,,120,156973,19,Female,1,2024/03/25_12:27:02,YZ,None,
,,,,,,test,1,3,3,583,12,Q,0,right,0.48813235401757993,1,0,,,,,,,,,,,,,,,,,,,,,1,,,,,,,,,,,,,,,,,,,,,,,,,,,,,,,,,,,,,,,,,,,,,,120,156973,19,Female,1,2024/03/25_12:27:02,YZ,None,
,,,,,,test,1,3,3,583,13,F,0,right,0.7118031610152684,1,0,,,,,,,,,,,,,,,,,,,,,1,,,,,,,,,,,,,,,,,,,,,,,,,,,,,,,,,,,,,,,,,,,,,,120,156973,19,Female,1,2024/03/25_12:27:02,YZ,None,
,,,,,,test,1,3,3,583,14,J,0,right,0.789143450994743,1,0,,,,,,,,,,,,,,,,,,,,,1,,,,,,,,,,,,,,,,,,,,,,,,,,,,,,,,,,,,,,,,,,,,,,120,156973,19,Female,1,2024/03/25_12:27:02,YZ,None,
