Instruction,Stimulus,Key,RT,START,END,Phase,Block,TrialN,NbackLevel,ISI,LetterN,Letter,Letter_isSame,Letter_Resp,Letter_RT,Letter_Accuracy,Letter_Timeout,Trial_A_measure,Trial_HR,Trial_FAR,Trial_CDR,Trial_MSR,Trial_ACC,Trial_RT,Trial_HitsCount,Trial_FAsCount,Trial_SameNoRespCount,Trial_DiffNoRespCount,Trial_NoRespCount,Trial_CDsCount,Trial_CorrectRespCount,Trial_SameLetterCount,Trial_DiffLetterCount,Trial_InvalidLetterCount,TrialCountCali,CaliEnd_A_measure,ISI_calibrated,Run,TrialIndex,TrialNumber_total,TrialNumber_valid,CueLearning,TrialDemandLearning,CueMapping,OnlineRating,OnlineRatingRT,OnlineRatingTimeOut,CueSTART,RatingSTART,OfflineRatingTimePoint,OfflineRatingQuesIndex,CueFigure,TrialDemand,OfflineRating,OfflineRatingRT,CueStart,OfflineRatingStart,PhaseType,CueLeft,CueDemandLeft,CueRight,CueDemandRight,Choice,ChoiceDemand,TaskDemand,ChoiceRT,ChoiceTimeOut,ChoiceSTART,CueCheck,CueDemandCheck,CorrectAnswer,Answer,AnswerDemand,AnswerRT,AnswerACC,AnswerTimeOut,CheckSTART,DemandRatingQuesIndex,QuesTLX,DemandLevel,DemandRating,DemandRatingRT,QuesStart,PID,SONA,Age,Gender,Run,TIME,EXPERIMENTER,frameRate,
1,./instructions/inst_begin/Slide2.png,right,24.827274816998397,0.1277529590006452,24.955027775999042,,,,,,,,,,,,,,,,,,,,,,,,,,,,,,,,,1,,,,,,,,,,,,,,,,,,,,,,,,,,,,,,,,,,,,,,,,,,,,,,63,158200,20,Female,1,2024/02/16_14:19:09,YZ,None,
2,./instructions/inst_begin/Slide3.png,right,17.22654590199818,24.984473769000033,42.21101967099821,,,,,,,,,,,,,,,,,,,,,,,,,,,,,,,,,1,,,,,,,,,,,,,,,,,,,,,,,,,,,,,,,,,,,,,,,,,,,,,,63,158200,20,Female,1,2024/02/16_14:19:09,YZ,None,
3,./instructions/inst_begin/Slide4.png,right,9.825907550010015,42.24119341898768,52.06710096899769,,,,,,,,,,,,,,,,,,,,,,,,,,,,,,,,,1,,,,,,,,,,,,,,,,,,,,,,,,,,,,,,,,,,,,,,,,,,,,,,63,158200,20,Female,1,2024/02/16_14:19:09,YZ,None,
1,./instructions/inst_prac_2/Slide6.png,right,15.017800537010771,52.10521370198694,67.12301423899771,,,,,,,,,,,,,,,,,,,,,,,,,,,,,,,,,1,,,,,,,,,,,,,,,,,,,,,,,,,,,,,,,,,,,,,,,,,,,,,,63,158200,20,Female,1,2024/02/16_14:19:09,YZ,None,
2,./instructions/inst_prac_2/Slide7.png,right,15.645690844001365,67.15760882799805,82.80329967199941,,,,,,,,,,,,,,,,,,,,,,,,,,,,,,,,,1,,,,,,,,,,,,,,,,,,,,,,,,,,,,,,,,,,,,,,,,,,,,,,63,158200,20,Female,1,2024/02/16_14:19:09,YZ,None,
3,./instructions/inst_prac_2/Slide8.png,right,14.565523842989933,82.83742714099935,97.40295098398929,,,,,,,,,,,,,,,,,,,,,,,,,,,,,,,,,1,,,,,,,,,,,,,,,,,,,,,,,,,,,,,,,,,,,,,,,,,,,,,,63,158200,20,Female,1,2024/02/16_14:19:09,YZ,None,
4,./instructions/inst_prac_2/Slide9.png,right,0.20051043998682871,97.43728925100004,97.63779969098687,,,,,,,,,,,,,,,,,,,,,,,,,,,,,,,,,1,,,,,,,,,,,,,,,,,,,,,,,,,,,,,,,,,,,,,,,,,,,,,,63,158200,20,Female,1,2024/02/16_14:19:09,YZ,None,
5,./instructions/inst_prac_2/Slide10.png,right,0.2004553919978207,97.66535353899235,97.86580893099017,,,,,,,,,,,,,,,,,,,,,,,,,,,,,,,,,1,,,,,,,,,,,,,,,,,,,,,,,,,,,,,,,,,,,,,,,,,,,,,,63,158200,20,Female,1,2024/02/16_14:19:09,YZ,None,
6,./instructions/inst_prac_2/Slide11.png,right,3.5496653790032724,97.89328054498765,101.44294592399092,,,,,,,,,,,,,,,,,,,,,,,,,,,,,,,,,1,,,,,,,,,,,,,,,,,,,,,,,,,,,,,,,,,,,,,,,,,,,,,,63,158200,20,Female,1,2024/02/16_14:19:09,YZ,None,
7,./instructions/inst_prac_2/Slide12.png,right,1.448575100992457,101.47448298499512,102.92305808598758,,,,,,,,,,,,,,,,,,,,,,,,,,,,,,,,,1,,,,,,,,,,,,,,,,,,,,,,,,,,,,,,,,,,,,,,,,,,,,,,63,158200,20,Female,1,2024/02/16_14:19:09,YZ,None,
8,./instructions/inst_prac_2/Slide13.png,right,1.7899256300006527,102.95712447998812,104.74705010998878,,,,,,,,,,,,,,,,,,,,,,,,,,,,,,,,,1,,,,,,,,,,,,,,,,,,,,,,,,,,,,,,,,,,,,,,,,,,,,,,63,158200,20,Female,1,2024/02/16_14:19:09,YZ,None,
7,./instructions/inst_prac_2/Slide14.png,left,18.94546828500461,104.77763999499439,123.723108279999,,,,,,,,,,,,,,,,,,,,,,,,,,,,,,,,,1,,,,,,,,,,,,,,,,,,,,,,,,,,,,,,,,,,,,,,,,,,,,,,63,158200,20,Female,1,2024/02/16_14:19:09,YZ,None,
8,./instructions/inst_prac_2/Slide13.png,right,6.433825801999774,123.75289732999227,130.18672313199204,,,,,,,,,,,,,,,,,,,,,,,,,,,,,,,,,1,,,,,,,,,,,,,,,,,,,,,,,,,,,,,,,,,,,,,,,,,,,,,,63,158200,20,Female,1,2024/02/16_14:19:09,YZ,None,
9,./instructions/inst_prac_2/Slide14.png,right,1.1659578760009026,130.21296784099832,131.37892571699922,,,,,,,,,,,,,,,,,,,,,,,,,,,,,,,,,1,,,,,,,,,,,,,,,,,,,,,,,,,,,,,,,,,,,,,,,,,,,,,,63,158200,20,Female,1,2024/02/16_14:19:09,YZ,None,
10,./instructions/inst_prac_2/Slide15.png,right,30.062762971007032,131.4122137529921,161.47497672399913,,,,,,,,,,,,,,,,,,,,,,,,,,,,,,,,,1,,,,,,,,,,,,,,,,,,,,,,,,,,,,,,,,,,,,,,,,,,,,,,63,158200,20,Female,1,2024/02/16_14:19:09,YZ,None,
,,,,,,practice,0,10,2,2583,1,Q,0,left,3.088223287006258,0,0,,,,,,,,,,,,,,,,,,,,,1,,,,,,,,,,,,,,,,,,,,,,,,,,,,,,,,,,,,,,,,,,,,,,63,158200,20,Female,1,2024/02/16_14:19:09,YZ,None,
,,,,,,practice,0,10,2,2583,2,C,0,right,5.4959067960007815,1,0,,,,,,,,,,,,,,,,,,,,,1,,,,,,,,,,,,,,,,,,,,,,,,,,,,,,,,,,,,,,,,,,,,,,63,158200,20,Female,1,2024/02/16_14:19:09,YZ,None,
,,,,,,practice,0,10,2,2583,3,J,0,right,3.8105668970092665,1,0,,,,,,,,,,,,,,,,,,,,,1,,,,,,,,,,,,,,,,,,,,,,,,,,,,,,,,,,,,,,,,,,,,,,63,158200,20,Female,1,2024/02/16_14:19:09,YZ,None,
,,,,,,practice,0,10,2,2583,4,C,1,left,1.1386144729913212,1,0,,,,,,,,,,,,,,,,,,,,,1,,,,,,,,,,,,,,,,,,,,,,,,,,,,,,,,,,,,,,,,,,,,,,63,158200,20,Female,1,2024/02/16_14:19:09,YZ,None,
,,,,,,practice,0,10,2,2583,5,S,0,right,1.775109494003118,1,0,,,,,,,,,,,,,,,,,,,,,1,,,,,,,,,,,,,,,,,,,,,,,,,,,,,,,,,,,,,,,,,,,,,,63,158200,20,Female,1,2024/02/16_14:19:09,YZ,None,
,,,,,,practice,0,10,2,2583,6,C,1,left,0.9414438429957954,1,0,,,,,,,,,,,,,,,,,,,,,1,,,,,,,,,,,,,,,,,,,,,,,,,,,,,,,,,,,,,,,,,,,,,,63,158200,20,Female,1,2024/02/16_14:19:09,YZ,None,
,,,,,,practice,0,10,2,2583,,,,,,,,0.9375,1.0,0.25,0.75,0.0,0.75,2.7083107983344235,2,1,0,0,0,3,5,2,4,0,,,,1,,,,,,,,,,,,,,,,,,,,,,,,,,,,,,,,,,,,,,,,,,,,,,63,158200,20,Female,1,2024/02/16_14:19:09,YZ,None,
1,./instructions/inst_to_cali/Slide20.png,right,6.570546368006035,184.60063770899433,191.17118407700036,,,,,,,,,,,,,,,,,,,,,,,,,,,,,,,,,1,,,,,,,,,,,,,,,,,,,,,,,,,,,,,,,,,,,,,,,,,,,,,,63,158200,20,Female,1,2024/02/16_14:19:09,YZ,None,
1,./instructions/inst_cali/Slide22.png,right,11.004110075009521,191.20685074898938,202.2109608239989,,,,,,,,,,,,,,,,,,,,,,,,,,,,,,,,,1,,,,,,,,,,,,,,,,,,,,,,,,,,,,,,,,,,,,,,,,,,,,,,63,158200,20,Female,1,2024/02/16_14:19:09,YZ,None,
,,,,,,calibration,0,14,2,583,1,X,0,None,nan,0,1,,,,,,,,,,,,,,,,,,,,,1,,,,,,,,,,,,,,,,,,,,,,,,,,,,,,,,,,,,,,,,,,,,,,63,158200,20,Female,1,2024/02/16_14:19:09,YZ,None,
,,,,,,calibration,0,14,2,583,2,Q,0,None,nan,0,1,,,,,,,,,,,,,,,,,,,,,1,,,,,,,,,,,,,,,,,,,,,,,,,,,,,,,,,,,,,,,,,,,,,,63,158200,20,Female,1,2024/02/16_14:19:09,YZ,None,
,,,,,,calibration,0,14,2,583,3,S,0,None,nan,0,1,,,,,,,,,,,,,,,,,,,,,1,,,,,,,,,,,,,,,,,,,,,,,,,,,,,,,,,,,,,,,,,,,,,,63,158200,20,Female,1,2024/02/16_14:19:09,YZ,None,
,,,,,,calibration,0,14,2,583,4,Q,1,None,nan,0,1,,,,,,,,,,,,,,,,,,,,,1,,,,,,,,,,,,,,,,,,,,,,,,,,,,,,,,,,,,,,,,,,,,,,63,158200,20,Female,1,2024/02/16_14:19:09,YZ,None,
,,,,,,calibration,0,14,2,583,5,V,0,None,nan,0,1,,,,,,,,,,,,,,,,,,,,,1,,,,,,,,,,,,,,,,,,,,,,,,,,,,,,,,,,,,,,,,,,,,,,63,158200,20,Female,1,2024/02/16_14:19:09,YZ,None,
,,,,,,calibration,0,14,2,583,6,Q,1,None,nan,0,1,,,,,,,,,,,,,,,,,,,,,1,,,,,,,,,,,,,,,,,,,,,,,,,,,,,,,,,,,,,,,,,,,,,,63,158200,20,Female,1,2024/02/16_14:19:09,YZ,None,
,,,,,,calibration,0,14,2,583,7,C,0,None,nan,0,1,,,,,,,,,,,,,,,,,,,,,1,,,,,,,,,,,,,,,,,,,,,,,,,,,,,,,,,,,,,,,,,,,,,,63,158200,20,Female,1,2024/02/16_14:19:09,YZ,None,
,,,,,,calibration,0,14,2,583,8,Q,1,None,nan,0,1,,,,,,,,,,,,,,,,,,,,,1,,,,,,,,,,,,,,,,,,,,,,,,,,,,,,,,,,,,,,,,,,,,,,63,158200,20,Female,1,2024/02/16_14:19:09,YZ,None,
,,,,,,calibration,0,14,2,583,9,V,0,None,nan,0,1,,,,,,,,,,,,,,,,,,,,,1,,,,,,,,,,,,,,,,,,,,,,,,,,,,,,,,,,,,,,,,,,,,,,63,158200,20,Female,1,2024/02/16_14:19:09,YZ,None,
,,,,,,calibration,0,14,2,583,10,Q,1,None,nan,0,1,,,,,,,,,,,,,,,,,,,,,1,,,,,,,,,,,,,,,,,,,,,,,,,,,,,,,,,,,,,,,,,,,,,,63,158200,20,Female,1,2024/02/16_14:19:09,YZ,None,
,,,,,,calibration,0,14,2,583,11,V,1,None,nan,0,1,,,,,,,,,,,,,,,,,,,,,1,,,,,,,,,,,,,,,,,,,,,,,,,,,,,,,,,,,,,,,,,,,,,,63,158200,20,Female,1,2024/02/16_14:19:09,YZ,None,
,,,,,,calibration,0,14,2,583,12,S,0,None,nan,0,1,,,,,,,,,,,,,,,,,,,,,1,,,,,,,,,,,,,,,,,,,,,,,,,,,,,,,,,,,,,,,,,,,,,,63,158200,20,Female,1,2024/02/16_14:19:09,YZ,None,
,,,,,,calibration,0,14,2,583,13,Q,0,None,nan,0,1,,,,,,,,,,,,,,,,,,,,,1,,,,,,,,,,,,,,,,,,,,,,,,,,,,,,,,,,,,,,,,,,,,,,63,158200,20,Female,1,2024/02/16_14:19:09,YZ,None,
,,,,,,calibration,0,14,2,583,14,J,0,None,nan,0,1,,,,,,,,,,,,,,,,,,,,,1,,,,,,,,,,,,,,,,,,,,,,,,,,,,,,,,,,,,,,,,,,,,,,63,158200,20,Female,1,2024/02/16_14:19:09,YZ,None,
,,,,,,calibration,0,14,2,583,15,V,0,None,nan,0,1,,,,,,,,,,,,,,,,,,,,,1,,,,,,,,,,,,,,,,,,,,,,,,,,,,,,,,,,,,,,,,,,,,,,63,158200,20,Female,1,2024/02/16_14:19:09,YZ,None,
,,,,,,calibration,0,14,2,583,,,,,,,,nan,0.0,nan,nan,1.0,nan,nan,0,0,5,10,15,0,0,5,10,0,,,,1,,,,,,,,,,,,,,,,,,,,,,,,,,,,,,,,,,,,,,,,,,,,,,63,158200,20,Female,1,2024/02/16_14:19:09,YZ,None,
,,,,,,Calibration,0,,2,583,,,,,,,,,,,,,,,,,,,,,,,,,1,,,1,,,,,,,,,,,,,,,,,,,,,,,,,,,,,,,,,,,,,,,,,,,,,,63,158200,20,Female,1,2024/02/16_14:19:09,YZ,None,
,,,,,,calibration,0,2,2,583,1,N,0,None,nan,0,1,,,,,,,,,,,,,,,,,,,,,1,,,,,,,,,,,,,,,,,,,,,,,,,,,,,,,,,,,,,,,,,,,,,,63,158200,20,Female,1,2024/02/16_14:19:09,YZ,None,
,,,,,,calibration,0,2,2,583,2,Q,0,None,nan,0,1,,,,,,,,,,,,,,,,,,,,,1,,,,,,,,,,,,,,,,,,,,,,,,,,,,,,,,,,,,,,,,,,,,,,63,158200,20,Female,1,2024/02/16_14:19:09,YZ,None,
,,,,,,calibration,0,2,2,583,3,N,1,None,nan,0,1,,,,,,,,,,,,,,,,,,,,,1,,,,,,,,,,,,,,,,,,,,,,,,,,,,,,,,,,,,,,,,,,,,,,63,158200,20,Female,1,2024/02/16_14:19:09,YZ,None,
,,,,,,calibration,0,2,2,583,4,Q,1,None,nan,0,1,,,,,,,,,,,,,,,,,,,,,1,,,,,,,,,,,,,,,,,,,,,,,,,,,,,,,,,,,,,,,,,,,,,,63,158200,20,Female,1,2024/02/16_14:19:09,YZ,None,
,,,,,,calibration,0,2,2,583,5,C,0,None,nan,0,1,,,,,,,,,,,,,,,,,,,,,1,,,,,,,,,,,,,,,,,,,,,,,,,,,,,,,,,,,,,,,,,,,,,,63,158200,20,Female,1,2024/02/16_14:19:09,YZ,None,
,,,,,,calibration,0,2,2,583,6,S,0,None,nan,0,1,,,,,,,,,,,,,,,,,,,,,1,,,,,,,,,,,,,,,,,,,,,,,,,,,,,,,,,,,,,,,,,,,,,,63,158200,20,Female,1,2024/02/16_14:19:09,YZ,None,
,,,,,,calibration,0,2,2,583,7,J,0,None,nan,0,1,,,,,,,,,,,,,,,,,,,,,1,,,,,,,,,,,,,,,,,,,,,,,,,,,,,,,,,,,,,,,,,,,,,,63,158200,20,Female,1,2024/02/16_14:19:09,YZ,None,
,,,,,,calibration,0,2,2,583,8,X,0,None,nan,0,1,,,,,,,,,,,,,,,,,,,,,1,,,,,,,,,,,,,,,,,,,,,,,,,,,,,,,,,,,,,,,,,,,,,,63,158200,20,Female,1,2024/02/16_14:19:09,YZ,None,
,,,,,,calibration,0,2,2,583,9,S,0,None,nan,0,1,,,,,,,,,,,,,,,,,,,,,1,,,,,,,,,,,,,,,,,,,,,,,,,,,,,,,,,,,,,,,,,,,,,,63,158200,20,Female,1,2024/02/16_14:19:09,YZ,None,
,,,,,,calibration,0,2,2,583,10,Q,0,None,nan,0,1,,,,,,,,,,,,,,,,,,,,,1,,,,,,,,,,,,,,,,,,,,,,,,,,,,,,,,,,,,,,,,,,,,,,63,158200,20,Female,1,2024/02/16_14:19:09,YZ,None,
,,,,,,calibration,0,2,2,583,11,S,1,None,nan,0,1,,,,,,,,,,,,,,,,,,,,,1,,,,,,,,,,,,,,,,,,,,,,,,,,,,,,,,,,,,,,,,,,,,,,63,158200,20,Female,1,2024/02/16_14:19:09,YZ,None,
,,,,,,calibration,0,2,2,583,12,X,0,None,nan,0,1,,,,,,,,,,,,,,,,,,,,,1,,,,,,,,,,,,,,,,,,,,,,,,,,,,,,,,,,,,,,,,,,,,,,63,158200,20,Female,1,2024/02/16_14:19:09,YZ,None,
,,,,,,calibration,0,2,2,583,13,S,1,None,nan,0,1,,,,,,,,,,,,,,,,,,,,,1,,,,,,,,,,,,,,,,,,,,,,,,,,,,,,,,,,,,,,,,,,,,,,63,158200,20,Female,1,2024/02/16_14:19:09,YZ,None,
,,,,,,calibration,0,2,2,583,14,N,0,None,nan,0,1,,,,,,,,,,,,,,,,,,,,,1,,,,,,,,,,,,,,,,,,,,,,,,,,,,,,,,,,,,,,,,,,,,,,63,158200,20,Female,1,2024/02/16_14:19:09,YZ,None,
,,,,,,calibration,0,2,2,583,15,S,1,None,nan,0,1,,,,,,,,,,,,,,,,,,,,,1,,,,,,,,,,,,,,,,,,,,,,,,,,,,,,,,,,,,,,,,,,,,,,63,158200,20,Female,1,2024/02/16_14:19:09,YZ,None,
,,,,,,calibration,0,2,2,583,,,,,,,,nan,0.0,nan,nan,1.0,nan,nan,0,0,5,10,15,0,0,5,10,0,,,,1,,,,,,,,,,,,,,,,,,,,,,,,,,,,,,,,,,,,,,,,,,,,,,63,158200,20,Female,1,2024/02/16_14:19:09,YZ,None,
,,,,,,Calibration,0,,2,583,,,,,,,,,,,,,,,,,,,,,,,,,2,,,1,,,,,,,,,,,,,,,,,,,,,,,,,,,,,,,,,,,,,,,,,,,,,,63,158200,20,Female,1,2024/02/16_14:19:09,YZ,None,
,,,,,,calibration,0,2,2,583,1,N,0,None,nan,0,1,,,,,,,,,,,,,,,,,,,,,1,,,,,,,,,,,,,,,,,,,,,,,,,,,,,,,,,,,,,,,,,,,,,,63,158200,20,Female,1,2024/02/16_14:19:09,YZ,None,
,,,,,,calibration,0,2,2,583,2,Q,0,None,nan,0,1,,,,,,,,,,,,,,,,,,,,,1,,,,,,,,,,,,,,,,,,,,,,,,,,,,,,,,,,,,,,,,,,,,,,63,158200,20,Female,1,2024/02/16_14:19:09,YZ,None,
,,,,,,calibration,0,2,2,583,3,N,1,None,nan,0,1,,,,,,,,,,,,,,,,,,,,,1,,,,,,,,,,,,,,,,,,,,,,,,,,,,,,,,,,,,,,,,,,,,,,63,158200,20,Female,1,2024/02/16_14:19:09,YZ,None,
,,,,,,calibration,0,2,2,583,4,Q,1,None,nan,0,1,,,,,,,,,,,,,,,,,,,,,1,,,,,,,,,,,,,,,,,,,,,,,,,,,,,,,,,,,,,,,,,,,,,,63,158200,20,Female,1,2024/02/16_14:19:09,YZ,None,
,,,,,,calibration,0,2,2,583,5,C,0,None,nan,0,1,,,,,,,,,,,,,,,,,,,,,1,,,,,,,,,,,,,,,,,,,,,,,,,,,,,,,,,,,,,,,,,,,,,,63,158200,20,Female,1,2024/02/16_14:19:09,YZ,None,
,,,,,,calibration,0,2,2,583,6,S,0,None,nan,0,1,,,,,,,,,,,,,,,,,,,,,1,,,,,,,,,,,,,,,,,,,,,,,,,,,,,,,,,,,,,,,,,,,,,,63,158200,20,Female,1,2024/02/16_14:19:09,YZ,None,
,,,,,,calibration,0,2,2,583,7,J,0,None,nan,0,1,,,,,,,,,,,,,,,,,,,,,1,,,,,,,,,,,,,,,,,,,,,,,,,,,,,,,,,,,,,,,,,,,,,,63,158200,20,Female,1,2024/02/16_14:19:09,YZ,None,
,,,,,,calibration,0,2,2,583,8,X,0,None,nan,0,1,,,,,,,,,,,,,,,,,,,,,1,,,,,,,,,,,,,,,,,,,,,,,,,,,,,,,,,,,,,,,,,,,,,,63,158200,20,Female,1,2024/02/16_14:19:09,YZ,None,
,,,,,,calibration,0,2,2,583,9,S,0,None,nan,0,1,,,,,,,,,,,,,,,,,,,,,1,,,,,,,,,,,,,,,,,,,,,,,,,,,,,,,,,,,,,,,,,,,,,,63,158200,20,Female,1,2024/02/16_14:19:09,YZ,None,
,,,,,,calibration,0,2,2,583,10,Q,0,None,nan,0,1,,,,,,,,,,,,,,,,,,,,,1,,,,,,,,,,,,,,,,,,,,,,,,,,,,,,,,,,,,,,,,,,,,,,63,158200,20,Female,1,2024/02/16_14:19:09,YZ,None,
,,,,,,calibration,0,2,2,583,11,S,1,None,nan,0,1,,,,,,,,,,,,,,,,,,,,,1,,,,,,,,,,,,,,,,,,,,,,,,,,,,,,,,,,,,,,,,,,,,,,63,158200,20,Female,1,2024/02/16_14:19:09,YZ,None,
,,,,,,calibration,0,2,2,583,12,X,0,None,nan,0,1,,,,,,,,,,,,,,,,,,,,,1,,,,,,,,,,,,,,,,,,,,,,,,,,,,,,,,,,,,,,,,,,,,,,63,158200,20,Female,1,2024/02/16_14:19:09,YZ,None,
,,,,,,calibration,0,2,2,583,13,S,1,None,nan,0,1,,,,,,,,,,,,,,,,,,,,,1,,,,,,,,,,,,,,,,,,,,,,,,,,,,,,,,,,,,,,,,,,,,,,63,158200,20,Female,1,2024/02/16_14:19:09,YZ,None,
,,,,,,calibration,0,2,2,583,14,N,0,None,nan,0,1,,,,,,,,,,,,,,,,,,,,,1,,,,,,,,,,,,,,,,,,,,,,,,,,,,,,,,,,,,,,,,,,,,,,63,158200,20,Female,1,2024/02/16_14:19:09,YZ,None,
,,,,,,calibration,0,2,2,583,15,S,1,None,nan,0,1,,,,,,,,,,,,,,,,,,,,,1,,,,,,,,,,,,,,,,,,,,,,,,,,,,,,,,,,,,,,,,,,,,,,63,158200,20,Female,1,2024/02/16_14:19:09,YZ,None,
,,,,,,calibration,0,2,2,583,,,,,,,,nan,0.0,nan,nan,1.0,nan,nan,0,0,5,10,15,0,0,5,10,0,,,,1,,,,,,,,,,,,,,,,,,,,,,,,,,,,,,,,,,,,,,,,,,,,,,63,158200,20,Female,1,2024/02/16_14:19:09,YZ,None,
,,,,,,Calibration,0,,2,583,,,,,,,,,,,,,,,,,,,,,,,,,3,,,1,,,,,,,,,,,,,,,,,,,,,,,,,,,,,,,,,,,,,,,,,,,,,,63,158200,20,Female,1,2024/02/16_14:19:09,YZ,None,
,,,,,,calibration,0,18,2,583,1,X,0,right,1.4861250660032965,1,0,,,,,,,,,,,,,,,,,,,,,1,,,,,,,,,,,,,,,,,,,,,,,,,,,,,,,,,,,,,,,,,,,,,,63,158200,20,Female,1,2024/02/16_14:19:09,YZ,None,
,,,,,,calibration,0,18,2,583,2,C,0,left,0.47483994900539983,0,0,,,,,,,,,,,,,,,,,,,,,1,,,,,,,,,,,,,,,,,,,,,,,,,,,,,,,,,,,,,,,,,,,,,,63,158200,20,Female,1,2024/02/16_14:19:09,YZ,None,
,,,,,,calibration,0,18,2,583,3,S,0,left,nan,0,1,,,,,,,,,,,,,,,,,,,,,1,,,,,,,,,,,,,,,,,,,,,,,,,,,,,,,,,,,,,,,,,,,,,,63,158200,20,Female,1,2024/02/16_14:19:09,YZ,None,
,,,,,,calibration,0,18,2,583,4,V,0,right,0.25555457299924456,1,0,,,,,,,,,,,,,,,,,,,,,1,,,,,,,,,,,,,,,,,,,,,,,,,,,,,,,,,,,,,,,,,,,,,,63,158200,20,Female,1,2024/02/16_14:19:09,YZ,None,
,,,,,,calibration,0,18,2,583,5,X,0,right,nan,0,1,,,,,,,,,,,,,,,,,,,,,1,,,,,,,,,,,,,,,,,,,,,,,,,,,,,,,,,,,,,,,,,,,,,,63,158200,20,Female,1,2024/02/16_14:19:09,YZ,None,
,,,,,,calibration,0,18,2,583,6,J,0,right,0.9984388119919458,1,0,,,,,,,,,,,,,,,,,,,,,1,,,,,,,,,,,,,,,,,,,,,,,,,,,,,,,,,,,,,,,,,,,,,,63,158200,20,Female,1,2024/02/16_14:19:09,YZ,None,
,,,,,,calibration,0,18,2,583,7,X,1,right,nan,0,1,,,,,,,,,,,,,,,,,,,,,1,,,,,,,,,,,,,,,,,,,,,,,,,,,,,,,,,,,,,,,,,,,,,,63,158200,20,Female,1,2024/02/16_14:19:09,YZ,None,
,,,,,,calibration,0,18,2,583,8,J,1,right,nan,0,1,,,,,,,,,,,,,,,,,,,,,1,,,,,,,,,,,,,,,,,,,,,,,,,,,,,,,,,,,,,,,,,,,,,,63,158200,20,Female,1,2024/02/16_14:19:09,YZ,None,
,,,,,,calibration,0,18,2,583,9,V,0,right,nan,0,1,,,,,,,,,,,,,,,,,,,,,1,,,,,,,,,,,,,,,,,,,,,,,,,,,,,,,,,,,,,,,,,,,,,,63,158200,20,Female,1,2024/02/16_14:19:09,YZ,None,
,,,,,,calibration,0,18,2,583,10,J,1,right,nan,0,1,,,,,,,,,,,,,,,,,,,,,1,,,,,,,,,,,,,,,,,,,,,,,,,,,,,,,,,,,,,,,,,,,,,,63,158200,20,Female,1,2024/02/16_14:19:09,YZ,None,
,,,,,,calibration,0,18,2,583,11,Q,0,right,nan,0,1,,,,,,,,,,,,,,,,,,,,,1,,,,,,,,,,,,,,,,,,,,,,,,,,,,,,,,,,,,,,,,,,,,,,63,158200,20,Female,1,2024/02/16_14:19:09,YZ,None,
,,,,,,calibration,0,18,2,583,12,F,0,right,nan,0,1,,,,,,,,,,,,,,,,,,,,,1,,,,,,,,,,,,,,,,,,,,,,,,,,,,,,,,,,,,,,,,,,,,,,63,158200,20,Female,1,2024/02/16_14:19:09,YZ,None,
,,,,,,calibration,0,18,2,583,13,Q,1,right,nan,0,1,,,,,,,,,,,,,,,,,,,,,1,,,,,,,,,,,,,,,,,,,,,,,,,,,,,,,,,,,,,,,,,,,,,,63,158200,20,Female,1,2024/02/16_14:19:09,YZ,None,
,,,,,,calibration,0,18,2,583,14,N,0,right,nan,0,1,,,,,,,,,,,,,,,,,,,,,1,,,,,,,,,,,,,,,,,,,,,,,,,,,,,,,,,,,,,,,,,,,,,,63,158200,20,Female,1,2024/02/16_14:19:09,YZ,None,
,,,,,,calibration,0,18,2,583,15,J,0,right,nan,0,1,,,,,,,,,,,,,,,,,,,,,1,,,,,,,,,,,,,,,,,,,,,,,,,,,,,,,,,,,,,,,,,,,,,,63,158200,20,Female,1,2024/02/16_14:19:09,YZ,None,
,,,,,,calibration,0,18,2,583,,,,,,,,0.22727272727272727,0.0,0.09090909090909091,0.75,0.7333333333333333,0.17575757575757578,0.8037395999999717,0,1,4,7,11,3,3,4,11,0,,,,1,,,,,,,,,,,,,,,,,,,,,,,,,,,,,,,,,,,,,,,,,,,,,,63,158200,20,Female,1,2024/02/16_14:19:09,YZ,None,
,,,,,,Calibration,0,,2,583,,,,,,,,,,,,,,,,,,,,,,,,,4,,,1,,,,,,,,,,,,,,,,,,,,,,,,,,,,,,,,,,,,,,,,,,,,,,63,158200,20,Female,1,2024/02/16_14:19:09,YZ,None,
,,,,,,calibration,0,27,2,679,1,J,0,left,0.9632351509935688,0,0,,,,,,,,,,,,,,,,,,,,,1,,,,,,,,,,,,,,,,,,,,,,,,,,,,,,,,,,,,,,,,,,,,,,63,158200,20,Female,1,2024/02/16_14:19:09,YZ,None,
,,,,,,calibration,0,27,2,679,2,N,0,left,0.8023423870035913,0,0,,,,,,,,,,,,,,,,,,,,,1,,,,,,,,,,,,,,,,,,,,,,,,,,,,,,,,,,,,,,,,,,,,,,63,158200,20,Female,1,2024/02/16_14:19:09,YZ,None,
,,,,,,calibration,0,27,2,679,3,V,0,left,nan,0,1,,,,,,,,,,,,,,,,,,,,,1,,,,,,,,,,,,,,,,,,,,,,,,,,,,,,,,,,,,,,,,,,,,,,63,158200,20,Female,1,2024/02/16_14:19:09,YZ,None,
,,,,,,calibration,0,27,2,679,4,Q,0,left,nan,0,1,,,,,,,,,,,,,,,,,,,,,1,,,,,,,,,,,,,,,,,,,,,,,,,,,,,,,,,,,,,,,,,,,,,,63,158200,20,Female,1,2024/02/16_14:19:09,YZ,None,
,,,,,,calibration,0,27,2,679,5,V,1,left,nan,0,1,,,,,,,,,,,,,,,,,,,,,1,,,,,,,,,,,,,,,,,,,,,,,,,,,,,,,,,,,,,,,,,,,,,,63,158200,20,Female,1,2024/02/16_14:19:09,YZ,None,
,,,,,,calibration,0,27,2,679,6,J,0,left,nan,0,1,,,,,,,,,,,,,,,,,,,,,1,,,,,,,,,,,,,,,,,,,,,,,,,,,,,,,,,,,,,,,,,,,,,,63,158200,20,Female,1,2024/02/16_14:19:09,YZ,None,
,,,,,,calibration,0,27,2,679,7,N,0,left,nan,0,1,,,,,,,,,,,,,,,,,,,,,1,,,,,,,,,,,,,,,,,,,,,,,,,,,,,,,,,,,,,,,,,,,,,,63,158200,20,Female,1,2024/02/16_14:19:09,YZ,None,
,,,,,,calibration,0,27,2,679,8,J,1,left,nan,0,1,,,,,,,,,,,,,,,,,,,,,1,,,,,,,,,,,,,,,,,,,,,,,,,,,,,,,,,,,,,,,,,,,,,,63,158200,20,Female,1,2024/02/16_14:19:09,YZ,None,
,,,,,,calibration,0,27,2,679,9,Q,0,left,nan,0,1,,,,,,,,,,,,,,,,,,,,,1,,,,,,,,,,,,,,,,,,,,,,,,,,,,,,,,,,,,,,,,,,,,,,63,158200,20,Female,1,2024/02/16_14:19:09,YZ,None,
,,,,,,calibration,0,27,2,679,10,V,0,left,nan,0,1,,,,,,,,,,,,,,,,,,,,,1,,,,,,,,,,,,,,,,,,,,,,,,,,,,,,,,,,,,,,,,,,,,,,63,158200,20,Female,1,2024/02/16_14:19:09,YZ,None,
,,,,,,calibration,0,27,2,679,11,Q,1,left,nan,0,1,,,,,,,,,,,,,,,,,,,,,1,,,,,,,,,,,,,,,,,,,,,,,,,,,,,,,,,,,,,,,,,,,,,,63,158200,20,Female,1,2024/02/16_14:19:09,YZ,None,
,,,,,,calibration,0,27,2,679,12,J,0,left,nan,0,1,,,,,,,,,,,,,,,,,,,,,1,,,,,,,,,,,,,,,,,,,,,,,,,,,,,,,,,,,,,,,,,,,,,,63,158200,20,Female,1,2024/02/16_14:19:09,YZ,None,
,,,,,,calibration,0,27,2,679,13,Q,1,left,nan,0,1,,,,,,,,,,,,,,,,,,,,,1,,,,,,,,,,,,,,,,,,,,,,,,,,,,,,,,,,,,,,,,,,,,,,63,158200,20,Female,1,2024/02/16_14:19:09,YZ,None,
,,,,,,calibration,0,27,2,679,14,X,0,left,nan,0,1,,,,,,,,,,,,,,,,,,,,,1,,,,,,,,,,,,,,,,,,,,,,,,,,,,,,,,,,,,,,,,,,,,,,63,158200,20,Female,1,2024/02/16_14:19:09,YZ,None,
,,,,,,calibration,0,27,2,679,,,,,,,,0.2,0.0,0.2,0.0,0.8571428571428571,-0.05714285714285705,0.88278876899858,0,2,4,8,12,0,0,4,10,0,,,,1,,,,,,,,,,,,,,,,,,,,,,,,,,,,,,,,,,,,,,,,,,,,,,63,158200,20,Female,1,2024/02/16_14:19:09,YZ,None,
,,,,,,Calibration,0,,2,679,,,,,,,,,,,,,,,,,,,,,,,,,5,,,1,,,,,,,,,,,,,,,,,,,,,,,,,,,,,,,,,,,,,,,,,,,,,,63,158200,20,Female,1,2024/02/16_14:19:09,YZ,None,
,,,,,,calibration,0,6,2,788,1,S,0,None,nan,0,1,,,,,,,,,,,,,,,,,,,,,1,,,,,,,,,,,,,,,,,,,,,,,,,,,,,,,,,,,,,,,,,,,,,,63,158200,20,Female,1,2024/02/16_14:19:09,YZ,None,
,,,,,,calibration,0,6,2,788,2,J,0,None,nan,0,1,,,,,,,,,,,,,,,,,,,,,1,,,,,,,,,,,,,,,,,,,,,,,,,,,,,,,,,,,,,,,,,,,,,,63,158200,20,Female,1,2024/02/16_14:19:09,YZ,None,
,,,,,,calibration,0,6,2,788,3,S,1,None,nan,0,1,,,,,,,,,,,,,,,,,,,,,1,,,,,,,,,,,,,,,,,,,,,,,,,,,,,,,,,,,,,,,,,,,,,,63,158200,20,Female,1,2024/02/16_14:19:09,YZ,None,
,,,,,,calibration,0,6,2,788,4,Q,0,None,nan,0,1,,,,,,,,,,,,,,,,,,,,,1,,,,,,,,,,,,,,,,,,,,,,,,,,,,,,,,,,,,,,,,,,,,,,63,158200,20,Female,1,2024/02/16_14:19:09,YZ,None,
,,,,,,calibration,0,6,2,788,5,F,0,None,nan,0,1,,,,,,,,,,,,,,,,,,,,,1,,,,,,,,,,,,,,,,,,,,,,,,,,,,,,,,,,,,,,,,,,,,,,63,158200,20,Female,1,2024/02/16_14:19:09,YZ,None,
,,,,,,calibration,0,6,2,788,6,Q,1,right,0.9754516219982179,0,0,,,,,,,,,,,,,,,,,,,,,1,,,,,,,,,,,,,,,,,,,,,,,,,,,,,,,,,,,,,,,,,,,,,,63,158200,20,Female,1,2024/02/16_14:19:09,YZ,None,
,,,,,,calibration,0,6,2,788,7,F,1,right,nan,0,1,,,,,,,,,,,,,,,,,,,,,1,,,,,,,,,,,,,,,,,,,,,,,,,,,,,,,,,,,,,,,,,,,,,,63,158200,20,Female,1,2024/02/16_14:19:09,YZ,None,
,,,,,,calibration,0,6,2,788,8,C,0,left,0.34031756200420205,0,0,,,,,,,,,,,,,,,,,,,,,1,,,,,,,,,,,,,,,,,,,,,,,,,,,,,,,,,,,,,,,,,,,,,,63,158200,20,Female,1,2024/02/16_14:19:09,YZ,None,
,,,,,,calibration,0,6,2,788,9,V,0,left,nan,0,1,,,,,,,,,,,,,,,,,,,,,1,,,,,,,,,,,,,,,,,,,,,,,,,,,,,,,,,,,,,,,,,,,,,,63,158200,20,Female,1,2024/02/16_14:19:09,YZ,None,
,,,,,,calibration,0,6,2,788,10,Q,0,left,nan,0,1,,,,,,,,,,,,,,,,,,,,,1,,,,,,,,,,,,,,,,,,,,,,,,,,,,,,,,,,,,,,,,,,,,,,63,158200,20,Female,1,2024/02/16_14:19:09,YZ,None,
,,,,,,calibration,0,6,2,788,11,X,0,left,nan,0,1,,,,,,,,,,,,,,,,,,,,,1,,,,,,,,,,,,,,,,,,,,,,,,,,,,,,,,,,,,,,,,,,,,,,63,158200,20,Female,1,2024/02/16_14:19:09,YZ,None,
,,,,,,calibration,0,6,2,788,12,Q,1,left,nan,0,1,,,,,,,,,,,,,,,,,,,,,1,,,,,,,,,,,,,,,,,,,,,,,,,,,,,,,,,,,,,,,,,,,,,,63,158200,20,Female,1,2024/02/16_14:19:09,YZ,None,
,,,,,,calibration,0,6,2,788,13,C,0,left,nan,0,1,,,,,,,,,,,,,,,,,,,,,1,,,,,,,,,,,,,,,,,,,,,,,,,,,,,,,,,,,,,,,,,,,,,,63,158200,20,Female,1,2024/02/16_14:19:09,YZ,None,
,,,,,,calibration,0,6,2,788,,,,,,,,0.2222222222222222,0.0,0.1111111111111111,0.0,0.8461538461538461,0.042735042735042694,0.65788459200121,0,1,3,8,11,0,0,4,9,0,,,,1,,,,,,,,,,,,,,,,,,,,,,,,,,,,,,,,,,,,,,,,,,,,,,63,158200,20,Female,1,2024/02/16_14:19:09,YZ,None,
,,,,,,Calibration,0,,2,788,,,,,,,,,,,,,,,,,,,,,,,,,6,,,1,,,,,,,,,,,,,,,,,,,,,,,,,,,,,,,,,,,,,,,,,,,,,,63,158200,20,Female,1,2024/02/16_14:19:09,YZ,None,
,,,,,,calibration,0,8,2,917,1,Q,0,None,nan,0,1,,,,,,,,,,,,,,,,,,,,,1,,,,,,,,,,,,,,,,,,,,,,,,,,,,,,,,,,,,,,,,,,,,,,63,158200,20,Female,1,2024/02/16_14:19:09,YZ,None,
,,,,,,calibration,0,8,2,917,2,V,0,right,0.6023160069889855,1,0,,,,,,,,,,,,,,,,,,,,,1,,,,,,,,,,,,,,,,,,,,,,,,,,,,,,,,,,,,,,,,,,,,,,63,158200,20,Female,1,2024/02/16_14:19:09,YZ,None,
,,,,,,calibration,0,8,2,917,3,Q,1,right,0.6924541750049684,0,0,,,,,,,,,,,,,,,,,,,,,1,,,,,,,,,,,,,,,,,,,,,,,,,,,,,,,,,,,,,,,,,,,,,,63,158200,20,Female,1,2024/02/16_14:19:09,YZ,None,
,,,,,,calibration,0,8,2,917,4,X,0,right,0.08335266000358388,1,0,,,,,,,,,,,,,,,,,,,,,1,,,,,,,,,,,,,,,,,,,,,,,,,,,,,,,,,,,,,,,,,,,,,,63,158200,20,Female,1,2024/02/16_14:19:09,YZ,None,
,,,,,,calibration,0,8,2,917,5,F,0,left,0.31180100300116464,0,0,,,,,,,,,,,,,,,,,,,,,1,,,,,,,,,,,,,,,,,,,,,,,,,,,,,,,,,,,,,,,,,,,,,,63,158200,20,Female,1,2024/02/16_14:19:09,YZ,None,
,,,,,,calibration,0,8,2,917,6,N,0,left,nan,0,1,,,,,,,,,,,,,,,,,,,,,1,,,,,,,,,,,,,,,,,,,,,,,,,,,,,,,,,,,,,,,,,,,,,,63,158200,20,Female,1,2024/02/16_14:19:09,YZ,None,
,,,,,,calibration,0,8,2,917,7,F,1,left,nan,0,1,,,,,,,,,,,,,,,,,,,,,1,,,,,,,,,,,,,,,,,,,,,,,,,,,,,,,,,,,,,,,,,,,,,,63,158200,20,Female,1,2024/02/16_14:19:09,YZ,None,
,,,,,,calibration,0,8,2,917,8,S,0,left,nan,0,1,,,,,,,,,,,,,,,,,,,,,1,,,,,,,,,,,,,,,,,,,,,,,,,,,,,,,,,,,,,,,,,,,,,,63,158200,20,Female,1,2024/02/16_14:19:09,YZ,None,
,,,,,,calibration,0,8,2,917,9,F,1,left,0.8241326700081117,1,0,,,,,,,,,,,,,,,,,,,,,1,,,,,,,,,,,,,,,,,,,,,,,,,,,,,,,,,,,,,,,,,,,,,,63,158200,20,Female,1,2024/02/16_14:19:09,YZ,None,
,,,,,,calibration,0,8,2,917,10,S,1,left,nan,0,1,,,,,,,,,,,,,,,,,,,,,1,,,,,,,,,,,,,,,,,,,,,,,,,,,,,,,,,,,,,,,,,,,,,,63,158200,20,Female,1,2024/02/16_14:19:09,YZ,None,
,,,,,,calibration,0,8,2,917,11,Q,0,left,nan,0,1,,,,,,,,,,,,,,,,,,,,,1,,,,,,,,,,,,,,,,,,,,,,,,,,,,,,,,,,,,,,,,,,,,,,63,158200,20,Female,1,2024/02/16_14:19:09,YZ,None,
,,,,,,calibration,0,8,2,917,12,N,0,left,nan,0,1,,,,,,,,,,,,,,,,,,,,,1,,,,,,,,,,,,,,,,,,,,,,,,,,,,,,,,,,,,,,,,,,,,,,63,158200,20,Female,1,2024/02/16_14:19:09,YZ,None,
,,,,,,calibration,0,8,2,917,,,,,,,,0.65625,0.25,0.125,0.6666666666666666,0.5833333333333334,0.29166666666666663,0.5028113030013628,1,1,2,5,7,2,3,4,8,0,,,,1,,,,,,,,,,,,,,,,,,,,,,,,,,,,,,,,,,,,,,,,,,,,,,63,158200,20,Female,1,2024/02/16_14:19:09,YZ,None,
,,,,,,Calibration,0,,2,917,,,,,,,,,,,,,,,,,,,,,,,,,7,,,1,,,,,,,,,,,,,,,,,,,,,,,,,,,,,,,,,,,,,,,,,,,,,,63,158200,20,Female,1,2024/02/16_14:19:09,YZ,None,
,,,,,,calibration,0,6,2,1068,1,X,0,None,nan,0,1,,,,,,,,,,,,,,,,,,,,,1,,,,,,,,,,,,,,,,,,,,,,,,,,,,,,,,,,,,,,,,,,,,,,63,158200,20,Female,1,2024/02/16_14:19:09,YZ,None,
,,,,,,calibration,0,6,2,1068,2,Q,0,None,nan,0,1,,,,,,,,,,,,,,,,,,,,,1,,,,,,,,,,,,,,,,,,,,,,,,,,,,,,,,,,,,,,,,,,,,,,63,158200,20,Female,1,2024/02/16_14:19:09,YZ,None,
,,,,,,calibration,0,6,2,1068,3,X,1,left,0.42208556599507574,1,0,,,,,,,,,,,,,,,,,,,,,1,,,,,,,,,,,,,,,,,,,,,,,,,,,,,,,,,,,,,,,,,,,,,,63,158200,20,Female,1,2024/02/16_14:19:09,YZ,None,
,,,,,,calibration,0,6,2,1068,4,F,0,left,nan,0,1,,,,,,,,,,,,,,,,,,,,,1,,,,,,,,,,,,,,,,,,,,,,,,,,,,,,,,,,,,,,,,,,,,,,63,158200,20,Female,1,2024/02/16_14:19:09,YZ,None,
,,,,,,calibration,0,6,2,1068,5,C,0,left,nan,0,1,,,,,,,,,,,,,,,,,,,,,1,,,,,,,,,,,,,,,,,,,,,,,,,,,,,,,,,,,,,,,,,,,,,,63,158200,20,Female,1,2024/02/16_14:19:09,YZ,None,
,,,,,,calibration,0,6,2,1068,6,S,0,left,nan,0,1,,,,,,,,,,,,,,,,,,,,,1,,,,,,,,,,,,,,,,,,,,,,,,,,,,,,,,,,,,,,,,,,,,,,63,158200,20,Female,1,2024/02/16_14:19:09,YZ,None,
,,,,,,calibration,0,6,2,1068,7,Q,0,left,nan,0,1,,,,,,,,,,,,,,,,,,,,,1,,,,,,,,,,,,,,,,,,,,,,,,,,,,,,,,,,,,,,,,,,,,,,63,158200,20,Female,1,2024/02/16_14:19:09,YZ,None,
,,,,,,calibration,0,6,2,1068,8,N,0,left,nan,0,1,,,,,,,,,,,,,,,,,,,,,1,,,,,,,,,,,,,,,,,,,,,,,,,,,,,,,,,,,,,,,,,,,,,,63,158200,20,Female,1,2024/02/16_14:19:09,YZ,None,
,,,,,,calibration,0,6,2,1068,9,Q,1,left,0.30732137900486123,1,0,,,,,,,,,,,,,,,,,,,,,1,,,,,,,,,,,,,,,,,,,,,,,,,,,,,,,,,,,,,,,,,,,,,,63,158200,20,Female,1,2024/02/16_14:19:09,YZ,None,
,,,,,,calibration,0,6,2,1068,10,N,1,left,nan,0,1,,,,,,,,,,,,,,,,,,,,,1,,,,,,,,,,,,,,,,,,,,,,,,,,,,,,,,,,,,,,,,,,,,,,63,158200,20,Female,1,2024/02/16_14:19:09,YZ,None,
,,,,,,calibration,0,6,2,1068,11,C,0,left,nan,0,1,,,,,,,,,,,,,,,,,,,,,1,,,,,,,,,,,,,,,,,,,,,,,,,,,,,,,,,,,,,,,,,,,,,,63,158200,20,Female,1,2024/02/16_14:19:09,YZ,None,
,,,,,,calibration,0,6,2,1068,,,,,,,,nan,0.6666666666666666,nan,nan,0.8181818181818182,nan,0.3647034724999685,2,0,1,8,9,0,2,3,8,0,,,,1,,,,,,,,,,,,,,,,,,,,,,,,,,,,,,,,,,,,,,,,,,,,,,63,158200,20,Female,1,2024/02/16_14:19:09,YZ,None,
,,,,,,Calibration,0,,2,1068,,,,,,,,,,,,,,,,,,,,,,,,,8,,,1,,,,,,,,,,,,,,,,,,,,,,,,,,,,,,,,,,,,,,,,,,,,,,63,158200,20,Female,1,2024/02/16_14:19:09,YZ,None,
,,,,,,calibration,0,17,2,1068,1,V,0,left,0.7286484910000581,0,0,,,,,,,,,,,,,,,,,,,,,1,,,,,,,,,,,,,,,,,,,,,,,,,,,,,,,,,,,,,,,,,,,,,,63,158200,20,Female,1,2024/02/16_14:19:09,YZ,None,
,,,,,,calibration,0,17,2,1068,2,S,0,right,0.33354794600745663,1,0,,,,,,,,,,,,,,,,,,,,,1,,,,,,,,,,,,,,,,,,,,,,,,,,,,,,,,,,,,,,,,,,,,,,63,158200,20,Female,1,2024/02/16_14:19:09,YZ,None,
,,,,,,calibration,0,17,2,1068,3,N,0,left,0.6252625360066304,0,0,,,,,,,,,,,,,,,,,,,,,1,,,,,,,,,,,,,,,,,,,,,,,,,,,,,,,,,,,,,,,,,,,,,,63,158200,20,Female,1,2024/02/16_14:19:09,YZ,None,
,,,,,,calibration,0,17,2,1068,4,S,1,right,0.3252172830107156,0,0,,,,,,,,,,,,,,,,,,,,,1,,,,,,,,,,,,,,,,,,,,,,,,,,,,,,,,,,,,,,,,,,,,,,63,158200,20,Female,1,2024/02/16_14:19:09,YZ,None,
,,,,,,calibration,0,17,2,1068,5,N,1,left,0.27626353499363177,1,0,,,,,,,,,,,,,,,,,,,,,1,,,,,,,,,,,,,,,,,,,,,,,,,,,,,,,,,,,,,,,,,,,,,,63,158200,20,Female,1,2024/02/16_14:19:09,YZ,None,
,,,,,,calibration,0,17,2,1068,6,Q,0,right,1.2148843229952035,1,0,,,,,,,,,,,,,,,,,,,,,1,,,,,,,,,,,,,,,,,,,,,,,,,,,,,,,,,,,,,,,,,,,,,,63,158200,20,Female,1,2024/02/16_14:19:09,YZ,None,
,,,,,,calibration,0,17,2,1068,7,N,1,left,0.7735467460006475,1,0,,,,,,,,,,,,,,,,,,,,,1,,,,,,,,,,,,,,,,,,,,,,,,,,,,,,,,,,,,,,,,,,,,,,63,158200,20,Female,1,2024/02/16_14:19:09,YZ,None,
,,,,,,calibration,0,17,2,1068,8,X,0,right,0.5560460419947049,1,0,,,,,,,,,,,,,,,,,,,,,1,,,,,,,,,,,,,,,,,,,,,,,,,,,,,,,,,,,,,,,,,,,,,,63,158200,20,Female,1,2024/02/16_14:19:09,YZ,None,
,,,,,,calibration,0,17,2,1068,9,C,0,right,0.557553303995519,1,0,,,,,,,,,,,,,,,,,,,,,1,,,,,,,,,,,,,,,,,,,,,,,,,,,,,,,,,,,,,,,,,,,,,,63,158200,20,Female,1,2024/02/16_14:19:09,YZ,None,
,,,,,,calibration,0,17,2,1068,10,Q,0,right,nan,0,1,,,,,,,,,,,,,,,,,,,,,1,,,,,,,,,,,,,,,,,,,,,,,,,,,,,,,,,,,,,,,,,,,,,,63,158200,20,Female,1,2024/02/16_14:19:09,YZ,None,
,,,,,,calibration,0,17,2,1068,11,X,0,right,nan,0,1,,,,,,,,,,,,,,,,,,,,,1,,,,,,,,,,,,,,,,,,,,,,,,,,,,,,,,,,,,,,,,,,,,,,63,158200,20,Female,1,2024/02/16_14:19:09,YZ,None,
,,,,,,calibration,0,17,2,1068,,,,,,,,0.7708333333333333,0.6666666666666666,0.25,0.6666666666666666,0.18181818181818182,0.5681818181818181,0.598996689556063,2,2,0,2,2,4,6,3,8,0,,,,1,,,,,,,,,,,,,,,,,,,,,,,,,,,,,,,,,,,,,,,,,,,,,,63,158200,20,Female,1,2024/02/16_14:19:09,YZ,None,
,,,,,,Calibration,0,,2,1068,,,,,,,,,,,,,,,,,,,,,,,,,9,,,1,,,,,,,,,,,,,,,,,,,,,,,,,,,,,,,,,,,,,,,,,,,,,,63,158200,20,Female,1,2024/02/16_14:19:09,YZ,None,
,,,,,,calibration,0,3,2,1068,1,J,0,None,nan,0,1,,,,,,,,,,,,,,,,,,,,,1,,,,,,,,,,,,,,,,,,,,,,,,,,,,,,,,,,,,,,,,,,,,,,63,158200,20,Female,1,2024/02/16_14:19:09,YZ,None,
,,,,,,calibration,0,3,2,1068,2,F,0,None,nan,0,1,,,,,,,,,,,,,,,,,,,,,1,,,,,,,,,,,,,,,,,,,,,,,,,,,,,,,,,,,,,,,,,,,,,,63,158200,20,Female,1,2024/02/16_14:19:09,YZ,None,
,,,,,,calibration,0,3,2,1068,3,S,0,right,1.0152126840112032,1,0,,,,,,,,,,,,,,,,,,,,,1,,,,,,,,,,,,,,,,,,,,,,,,,,,,,,,,,,,,,,,,,,,,,,63,158200,20,Female,1,2024/02/16_14:19:09,YZ,None,
,,,,,,calibration,0,3,2,1068,4,Q,0,right,0.657795137987705,1,0,,,,,,,,,,,,,,,,,,,,,1,,,,,,,,,,,,,,,,,,,,,,,,,,,,,,,,,,,,,,,,,,,,,,63,158200,20,Female,1,2024/02/16_14:19:09,YZ,None,
,,,,,,calibration,0,3,2,1068,5,X,0,left,1.0765762890077895,0,0,,,,,,,,,,,,,,,,,,,,,1,,,,,,,,,,,,,,,,,,,,,,,,,,,,,,,,,,,,,,,,,,,,,,63,158200,20,Female,1,2024/02/16_14:19:09,YZ,None,
,,,,,,calibration,0,3,2,1068,6,Q,1,right,0.5903176639985759,0,0,,,,,,,,,,,,,,,,,,,,,1,,,,,,,,,,,,,,,,,,,,,,,,,,,,,,,,,,,,,,,,,,,,,,63,158200,20,Female,1,2024/02/16_14:19:09,YZ,None,
,,,,,,calibration,0,3,2,1068,7,V,0,left,0.5473071089945734,0,0,,,,,,,,,,,,,,,,,,,,,1,,,,,,,,,,,,,,,,,,,,,,,,,,,,,,,,,,,,,,,,,,,,,,63,158200,20,Female,1,2024/02/16_14:19:09,YZ,None,
,,,,,,calibration,0,3,2,1068,8,Q,1,left,1.0743411029980052,1,0,,,,,,,,,,,,,,,,,,,,,1,,,,,,,,,,,,,,,,,,,,,,,,,,,,,,,,,,,,,,,,,,,,,,63,158200,20,Female,1,2024/02/16_14:19:09,YZ,None,
,,,,,,calibration,0,3,2,1068,9,C,0,right,1.1408380820066668,1,0,,,,,,,,,,,,,,,,,,,,,1,,,,,,,,,,,,,,,,,,,,,,,,,,,,,,,,,,,,,,,,,,,,,,63,158200,20,Female,1,2024/02/16_14:19:09,YZ,None,
,,,,,,calibration,0,3,2,1068,10,Q,1,left,0.5734833659953438,1,0,,,,,,,,,,,,,,,,,,,,,1,,,,,,,,,,,,,,,,,,,,,,,,,,,,,,,,,,,,,,,,,,,,,,63,158200,20,Female,1,2024/02/16_14:19:09,YZ,None,
,,,,,,calibration,0,3,2,1068,11,X,0,right,1.0869430799939437,1,0,,,,,,,,,,,,,,,,,,,,,1,,,,,,,,,,,,,,,,,,,,,,,,,,,,,,,,,,,,,,,,,,,,,,63,158200,20,Female,1,2024/02/16_14:19:09,YZ,None,
,,,,,,calibration,0,3,2,1068,,,,,,,,0.7708333333333333,0.6666666666666666,0.25,0.6666666666666666,0.18181818181818182,0.5681818181818181,0.8625349461104229,2,2,0,2,2,4,6,3,8,0,,,,1,,,,,,,,,,,,,,,,,,,,,,,,,,,,,,,,,,,,,,,,,,,,,,63,158200,20,Female,1,2024/02/16_14:19:09,YZ,None,
,,,,,,Calibration,0,,2,1068,,,,,,,,,,,,,,,,,,,,,,,,,10,,,1,,,,,,,,,,,,,,,,,,,,,,,,,,,,,,,,,,,,,,,,,,,,,,63,158200,20,Female,1,2024/02/16_14:19:09,YZ,None,
,,,,,,calibration,0,9,2,1068,1,S,0,left,0.5004992150061298,0,0,,,,,,,,,,,,,,,,,,,,,1,,,,,,,,,,,,,,,,,,,,,,,,,,,,,,,,,,,,,,,,,,,,,,63,158200,20,Female,1,2024/02/16_14:19:09,YZ,None,
,,,,,,calibration,0,9,2,1068,2,Q,0,left,0.7960380369913764,0,0,,,,,,,,,,,,,,,,,,,,,1,,,,,,,,,,,,,,,,,,,,,,,,,,,,,,,,,,,,,,,,,,,,,,63,158200,20,Female,1,2024/02/16_14:19:09,YZ,None,
,,,,,,calibration,0,9,2,1068,3,X,0,left,nan,0,1,,,,,,,,,,,,,,,,,,,,,1,,,,,,,,,,,,,,,,,,,,,,,,,,,,,,,,,,,,,,,,,,,,,,63,158200,20,Female,1,2024/02/16_14:19:09,YZ,None,
,,,,,,calibration,0,9,2,1068,4,V,0,right,0.8149076160043478,1,0,,,,,,,,,,,,,,,,,,,,,1,,,,,,,,,,,,,,,,,,,,,,,,,,,,,,,,,,,,,,,,,,,,,,63,158200,20,Female,1,2024/02/16_14:19:09,YZ,None,
,,,,,,calibration,0,9,2,1068,5,Q,0,right,0.32656966500508133,1,0,,,,,,,,,,,,,,,,,,,,,1,,,,,,,,,,,,,,,,,,,,,,,,,,,,,,,,,,,,,,,,,,,,,,63,158200,20,Female,1,2024/02/16_14:19:09,YZ,None,
,,,,,,calibration,0,9,2,1068,6,X,0,right,0.6480461549945176,1,0,,,,,,,,,,,,,,,,,,,,,1,,,,,,,,,,,,,,,,,,,,,,,,,,,,,,,,,,,,,,,,,,,,,,63,158200,20,Female,1,2024/02/16_14:19:09,YZ,None,
,,,,,,calibration,0,9,2,1068,7,Q,1,right,0.2284103359997971,0,0,,,,,,,,,,,,,,,,,,,,,1,,,,,,,,,,,,,,,,,,,,,,,,,,,,,,,,,,,,,,,,,,,,,,63,158200,20,Female,1,2024/02/16_14:19:09,YZ,None,
,,,,,,calibration,0,9,2,1068,8,V,0,right,0.5469863870093832,1,0,,,,,,,,,,,,,,,,,,,,,1,,,,,,,,,,,,,,,,,,,,,,,,,,,,,,,,,,,,,,,,,,,,,,63,158200,20,Female,1,2024/02/16_14:19:09,YZ,None,
,,,,,,calibration,0,9,2,1068,9,Q,1,right,1.0587662430043565,0,0,,,,,,,,,,,,,,,,,,,,,1,,,,,,,,,,,,,,,,,,,,,,,,,,,,,,,,,,,,,,,,,,,,,,63,158200,20,Female,1,2024/02/16_14:19:09,YZ,None,
,,,,,,calibration,0,9,2,1068,10,X,0,right,0.5689673620072426,1,0,,,,,,,,,,,,,,,,,,,,,1,,,,,,,,,,,,,,,,,,,,,,,,,,,,,,,,,,,,,,,,,,,,,,63,158200,20,Female,1,2024/02/16_14:19:09,YZ,None,
,,,,,,calibration,0,9,2,1068,11,Q,1,left,0.7018950210040202,1,0,,,,,,,,,,,,,,,,,,,,,1,,,,,,,,,,,,,,,,,,,,,,,,,,,,,,,,,,,,,,,,,,,,,,63,158200,20,Female,1,2024/02/16_14:19:09,YZ,None,
,,,,,,calibration,0,9,2,1068,,,,,,,,0.5833333333333334,0.3333333333333333,0.25,0.7142857142857143,0.09090909090909091,0.6590909090909091,0.6191086037026252,1,2,0,1,1,5,6,3,8,0,,,,1,,,,,,,,,,,,,,,,,,,,,,,,,,,,,,,,,,,,,,,,,,,,,,63,158200,20,Female,1,2024/02/16_14:19:09,YZ,None,
,,,,,,Calibration,0,,2,1068,,,,,,,,,,,,,,,,,,,,,,,,,11,,,1,,,,,,,,,,,,,,,,,,,,,,,,,,,,,,,,,,,,,,,,,,,,,,63,158200,20,Female,1,2024/02/16_14:19:09,YZ,None,
,,,,,,calibration,0,36,2,1250,1,N,0,right,0.9265133629960474,1,0,,,,,,,,,,,,,,,,,,,,,1,,,,,,,,,,,,,,,,,,,,,,,,,,,,,,,,,,,,,,,,,,,,,,63,158200,20,Female,1,2024/02/16_14:19:09,YZ,None,
,,,,,,calibration,0,36,2,1250,2,N,0,left,0.6188114940014202,0,0,,,,,,,,,,,,,,,,,,,,,1,,,,,,,,,,,,,,,,,,,,,,,,,,,,,,,,,,,,,,,,,,,,,,63,158200,20,Female,1,2024/02/16_14:19:09,YZ,None,
,,,,,,calibration,0,36,2,1250,3,N,1,left,0.44611170099233277,1,0,,,,,,,,,,,,,,,,,,,,,1,,,,,,,,,,,,,,,,,,,,,,,,,,,,,,,,,,,,,,,,,,,,,,63,158200,20,Female,1,2024/02/16_14:19:09,YZ,None,
,,,,,,calibration,0,36,2,1250,4,V,0,right,0.6066540449974127,1,0,,,,,,,,,,,,,,,,,,,,,1,,,,,,,,,,,,,,,,,,,,,,,,,,,,,,,,,,,,,,,,,,,,,,63,158200,20,Female,1,2024/02/16_14:19:09,YZ,None,
,,,,,,calibration,0,36,2,1250,5,S,0,right,0.22560091699415352,1,0,,,,,,,,,,,,,,,,,,,,,1,,,,,,,,,,,,,,,,,,,,,,,,,,,,,,,,,,,,,,,,,,,,,,63,158200,20,Female,1,2024/02/16_14:19:09,YZ,None,
,,,,,,calibration,0,36,2,1250,6,V,1,right,0.323717121995287,0,0,,,,,,,,,,,,,,,,,,,,,1,,,,,,,,,,,,,,,,,,,,,,,,,,,,,,,,,,,,,,,,,,,,,,63,158200,20,Female,1,2024/02/16_14:19:09,YZ,None,
,,,,,,calibration,0,36,2,1250,7,J,0,left,0.547183030997985,0,0,,,,,,,,,,,,,,,,,,,,,1,,,,,,,,,,,,,,,,,,,,,,,,,,,,,,,,,,,,,,,,,,,,,,63,158200,20,Female,1,2024/02/16_14:19:09,YZ,None,
,,,,,,calibration,0,36,2,1250,8,V,1,right,0.30035163499997,0,0,,,,,,,,,,,,,,,,,,,,,1,,,,,,,,,,,,,,,,,,,,,,,,,,,,,,,,,,,,,,,,,,,,,,63,158200,20,Female,1,2024/02/16_14:19:09,YZ,None,
,,,,,,calibration,0,36,2,1250,9,N,0,right,0.7291123690083623,1,0,,,,,,,,,,,,,,,,,,,,,1,,,,,,,,,,,,,,,,,,,,,,,,,,,,,,,,,,,,,,,,,,,,,,63,158200,20,Female,1,2024/02/16_14:19:09,YZ,None,
,,,,,,calibration,0,36,2,1250,10,J,0,left,0.6013473789935233,0,0,,,,,,,,,,,,,,,,,,,,,1,,,,,,,,,,,,,,,,,,,,,,,,,,,,,,,,,,,,,,,,,,,,,,63,158200,20,Female,1,2024/02/16_14:19:09,YZ,None,
,,,,,,calibration,0,36,2,1250,,,,,,,,0.031746031746031744,0.3333333333333333,0.42857142857142855,0.5714285714285714,0.0,0.5714285714285714,0.5325403055976494,1,3,0,0,0,4,5,3,7,0,,,,1,,,,,,,,,,,,,,,,,,,,,,,,,,,,,,,,,,,,,,,,,,,,,,63,158200,20,Female,1,2024/02/16_14:19:09,YZ,None,
,,,,,,Calibration,0,,2,1250,,,,,,,,,,,,,,,,,,,,,,,,,12,,,1,,,,,,,,,,,,,,,,,,,,,,,,,,,,,,,,,,,,,,,,,,,,,,63,158200,20,Female,1,2024/02/16_14:19:09,YZ,None,
,,,,,,calibration,0,12,2,1472,1,Q,0,right,1.2917746629973408,1,0,,,,,,,,,,,,,,,,,,,,,1,,,,,,,,,,,,,,,,,,,,,,,,,,,,,,,,,,,,,,,,,,,,,,63,158200,20,Female,1,2024/02/16_14:19:09,YZ,None,
,,,,,,calibration,0,12,2,1472,2,J,0,right,1.059038021005108,1,0,,,,,,,,,,,,,,,,,,,,,1,,,,,,,,,,,,,,,,,,,,,,,,,,,,,,,,,,,,,,,,,,,,,,63,158200,20,Female,1,2024/02/16_14:19:09,YZ,None,
,,,,,,calibration,0,12,2,1472,3,V,0,right,1.3743561610026518,1,0,,,,,,,,,,,,,,,,,,,,,1,,,,,,,,,,,,,,,,,,,,,,,,,,,,,,,,,,,,,,,,,,,,,,63,158200,20,Female,1,2024/02/16_14:19:09,YZ,None,
,,,,,,calibration,0,12,2,1472,4,J,1,right,0.5798407510010293,0,0,,,,,,,,,,,,,,,,,,,,,1,,,,,,,,,,,,,,,,,,,,,,,,,,,,,,,,,,,,,,,,,,,,,,63,158200,20,Female,1,2024/02/16_14:19:09,YZ,None,
,,,,,,calibration,0,12,2,1472,5,Q,0,left,1.697733421009616,0,0,,,,,,,,,,,,,,,,,,,,,1,,,,,,,,,,,,,,,,,,,,,,,,,,,,,,,,,,,,,,,,,,,,,,63,158200,20,Female,1,2024/02/16_14:19:09,YZ,None,
,,,,,,calibration,0,12,2,1472,6,J,1,right,0.7067191179958172,0,0,,,,,,,,,,,,,,,,,,,,,1,,,,,,,,,,,,,,,,,,,,,,,,,,,,,,,,,,,,,,,,,,,,,,63,158200,20,Female,1,2024/02/16_14:19:09,YZ,None,
,,,,,,calibration,0,12,2,1472,7,Q,1,right,0.9896231970051304,0,0,,,,,,,,,,,,,,,,,,,,,1,,,,,,,,,,,,,,,,,,,,,,,,,,,,,,,,,,,,,,,,,,,,,,63,158200,20,Female,1,2024/02/16_14:19:09,YZ,None,
,,,,,,calibration,0,12,2,1472,8,V,0,right,0.7586185910040513,1,0,,,,,,,,,,,,,,,,,,,,,1,,,,,,,,,,,,,,,,,,,,,,,,,,,,,,,,,,,,,,,,,,,,,,63,158200,20,Female,1,2024/02/16_14:19:09,YZ,None,
,,,,,,calibration,0,12,2,1472,9,F,0,left,0.21231059399724472,0,0,,,,,,,,,,,,,,,,,,,,,1,,,,,,,,,,,,,,,,,,,,,,,,,,,,,,,,,,,,,,,,,,,,,,63,158200,20,Female,1,2024/02/16_14:19:09,YZ,None,
,,,,,,calibration,0,12,2,1472,,,,,,,,0.16666666666666669,0.0,0.3333333333333333,0.6666666666666666,0.0,0.6666666666666667,0.9633349463353321,0,2,0,0,0,4,4,3,6,0,,,,1,,,,,,,,,,,,,,,,,,,,,,,,,,,,,,,,,,,,,,,,,,,,,,63,158200,20,Female,1,2024/02/16_14:19:09,YZ,None,
,,,,,,Calibration,0,,2,1472,,,,,,,,,,,,,,,,,,,,,,,,,13,,,1,,,,,,,,,,,,,,,,,,,,,,,,,,,,,,,,,,,,,,,,,,,,,,63,158200,20,Female,1,2024/02/16_14:19:09,YZ,None,
,,,,,,calibration,0,32,2,1750,1,N,0,right,0.8077963380055735,1,0,,,,,,,,,,,,,,,,,,,,,1,,,,,,,,,,,,,,,,,,,,,,,,,,,,,,,,,,,,,,,,,,,,,,63,158200,20,Female,1,2024/02/16_14:19:09,YZ,None,
,,,,,,calibration,0,32,2,1750,2,X,0,right,0.768365908996202,1,0,,,,,,,,,,,,,,,,,,,,,1,,,,,,,,,,,,,,,,,,,,,,,,,,,,,,,,,,,,,,,,,,,,,,63,158200,20,Female,1,2024/02/16_14:19:09,YZ,None,
,,,,,,calibration,0,32,2,1750,3,Q,0,right,0.5393035739980405,1,0,,,,,,,,,,,,,,,,,,,,,1,,,,,,,,,,,,,,,,,,,,,,,,,,,,,,,,,,,,,,,,,,,,,,63,158200,20,Female,1,2024/02/16_14:19:09,YZ,None,
,,,,,,calibration,0,32,2,1750,4,X,1,left,1.3271148749918211,1,0,,,,,,,,,,,,,,,,,,,,,1,,,,,,,,,,,,,,,,,,,,,,,,,,,,,,,,,,,,,,,,,,,,,,63,158200,20,Female,1,2024/02/16_14:19:09,YZ,None,
,,,,,,calibration,0,32,2,1750,5,Q,1,left,0.9581089239945868,1,0,,,,,,,,,,,,,,,,,,,,,1,,,,,,,,,,,,,,,,,,,,,,,,,,,,,,,,,,,,,,,,,,,,,,63,158200,20,Female,1,2024/02/16_14:19:09,YZ,None,
,,,,,,calibration,0,32,2,1750,6,N,0,right,1.0051975920068799,1,0,,,,,,,,,,,,,,,,,,,,,1,,,,,,,,,,,,,,,,,,,,,,,,,,,,,,,,,,,,,,,,,,,,,,63,158200,20,Female,1,2024/02/16_14:19:09,YZ,None,
,,,,,,calibration,0,32,2,1750,7,F,0,right,0.787336180001148,1,0,,,,,,,,,,,,,,,,,,,,,1,,,,,,,,,,,,,,,,,,,,,,,,,,,,,,,,,,,,,,,,,,,,,,63,158200,20,Female,1,2024/02/16_14:19:09,YZ,None,
,,,,,,calibration,0,32,2,1750,8,Q,0,left,1.1965057249908568,0,0,,,,,,,,,,,,,,,,,,,,,1,,,,,,,,,,,,,,,,,,,,,,,,,,,,,,,,,,,,,,,,,,,,,,63,158200,20,Female,1,2024/02/16_14:19:09,YZ,None,
,,,,,,calibration,0,32,2,1750,,,,,,,,0.9583333333333334,1.0,0.16666666666666666,0.8333333333333334,0.0,0.8333333333333334,0.9237161396231386,2,1,0,0,0,5,7,2,6,0,,,,1,,,,,,,,,,,,,,,,,,,,,,,,,,,,,,,,,,,,,,,,,,,,,,63,158200,20,Female,1,2024/02/16_14:19:09,YZ,None,
,,,,,,Calibration,0,,2,1750,,,,,,,,,,,,,,,,,,,,,,,,,14,,,1,,,,,,,,,,,,,,,,,,,,,,,,,,,,,,,,,,,,,,,,,,,,,,63,158200,20,Female,1,2024/02/16_14:19:09,YZ,None,
,,,,,,calibration,0,35,2,1472,1,Q,0,left,1.0201734370057238,0,0,,,,,,,,,,,,,,,,,,,,,1,,,,,,,,,,,,,,,,,,,,,,,,,,,,,,,,,,,,,,,,,,,,,,63,158200,20,Female,1,2024/02/16_14:19:09,YZ,None,
,,,,,,calibration,0,35,2,1472,2,C,0,right,1.5645218980062054,1,0,,,,,,,,,,,,,,,,,,,,,1,,,,,,,,,,,,,,,,,,,,,,,,,,,,,,,,,,,,,,,,,,,,,,63,158200,20,Female,1,2024/02/16_14:19:09,YZ,None,
,,,,,,calibration,0,35,2,1472,3,S,0,right,0.7468815039901529,1,0,,,,,,,,,,,,,,,,,,,,,1,,,,,,,,,,,,,,,,,,,,,,,,,,,,,,,,,,,,,,,,,,,,,,63,158200,20,Female,1,2024/02/16_14:19:09,YZ,None,
,,,,,,calibration,0,35,2,1472,4,X,0,right,0.7813857209985144,1,0,,,,,,,,,,,,,,,,,,,,,1,,,,,,,,,,,,,,,,,,,,,,,,,,,,,,,,,,,,,,,,,,,,,,63,158200,20,Female,1,2024/02/16_14:19:09,YZ,None,
,,,,,,calibration,0,35,2,1472,5,S,1,right,0.818103458994301,0,0,,,,,,,,,,,,,,,,,,,,,1,,,,,,,,,,,,,,,,,,,,,,,,,,,,,,,,,,,,,,,,,,,,,,63,158200,20,Female,1,2024/02/16_14:19:09,YZ,None,
,,,,,,calibration,0,35,2,1472,6,N,0,right,0.7286794270039536,1,0,,,,,,,,,,,,,,,,,,,,,1,,,,,,,,,,,,,,,,,,,,,,,,,,,,,,,,,,,,,,,,,,,,,,63,158200,20,Female,1,2024/02/16_14:19:09,YZ,None,
,,,,,,calibration,0,35,2,1472,7,S,1,left,0.6904447580018314,1,0,,,,,,,,,,,,,,,,,,,,,1,,,,,,,,,,,,,,,,,,,,,,,,,,,,,,,,,,,,,,,,,,,,,,63,158200,20,Female,1,2024/02/16_14:19:09,YZ,None,
,,,,,,calibration,0,35,2,1472,8,V,0,right,0.6813662639906397,1,0,,,,,,,,,,,,,,,,,,,,,1,,,,,,,,,,,,,,,,,,,,,,,,,,,,,,,,,,,,,,,,,,,,,,63,158200,20,Female,1,2024/02/16_14:19:09,YZ,None,
,,,,,,calibration,0,35,2,1472,9,S,1,right,0.8579038460011361,0,0,,,,,,,,,,,,,,,,,,,,,1,,,,,,,,,,,,,,,,,,,,,,,,,,,,,,,,,,,,,,,,,,,,,,63,158200,20,Female,1,2024/02/16_14:19:09,YZ,None,
,,,,,,calibration,0,35,2,1472,,,,,,,,0.6666666666666666,0.3333333333333333,0.16666666666666666,0.8333333333333334,0.0,0.8333333333333334,0.8766067015547176,1,1,0,0,0,5,6,3,6,0,,,,1,,,,,,,,,,,,,,,,,,,,,,,,,,,,,,,,,,,,,,,,,,,,,,63,158200,20,Female,1,2024/02/16_14:19:09,YZ,None,
,,,,,,Calibration,0,,2,1472,,,,,,,,,,,,,,,,,,,,,,,,,15,,,1,,,,,,,,,,,,,,,,,,,,,,,,,,,,,,,,,,,,,,,,,,,,,,63,158200,20,Female,1,2024/02/16_14:19:09,YZ,None,
,,,,,,calibration,0,18,2,1750,1,Q,0,right,1.2000438279937953,1,0,,,,,,,,,,,,,,,,,,,,,1,,,,,,,,,,,,,,,,,,,,,,,,,,,,,,,,,,,,,,,,,,,,,,63,158200,20,Female,1,2024/02/16_14:19:09,YZ,None,
,,,,,,calibration,0,18,2,1750,2,S,0,right,0.7077264739928069,1,0,,,,,,,,,,,,,,,,,,,,,1,,,,,,,,,,,,,,,,,,,,,,,,,,,,,,,,,,,,,,,,,,,,,,63,158200,20,Female,1,2024/02/16_14:19:09,YZ,None,
,,,,,,calibration,0,18,2,1750,3,X,0,right,0.5594969609956024,1,0,,,,,,,,,,,,,,,,,,,,,1,,,,,,,,,,,,,,,,,,,,,,,,,,,,,,,,,,,,,,,,,,,,,,63,158200,20,Female,1,2024/02/16_14:19:09,YZ,None,
,,,,,,calibration,0,18,2,1750,4,N,0,right,0.7310636589973001,1,0,,,,,,,,,,,,,,,,,,,,,1,,,,,,,,,,,,,,,,,,,,,,,,,,,,,,,,,,,,,,,,,,,,,,63,158200,20,Female,1,2024/02/16_14:19:09,YZ,None,
,,,,,,calibration,0,18,2,1750,5,C,0,right,0.8418360540090362,1,0,,,,,,,,,,,,,,,,,,,,,1,,,,,,,,,,,,,,,,,,,,,,,,,,,,,,,,,,,,,,,,,,,,,,63,158200,20,Female,1,2024/02/16_14:19:09,YZ,None,
,,,,,,calibration,0,18,2,1750,6,S,0,left,0.626147895003669,0,0,,,,,,,,,,,,,,,,,,,,,1,,,,,,,,,,,,,,,,,,,,,,,,,,,,,,,,,,,,,,,,,,,,,,63,158200,20,Female,1,2024/02/16_14:19:09,YZ,None,
,,,,,,calibration,0,18,2,1750,7,C,1,right,0.4340051309991395,0,0,,,,,,,,,,,,,,,,,,,,,1,,,,,,,,,,,,,,,,,,,,,,,,,,,,,,,,,,,,,,,,,,,,,,63,158200,20,Female,1,2024/02/16_14:19:09,YZ,None,
,,,,,,calibration,0,18,2,1750,8,S,1,right,0.4702295199967921,0,0,,,,,,,,,,,,,,,,,,,,,1,,,,,,,,,,,,,,,,,,,,,,,,,,,,,,,,,,,,,,,,,,,,,,63,158200,20,Female,1,2024/02/16_14:19:09,YZ,None,
,,,,,,calibration,0,18,2,1750,,,,,,,,0.20833333333333334,0.0,0.16666666666666666,0.8333333333333334,0.0,0.8333333333333334,0.6963186902485177,0,1,0,0,0,5,5,2,6,0,,,,1,,,,,,,,,,,,,,,,,,,,,,,,,,,,,,,,,,,,,,,,,,,,,,63,158200,20,Female,1,2024/02/16_14:19:09,YZ,None,
,,,,,,Calibration,0,,2,1750,,,,,,,,,,,,,,,,,,,,,,,,,16,,,1,,,,,,,,,,,,,,,,,,,,,,,,,,,,,,,,,,,,,,,,,,,,,,63,158200,20,Female,1,2024/02/16_14:19:09,YZ,None,
,,,,,,calibration,0,31,2,2107,1,S,0,None,nan,0,1,,,,,,,,,,,,,,,,,,,,,1,,,,,,,,,,,,,,,,,,,,,,,,,,,,,,,,,,,,,,,,,,,,,,63,158200,20,Female,1,2024/02/16_14:19:09,YZ,None,
,,,,,,calibration,0,31,2,2107,2,S,0,None,nan,0,1,,,,,,,,,,,,,,,,,,,,,1,,,,,,,,,,,,,,,,,,,,,,,,,,,,,,,,,,,,,,,,,,,,,,63,158200,20,Female,1,2024/02/16_14:19:09,YZ,None,
,,,,,,calibration,0,31,2,2107,3,X,0,None,nan,0,1,,,,,,,,,,,,,,,,,,,,,1,,,,,,,,,,,,,,,,,,,,,,,,,,,,,,,,,,,,,,,,,,,,,,63,158200,20,Female,1,2024/02/16_14:19:09,YZ,None,
,,,,,,calibration,0,31,2,2107,4,S,1,None,nan,0,1,,,,,,,,,,,,,,,,,,,,,1,,,,,,,,,,,,,,,,,,,,,,,,,,,,,,,,,,,,,,,,,,,,,,63,158200,20,Female,1,2024/02/16_14:19:09,YZ,None,
,,,,,,calibration,0,31,2,2107,5,J,0,right,0.29205831899889745,1,0,,,,,,,,,,,,,,,,,,,,,1,,,,,,,,,,,,,,,,,,,,,,,,,,,,,,,,,,,,,,,,,,,,,,63,158200,20,Female,1,2024/02/16_14:19:09,YZ,None,
,,,,,,calibration,0,31,2,2107,6,X,0,right,nan,0,1,,,,,,,,,,,,,,,,,,,,,1,,,,,,,,,,,,,,,,,,,,,,,,,,,,,,,,,,,,,,,,,,,,,,63,158200,20,Female,1,2024/02/16_14:19:09,YZ,None,
,,,,,,calibration,0,31,2,2107,7,J,1,right,0.6084874030057108,0,0,,,,,,,,,,,,,,,,,,,,,1,,,,,,,,,,,,,,,,,,,,,,,,,,,,,,,,,,,,,,,,,,,,,,63,158200,20,Female,1,2024/02/16_14:19:09,YZ,None,
,,,,,,calibration,0,31,2,2107,,,,,,,,0.5,0.0,0.0,1.0,0.7142857142857143,0.2857142857142857,0.4502728610023041,0,0,1,4,5,1,1,2,5,0,,,,1,,,,,,,,,,,,,,,,,,,,,,,,,,,,,,,,,,,,,,,,,,,,,,63,158200,20,Female,1,2024/02/16_14:19:09,YZ,None,
,,,,,,Calibration,0,,2,2107,,,,,,,,,,,,,,,,,,,,,,,,,17,,,1,,,,,,,,,,,,,,,,,,,,,,,,,,,,,,,,,,,,,,,,,,,,,,63,158200,20,Female,1,2024/02/16_14:19:09,YZ,None,
,,,,,,calibration,0,22,2,2583,1,F,0,right,1.0467352160048904,1,0,,,,,,,,,,,,,,,,,,,,,1,,,,,,,,,,,,,,,,,,,,,,,,,,,,,,,,,,,,,,,,,,,,,,63,158200,20,Female,1,2024/02/16_14:19:09,YZ,None,
,,,,,,calibration,0,22,2,2583,2,X,0,right,0.6576999860117212,1,0,,,,,,,,,,,,,,,,,,,,,1,,,,,,,,,,,,,,,,,,,,,,,,,,,,,,,,,,,,,,,,,,,,,,63,158200,20,Female,1,2024/02/16_14:19:09,YZ,None,
,,,,,,calibration,0,22,2,2583,3,Q,0,right,0.647920161994989,1,0,,,,,,,,,,,,,,,,,,,,,1,,,,,,,,,,,,,,,,,,,,,,,,,,,,,,,,,,,,,,,,,,,,,,63,158200,20,Female,1,2024/02/16_14:19:09,YZ,None,
,,,,,,calibration,0,22,2,2583,4,V,0,right,0.5127469680010108,1,0,,,,,,,,,,,,,,,,,,,,,1,,,,,,,,,,,,,,,,,,,,,,,,,,,,,,,,,,,,,,,,,,,,,,63,158200,20,Female,1,2024/02/16_14:19:09,YZ,None,
,,,,,,calibration,0,22,2,2583,5,Q,1,right,0.4497411960037425,0,0,,,,,,,,,,,,,,,,,,,,,1,,,,,,,,,,,,,,,,,,,,,,,,,,,,,,,,,,,,,,,,,,,,,,63,158200,20,Female,1,2024/02/16_14:19:09,YZ,None,
,,,,,,calibration,0,22,2,2583,6,V,1,right,0.5629820899921469,0,0,,,,,,,,,,,,,,,,,,,,,1,,,,,,,,,,,,,,,,,,,,,,,,,,,,,,,,,,,,,,,,,,,,,,63,158200,20,Female,1,2024/02/16_14:19:09,YZ,None,
,,,,,,calibration,0,22,2,2583,,,,,,,,0.5,0.0,0.0,1.0,0.0,1.0,0.6463042696680835,0,0,0,0,0,4,4,2,4,0,,,,1,,,,,,,,,,,,,,,,,,,,,,,,,,,,,,,,,,,,,,,,,,,,,,63,158200,20,Female,1,2024/02/16_14:19:09,YZ,None,
,,,,,,Calibration,0,,2,2583,,,,,,,,,,,,,,,,,,,,,,,,,18,,,1,,,,,,,,,,,,,,,,,,,,,,,,,,,,,,,,,,,,,,,,,,,,,,63,158200,20,Female,1,2024/02/16_14:19:09,YZ,None,
,,,,,,calibration,0,12,2,2583,1,F,0,right,1.0760952940036077,1,0,,,,,,,,,,,,,,,,,,,,,1,,,,,,,,,,,,,,,,,,,,,,,,,,,,,,,,,,,,,,,,,,,,,,63,158200,20,Female,1,2024/02/16_14:19:09,YZ,None,
,,,,,,calibration,0,12,2,2583,2,F,0,right,0.8096243070031051,1,0,,,,,,,,,,,,,,,,,,,,,1,,,,,,,,,,,,,,,,,,,,,,,,,,,,,,,,,,,,,,,,,,,,,,63,158200,20,Female,1,2024/02/16_14:19:09,YZ,None,
,,,,,,calibration,0,12,2,2583,3,C,0,left,0.5127087750006467,0,0,,,,,,,,,,,,,,,,,,,,,1,,,,,,,,,,,,,,,,,,,,,,,,,,,,,,,,,,,,,,,,,,,,,,63,158200,20,Female,1,2024/02/16_14:19:09,YZ,None,
,,,,,,calibration,0,12,2,2583,4,F,1,right,0.5000075749994721,0,0,,,,,,,,,,,,,,,,,,,,,1,,,,,,,,,,,,,,,,,,,,,,,,,,,,,,,,,,,,,,,,,,,,,,63,158200,20,Female,1,2024/02/16_14:19:09,YZ,None,
,,,,,,calibration,0,12,2,2583,5,C,1,left,1.248587399997632,1,0,,,,,,,,,,,,,,,,,,,,,1,,,,,,,,,,,,,,,,,,,,,,,,,,,,,,,,,,,,,,,,,,,,,,63,158200,20,Female,1,2024/02/16_14:19:09,YZ,None,
,,,,,,calibration,0,12,2,2583,6,V,0,right,0.6247458799916785,1,0,,,,,,,,,,,,,,,,,,,,,1,,,,,,,,,,,,,,,,,,,,,,,,,,,,,,,,,,,,,,,,,,,,,,63,158200,20,Female,1,2024/02/16_14:19:09,YZ,None,
,,,,,,calibration,0,12,2,2583,,,,,,,,0.6875,0.5,0.25,0.75,0.0,0.75,0.7952948718326903,1,1,0,0,0,3,4,2,4,0,,,,1,,,,,,,,,,,,,,,,,,,,,,,,,,,,,,,,,,,,,,,,,,,,,,63,158200,20,Female,1,2024/02/16_14:19:09,YZ,None,
,,,,,,Calibration,0,,2,2583,,,,,,,,,,,,,,,,,,,,,,,,,19,,,1,,,,,,,,,,,,,,,,,,,,,,,,,,,,,,,,,,,,,,,,,,,,,,63,158200,20,Female,1,2024/02/16_14:19:09,YZ,None,
,,,,,,calibration,0,7,2,2583,1,Q,0,right,1.3577152770012617,1,0,,,,,,,,,,,,,,,,,,,,,1,,,,,,,,,,,,,,,,,,,,,,,,,,,,,,,,,,,,,,,,,,,,,,63,158200,20,Female,1,2024/02/16_14:19:09,YZ,None,
,,,,,,calibration,0,7,2,2583,2,C,0,right,0.7328939069993794,1,0,,,,,,,,,,,,,,,,,,,,,1,,,,,,,,,,,,,,,,,,,,,,,,,,,,,,,,,,,,,,,,,,,,,,63,158200,20,Female,1,2024/02/16_14:19:09,YZ,None,
,,,,,,calibration,0,7,2,2583,3,S,0,right,0.6804680010100128,1,0,,,,,,,,,,,,,,,,,,,,,1,,,,,,,,,,,,,,,,,,,,,,,,,,,,,,,,,,,,,,,,,,,,,,63,158200,20,Female,1,2024/02/16_14:19:09,YZ,None,
,,,,,,calibration,0,7,2,2583,4,J,0,right,0.556976723994012,1,0,,,,,,,,,,,,,,,,,,,,,1,,,,,,,,,,,,,,,,,,,,,,,,,,,,,,,,,,,,,,,,,,,,,,63,158200,20,Female,1,2024/02/16_14:19:09,YZ,None,
,,,,,,calibration,0,7,2,2583,5,S,1,right,0.5297140939946985,0,0,,,,,,,,,,,,,,,,,,,,,1,,,,,,,,,,,,,,,,,,,,,,,,,,,,,,,,,,,,,,,,,,,,,,63,158200,20,Female,1,2024/02/16_14:19:09,YZ,None,
,,,,,,calibration,0,7,2,2583,6,J,1,right,0.690834815002745,0,0,,,,,,,,,,,,,,,,,,,,,1,,,,,,,,,,,,,,,,,,,,,,,,,,,,,,,,,,,,,,,,,,,,,,63,158200,20,Female,1,2024/02/16_14:19:09,YZ,None,
,,,,,,calibration,0,7,2,2583,,,,,,,,0.5,0.0,0.0,1.0,0.0,1.0,0.7581004696670183,0,0,0,0,0,4,4,2,4,0,,,,1,,,,,,,,,,,,,,,,,,,,,,,,,,,,,,,,,,,,,,,,,,,,,,63,158200,20,Female,1,2024/02/16_14:19:09,YZ,None,
,,,,,,Calibration,0,,2,2583,,,,,,,,,,,,,,,,,,,,,,,,,20,,,1,,,,,,,,,,,,,,,,,,,,,,,,,,,,,,,,,,,,,,,,,,,,,,63,158200,20,Female,1,2024/02/16_14:19:09,YZ,None,
,,,,,,calibration,0,29,2,2583,1,J,0,right,0.8584136570134433,1,0,,,,,,,,,,,,,,,,,,,,,1,,,,,,,,,,,,,,,,,,,,,,,,,,,,,,,,,,,,,,,,,,,,,,63,158200,20,Female,1,2024/02/16_14:19:09,YZ,None,
,,,,,,calibration,0,29,2,2583,2,Q,0,right,0.5601753200025996,1,0,,,,,,,,,,,,,,,,,,,,,1,,,,,,,,,,,,,,,,,,,,,,,,,,,,,,,,,,,,,,,,,,,,,,63,158200,20,Female,1,2024/02/16_14:19:09,YZ,None,
,,,,,,calibration,0,29,2,2583,3,X,0,right,0.5744272390002152,1,0,,,,,,,,,,,,,,,,,,,,,1,,,,,,,,,,,,,,,,,,,,,,,,,,,,,,,,,,,,,,,,,,,,,,63,158200,20,Female,1,2024/02/16_14:19:09,YZ,None,
,,,,,,calibration,0,29,2,2583,4,Q,1,right,0.9776266020053299,0,0,,,,,,,,,,,,,,,,,,,,,1,,,,,,,,,,,,,,,,,,,,,,,,,,,,,,,,,,,,,,,,,,,,,,63,158200,20,Female,1,2024/02/16_14:19:09,YZ,None,
,,,,,,calibration,0,29,2,2583,5,N,0,right,0.6255868520092918,1,0,,,,,,,,,,,,,,,,,,,,,1,,,,,,,,,,,,,,,,,,,,,,,,,,,,,,,,,,,,,,,,,,,,,,63,158200,20,Female,1,2024/02/16_14:19:09,YZ,None,
,,,,,,calibration,0,29,2,2583,6,Q,1,left,0.8585002769978018,1,0,,,,,,,,,,,,,,,,,,,,,1,,,,,,,,,,,,,,,,,,,,,,,,,,,,,,,,,,,,,,,,,,,,,,63,158200,20,Female,1,2024/02/16_14:19:09,YZ,None,
,,,,,,calibration,0,29,2,2583,,,,,,,,0.875,0.5,0.0,1.0,0.0,1.0,0.742454991171447,1,0,0,0,0,4,5,2,4,0,,,,1,,,,,,,,,,,,,,,,,,,,,,,,,,,,,,,,,,,,,,,,,,,,,,63,158200,20,Female,1,2024/02/16_14:19:09,YZ,None,
,,,,,,Calibration,0,,2,2583,,,,,,,,,,,,,,,,,,,,,,,,,21,,,1,,,,,,,,,,,,,,,,,,,,,,,,,,,,,,,,,,,,,,,,,,,,,,63,158200,20,Female,1,2024/02/16_14:19:09,YZ,None,
,,,,,,CALIBRATION,0,,,,,,,,,,,,,,,,,,,,,,,,,,,,21,0.875,2583,1,,,,,,,,,,,,,,,,,,,,,,,,,,,,,,,,,,,,,,,,,,,,,,63,158200,20,Female,1,2024/02/16_14:19:09,YZ,None,
-1,./instructions/inst_prac_1/Slide24.png,left,16.286856820996036,670.9164157539926,687.2032725749887,,,,,,,,,,,,,,,,,,,,,,,,,,,,,,,,,1,,,,,,,,,,,,,,,,,,,,,,,,,,,,,,,,,,,,,,,,,,,,,,63,158200,20,Female,1,2024/02/16_14:19:09,YZ,None,
-2,./instructions/inst_prac_1/Slide30.png,left,1.2563467029976891,687.2348798929888,688.4912265959865,,,,,,,,,,,,,,,,,,,,,,,,,,,,,,,,,1,,,,,,,,,,,,,,,,,,,,,,,,,,,,,,,,,,,,,,,,,,,,,,63,158200,20,Female,1,2024/02/16_14:19:09,YZ,None,
-1,./instructions/inst_prac_1/Slide29.png,right,1.3000016379955923,688.5191284419998,689.8191300799954,,,,,,,,,,,,,,,,,,,,,,,,,,,,,,,,,1,,,,,,,,,,,,,,,,,,,,,,,,,,,,,,,,,,,,,,,,,,,,,,63,158200,20,Female,1,2024/02/16_14:19:09,YZ,None,
0,./instructions/inst_prac_1/Slide30.png,right,0.2978825850004796,689.8489722079976,690.146854792998,,,,,,,,,,,,,,,,,,,,,,,,,,,,,,,,,1,,,,,,,,,,,,,,,,,,,,,,,,,,,,,,,,,,,,,,,,,,,,,,63,158200,20,Female,1,2024/02/16_14:19:09,YZ,None,
1,./instructions/inst_prac_1/Slide24.png,right,1.3063941659929696,690.1765209279984,691.4829150939913,,,,,,,,,,,,,,,,,,,,,,,,,,,,,,,,,1,,,,,,,,,,,,,,,,,,,,,,,,,,,,,,,,,,,,,,,,,,,,,,63,158200,20,Female,1,2024/02/16_14:19:09,YZ,None,
2,./instructions/inst_prac_1/Slide25.png,right,4.510000674999901,691.5168562619947,696.0268569369946,,,,,,,,,,,,,,,,,,,,,,,,,,,,,,,,,1,,,,,,,,,,,,,,,,,,,,,,,,,,,,,,,,,,,,,,,,,,,,,,63,158200,20,Female,1,2024/02/16_14:19:09,YZ,None,
3,./instructions/inst_prac_1/Slide26.png,right,1.104965042002732,696.0578749349952,697.1628399769979,,,,,,,,,,,,,,,,,,,,,,,,,,,,,,,,,1,,,,,,,,,,,,,,,,,,,,,,,,,,,,,,,,,,,,,,,,,,,,,,63,158200,20,Female,1,2024/02/16_14:19:09,YZ,None,
4,./instructions/inst_prac_1/Slide27.png,right,0.9300420439976733,697.1929540199926,698.1229960639903,,,,,,,,,,,,,,,,,,,,,,,,,,,,,,,,,1,,,,,,,,,,,,,,,,,,,,,,,,,,,,,,,,,,,,,,,,,,,,,,63,158200,20,Female,1,2024/02/16_14:19:09,YZ,None,
5,./instructions/inst_prac_1/Slide28.png,right,1.0937313609902048,698.1571371419996,699.2508685029898,,,,,,,,,,,,,,,,,,,,,,,,,,,,,,,,,1,,,,,,,,,,,,,,,,,,,,,,,,,,,,,,,,,,,,,,,,,,,,,,63,158200,20,Female,1,2024/02/16_14:19:09,YZ,None,
6,./instructions/inst_prac_1/Slide29.png,right,1.0535730460105697,699.2772698889894,700.330842935,,,,,,,,,,,,,,,,,,,,,,,,,,,,,,,,,1,,,,,,,,,,,,,,,,,,,,,,,,,,,,,,,,,,,,,,,,,,,,,,63,158200,20,Female,1,2024/02/16_14:19:09,YZ,None,
7,./instructions/inst_prac_1/Slide30.png,right,0.8591087050008355,700.3598228599876,701.2189315649885,,,,,,,,,,,,,,,,,,,,,,,,,,,,,,,,,1,,,,,,,,,,,,,,,,,,,,,,,,,,,,,,,,,,,,,,,,,,,,,,63,158200,20,Female,1,2024/02/16_14:19:09,YZ,None,
,,,,,,practice,0,16,1,1250,1,V,0,right,2.233342048988561,1,0,,,,,,,,,,,,,,,,,,,,,1,,,,,,,,,,,,,,,,,,,,,,,,,,,,,,,,,,,,,,,,,,,,,,63,158200,20,Female,1,2024/02/16_14:19:09,YZ,None,
,,,,,,practice,0,16,1,1250,2,X,0,right,0.9392493229970569,1,0,,,,,,,,,,,,,,,,,,,,,1,,,,,,,,,,,,,,,,,,,,,,,,,,,,,,,,,,,,,,,,,,,,,,63,158200,20,Female,1,2024/02/16_14:19:09,YZ,None,
,,,,,,practice,0,16,1,1250,3,N,0,right,0.5647702820133418,1,0,,,,,,,,,,,,,,,,,,,,,1,,,,,,,,,,,,,,,,,,,,,,,,,,,,,,,,,,,,,,,,,,,,,,63,158200,20,Female,1,2024/02/16_14:19:09,YZ,None,
,,,,,,practice,0,16,1,1250,4,C,0,right,0.5717767839960288,1,0,,,,,,,,,,,,,,,,,,,,,1,,,,,,,,,,,,,,,,,,,,,,,,,,,,,,,,,,,,,,,,,,,,,,63,158200,20,Female,1,2024/02/16_14:19:09,YZ,None,
,,,,,,practice,0,16,1,1250,5,C,1,left,1.5889665560098365,1,0,,,,,,,,,,,,,,,,,,,,,1,,,,,,,,,,,,,,,,,,,,,,,,,,,,,,,,,,,,,,,,,,,,,,63,158200,20,Female,1,2024/02/16_14:19:09,YZ,None,
,,,,,,practice,0,16,1,1250,6,V,0,right,0.8669796350004617,1,0,,,,,,,,,,,,,,,,,,,,,1,,,,,,,,,,,,,,,,,,,,,,,,,,,,,,,,,,,,,,,,,,,,,,63,158200,20,Female,1,2024/02/16_14:19:09,YZ,None,
,,,,,,practice,0,16,1,1250,7,V,1,left,1.0580875349987764,1,0,,,,,,,,,,,,,,,,,,,,,1,,,,,,,,,,,,,,,,,,,,,,,,,,,,,,,,,,,,,,,,,,,,,,63,158200,20,Female,1,2024/02/16_14:19:09,YZ,None,
,,,,,,practice,0,16,1,1250,8,Q,0,right,1.0494351700035622,1,0,,,,,,,,,,,,,,,,,,,,,1,,,,,,,,,,,,,,,,,,,,,,,,,,,,,,,,,,,,,,,,,,,,,,63,158200,20,Female,1,2024/02/16_14:19:09,YZ,None,
,,,,,,practice,0,16,1,1250,9,S,0,right,0.7728244210011326,1,0,,,,,,,,,,,,,,,,,,,,,1,,,,,,,,,,,,,,,,,,,,,,,,,,,,,,,,,,,,,,,,,,,,,,63,158200,20,Female,1,2024/02/16_14:19:09,YZ,None,
,,,,,,practice,0,16,1,1250,10,S,1,left,0.9860661560087465,1,0,,,,,,,,,,,,,,,,,,,,,1,,,,,,,,,,,,,,,,,,,,,,,,,,,,,,,,,,,,,,,,,,,,,,63,158200,20,Female,1,2024/02/16_14:19:09,YZ,None,
,,,,,,practice,0,16,1,1250,,,,,,,,1.0,1.0,0.0,1.0,0.0,1.0,1.0631497911017505,3,0,0,0,0,7,10,3,7,0,,,,1,,,,,,,,,,,,,,,,,,,,,,,,,,,,,,,,,,,,,,,,,,,,,,63,158200,20,Female,1,2024/02/16_14:19:09,YZ,None,
1,./instructions/inst_prac_1_next/Slide35.png,right,1.1142059400008293,722.3927071299986,723.5069130699994,,,,,,,,,,,,,,,,,,,,,,,,,,,,,,,,,1,,,,,,,,,,,,,,,,,,,,,,,,,,,,,,,,,,,,,,,,,,,,,,63,158200,20,Female,1,2024/02/16_14:19:09,YZ,None,
,,,,,,practice,0,11,1,2583,1,C,0,right,1.026448305012309,1,0,,,,,,,,,,,,,,,,,,,,,1,,,,,,,,,,,,,,,,,,,,,,,,,,,,,,,,,,,,,,,,,,,,,,63,158200,20,Female,1,2024/02/16_14:19:09,YZ,None,
,,,,,,practice,0,11,1,2583,2,X,0,right,0.6548434339929372,1,0,,,,,,,,,,,,,,,,,,,,,1,,,,,,,,,,,,,,,,,,,,,,,,,,,,,,,,,,,,,,,,,,,,,,63,158200,20,Female,1,2024/02/16_14:19:09,YZ,None,
,,,,,,practice,0,11,1,2583,3,X,1,left,0.622650909004733,1,0,,,,,,,,,,,,,,,,,,,,,1,,,,,,,,,,,,,,,,,,,,,,,,,,,,,,,,,,,,,,,,,,,,,,63,158200,20,Female,1,2024/02/16_14:19:09,YZ,None,
,,,,,,practice,0,11,1,2583,4,S,0,right,0.5682908479939215,1,0,,,,,,,,,,,,,,,,,,,,,1,,,,,,,,,,,,,,,,,,,,,,,,,,,,,,,,,,,,,,,,,,,,,,63,158200,20,Female,1,2024/02/16_14:19:09,YZ,None,
,,,,,,practice,0,11,1,2583,5,S,1,left,0.6650582940055756,1,0,,,,,,,,,,,,,,,,,,,,,1,,,,,,,,,,,,,,,,,,,,,,,,,,,,,,,,,,,,,,,,,,,,,,63,158200,20,Female,1,2024/02/16_14:19:09,YZ,None,
,,,,,,practice,0,11,1,2583,6,X,0,right,0.6952843089966336,1,0,,,,,,,,,,,,,,,,,,,,,1,,,,,,,,,,,,,,,,,,,,,,,,,,,,,,,,,,,,,,,,,,,,,,63,158200,20,Female,1,2024/02/16_14:19:09,YZ,None,
,,,,,,practice,0,11,1,2583,,,,,,,,1.0,1.0,0.0,1.0,0.0,1.0,0.7054293498343517,2,0,0,0,0,4,6,2,4,0,,,,1,,,,,,,,,,,,,,,,,,,,,,,,,,,,,,,,,,,,,,,,,,,,,,63,158200,20,Female,1,2024/02/16_14:19:09,YZ,None,
,,,,,,practice,0,35,1,2583,1,F,0,right,0.5986019690026296,1,0,,,,,,,,,,,,,,,,,,,,,1,,,,,,,,,,,,,,,,,,,,,,,,,,,,,,,,,,,,,,,,,,,,,,63,158200,20,Female,1,2024/02/16_14:19:09,YZ,None,
,,,,,,practice,0,35,1,2583,2,F,1,left,0.5669041840010323,1,0,,,,,,,,,,,,,,,,,,,,,1,,,,,,,,,,,,,,,,,,,,,,,,,,,,,,,,,,,,,,,,,,,,,,63,158200,20,Female,1,2024/02/16_14:19:09,YZ,None,
,,,,,,practice,0,35,1,2583,3,S,0,right,0.5080801230069483,1,0,,,,,,,,,,,,,,,,,,,,,1,,,,,,,,,,,,,,,,,,,,,,,,,,,,,,,,,,,,,,,,,,,,,,63,158200,20,Female,1,2024/02/16_14:19:09,YZ,None,
,,,,,,practice,0,35,1,2583,4,S,1,left,0.5564785099995788,1,0,,,,,,,,,,,,,,,,,,,,,1,,,,,,,,,,,,,,,,,,,,,,,,,,,,,,,,,,,,,,,,,,,,,,63,158200,20,Female,1,2024/02/16_14:19:09,YZ,None,
,,,,,,practice,0,35,1,2583,5,Q,0,right,0.49587903400242794,1,0,,,,,,,,,,,,,,,,,,,,,1,,,,,,,,,,,,,,,,,,,,,,,,,,,,,,,,,,,,,,,,,,,,,,63,158200,20,Female,1,2024/02/16_14:19:09,YZ,None,
,,,,,,practice,0,35,1,2583,6,F,0,left,0.5802278479968663,0,0,,,,,,,,,,,,,,,,,,,,,1,,,,,,,,,,,,,,,,,,,,,,,,,,,,,,,,,,,,,,,,,,,,,,63,158200,20,Female,1,2024/02/16_14:19:09,YZ,None,
,,,,,,practice,0,35,1,2583,,,,,,,,0.9375,1.0,0.25,0.75,0.0,0.75,0.5510286113349139,2,1,0,0,0,3,5,2,4,0,,,,1,,,,,,,,,,,,,,,,,,,,,,,,,,,,,,,,,,,,,,,,,,,,,,63,158200,20,Female,1,2024/02/16_14:19:09,YZ,None,
1,./instructions/inst_prac_3/Slide37.png,right,1.6985908360074973,741.456164431991,743.1547552679986,,,,,,,,,,,,,,,,,,,,,,,,,,,,,,,,,1,,,,,,,,,,,,,,,,,,,,,,,,,,,,,,,,,,,,,,,,,,,,,,63,158200,20,Female,1,2024/02/16_14:19:09,YZ,None,
2,./instructions/inst_prac_3/Slide38.png,right,6.477938608994009,743.1890146689984,749.6669532779924,,,,,,,,,,,,,,,,,,,,,,,,,,,,,,,,,1,,,,,,,,,,,,,,,,,,,,,,,,,,,,,,,,,,,,,,,,,,,,,,63,158200,20,Female,1,2024/02/16_14:19:09,YZ,None,
3,./instructions/inst_prac_3/Slide39.png,right,0.9251049909944413,749.7017465509998,750.6268515419943,,,,,,,,,,,,,,,,,,,,,,,,,,,,,,,,,1,,,,,,,,,,,,,,,,,,,,,,,,,,,,,,,,,,,,,,,,,,,,,,63,158200,20,Female,1,2024/02/16_14:19:09,YZ,None,
4,./instructions/inst_prac_3/Slide40.png,right,0.8937643469980685,750.6611638369941,751.5549281839922,,,,,,,,,,,,,,,,,,,,,,,,,,,,,,,,,1,,,,,,,,,,,,,,,,,,,,,,,,,,,,,,,,,,,,,,,,,,,,,,63,158200,20,Female,1,2024/02/16_14:19:09,YZ,None,
5,./instructions/inst_prac_3/Slide41.png,right,2.173915336999926,751.5889716050006,753.7628869420005,,,,,,,,,,,,,,,,,,,,,,,,,,,,,,,,,1,,,,,,,,,,,,,,,,,,,,,,,,,,,,,,,,,,,,,,,,,,,,,,63,158200,20,Female,1,2024/02/16_14:19:09,YZ,None,
6,./instructions/inst_prac_3/Slide42.png,right,2.4621578299993416,753.7968466049933,756.2590044349927,,,,,,,,,,,,,,,,,,,,,,,,,,,,,,,,,1,,,,,,,,,,,,,,,,,,,,,,,,,,,,,,,,,,,,,,,,,,,,,,63,158200,20,Female,1,2024/02/16_14:19:09,YZ,None,
7,./instructions/inst_prac_3/Slide43.png,right,2.45369702600874,756.2932410629874,758.7469380889961,,,,,,,,,,,,,,,,,,,,,,,,,,,,,,,,,1,,,,,,,,,,,,,,,,,,,,,,,,,,,,,,,,,,,,,,,,,,,,,,63,158200,20,Female,1,2024/02/16_14:19:09,YZ,None,
8,./instructions/inst_prac_3/Slide44.png,right,0.7409313499956625,758.7819998539926,759.5229312039883,,,,,,,,,,,,,,,,,,,,,,,,,,,,,,,,,1,,,,,,,,,,,,,,,,,,,,,,,,,,,,,,,,,,,,,,,,,,,,,,63,158200,20,Female,1,2024/02/16_14:19:09,YZ,None,
,,,,,,practice,0,2,3,788,1,C,0,left,2.1458740509988274,0,0,,,,,,,,,,,,,,,,,,,,,1,,,,,,,,,,,,,,,,,,,,,,,,,,,,,,,,,,,,,,,,,,,,,,63,158200,20,Female,1,2024/02/16_14:19:09,YZ,None,
,,,,,,practice,0,2,3,788,2,J,0,right,1.751457902995753,1,0,,,,,,,,,,,,,,,,,,,,,1,,,,,,,,,,,,,,,,,,,,,,,,,,,,,,,,,,,,,,,,,,,,,,63,158200,20,Female,1,2024/02/16_14:19:09,YZ,None,
,,,,,,practice,0,2,3,788,3,J,0,right,1.30732331899344,1,0,,,,,,,,,,,,,,,,,,,,,1,,,,,,,,,,,,,,,,,,,,,,,,,,,,,,,,,,,,,,,,,,,,,,63,158200,20,Female,1,2024/02/16_14:19:09,YZ,None,
,,,,,,practice,0,2,3,788,4,S,0,right,0.6301391169981798,1,0,,,,,,,,,,,,,,,,,,,,,1,,,,,,,,,,,,,,,,,,,,,,,,,,,,,,,,,,,,,,,,,,,,,,63,158200,20,Female,1,2024/02/16_14:19:09,YZ,None,
,,,,,,practice,0,2,3,788,5,Q,0,right,1.386670715000946,1,0,,,,,,,,,,,,,,,,,,,,,1,,,,,,,,,,,,,,,,,,,,,,,,,,,,,,,,,,,,,,,,,,,,,,63,158200,20,Female,1,2024/02/16_14:19:09,YZ,None,
,,,,,,practice,0,2,3,788,6,V,0,right,0.8303864149929723,1,0,,,,,,,,,,,,,,,,,,,,,1,,,,,,,,,,,,,,,,,,,,,,,,,,,,,,,,,,,,,,,,,,,,,,63,158200,20,Female,1,2024/02/16_14:19:09,YZ,None,
,,,,,,practice,0,2,3,788,7,S,1,left,0.9525044490001164,1,0,,,,,,,,,,,,,,,,,,,,,1,,,,,,,,,,,,,,,,,,,,,,,,,,,,,,,,,,,,,,,,,,,,,,63,158200,20,Female,1,2024/02/16_14:19:09,YZ,None,
,,,,,,practice,0,2,3,788,8,Q,1,left,0.923128345006262,1,0,,,,,,,,,,,,,,,,,,,,,1,,,,,,,,,,,,,,,,,,,,,,,,,,,,,,,,,,,,,,,,,,,,,,63,158200,20,Female,1,2024/02/16_14:19:09,YZ,None,
,,,,,,practice,0,2,3,788,9,N,0,right,1.0796449400077108,1,0,,,,,,,,,,,,,,,,,,,,,1,,,,,,,,,,,,,,,,,,,,,,,,,,,,,,,,,,,,,,,,,,,,,,63,158200,20,Female,1,2024/02/16_14:19:09,YZ,None,
,,,,,,practice,0,2,3,788,10,V,0,right,0.8748578520026058,1,0,,,,,,,,,,,,,,,,,,,,,1,,,,,,,,,,,,,,,,,,,,,,,,,,,,,,,,,,,,,,,,,,,,,,63,158200,20,Female,1,2024/02/16_14:19:09,YZ,None,
,,,,,,practice,0,2,3,788,11,N,0,right,1.0061386870074784,1,0,,,,,,,,,,,,,,,,,,,,,1,,,,,,,,,,,,,,,,,,,,,,,,,,,,,,,,,,,,,,,,,,,,,,63,158200,20,Female,1,2024/02/16_14:19:09,YZ,None,
,,,,,,practice,0,2,3,788,12,N,1,left,0.648335681995377,1,0,,,,,,,,,,,,,,,,,,,,,1,,,,,,,,,,,,,,,,,,,,,,,,,,,,,,,,,,,,,,,,,,,,,,63,158200,20,Female,1,2024/02/16_14:19:09,YZ,None,
,,,,,,practice,0,2,3,788,13,V,1,left,0.557938024008763,1,0,,,,,,,,,,,,,,,,,,,,,1,,,,,,,,,,,,,,,,,,,,,,,,,,,,,,,,,,,,,,,,,,,,,,63,158200,20,Female,1,2024/02/16_14:19:09,YZ,None,
,,,,,,practice,0,2,3,788,,,,,,,,0.9722222222222222,1.0,0.1111111111111111,0.8888888888888888,0.0,0.8888888888888888,1.0841845768468024,4,1,0,0,0,8,12,4,9,0,,,,1,,,,,,,,,,,,,,,,,,,,,,,,,,,,,,,,,,,,,,,,,,,,,,63,158200,20,Female,1,2024/02/16_14:19:09,YZ,None,
1,./instructions/inst_prac_3_next/Slide49.png,right,1.3872635510051623,787.8235644389933,789.2108279899985,,,,,,,,,,,,,,,,,,,,,,,,,,,,,,,,,1,,,,,,,,,,,,,,,,,,,,,,,,,,,,,,,,,,,,,,,,,,,,,,63,158200,20,Female,1,2024/02/16_14:19:09,YZ,None,
,,,,,,practice,0,15,3,2583,1,F,0,right,1.2436384439934045,1,0,,,,,,,,,,,,,,,,,,,,,1,,,,,,,,,,,,,,,,,,,,,,,,,,,,,,,,,,,,,,,,,,,,,,63,158200,20,Female,1,2024/02/16_14:19:09,YZ,None,
,,,,,,practice,0,15,3,2583,2,X,0,right,0.7206227340066107,1,0,,,,,,,,,,,,,,,,,,,,,1,,,,,,,,,,,,,,,,,,,,,,,,,,,,,,,,,,,,,,,,,,,,,,63,158200,20,Female,1,2024/02/16_14:19:09,YZ,None,
,,,,,,practice,0,15,3,2583,3,J,0,right,1.2235270039964234,1,0,,,,,,,,,,,,,,,,,,,,,1,,,,,,,,,,,,,,,,,,,,,,,,,,,,,,,,,,,,,,,,,,,,,,63,158200,20,Female,1,2024/02/16_14:19:09,YZ,None,
,,,,,,practice,0,15,3,2583,4,F,1,right,1.511676828013151,0,0,,,,,,,,,,,,,,,,,,,,,1,,,,,,,,,,,,,,,,,,,,,,,,,,,,,,,,,,,,,,,,,,,,,,63,158200,20,Female,1,2024/02/16_14:19:09,YZ,None,
,,,,,,practice,0,15,3,2583,5,X,1,left,0.9399822810082696,1,0,,,,,,,,,,,,,,,,,,,,,1,,,,,,,,,,,,,,,,,,,,,,,,,,,,,,,,,,,,,,,,,,,,,,63,158200,20,Female,1,2024/02/16_14:19:09,YZ,None,
,,,,,,practice,0,15,3,2583,6,C,0,right,1.196404137997888,1,0,,,,,,,,,,,,,,,,,,,,,1,,,,,,,,,,,,,,,,,,,,,,,,,,,,,,,,,,,,,,,,,,,,,,63,158200,20,Female,1,2024/02/16_14:19:09,YZ,None,
,,,,,,practice,0,15,3,2583,,,,,,,,0.875,0.5,0.0,1.0,0.0,1.0,1.1393085715026245,1,0,0,0,0,4,5,2,4,0,,,,1,,,,,,,,,,,,,,,,,,,,,,,,,,,,,,,,,,,,,,,,,,,,,,63,158200,20,Female,1,2024/02/16_14:19:09,YZ,None,
,,,,,,practice,0,18,3,2583,1,Q,0,right,1.0352635509916581,1,0,,,,,,,,,,,,,,,,,,,,,1,,,,,,,,,,,,,,,,,,,,,,,,,,,,,,,,,,,,,,,,,,,,,,63,158200,20,Female,1,2024/02/16_14:19:09,YZ,None,
,,,,,,practice,0,18,3,2583,2,V,0,right,1.04750045799301,1,0,,,,,,,,,,,,,,,,,,,,,1,,,,,,,,,,,,,,,,,,,,,,,,,,,,,,,,,,,,,,,,,,,,,,63,158200,20,Female,1,2024/02/16_14:19:09,YZ,None,
,,,,,,practice,0,18,3,2583,3,N,0,right,0.9161986079998314,1,0,,,,,,,,,,,,,,,,,,,,,1,,,,,,,,,,,,,,,,,,,,,,,,,,,,,,,,,,,,,,,,,,,,,,63,158200,20,Female,1,2024/02/16_14:19:09,YZ,None,
,,,,,,practice,0,18,3,2583,4,Q,1,left,0.37608032999560237,1,0,,,,,,,,,,,,,,,,,,,,,1,,,,,,,,,,,,,,,,,,,,,,,,,,,,,,,,,,,,,,,,,,,,,,63,158200,20,Female,1,2024/02/16_14:19:09,YZ,None,
,,,,,,practice,0,18,3,2583,5,V,1,right,2.149937581998529,0,0,,,,,,,,,,,,,,,,,,,,,1,,,,,,,,,,,,,,,,,,,,,,,,,,,,,,,,,,,,,,,,,,,,,,63,158200,20,Female,1,2024/02/16_14:19:09,YZ,None,
,,,,,,practice,0,18,3,2583,6,J,0,right,1.7761092069995357,1,0,,,,,,,,,,,,,,,,,,,,,1,,,,,,,,,,,,,,,,,,,,,,,,,,,,,,,,,,,,,,,,,,,,,,63,158200,20,Female,1,2024/02/16_14:19:09,YZ,None,
,,,,,,practice,0,18,3,2583,,,,,,,,0.875,0.5,0.0,1.0,0.0,1.0,1.2168482893296944,1,0,0,0,0,4,5,2,4,0,,,,1,,,,,,,,,,,,,,,,,,,,,,,,,,,,,,,,,,,,,,,,,,,,,,63,158200,20,Female,1,2024/02/16_14:19:09,YZ,None,
-1,./instructions/inst_prac_main/Slide51.png,left,2.058991458005039,813.7441757319903,815.8031671899953,,,,,,,,,,,,,,,,,,,,,,,,,,,,,,,,,1,,,,,,,,,,,,,,,,,,,,,,,,,,,,,,,,,,,,,,,,,,,,,,63,158200,20,Female,1,2024/02/16_14:19:09,YZ,None,
0,./instructions/inst_prac_main/Slide54.png,right,8.564301809004974,815.8307891039876,824.3950909129926,,,,,,,,,,,,,,,,,,,,,,,,,,,,,,,,,1,,,,,,,,,,,,,,,,,,,,,,,,,,,,,,,,,,,,,,,,,,,,,,63,158200,20,Female,1,2024/02/16_14:19:09,YZ,None,
1,./instructions/inst_prac_main/Slide51.png,right,0.20044690600479953,824.4184374609904,824.6188843669952,,,,,,,,,,,,,,,,,,,,,,,,,,,,,,,,,1,,,,,,,,,,,,,,,,,,,,,,,,,,,,,,,,,,,,,,,,,,,,,,63,158200,20,Female,1,2024/02/16_14:19:09,YZ,None,
2,./instructions/inst_prac_main/Slide52.png,right,0.20042236300650984,824.6462650109897,824.8466873739962,,,,,,,,,,,,,,,,,,,,,,,,,,,,,,,,,1,,,,,,,,,,,,,,,,,,,,,,,,,,,,,,,,,,,,,,,,,,,,,,63,158200,20,Female,1,2024/02/16_14:19:09,YZ,None,
1,./instructions/inst_prac_main/Slide53.png,left,10.696624288990279,824.874162934997,835.5707872239873,,,,,,,,,,,,,,,,,,,,,,,,,,,,,,,,,1,,,,,,,,,,,,,,,,,,,,,,,,,,,,,,,,,,,,,,,,,,,,,,63,158200,20,Female,1,2024/02/16_14:19:09,YZ,None,
2,./instructions/inst_prac_main/Slide52.png,right,3.0104668220010353,835.6005447539937,838.6110115759948,,,,,,,,,,,,,,,,,,,,,,,,,,,,,,,,,1,,,,,,,,,,,,,,,,,,,,,,,,,,,,,,,,,,,,,,,,,,,,,,63,158200,20,Female,1,2024/02/16_14:19:09,YZ,None,
3,./instructions/inst_prac_main/Slide53.png,right,0.20042498600378167,838.6403569749964,838.8407819610002,,,,,,,,,,,,,,,,,,,,,,,,,,,,,,,,,1,,,,,,,,,,,,,,,,,,,,,,,,,,,,,,,,,,,,,,,,,,,,,,63,158200,20,Female,1,2024/02/16_14:19:09,YZ,None,
2,./instructions/inst_prac_main/Slide54.png,left,0.9550888770027086,838.8638178269903,839.818906703993,,,,,,,,,,,,,,,,,,,,,,,,,,,,,,,,,1,,,,,,,,,,,,,,,,,,,,,,,,,,,,,,,,,,,,,,,,,,,,,,63,158200,20,Female,1,2024/02/16_14:19:09,YZ,None,
1,./instructions/inst_prac_main/Slide53.png,left,1.6212832649907796,839.8457147739973,841.4669980389881,,,,,,,,,,,,,,,,,,,,,,,,,,,,,,,,,1,,,,,,,,,,,,,,,,,,,,,,,,,,,,,,,,,,,,,,,,,,,,,,63,158200,20,Female,1,2024/02/16_14:19:09,YZ,None,
0,./instructions/inst_prac_main/Slide52.png,left,0.2005854180024471,841.4907337939949,841.6913192119973,,,,,,,,,,,,,,,,,,,,,,,,,,,,,,,,,1,,,,,,,,,,,,,,,,,,,,,,,,,,,,,,,,,,,,,,,,,,,,,,63,158200,20,Female,1,2024/02/16_14:19:09,YZ,None,
-1,./instructions/inst_prac_main/Slide51.png,left,0.20037801600119565,841.7108097989985,841.9111878149997,,,,,,,,,,,,,,,,,,,,,,,,,,,,,,,,,1,,,,,,,,,,,,,,,,,,,,,,,,,,,,,,,,,,,,,,,,,,,,,,63,158200,20,Female,1,2024/02/16_14:19:09,YZ,None,
-2,./instructions/inst_prac_main/Slide54.png,left,0.2004127959953621,841.9346341689961,842.1350469649915,,,,,,,,,,,,,,,,,,,,,,,,,,,,,,,,,1,,,,,,,,,,,,,,,,,,,,,,,,,,,,,,,,,,,,,,,,,,,,,,63,158200,20,Female,1,2024/02/16_14:19:09,YZ,None,
-1,./instructions/inst_prac_main/Slide53.png,right,2.6931365830096183,842.1578608009877,844.8509973839973,,,,,,,,,,,,,,,,,,,,,,,,,,,,,,,,,1,,,,,,,,,,,,,,,,,,,,,,,,,,,,,,,,,,,,,,,,,,,,,,63,158200,20,Female,1,2024/02/16_14:19:09,YZ,None,
0,./instructions/inst_prac_main/Slide54.png,right,4.010145624008146,844.8807871959871,848.8909328199952,,,,,,,,,,,,,,,,,,,,,,,,,,,,,,,,,1,,,,,,,,,,,,,,,,,,,,,,,,,,,,,,,,,,,,,,,,,,,,,,63,158200,20,Female,1,2024/02/16_14:19:09,YZ,None,
-1,./instructions/inst_prac_main/Slide51.png,left,1.6140280929976143,848.9170437889989,850.5310718819965,,,,,,,,,,,,,,,,,,,,,,,,,,,,,,,,,1,,,,,,,,,,,,,,,,,,,,,,,,,,,,,,,,,,,,,,,,,,,,,,63,158200,20,Female,1,2024/02/16_14:19:09,YZ,None,
0,./instructions/inst_prac_main/Slide54.png,right,9.816564685999765,850.5541606879997,860.3707253739994,,,,,,,,,,,,,,,,,,,,,,,,,,,,,,,,,1,,,,,,,,,,,,,,,,,,,,,,,,,,,,,,,,,,,,,,,,,,,,,,63,158200,20,Female,1,2024/02/16_14:19:09,YZ,None,
1,./instructions/inst_prac_main/Slide51.png,right,1.4249934099934762,860.3940913419938,861.8190847519872,,,,,,,,,,,,,,,,,,,,,,,,,,,,,,,,,1,,,,,,,,,,,,,,,,,,,,,,,,,,,,,,,,,,,,,,,,,,,,,,63,158200,20,Female,1,2024/02/16_14:19:09,YZ,None,
2,./instructions/inst_prac_main/Slide52.png,right,16.453320264990907,861.845468198997,878.2987884639879,,,,,,,,,,,,,,,,,,,,,,,,,,,,,,,,,1,,,,,,,,,,,,,,,,,,,,,,,,,,,,,,,,,,,,,,,,,,,,,,63,158200,20,Female,1,2024/02/16_14:19:09,YZ,None,
3,./instructions/inst_prac_main/Slide53.png,right,3.301946243009297,878.3250426289887,881.626988871998,,,,,,,,,,,,,,,,,,,,,,,,,,,,,,,,,1,,,,,,,,,,,,,,,,,,,,,,,,,,,,,,,,,,,,,,,,,,,,,,63,158200,20,Female,1,2024/02/16_14:19:09,YZ,None,
4,./instructions/inst_prac_main/Slide54.png,right,2.4186119420046452,881.6563756619871,884.0749876039918,,,,,,,,,,,,,,,,,,,,,,,,,,,,,,,,,1,,,,,,,,,,,,,,,,,,,,,,,,,,,,,,,,,,,,,,,,,,,,,,63,158200,20,Female,1,2024/02/16_14:19:09,YZ,None,
,,,,,,practice_main,0,1,3,2583,1,J,0,right,1.3313507419952657,1,0,,,,,,,,,,,,,,,,,,,,,1,,,,,,,,,,,,,,,,,,,,,,,,,,,,,,,,,,,,,,,,,,,,,,63,158200,20,Female,1,2024/02/16_14:19:09,YZ,None,
,,,,,,practice_main,0,1,3,2583,2,V,0,right,0.4997424140019575,1,0,,,,,,,,,,,,,,,,,,,,,1,,,,,,,,,,,,,,,,,,,,,,,,,,,,,,,,,,,,,,,,,,,,,,63,158200,20,Female,1,2024/02/16_14:19:09,YZ,None,
,,,,,,practice_main,0,1,3,2583,3,F,0,right,0.5529403360123979,1,0,,,,,,,,,,,,,,,,,,,,,1,,,,,,,,,,,,,,,,,,,,,,,,,,,,,,,,,,,,,,,,,,,,,,63,158200,20,Female,1,2024/02/16_14:19:09,YZ,None,
,,,,,,practice_main,0,1,3,2583,4,J,1,left,0.4531837839895161,1,0,,,,,,,,,,,,,,,,,,,,,1,,,,,,,,,,,,,,,,,,,,,,,,,,,,,,,,,,,,,,,,,,,,,,63,158200,20,Female,1,2024/02/16_14:19:09,YZ,None,
,,,,,,practice_main,0,1,3,2583,5,F,0,right,1.192632751990459,1,0,,,,,,,,,,,,,,,,,,,,,1,,,,,,,,,,,,,,,,,,,,,,,,,,,,,,,,,,,,,,,,,,,,,,63,158200,20,Female,1,2024/02/16_14:19:09,YZ,None,
,,,,,,practice_main,0,1,3,2583,6,F,1,right,0.9267678479955066,0,0,,,,,,,,,,,,,,,,,,,,,1,,,,,,,,,,,,,,,,,,,,,,,,,,,,,,,,,,,,,,,,,,,,,,63,158200,20,Female,1,2024/02/16_14:19:09,YZ,None,
,,,,,,practice_main,0,1,3,2583,,,,,,,,0.875,0.5,0.0,1.0,0.0,1.0,0.8261029793308504,1,0,0,0,0,4,5,2,4,0,,,,1,,,,,,,,,,,,,,,,,,,,,,,,,,,,,,,,,,,,,,,,,,,,,,63,158200,20,Female,1,2024/02/16_14:19:09,YZ,None,
,,,,,240216_143619,PRACTICE,0,1,3,2583,,,,,,,,,,,,,,,,,,,,,,,,,,,,1,22,2,1,cue2.png,hard,A,42,0.6827177639934234,0,895.2387100560009,895.937419902999,,,,,,,,,,,,,,,,,,,,,,,,,,,,,,,,,,,63,158200,20,Female,1,2024/02/16_14:19:09,YZ,None,
,,,,,,practice_main,0,2,1,2583,1,X,0,right,0.39360623799439054,1,0,,,,,,,,,,,,,,,,,,,,,1,,,,,,,,,,,,,,,,,,,,,,,,,,,,,,,,,,,,,,,,,,,,,,63,158200,20,Female,1,2024/02/16_14:19:09,YZ,None,
,,,,,,practice_main,0,2,1,2583,2,X,1,left,0.4364164449943928,1,0,,,,,,,,,,,,,,,,,,,,,1,,,,,,,,,,,,,,,,,,,,,,,,,,,,,,,,,,,,,,,,,,,,,,63,158200,20,Female,1,2024/02/16_14:19:09,YZ,None,
,,,,,,practice_main,0,2,1,2583,3,S,0,right,0.4237864390015602,1,0,,,,,,,,,,,,,,,,,,,,,1,,,,,,,,,,,,,,,,,,,,,,,,,,,,,,,,,,,,,,,,,,,,,,63,158200,20,Female,1,2024/02/16_14:19:09,YZ,None,
,,,,,,practice_main,0,2,1,2583,4,F,0,right,0.5804397440078901,1,0,,,,,,,,,,,,,,,,,,,,,1,,,,,,,,,,,,,,,,,,,,,,,,,,,,,,,,,,,,,,,,,,,,,,63,158200,20,Female,1,2024/02/16_14:19:09,YZ,None,
,,,,,,practice_main,0,2,1,2583,5,X,0,right,0.6635086090100231,1,0,,,,,,,,,,,,,,,,,,,,,1,,,,,,,,,,,,,,,,,,,,,,,,,,,,,,,,,,,,,,,,,,,,,,63,158200,20,Female,1,2024/02/16_14:19:09,YZ,None,
,,,,,,practice_main,0,2,1,2583,6,X,1,left,0.5242603229999077,1,0,,,,,,,,,,,,,,,,,,,,,1,,,,,,,,,,,,,,,,,,,,,,,,,,,,,,,,,,,,,,,,,,,,,,63,158200,20,Female,1,2024/02/16_14:19:09,YZ,None,
,,,,,,practice_main,0,2,1,2583,,,,,,,,1.0,1.0,0.0,1.0,0.0,1.0,0.5036696330013607,2,0,0,0,0,4,6,2,4,0,,,,1,,,,,,,,,,,,,,,,,,,,,,,,,,,,,,,,,,,,,,,,,,,,,,63,158200,20,Female,1,2024/02/16_14:19:09,YZ,None,
,,,,,240216_143635,PRACTICE,0,2,1,2583,,,,,,,,,,,,,,,,,,,,,,,,,,,,1,12,3,2,cue1.png,easy,A,61,0.746728994010482,0,913.1860697629891,913.9585078809905,,,,,,,,,,,,,,,,,,,,,,,,,,,,,,,,,,,63,158200,20,Female,1,2024/02/16_14:19:09,YZ,None,
,,,,,,practice_main,0,3,1,2583,1,Q,0,right,0.6145776320045115,1,0,,,,,,,,,,,,,,,,,,,,,1,,,,,,,,,,,,,,,,,,,,,,,,,,,,,,,,,,,,,,,,,,,,,,63,158200,20,Female,1,2024/02/16_14:19:09,YZ,None,
,,,,,,practice_main,0,3,1,2583,2,F,0,right,0.4783741569990525,1,0,,,,,,,,,,,,,,,,,,,,,1,,,,,,,,,,,,,,,,,,,,,,,,,,,,,,,,,,,,,,,,,,,,,,63,158200,20,Female,1,2024/02/16_14:19:09,YZ,None,
,,,,,,practice_main,0,3,1,2583,3,F,1,left,0.38008905900642276,1,0,,,,,,,,,,,,,,,,,,,,,1,,,,,,,,,,,,,,,,,,,,,,,,,,,,,,,,,,,,,,,,,,,,,,63,158200,20,Female,1,2024/02/16_14:19:09,YZ,None,
,,,,,,practice_main,0,3,1,2583,4,S,0,right,0.4484890910098329,1,0,,,,,,,,,,,,,,,,,,,,,1,,,,,,,,,,,,,,,,,,,,,,,,,,,,,,,,,,,,,,,,,,,,,,63,158200,20,Female,1,2024/02/16_14:19:09,YZ,None,
,,,,,,practice_main,0,3,1,2583,5,S,1,right,0.5583191810001153,0,0,,,,,,,,,,,,,,,,,,,,,1,,,,,,,,,,,,,,,,,,,,,,,,,,,,,,,,,,,,,,,,,,,,,,63,158200,20,Female,1,2024/02/16_14:19:09,YZ,None,
,,,,,,practice_main,0,3,1,2583,6,J,0,right,0.7583621850062627,1,0,,,,,,,,,,,,,,,,,,,,,1,,,,,,,,,,,,,,,,,,,,,,,,,,,,,,,,,,,,,,,,,,,,,,63,158200,20,Female,1,2024/02/16_14:19:09,YZ,None,
,,,,,,practice_main,0,3,1,2583,,,,,,,,0.875,0.5,0.0,1.0,0.0,1.0,0.5397018841710329,1,0,0,0,0,4,5,2,4,0,,,,1,,,,,,,,,,,,,,,,,,,,,,,,,,,,,,,,,,,,,,,,,,,,,,63,158200,20,Female,1,2024/02/16_14:19:09,YZ,None,
,,,,,240216_143651,PRACTICE,0,3,1,2583,,,,,,,,,,,,,,,,,,,,,,,,,,,,1,1,4,3,cue1.png,easy,A,60,0.7639068710122956,0,929.2476163179963,930.0294250959996,,,,,,,,,,,,,,,,,,,,,,,,,,,,,,,,,,,63,158200,20,Female,1,2024/02/16_14:19:09,YZ,None,
1,./instructions/inst_prac_end/Slide56.png,right,3.412608890008414,944.0546142019884,947.4672230919969,,,,,,,,,,,,,,,,,,,,,,,,,,,,,,,,,1,,,,,,,,,,,,,,,,,,,,,,,,,,,,,,,,,,,,,,,,,,,,,,63,158200,20,Female,1,2024/02/16_14:19:09,YZ,None,
1,./instructions/inst_test/Slide57.png,right,1.553225301002385,947.5057748229883,949.0590001239907,,,,,,,,,,,,,,,,,,,,,,,,,,,,,,,,,1,,,,,,,,,,,,,,,,,,,,,,,,,,,,,,,,,,,,,,,,,,,,,,63,158200,20,Female,1,2024/02/16_14:19:09,YZ,None,
,,,,,,test,1,1,1,2583,1,C,0,right,0.5579524900094839,1,0,,,,,,,,,,,,,,,,,,,,,1,,,,,,,,,,,,,,,,,,,,,,,,,,,,,,,,,,,,,,,,,,,,,,63,158200,20,Female,1,2024/02/16_14:19:09,YZ,None,
,,,,,,test,1,1,1,2583,2,S,0,right,0.4620448280038545,1,0,,,,,,,,,,,,,,,,,,,,,1,,,,,,,,,,,,,,,,,,,,,,,,,,,,,,,,,,,,,,,,,,,,,,63,158200,20,Female,1,2024/02/16_14:19:09,YZ,None,
,,,,,,test,1,1,1,2583,3,F,0,right,0.4871542119944934,1,0,,,,,,,,,,,,,,,,,,,,,1,,,,,,,,,,,,,,,,,,,,,,,,,,,,,,,,,,,,,,,,,,,,,,63,158200,20,Female,1,2024/02/16_14:19:09,YZ,None,
,,,,,,test,1,1,1,2583,4,F,1,left,0.4555638669990003,1,0,,,,,,,,,,,,,,,,,,,,,1,,,,,,,,,,,,,,,,,,,,,,,,,,,,,,,,,,,,,,,,,,,,,,63,158200,20,Female,1,2024/02/16_14:19:09,YZ,None,
,,,,,,test,1,1,1,2583,5,Q,0,right,0.4385502759978408,1,0,,,,,,,,,,,,,,,,,,,,,1,,,,,,,,,,,,,,,,,,,,,,,,,,,,,,,,,,,,,,,,,,,,,,63,158200,20,Female,1,2024/02/16_14:19:09,YZ,None,
,,,,,,test,1,1,1,2583,6,Q,1,left,0.3519390370056499,1,0,,,,,,,,,,,,,,,,,,,,,1,,,,,,,,,,,,,,,,,,,,,,,,,,,,,,,,,,,,,,,,,,,,,,63,158200,20,Female,1,2024/02/16_14:19:09,YZ,None,
,,,,,,Test,1,1,1,2583,,,,,,,,1.0,1.0,0.0,1.0,0.0,1.0,0.4588674516683871,2,0,0,0,0,4,6,2,4,0,,,,1,,,,,,,,,,,,,,,,,,,,,,,,,,,,,,,,,,,,,,,,,,,,,,63,158200,20,Female,1,2024/02/16_14:19:09,YZ,None,
,,,,,240216_143716,TEST,1,1,1,2583,,,,,,,,,,,,,,,,,,,,,,,,,,,,1,1,1,1,cue1.png,easy,A,16,0.7206532839918509,0,954.1055403989885,954.8472471489949,,,,,,,,,,,,,,,,,,,,,,,,,,,,,,,,,,,63,158200,20,Female,1,2024/02/16_14:19:09,YZ,None,
,,,,,,test,1,2,3,2583,1,C,0,right,0.5788664389983751,1,0,,,,,,,,,,,,,,,,,,,,,1,,,,,,,,,,,,,,,,,,,,,,,,,,,,,,,,,,,,,,,,,,,,,,63,158200,20,Female,1,2024/02/16_14:19:09,YZ,None,
,,,,,,test,1,2,3,2583,2,S,0,right,0.7032803900074214,1,0,,,,,,,,,,,,,,,,,,,,,1,,,,,,,,,,,,,,,,,,,,,,,,,,,,,,,,,,,,,,,,,,,,,,63,158200,20,Female,1,2024/02/16_14:19:09,YZ,None,
,,,,,,test,1,2,3,2583,3,V,0,right,0.4721316030045273,1,0,,,,,,,,,,,,,,,,,,,,,1,,,,,,,,,,,,,,,,,,,,,,,,,,,,,,,,,,,,,,,,,,,,,,63,158200,20,Female,1,2024/02/16_14:19:09,YZ,None,
,,,,,,test,1,2,3,2583,4,C,1,left,0.5403434859908884,1,0,,,,,,,,,,,,,,,,,,,,,1,,,,,,,,,,,,,,,,,,,,,,,,,,,,,,,,,,,,,,,,,,,,,,63,158200,20,Female,1,2024/02/16_14:19:09,YZ,None,
,,,,,,test,1,2,3,2583,5,S,1,right,0.40964143199380487,0,0,,,,,,,,,,,,,,,,,,,,,1,,,,,,,,,,,,,,,,,,,,,,,,,,,,,,,,,,,,,,,,,,,,,,63,158200,20,Female,1,2024/02/16_14:19:09,YZ,None,
,,,,,,test,1,2,3,2583,6,X,0,right,0.5805660379992332,1,0,,,,,,,,,,,,,,,,,,,,,1,,,,,,,,,,,,,,,,,,,,,,,,,,,,,,,,,,,,,,,,,,,,,,63,158200,20,Female,1,2024/02/16_14:19:09,YZ,None,
,,,,,,Test,1,2,3,2583,,,,,,,,0.875,0.5,0.0,1.0,0.0,1.0,0.5474715646657083,1,0,0,0,0,4,5,2,4,0,,,,1,,,,,,,,,,,,,,,,,,,,,,,,,,,,,,,,,,,,,,,,,,,,,,63,158200,20,Female,1,2024/02/16_14:19:09,YZ,None,
,,,,,240216_143732,TEST,1,2,3,2583,,,,,,,,,,,,,,,,,,,,,,,,,,,,1,2,2,2,cue2.png,hard,A,31,0.6011146919918247,0,969.8669041829999,970.4840955929976,,,,,,,,,,,,,,,,,,,,,,,,,,,,,,,,,,,63,158200,20,Female,1,2024/02/16_14:19:09,YZ,None,
,,,,,,test,1,3,1,2583,1,C,0,right,0.7140115990041522,1,0,,,,,,,,,,,,,,,,,,,,,1,,,,,,,,,,,,,,,,,,,,,,,,,,,,,,,,,,,,,,,,,,,,,,63,158200,20,Female,1,2024/02/16_14:19:09,YZ,None,
,,,,,,test,1,3,1,2583,2,J,0,right,0.8743881169939414,1,0,,,,,,,,,,,,,,,,,,,,,1,,,,,,,,,,,,,,,,,,,,,,,,,,,,,,,,,,,,,,,,,,,,,,63,158200,20,Female,1,2024/02/16_14:19:09,YZ,None,
,,,,,,test,1,3,1,2583,3,J,1,left,0.5978182749968255,1,0,,,,,,,,,,,,,,,,,,,,,1,,,,,,,,,,,,,,,,,,,,,,,,,,,,,,,,,,,,,,,,,,,,,,63,158200,20,Female,1,2024/02/16_14:19:09,YZ,None,
,,,,,,test,1,3,1,2583,4,V,0,right,0.6638037869997788,1,0,,,,,,,,,,,,,,,,,,,,,1,,,,,,,,,,,,,,,,,,,,,,,,,,,,,,,,,,,,,,,,,,,,,,63,158200,20,Female,1,2024/02/16_14:19:09,YZ,None,
,,,,,,test,1,3,1,2583,5,S,0,right,0.6307915099896491,1,0,,,,,,,,,,,,,,,,,,,,,1,,,,,,,,,,,,,,,,,,,,,,,,,,,,,,,,,,,,,,,,,,,,,,63,158200,20,Female,1,2024/02/16_14:19:09,YZ,None,
,,,,,,test,1,3,1,2583,6,S,1,left,0.6070814500126289,1,0,,,,,,,,,,,,,,,,,,,,,1,,,,,,,,,,,,,,,,,,,,,,,,,,,,,,,,,,,,,,,,,,,,,,63,158200,20,Female,1,2024/02/16_14:19:09,YZ,None,
,,,,,,Test,1,3,1,2583,,,,,,,,1.0,1.0,0.0,1.0,0.0,1.0,0.6813157896661627,2,0,0,0,0,4,6,2,4,0,,,,1,,,,,,,,,,,,,,,,,,,,,,,,,,,,,,,,,,,,,,,,,,,,,,63,158200,20,Female,1,2024/02/16_14:19:09,YZ,None,
,,,,,240216_143749,TEST,1,3,1,2583,,,,,,,,,,,,,,,,,,,,,,,,,,,,1,3,3,3,cue1.png,easy,A,15,0.5563127229979727,0,986.0446792339935,986.6212195729895,,,,,,,,,,,,,,,,,,,,,,,,,,,,,,,,,,,63,158200,20,Female,1,2024/02/16_14:19:09,YZ,None,
,,,,,,test,1,4,3,2583,1,N,0,right,0.5644352960080141,1,0,,,,,,,,,,,,,,,,,,,,,1,,,,,,,,,,,,,,,,,,,,,,,,,,,,,,,,,,,,,,,,,,,,,,63,158200,20,Female,1,2024/02/16_14:19:09,YZ,None,
,,,,,,test,1,4,3,2583,2,F,0,right,0.4190332370053511,1,0,,,,,,,,,,,,,,,,,,,,,1,,,,,,,,,,,,,,,,,,,,,,,,,,,,,,,,,,,,,,,,,,,,,,63,158200,20,Female,1,2024/02/16_14:19:09,YZ,None,
,,,,,,test,1,4,3,2583,3,S,0,right,0.4073571969929617,1,0,,,,,,,,,,,,,,,,,,,,,1,,,,,,,,,,,,,,,,,,,,,,,,,,,,,,,,,,,,,,,,,,,,,,63,158200,20,Female,1,2024/02/16_14:19:09,YZ,None,
,,,,,,test,1,4,3,2583,4,N,1,right,0.6256320359971141,0,0,,,,,,,,,,,,,,,,,,,,,1,,,,,,,,,,,,,,,,,,,,,,,,,,,,,,,,,,,,,,,,,,,,,,63,158200,20,Female,1,2024/02/16_14:19:09,YZ,None,
,,,,,,test,1,4,3,2583,5,F,1,right,0.6942611039994517,0,0,,,,,,,,,,,,,,,,,,,,,1,,,,,,,,,,,,,,,,,,,,,,,,,,,,,,,,,,,,,,,,,,,,,,63,158200,20,Female,1,2024/02/16_14:19:09,YZ,None,
,,,,,,test,1,4,3,2583,6,F,0,left,0.6320554620033363,0,0,,,,,,,,,,,,,,,,,,,,,1,,,,,,,,,,,,,,,,,,,,,,,,,,,,,,,,,,,,,,,,,,,,,,63,158200,20,Female,1,2024/02/16_14:19:09,YZ,None,
,,,,,,Test,1,4,3,2583,,,,,,,,0.1875,0.0,0.25,0.75,0.0,0.75,0.5571290553343715,0,1,0,0,0,3,3,2,4,0,,,,1,,,,,,,,,,,,,,,,,,,,,,,,,,,,,,,,,,,,,,,,,,,,,,63,158200,20,Female,1,2024/02/16_14:19:09,YZ,None,
,,,,,240216_143805,TEST,1,4,3,2583,,,,,,,,,,,,,,,,,,,,,,,,,,,,1,4,4,4,cue2.png,hard,A,32,0.8301618919940665,0,1003.0018856899987,1003.8492675449961,,,,,,,,,,,,,,,,,,,,,,,,,,,,,,,,,,,63,158200,20,Female,1,2024/02/16_14:19:09,YZ,None,
,,,,,,test,1,5,3,2583,1,J,0,right,0.7669319439883111,1,0,,,,,,,,,,,,,,,,,,,,,1,,,,,,,,,,,,,,,,,,,,,,,,,,,,,,,,,,,,,,,,,,,,,,63,158200,20,Female,1,2024/02/16_14:19:09,YZ,None,
,,,,,,test,1,5,3,2583,2,S,0,right,0.45874794299015775,1,0,,,,,,,,,,,,,,,,,,,,,1,,,,,,,,,,,,,,,,,,,,,,,,,,,,,,,,,,,,,,,,,,,,,,63,158200,20,Female,1,2024/02/16_14:19:09,YZ,None,
,,,,,,test,1,5,3,2583,3,F,0,right,0.3160641830036184,1,0,,,,,,,,,,,,,,,,,,,,,1,,,,,,,,,,,,,,,,,,,,,,,,,,,,,,,,,,,,,,,,,,,,,,63,158200,20,Female,1,2024/02/16_14:19:09,YZ,None,
,,,,,,test,1,5,3,2583,4,J,1,left,0.35115147598844487,1,0,,,,,,,,,,,,,,,,,,,,,1,,,,,,,,,,,,,,,,,,,,,,,,,,,,,,,,,,,,,,,,,,,,,,63,158200,20,Female,1,2024/02/16_14:19:09,YZ,None,
,,,,,,test,1,5,3,2583,5,S,1,right,0.41775668499758467,0,0,,,,,,,,,,,,,,,,,,,,,1,,,,,,,,,,,,,,,,,,,,,,,,,,,,,,,,,,,,,,,,,,,,,,63,158200,20,Female,1,2024/02/16_14:19:09,YZ,None,
,,,,,,test,1,5,3,2583,6,X,0,right,0.8076266559946816,1,0,,,,,,,,,,,,,,,,,,,,,1,,,,,,,,,,,,,,,,,,,,,,,,,,,,,,,,,,,,,,,,,,,,,,63,158200,20,Female,1,2024/02/16_14:19:09,YZ,None,
,,,,,,Test,1,5,3,2583,,,,,,,,0.875,0.5,0.0,1.0,0.0,1.0,0.5197131478271331,1,0,0,0,0,4,5,2,4,0,,,,1,,,,,,,,,,,,,,,,,,,,,,,,,,,,,,,,,,,,,,,,,,,,,,63,158200,20,Female,1,2024/02/16_14:19:09,YZ,None,
,,,,,240216_143821,TEST,1,5,3,2583,,,,,,,,,,,,,,,,,,,,,,,,,,,,1,5,5,5,cue2.png,hard,A,30,0.6356543200090528,0,1019.4695573719946,1020.1203531589999,,,,,,,,,,,,,,,,,,,,,,,,,,,,,,,,,,,63,158200,20,Female,1,2024/02/16_14:19:09,YZ,None,
,,,,,,test,1,6,1,2583,1,X,0,right,0.697665195009904,1,0,,,,,,,,,,,,,,,,,,,,,1,,,,,,,,,,,,,,,,,,,,,,,,,,,,,,,,,,,,,,,,,,,,,,63,158200,20,Female,1,2024/02/16_14:19:09,YZ,None,
,,,,,,test,1,6,1,2583,2,F,0,right,0.3728711360017769,1,0,,,,,,,,,,,,,,,,,,,,,1,,,,,,,,,,,,,,,,,,,,,,,,,,,,,,,,,,,,,,,,,,,,,,63,158200,20,Female,1,2024/02/16_14:19:09,YZ,None,
,,,,,,test,1,6,1,2583,3,F,1,left,0.9158039049943909,1,0,,,,,,,,,,,,,,,,,,,,,1,,,,,,,,,,,,,,,,,,,,,,,,,,,,,,,,,,,,,,,,,,,,,,63,158200,20,Female,1,2024/02/16_14:19:09,YZ,None,
,,,,,,test,1,6,1,2583,4,C,0,right,0.460685330996057,1,0,,,,,,,,,,,,,,,,,,,,,1,,,,,,,,,,,,,,,,,,,,,,,,,,,,,,,,,,,,,,,,,,,,,,63,158200,20,Female,1,2024/02/16_14:19:09,YZ,None,
,,,,,,test,1,6,1,2583,5,S,0,right,0.706646852006088,1,0,,,,,,,,,,,,,,,,,,,,,1,,,,,,,,,,,,,,,,,,,,,,,,,,,,,,,,,,,,,,,,,,,,,,63,158200,20,Female,1,2024/02/16_14:19:09,YZ,None,
,,,,,,test,1,6,1,2583,6,S,1,right,0.3827384330070345,0,0,,,,,,,,,,,,,,,,,,,,,1,,,,,,,,,,,,,,,,,,,,,,,,,,,,,,,,,,,,,,,,,,,,,,63,158200,20,Female,1,2024/02/16_14:19:09,YZ,None,
,,,,,,Test,1,6,1,2583,,,,,,,,0.875,0.5,0.0,1.0,0.0,1.0,0.5894018086692085,1,0,0,0,0,4,5,2,4,0,,,,1,,,,,,,,,,,,,,,,,,,,,,,,,,,,,,,,,,,,,,,,,,,,,,63,158200,20,Female,1,2024/02/16_14:19:09,YZ,None,
,,,,,240216_143838,TEST,1,6,1,2583,,,,,,,,,,,,,,,,,,,,,,,,,,,,1,6,6,6,cue1.png,easy,A,19,0.6046662599983392,0,1035.4909108509892,1036.1126707599906,,,,,,,,,,,,,,,,,,,,,,,,,,,,,,,,,,,63,158200,20,Female,1,2024/02/16_14:19:09,YZ,None,
,,,,,,test,1,7,3,2583,1,Q,0,right,0.6031171259965049,1,0,,,,,,,,,,,,,,,,,,,,,1,,,,,,,,,,,,,,,,,,,,,,,,,,,,,,,,,,,,,,,,,,,,,,63,158200,20,Female,1,2024/02/16_14:19:09,YZ,None,
,,,,,,test,1,7,3,2583,2,F,0,right,0.09115265900618397,1,0,,,,,,,,,,,,,,,,,,,,,1,,,,,,,,,,,,,,,,,,,,,,,,,,,,,,,,,,,,,,,,,,,,,,63,158200,20,Female,1,2024/02/16_14:19:09,YZ,None,
,,,,,,test,1,7,3,2583,3,J,0,right,0.14847793101216666,1,0,,,,,,,,,,,,,,,,,,,,,1,,,,,,,,,,,,,,,,,,,,,,,,,,,,,,,,,,,,,,,,,,,,,,63,158200,20,Female,1,2024/02/16_14:19:09,YZ,None,
,,,,,,test,1,7,3,2583,4,Q,1,left,0.38785664799797814,1,0,,,,,,,,,,,,,,,,,,,,,1,,,,,,,,,,,,,,,,,,,,,,,,,,,,,,,,,,,,,,,,,,,,,,63,158200,20,Female,1,2024/02/16_14:19:09,YZ,None,
,,,,,,test,1,7,3,2583,5,F,1,right,0.5647621079988312,0,0,,,,,,,,,,,,,,,,,,,,,1,,,,,,,,,,,,,,,,,,,,,,,,,,,,,,,,,,,,,,,,,,,,,,63,158200,20,Female,1,2024/02/16_14:19:09,YZ,None,
,,,,,,test,1,7,3,2583,6,Q,0,left,0.6408813099988038,0,0,,,,,,,,,,,,,,,,,,,,,1,,,,,,,,,,,,,,,,,,,,,,,,,,,,,,,,,,,,,,,,,,,,,,63,158200,20,Female,1,2024/02/16_14:19:09,YZ,None,
,,,,,,Test,1,7,3,2583,,,,,,,,0.6875,0.5,0.25,0.75,0.0,0.75,0.4060412970017448,1,1,0,0,0,3,4,2,4,0,,,,1,,,,,,,,,,,,,,,,,,,,,,,,,,,,,,,,,,,,,,,,,,,,,,63,158200,20,Female,1,2024/02/16_14:19:09,YZ,None,
,,,,,240216_143853,TEST,1,7,3,2583,,,,,,,,,,,,,,,,,,,,,,,,,,,,1,7,7,7,cue2.png,hard,A,34,0.6359090210025897,0,1051.910823348997,1052.5615623339982,,,,,,,,,,,,,,,,,,,,,,,,,,,,,,,,,,,63,158200,20,Female,1,2024/02/16_14:19:09,YZ,None,
,,,,,,test,1,8,3,2583,1,F,0,right,0.4872686349990545,1,0,,,,,,,,,,,,,,,,,,,,,1,,,,,,,,,,,,,,,,,,,,,,,,,,,,,,,,,,,,,,,,,,,,,,63,158200,20,Female,1,2024/02/16_14:19:09,YZ,None,
,,,,,,test,1,8,3,2583,2,J,0,right,0.7432943140011048,1,0,,,,,,,,,,,,,,,,,,,,,1,,,,,,,,,,,,,,,,,,,,,,,,,,,,,,,,,,,,,,,,,,,,,,63,158200,20,Female,1,2024/02/16_14:19:09,YZ,None,
,,,,,,test,1,8,3,2583,3,S,0,right,1.008355059006135,1,0,,,,,,,,,,,,,,,,,,,,,1,,,,,,,,,,,,,,,,,,,,,,,,,,,,,,,,,,,,,,,,,,,,,,63,158200,20,Female,1,2024/02/16_14:19:09,YZ,None,
,,,,,,test,1,8,3,2583,4,J,0,left,0.9232504629908362,0,0,,,,,,,,,,,,,,,,,,,,,1,,,,,,,,,,,,,,,,,,,,,,,,,,,,,,,,,,,,,,,,,,,,,,63,158200,20,Female,1,2024/02/16_14:19:09,YZ,None,
,,,,,,test,1,8,3,2583,5,J,1,left,0.7905912379937945,1,0,,,,,,,,,,,,,,,,,,,,,1,,,,,,,,,,,,,,,,,,,,,,,,,,,,,,,,,,,,,,,,,,,,,,63,158200,20,Female,1,2024/02/16_14:19:09,YZ,None,
,,,,,,test,1,8,3,2583,6,S,1,right,1.1071506129956106,0,0,,,,,,,,,,,,,,,,,,,,,1,,,,,,,,,,,,,,,,,,,,,,,,,,,,,,,,,,,,,,,,,,,,,,63,158200,20,Female,1,2024/02/16_14:19:09,YZ,None,
,,,,,,Test,1,8,3,2583,,,,,,,,0.6875,0.5,0.25,0.75,0.0,0.75,0.843318386997756,1,1,0,0,0,3,4,2,4,0,,,,1,,,,,,,,,,,,,,,,,,,,,,,,,,,,,,,,,,,,,,,,,,,,,,63,158200,20,Female,1,2024/02/16_14:19:09,YZ,None,
,,,,,240216_143911,TEST,1,8,3,2583,,,,,,,,,,,,,,,,,,,,,,,,,,,,1,8,8,8,cue2.png,hard,A,36,0.8645719289925182,0,1067.2652376199985,1068.146504985998,,,,,,,,,,,,,,,,,,,,,,,,,,,,,,,,,,,63,158200,20,Female,1,2024/02/16_14:19:09,YZ,None,
,,,,,,test,1,9,1,2583,1,C,0,right,0.49721853199298494,1,0,,,,,,,,,,,,,,,,,,,,,1,,,,,,,,,,,,,,,,,,,,,,,,,,,,,,,,,,,,,,,,,,,,,,63,158200,20,Female,1,2024/02/16_14:19:09,YZ,None,
,,,,,,test,1,9,1,2583,2,X,0,right,0.5485903209919343,1,0,,,,,,,,,,,,,,,,,,,,,1,,,,,,,,,,,,,,,,,,,,,,,,,,,,,,,,,,,,,,,,,,,,,,63,158200,20,Female,1,2024/02/16_14:19:09,YZ,None,
,,,,,,test,1,9,1,2583,3,Q,0,right,0.4502136540104402,1,0,,,,,,,,,,,,,,,,,,,,,1,,,,,,,,,,,,,,,,,,,,,,,,,,,,,,,,,,,,,,,,,,,,,,63,158200,20,Female,1,2024/02/16_14:19:09,YZ,None,
,,,,,,test,1,9,1,2583,4,Q,1,left,0.3513385590049438,1,0,,,,,,,,,,,,,,,,,,,,,1,,,,,,,,,,,,,,,,,,,,,,,,,,,,,,,,,,,,,,,,,,,,,,63,158200,20,Female,1,2024/02/16_14:19:09,YZ,None,
,,,,,,test,1,9,1,2583,5,N,0,right,0.39455736499803606,1,0,,,,,,,,,,,,,,,,,,,,,1,,,,,,,,,,,,,,,,,,,,,,,,,,,,,,,,,,,,,,,,,,,,,,63,158200,20,Female,1,2024/02/16_14:19:09,YZ,None,
,,,,,,test,1,9,1,2583,6,N,1,right,0.43993888999102637,0,0,,,,,,,,,,,,,,,,,,,,,1,,,,,,,,,,,,,,,,,,,,,,,,,,,,,,,,,,,,,,,,,,,,,,63,158200,20,Female,1,2024/02/16_14:19:09,YZ,None,
,,,,,,Test,1,9,1,2583,,,,,,,,0.875,0.5,0.0,1.0,0.0,1.0,0.4469762201648943,1,0,0,0,0,4,5,2,4,0,,,,1,,,,,,,,,,,,,,,,,,,,,,,,,,,,,,,,,,,,,,,,,,,,,,63,158200,20,Female,1,2024/02/16_14:19:09,YZ,None,
,,,,,240216_143927,TEST,1,9,1,2583,,,,,,,,,,,,,,,,,,,,,,,,,,,,1,9,9,9,cue1.png,easy,A,22,0.5181100379995769,0,1085.4840914589877,1086.0179136719962,,,,,,,,,,,,,,,,,,,,,,,,,,,,,,,,,,,63,158200,20,Female,1,2024/02/16_14:19:09,YZ,None,
,,,,,,test,1,10,1,2583,1,J,0,right,0.5001822979975259,1,0,,,,,,,,,,,,,,,,,,,,,1,,,,,,,,,,,,,,,,,,,,,,,,,,,,,,,,,,,,,,,,,,,,,,63,158200,20,Female,1,2024/02/16_14:19:09,YZ,None,
,,,,,,test,1,10,1,2583,2,J,1,left,0.44009286400978453,1,0,,,,,,,,,,,,,,,,,,,,,1,,,,,,,,,,,,,,,,,,,,,,,,,,,,,,,,,,,,,,,,,,,,,,63,158200,20,Female,1,2024/02/16_14:19:09,YZ,None,
,,,,,,test,1,10,1,2583,3,F,0,right,0.6834145579923643,1,0,,,,,,,,,,,,,,,,,,,,,1,,,,,,,,,,,,,,,,,,,,,,,,,,,,,,,,,,,,,,,,,,,,,,63,158200,20,Female,1,2024/02/16_14:19:09,YZ,None,
,,,,,,test,1,10,1,2583,4,F,1,left,0.4978406860027462,1,0,,,,,,,,,,,,,,,,,,,,,1,,,,,,,,,,,,,,,,,,,,,,,,,,,,,,,,,,,,,,,,,,,,,,63,158200,20,Female,1,2024/02/16_14:19:09,YZ,None,
,,,,,,test,1,10,1,2583,5,N,0,right,0.642156841000542,1,0,,,,,,,,,,,,,,,,,,,,,1,,,,,,,,,,,,,,,,,,,,,,,,,,,,,,,,,,,,,,,,,,,,,,63,158200,20,Female,1,2024/02/16_14:19:09,YZ,None,
,,,,,,test,1,10,1,2583,6,F,0,left,0.48408857599133626,0,0,,,,,,,,,,,,,,,,,,,,,1,,,,,,,,,,,,,,,,,,,,,,,,,,,,,,,,,,,,,,,,,,,,,,63,158200,20,Female,1,2024/02/16_14:19:09,YZ,None,
,,,,,,Test,1,10,1,2583,,,,,,,,0.9375,1.0,0.25,0.75,0.0,0.75,0.5412959704990499,2,1,0,0,0,3,5,2,4,0,,,,1,,,,,,,,,,,,,,,,,,,,,,,,,,,,,,,,,,,,,,,,,,,,,,63,158200,20,Female,1,2024/02/16_14:19:09,YZ,None,
,,,,,240216_143943,TEST,1,10,1,2583,,,,,,,,,,,,,,,,,,,,,,,,,,,,1,10,10,10,cue1.png,easy,A,14,0.45456963700416964,0,1100.9615246179892,1101.4367543879926,,,,,,,,,,,,,,,,,,,,,,,,,,,,,,,,,,,63,158200,20,Female,1,2024/02/16_14:19:09,YZ,None,
,,,,,,test,1,11,3,2583,1,V,0,right,0.6480103899957612,1,0,,,,,,,,,,,,,,,,,,,,,1,,,,,,,,,,,,,,,,,,,,,,,,,,,,,,,,,,,,,,,,,,,,,,63,158200,20,Female,1,2024/02/16_14:19:09,YZ,None,
,,,,,,test,1,11,3,2583,2,S,0,right,0.8126065579999704,1,0,,,,,,,,,,,,,,,,,,,,,1,,,,,,,,,,,,,,,,,,,,,,,,,,,,,,,,,,,,,,,,,,,,,,63,158200,20,Female,1,2024/02/16_14:19:09,YZ,None,
,,,,,,test,1,11,3,2583,3,J,0,right,0.2088361759961117,1,0,,,,,,,,,,,,,,,,,,,,,1,,,,,,,,,,,,,,,,,,,,,,,,,,,,,,,,,,,,,,,,,,,,,,63,158200,20,Female,1,2024/02/16_14:19:09,YZ,None,
,,,,,,test,1,11,3,2583,4,S,0,left,0.36707793599634897,0,0,,,,,,,,,,,,,,,,,,,,,1,,,,,,,,,,,,,,,,,,,,,,,,,,,,,,,,,,,,,,,,,,,,,,63,158200,20,Female,1,2024/02/16_14:19:09,YZ,None,
,,,,,,test,1,11,3,2583,5,S,1,left,1.479771141996025,1,0,,,,,,,,,,,,,,,,,,,,,1,,,,,,,,,,,,,,,,,,,,,,,,,,,,,,,,,,,,,,,,,,,,,,63,158200,20,Female,1,2024/02/16_14:19:09,YZ,None,
,,,,,,test,1,11,3,2583,6,J,1,right,0.6086515069910092,0,0,,,,,,,,,,,,,,,,,,,,,1,,,,,,,,,,,,,,,,,,,,,,,,,,,,,,,,,,,,,,,,,,,,,,63,158200,20,Female,1,2024/02/16_14:19:09,YZ,None,
,,,,,,Test,1,11,3,2583,,,,,,,,0.6875,0.5,0.25,0.75,0.0,0.75,0.6874922848292044,1,1,0,0,0,3,4,2,4,0,,,,1,,,,,,,,,,,,,,,,,,,,,,,,,,,,,,,,,,,,,,,,,,,,,,63,158200,20,Female,1,2024/02/16_14:19:09,YZ,None,
,,,,,240216_144000,TEST,1,11,3,2583,,,,,,,,,,,,,,,,,,,,,,,,,,,,1,11,11,11,cue2.png,hard,A,37,0.726115657002083,0,1116.9519901239983,1117.6923829759908,,,,,,,,,,,,,,,,,,,,,,,,,,,,,,,,,,,63,158200,20,Female,1,2024/02/16_14:19:09,YZ,None,
,,,,,,test,1,12,1,2583,1,V,0,right,0.5127581429987913,1,0,,,,,,,,,,,,,,,,,,,,,1,,,,,,,,,,,,,,,,,,,,,,,,,,,,,,,,,,,,,,,,,,,,,,63,158200,20,Female,1,2024/02/16_14:19:09,YZ,None,
,,,,,,test,1,12,1,2583,2,C,0,right,0.4946257819974562,1,0,,,,,,,,,,,,,,,,,,,,,1,,,,,,,,,,,,,,,,,,,,,,,,,,,,,,,,,,,,,,,,,,,,,,63,158200,20,Female,1,2024/02/16_14:19:09,YZ,None,
,,,,,,test,1,12,1,2583,3,C,1,left,0.9468860240012873,1,0,,,,,,,,,,,,,,,,,,,,,1,,,,,,,,,,,,,,,,,,,,,,,,,,,,,,,,,,,,,,,,,,,,,,63,158200,20,Female,1,2024/02/16_14:19:09,YZ,None,
,,,,,,test,1,12,1,2583,4,V,0,right,0.8400996330019552,1,0,,,,,,,,,,,,,,,,,,,,,1,,,,,,,,,,,,,,,,,,,,,,,,,,,,,,,,,,,,,,,,,,,,,,63,158200,20,Female,1,2024/02/16_14:19:09,YZ,None,
,,,,,,test,1,12,1,2583,5,X,0,right,0.8977745899901493,1,0,,,,,,,,,,,,,,,,,,,,,1,,,,,,,,,,,,,,,,,,,,,,,,,,,,,,,,,,,,,,,,,,,,,,63,158200,20,Female,1,2024/02/16_14:19:09,YZ,None,
,,,,,,test,1,12,1,2583,6,X,1,left,0.624115875994903,1,0,,,,,,,,,,,,,,,,,,,,,1,,,,,,,,,,,,,,,,,,,,,,,,,,,,,,,,,,,,,,,,,,,,,,63,158200,20,Female,1,2024/02/16_14:19:09,YZ,None,
,,,,,,Test,1,12,1,2583,,,,,,,,1.0,1.0,0.0,1.0,0.0,1.0,0.7193766746640904,2,0,0,0,0,4,6,2,4,0,,,,1,,,,,,,,,,,,,,,,,,,,,,,,,,,,,,,,,,,,,,,,,,,,,,63,158200,20,Female,1,2024/02/16_14:19:09,YZ,None,
,,,,,240216_144017,TEST,1,12,1,2583,,,,,,,,,,,,,,,,,,,,,,,,,,,,1,12,12,12,cue1.png,easy,A,14,0.5118962609994924,0,1134.0966571369936,1134.620884019998,,,,,,,,,,,,,,,,,,,,,,,,,,,,,,,,,,,63,158200,20,Female,1,2024/02/16_14:19:09,YZ,None,
,,,,,,test,1,13,1,2583,1,X,0,right,0.49666443100431934,1,0,,,,,,,,,,,,,,,,,,,,,1,,,,,,,,,,,,,,,,,,,,,,,,,,,,,,,,,,,,,,,,,,,,,,63,158200,20,Female,1,2024/02/16_14:19:09,YZ,None,
,,,,,,test,1,13,1,2583,2,X,1,left,0.8515814739948837,1,0,,,,,,,,,,,,,,,,,,,,,1,,,,,,,,,,,,,,,,,,,,,,,,,,,,,,,,,,,,,,,,,,,,,,63,158200,20,Female,1,2024/02/16_14:19:09,YZ,None,
,,,,,,test,1,13,1,2583,3,C,0,left,1.2468967890017666,0,0,,,,,,,,,,,,,,,,,,,,,1,,,,,,,,,,,,,,,,,,,,,,,,,,,,,,,,,,,,,,,,,,,,,,63,158200,20,Female,1,2024/02/16_14:19:09,YZ,None,
,,,,,,test,1,13,1,2583,4,V,0,right,0.6077058469963958,1,0,,,,,,,,,,,,,,,,,,,,,1,,,,,,,,,,,,,,,,,,,,,,,,,,,,,,,,,,,,,,,,,,,,,,63,158200,20,Female,1,2024/02/16_14:19:09,YZ,None,
,,,,,,test,1,13,1,2583,5,N,0,right,0.48659976800263394,1,0,,,,,,,,,,,,,,,,,,,,,1,,,,,,,,,,,,,,,,,,,,,,,,,,,,,,,,,,,,,,,,,,,,,,63,158200,20,Female,1,2024/02/16_14:19:09,YZ,None,
,,,,,,test,1,13,1,2583,6,N,1,right,0.3844446959992638,0,0,,,,,,,,,,,,,,,,,,,,,1,,,,,,,,,,,,,,,,,,,,,,,,,,,,,,,,,,,,,,,,,,,,,,63,158200,20,Female,1,2024/02/16_14:19:09,YZ,None,
,,,,,,Test,1,13,1,2583,,,,,,,,0.6875,0.5,0.25,0.75,0.0,0.75,0.6789821674998772,1,1,0,0,0,3,4,2,4,0,,,,1,,,,,,,,,,,,,,,,,,,,,,,,,,,,,,,,,,,,,,,,,,,,,,63,158200,20,Female,1,2024/02/16_14:19:09,YZ,None,
,,,,,240216_144034,TEST,1,13,1,2583,,,,,,,,,,,,,,,,,,,,,,,,,,,,1,13,13,13,cue1.png,easy,A,17,0.6165924889937742,0,1151.2083603869978,1151.841512633997,,,,,,,,,,,,,,,,,,,,,,,,,,,,,,,,,,,63,158200,20,Female,1,2024/02/16_14:19:09,YZ,None,
,,,,,,test,1,14,1,2583,1,S,0,right,0.5124508110020543,1,0,,,,,,,,,,,,,,,,,,,,,1,,,,,,,,,,,,,,,,,,,,,,,,,,,,,,,,,,,,,,,,,,,,,,63,158200,20,Female,1,2024/02/16_14:19:09,YZ,None,
,,,,,,test,1,14,1,2583,2,S,1,left,0.3431239049969008,1,0,,,,,,,,,,,,,,,,,,,,,1,,,,,,,,,,,,,,,,,,,,,,,,,,,,,,,,,,,,,,,,,,,,,,63,158200,20,Female,1,2024/02/16_14:19:09,YZ,None,
,,,,,,test,1,14,1,2583,3,C,0,right,0.6318157329951646,1,0,,,,,,,,,,,,,,,,,,,,,1,,,,,,,,,,,,,,,,,,,,,,,,,,,,,,,,,,,,,,,,,,,,,,63,158200,20,Female,1,2024/02/16_14:19:09,YZ,None,
,,,,,,test,1,14,1,2583,4,J,0,right,0.42817304001073353,1,0,,,,,,,,,,,,,,,,,,,,,1,,,,,,,,,,,,,,,,,,,,,,,,,,,,,,,,,,,,,,,,,,,,,,63,158200,20,Female,1,2024/02/16_14:19:09,YZ,None,
,,,,,,test,1,14,1,2583,5,J,1,left,0.3884119610011112,1,0,,,,,,,,,,,,,,,,,,,,,1,,,,,,,,,,,,,,,,,,,,,,,,,,,,,,,,,,,,,,,,,,,,,,63,158200,20,Female,1,2024/02/16_14:19:09,YZ,None,
,,,,,,test,1,14,1,2583,6,F,0,right,0.49611705100687686,1,0,,,,,,,,,,,,,,,,,,,,,1,,,,,,,,,,,,,,,,,,,,,,,,,,,,,,,,,,,,,,,,,,,,,,63,158200,20,Female,1,2024/02/16_14:19:09,YZ,None,
,,,,,,Test,1,14,1,2583,,,,,,,,1.0,1.0,0.0,1.0,0.0,1.0,0.4666820835021402,2,0,0,0,0,4,6,2,4,0,,,,1,,,,,,,,,,,,,,,,,,,,,,,,,,,,,,,,,,,,,,,,,,,,,,63,158200,20,Female,1,2024/02/16_14:19:09,YZ,None,
,,,,,240216_144050,TEST,1,14,1,2583,,,,,,,,,,,,,,,,,,,,,,,,,,,,1,14,14,14,cue1.png,easy,A,26,0.9300909230078105,0,1168.1720742759935,1169.119481952992,,,,,,,,,,,,,,,,,,,,,,,,,,,,,,,,,,,63,158200,20,Female,1,2024/02/16_14:19:09,YZ,None,
,,,,,,test,1,15,3,2583,1,V,0,right,0.8424590969952988,1,0,,,,,,,,,,,,,,,,,,,,,1,,,,,,,,,,,,,,,,,,,,,,,,,,,,,,,,,,,,,,,,,,,,,,63,158200,20,Female,1,2024/02/16_14:19:09,YZ,None,
,,,,,,test,1,15,3,2583,2,J,0,right,0.3193916539894417,1,0,,,,,,,,,,,,,,,,,,,,,1,,,,,,,,,,,,,,,,,,,,,,,,,,,,,,,,,,,,,,,,,,,,,,63,158200,20,Female,1,2024/02/16_14:19:09,YZ,None,
,,,,,,test,1,15,3,2583,3,S,0,right,0.21010780001233798,1,0,,,,,,,,,,,,,,,,,,,,,1,,,,,,,,,,,,,,,,,,,,,,,,,,,,,,,,,,,,,,,,,,,,,,63,158200,20,Female,1,2024/02/16_14:19:09,YZ,None,
,,,,,,test,1,15,3,2583,4,Q,0,right,0.4684832390048541,1,0,,,,,,,,,,,,,,,,,,,,,1,,,,,,,,,,,,,,,,,,,,,,,,,,,,,,,,,,,,,,,,,,,,,,63,158200,20,Female,1,2024/02/16_14:19:09,YZ,None,
,,,,,,test,1,15,3,2583,5,J,1,left,0.8851055199920665,1,0,,,,,,,,,,,,,,,,,,,,,1,,,,,,,,,,,,,,,,,,,,,,,,,,,,,,,,,,,,,,,,,,,,,,63,158200,20,Female,1,2024/02/16_14:19:09,YZ,None,
,,,,,,test,1,15,3,2583,6,S,1,left,0.7577728199976264,1,0,,,,,,,,,,,,,,,,,,,,,1,,,,,,,,,,,,,,,,,,,,,,,,,,,,,,,,,,,,,,,,,,,,,,63,158200,20,Female,1,2024/02/16_14:19:09,YZ,None,
,,,,,,Test,1,15,3,2583,,,,,,,,1.0,1.0,0.0,1.0,0.0,1.0,0.5805533549986043,2,0,0,0,0,4,6,2,4,0,,,,1,,,,,,,,,,,,,,,,,,,,,,,,,,,,,,,,,,,,,,,,,,,,,,63,158200,20,Female,1,2024/02/16_14:19:09,YZ,None,
,,,,,240216_144107,TEST,1,15,3,2583,,,,,,,,,,,,,,,,,,,,,,,,,,,,1,15,15,15,cue2.png,hard,A,36,1.164714726008242,0,1184.1832708089933,1185.364615255996,,,,,,,,,,,,,,,,,,,,,,,,,,,,,,,,,,,63,158200,20,Female,1,2024/02/16_14:19:09,YZ,None,
,,,,,,test,1,16,1,2583,1,N,0,right,0.4761003500025254,1,0,,,,,,,,,,,,,,,,,,,,,1,,,,,,,,,,,,,,,,,,,,,,,,,,,,,,,,,,,,,,,,,,,,,,63,158200,20,Female,1,2024/02/16_14:19:09,YZ,None,
,,,,,,test,1,16,1,2583,2,J,0,right,0.4841336579993367,1,0,,,,,,,,,,,,,,,,,,,,,1,,,,,,,,,,,,,,,,,,,,,,,,,,,,,,,,,,,,,,,,,,,,,,63,158200,20,Female,1,2024/02/16_14:19:09,YZ,None,
,,,,,,test,1,16,1,2583,3,J,1,left,0.5695268999988912,1,0,,,,,,,,,,,,,,,,,,,,,1,,,,,,,,,,,,,,,,,,,,,,,,,,,,,,,,,,,,,,,,,,,,,,63,158200,20,Female,1,2024/02/16_14:19:09,YZ,None,
