Instruction,Stimulus,Key,RT,START,END,Phase,Block,TrialN,NbackLevel,ISI,LetterN,Letter,Letter_isSame,Letter_Resp,Letter_RT,Letter_Accuracy,Letter_Timeout,Trial_A_measure,Trial_HR,Trial_FAR,Trial_CDR,Trial_MSR,Trial_ACC,Trial_RT,Trial_HitsCount,Trial_FAsCount,Trial_SameNoRespCount,Trial_DiffNoRespCount,Trial_NoRespCount,Trial_CDsCount,Trial_CorrectRespCount,Trial_SameLetterCount,Trial_DiffLetterCount,Trial_InvalidLetterCount,TrialCountCali,CaliEnd_A_measure,ISI_calibrated,Run,TrialIndex,TrialNumber_total,TrialNumber_valid,CueLearning,TrialDemandLearning,CueMapping,OnlineRating,OnlineRatingRT,OnlineRatingTimeOut,CueSTART,RatingSTART,OfflineRatingTimePoint,OfflineRatingQuesIndex,CueFigure,TrialDemand,OfflineRating,OfflineRatingRT,CueStart,OfflineRatingStart,PhaseType,CueLeft,CueDemandLeft,CueRight,CueDemandRight,Choice,ChoiceDemand,TaskDemand,ChoiceRT,ChoiceTimeOut,ChoiceSTART,CueCheck,CueDemandCheck,CorrectAnswer,Answer,AnswerDemand,AnswerRT,AnswerACC,AnswerTimeOut,CheckSTART,DemandRatingQuesIndex,QuesTLX,DemandLevel,DemandRating,DemandRatingRT,QuesStart,PID,SONA,Age,Gender,Run,TIME,EXPERIMENTER,frameRate
-1,./instructions/inst_begin/Slide2.png,left,25.62923327,1.71019339,27.33942666,,,,,,,,,,,,,,,,,,,,,,,,,,,,,,,,,1,,,,,,,,,,,,,,,,,,,,,,,,,,,,,,,,,,,,,,,,,,,,,,56,152005,21,Female,1,2024/02/14_12:13:15,SD,59.98725138
0,./instructions/inst_begin/Slide4.png,right,17.35846338,27.42894651,44.78740988,,,,,,,,,,,,,,,,,,,,,,,,,,,,,,,,,1,,,,,,,,,,,,,,,,,,,,,,,,,,,,,,,,,,,,,,,,,,,,,,56,152005,21,Female,1,2024/02/14_12:13:15,SD,59.98725138
1,./instructions/inst_begin/Slide2.png,right,4.938923437,44.83224198,49.77116542,,,,,,,,,,,,,,,,,,,,,,,,,,,,,,,,,1,,,,,,,,,,,,,,,,,,,,,,,,,,,,,,,,,,,,,,,,,,,,,,56,152005,21,Female,1,2024/02/14_12:13:15,SD,59.98725138
2,./instructions/inst_begin/Slide3.png,right,8.005470202,49.84582512,57.85129532,,,,,,,,,,,,,,,,,,,,,,,,,,,,,,,,,1,,,,,,,,,,,,,,,,,,,,,,,,,,,,,,,,,,,,,,,,,,,,,,56,152005,21,Female,1,2024/02/14_12:13:15,SD,59.98725138
3,./instructions/inst_begin/Slide4.png,right,13.16701619,57.89207125,71.05908743,,,,,,,,,,,,,,,,,,,,,,,,,,,,,,,,,1,,,,,,,,,,,,,,,,,,,,,,,,,,,,,,,,,,,,,,,,,,,,,,56,152005,21,Female,1,2024/02/14_12:13:15,SD,59.98725138
1,./instructions/inst_prac_2/Slide6.png,right,18.70729655,71.16816229,89.87545885,,,,,,,,,,,,,,,,,,,,,,,,,,,,,,,,,1,,,,,,,,,,,,,,,,,,,,,,,,,,,,,,,,,,,,,,,,,,,,,,56,152005,21,Female,1,2024/02/14_12:13:15,SD,59.98725138
2,./instructions/inst_prac_2/Slide7.png,right,35.44503911,89.94229522,125.3873343,,,,,,,,,,,,,,,,,,,,,,,,,,,,,,,,,1,,,,,,,,,,,,,,,,,,,,,,,,,,,,,,,,,,,,,,,,,,,,,,56,152005,21,Female,1,2024/02/14_12:13:15,SD,59.98725138
3,./instructions/inst_prac_2/Slide8.png,right,36.09863146,125.4407313,161.5393627,,,,,,,,,,,,,,,,,,,,,,,,,,,,,,,,,1,,,,,,,,,,,,,,,,,,,,,,,,,,,,,,,,,,,,,,,,,,,,,,56,152005,21,Female,1,2024/02/14_12:13:15,SD,59.98725138
4,./instructions/inst_prac_2/Slide9.png,right,5.931336352,161.5997252,167.5310616,,,,,,,,,,,,,,,,,,,,,,,,,,,,,,,,,1,,,,,,,,,,,,,,,,,,,,,,,,,,,,,,,,,,,,,,,,,,,,,,56,152005,21,Female,1,2024/02/14_12:13:15,SD,59.98725138
5,./instructions/inst_prac_2/Slide10.png,right,5.152126119,167.6029434,172.7550695,,,,,,,,,,,,,,,,,,,,,,,,,,,,,,,,,1,,,,,,,,,,,,,,,,,,,,,,,,,,,,,,,,,,,,,,,,,,,,,,56,152005,21,Female,1,2024/02/14_12:13:15,SD,59.98725138
6,./instructions/inst_prac_2/Slide11.png,right,1.40147255,172.8177268,174.2191993,,,,,,,,,,,,,,,,,,,,,,,,,,,,,,,,,1,,,,,,,,,,,,,,,,,,,,,,,,,,,,,,,,,,,,,,,,,,,,,,56,152005,21,Female,1,2024/02/14_12:13:15,SD,59.98725138
7,./instructions/inst_prac_2/Slide12.png,right,3.066712253,174.3204104,177.3871227,,,,,,,,,,,,,,,,,,,,,,,,,,,,,,,,,1,,,,,,,,,,,,,,,,,,,,,,,,,,,,,,,,,,,,,,,,,,,,,,56,152005,21,Female,1,2024/02/14_12:13:15,SD,59.98725138
8,./instructions/inst_prac_2/Slide13.png,right,2.139855845,177.4553828,179.5952387,,,,,,,,,,,,,,,,,,,,,,,,,,,,,,,,,1,,,,,,,,,,,,,,,,,,,,,,,,,,,,,,,,,,,,,,,,,,,,,,56,152005,21,Female,1,2024/02/14_12:13:15,SD,59.98725138
9,./instructions/inst_prac_2/Slide14.png,right,18.10793614,179.647347,197.7552832,,,,,,,,,,,,,,,,,,,,,,,,,,,,,,,,,1,,,,,,,,,,,,,,,,,,,,,,,,,,,,,,,,,,,,,,,,,,,,,,56,152005,21,Female,1,2024/02/14_12:13:15,SD,59.98725138
10,./instructions/inst_prac_2/Slide15.png,right,27.10374484,197.8195188,224.9232636,,,,,,,,,,,,,,,,,,,,,,,,,,,,,,,,,1,,,,,,,,,,,,,,,,,,,,,,,,,,,,,,,,,,,,,,,,,,,,,,56,152005,21,Female,1,2024/02/14_12:13:15,SD,59.98725138
,,,,,,practice,0,14,2,2583,1,J,0,right,3.205058506,1,0,,,,,,,,,,,,,,,,,,,,,1,,,,,,,,,,,,,,,,,,,,,,,,,,,,,,,,,,,,,,,,,,,,,,56,152005,21,Female,1,2024/02/14_12:13:15,SD,59.98725138
,,,,,,practice,0,14,2,2583,2,C,0,right,1.246477772,1,0,,,,,,,,,,,,,,,,,,,,,1,,,,,,,,,,,,,,,,,,,,,,,,,,,,,,,,,,,,,,,,,,,,,,56,152005,21,Female,1,2024/02/14_12:13:15,SD,59.98725138
,,,,,,practice,0,14,2,2583,3,J,1,left,0.681115071,1,0,,,,,,,,,,,,,,,,,,,,,1,,,,,,,,,,,,,,,,,,,,,,,,,,,,,,,,,,,,,,,,,,,,,,56,152005,21,Female,1,2024/02/14_12:13:15,SD,59.98725138
,,,,,,practice,0,14,2,2583,4,C,1,left,1.472301471,1,0,,,,,,,,,,,,,,,,,,,,,1,,,,,,,,,,,,,,,,,,,,,,,,,,,,,,,,,,,,,,,,,,,,,,56,152005,21,Female,1,2024/02/14_12:13:15,SD,59.98725138
,,,,,,practice,0,14,2,2583,5,S,0,right,0.913432213,1,0,,,,,,,,,,,,,,,,,,,,,1,,,,,,,,,,,,,,,,,,,,,,,,,,,,,,,,,,,,,,,,,,,,,,56,152005,21,Female,1,2024/02/14_12:13:15,SD,59.98725138
,,,,,,practice,0,14,2,2583,6,F,0,right,0.607536652,1,0,,,,,,,,,,,,,,,,,,,,,1,,,,,,,,,,,,,,,,,,,,,,,,,,,,,,,,,,,,,,,,,,,,,,56,152005,21,Female,1,2024/02/14_12:13:15,SD,59.98725138
,,,,,,practice,0,14,2,2583,,,,,,,,1,1,0,1,0,1,1.354320281,2,0,0,0,0,4,6,2,4,0,,,,1,,,,,,,,,,,,,,,,,,,,,,,,,,,,,,,,,,,,,,,,,,,,,,56,152005,21,Female,1,2024/02/14_12:13:15,SD,59.98725138
1,./instructions/inst_to_cali/Slide20.png,right,10.87434417,239.6169497,250.4912938,,,,,,,,,,,,,,,,,,,,,,,,,,,,,,,,,1,,,,,,,,,,,,,,,,,,,,,,,,,,,,,,,,,,,,,,,,,,,,,,56,152005,21,Female,1,2024/02/14_12:13:15,SD,59.98725138
1,./instructions/inst_cali/Slide22.png,right,14.76433492,250.558923,265.323258,,,,,,,,,,,,,,,,,,,,,,,,,,,,,,,,,1,,,,,,,,,,,,,,,,,,,,,,,,,,,,,,,,,,,,,,,,,,,,,,56,152005,21,Female,1,2024/02/14_12:13:15,SD,59.98725138
,,,,,,calibration,0,29,2,583,1,X,0,right,0.846262835,1,0,,,,,,,,,,,,,,,,,,,,,1,,,,,,,,,,,,,,,,,,,,,,,,,,,,,,,,,,,,,,,,,,,,,,56,152005,21,Female,1,2024/02/14_12:13:15,SD,59.98725138
,,,,,,calibration,0,29,2,583,2,Q,0,right,0.4136413,1,0,,,,,,,,,,,,,,,,,,,,,1,,,,,,,,,,,,,,,,,,,,,,,,,,,,,,,,,,,,,,,,,,,,,,56,152005,21,Female,1,2024/02/14_12:13:15,SD,59.98725138
,,,,,,calibration,0,29,2,583,3,F,0,left,0.561309616,0,0,,,,,,,,,,,,,,,,,,,,,1,,,,,,,,,,,,,,,,,,,,,,,,,,,,,,,,,,,,,,,,,,,,,,56,152005,21,Female,1,2024/02/14_12:13:15,SD,59.98725138
,,,,,,calibration,0,29,2,583,4,Q,1,right,0.25019068,0,0,,,,,,,,,,,,,,,,,,,,,1,,,,,,,,,,,,,,,,,,,,,,,,,,,,,,,,,,,,,,,,,,,,,,56,152005,21,Female,1,2024/02/14_12:13:15,SD,59.98725138
,,,,,,calibration,0,29,2,583,5,N,0,right,0.528427814,1,0,,,,,,,,,,,,,,,,,,,,,1,,,,,,,,,,,,,,,,,,,,,,,,,,,,,,,,,,,,,,,,,,,,,,56,152005,21,Female,1,2024/02/14_12:13:15,SD,59.98725138
,,,,,,calibration,0,29,2,583,6,S,0,right,0.545218082,1,0,,,,,,,,,,,,,,,,,,,,,1,,,,,,,,,,,,,,,,,,,,,,,,,,,,,,,,,,,,,,,,,,,,,,56,152005,21,Female,1,2024/02/14_12:13:15,SD,59.98725138
,,,,,,calibration,0,29,2,583,7,N,1,right,0.392537811,0,0,,,,,,,,,,,,,,,,,,,,,1,,,,,,,,,,,,,,,,,,,,,,,,,,,,,,,,,,,,,,,,,,,,,,56,152005,21,Female,1,2024/02/14_12:13:15,SD,59.98725138
,,,,,,calibration,0,29,2,583,8,Q,0,right,0.528004177,1,0,,,,,,,,,,,,,,,,,,,,,1,,,,,,,,,,,,,,,,,,,,,,,,,,,,,,,,,,,,,,,,,,,,,,56,152005,21,Female,1,2024/02/14_12:13:15,SD,59.98725138
,,,,,,calibration,0,29,2,583,9,V,0,right,0.407219797,1,0,,,,,,,,,,,,,,,,,,,,,1,,,,,,,,,,,,,,,,,,,,,,,,,,,,,,,,,,,,,,,,,,,,,,56,152005,21,Female,1,2024/02/14_12:13:15,SD,59.98725138
,,,,,,calibration,0,29,2,583,10,N,0,right,0.694812314,1,0,,,,,,,,,,,,,,,,,,,,,1,,,,,,,,,,,,,,,,,,,,,,,,,,,,,,,,,,,,,,,,,,,,,,56,152005,21,Female,1,2024/02/14_12:13:15,SD,59.98725138
,,,,,,calibration,0,29,2,583,11,V,1,right,0.628718639,0,0,,,,,,,,,,,,,,,,,,,,,1,,,,,,,,,,,,,,,,,,,,,,,,,,,,,,,,,,,,,,,,,,,,,,56,152005,21,Female,1,2024/02/14_12:13:15,SD,59.98725138
,,,,,,calibration,0,29,2,583,12,X,0,right,0.64532865,1,0,,,,,,,,,,,,,,,,,,,,,1,,,,,,,,,,,,,,,,,,,,,,,,,,,,,,,,,,,,,,,,,,,,,,56,152005,21,Female,1,2024/02/14_12:13:15,SD,59.98725138
,,,,,,calibration,0,29,2,583,13,C,0,right,1.178024539,1,0,,,,,,,,,,,,,,,,,,,,,1,,,,,,,,,,,,,,,,,,,,,,,,,,,,,,,,,,,,,,,,,,,,,,56,152005,21,Female,1,2024/02/14_12:13:15,SD,59.98725138
,,,,,,calibration,0,29,2,583,14,X,1,right,1.180586611,0,0,,,,,,,,,,,,,,,,,,,,,1,,,,,,,,,,,,,,,,,,,,,,,,,,,,,,,,,,,,,,,,,,,,,,56,152005,21,Female,1,2024/02/14_12:13:15,SD,59.98725138
,,,,,,calibration,0,29,2,583,15,V,0,right,1.428549096,1,0,,,,,,,,,,,,,,,,,,,,,1,,,,,,,,,,,,,,,,,,,,,,,,,,,,,,,,,,,,,,,,,,,,,,56,152005,21,Female,1,2024/02/14_12:13:15,SD,59.98725138
,,,,,,calibration,0,29,2,583,,,,,,,,0.227272727,0,0.090909091,0.909090909,0,0.909090909,0.681922131,0,1,0,0,0,10,10,4,11,0,,,,1,,,,,,,,,,,,,,,,,,,,,,,,,,,,,,,,,,,,,,,,,,,,,,56,152005,21,Female,1,2024/02/14_12:13:15,SD,59.98725138
,,,,,,Calibration,0,,2,583,,,,,,,,,,,,,,,,,,,,,,,,,1,,,1,,,,,,,,,,,,,,,,,,,,,,,,,,,,,,,,,,,,,,,,,,,,,,56,152005,21,Female,1,2024/02/14_12:13:15,SD,59.98725138
,,,,,,calibration,0,15,2,679,1,C,0,left,1.628508995,0,0,,,,,,,,,,,,,,,,,,,,,1,,,,,,,,,,,,,,,,,,,,,,,,,,,,,,,,,,,,,,,,,,,,,,56,152005,21,Female,1,2024/02/14_12:13:15,SD,59.98725138
,,,,,,calibration,0,15,2,679,2,S,0,right,1.027843391,1,0,,,,,,,,,,,,,,,,,,,,,1,,,,,,,,,,,,,,,,,,,,,,,,,,,,,,,,,,,,,,,,,,,,,,56,152005,21,Female,1,2024/02/14_12:13:15,SD,59.98725138
,,,,,,calibration,0,15,2,679,3,X,0,right,0.613798603,1,0,,,,,,,,,,,,,,,,,,,,,1,,,,,,,,,,,,,,,,,,,,,,,,,,,,,,,,,,,,,,,,,,,,,,56,152005,21,Female,1,2024/02/14_12:13:15,SD,59.98725138
,,,,,,calibration,0,15,2,679,4,S,1,left,0.527592581,1,0,,,,,,,,,,,,,,,,,,,,,1,,,,,,,,,,,,,,,,,,,,,,,,,,,,,,,,,,,,,,,,,,,,,,56,152005,21,Female,1,2024/02/14_12:13:15,SD,59.98725138
,,,,,,calibration,0,15,2,679,5,V,0,right,0.306070426,1,0,,,,,,,,,,,,,,,,,,,,,1,,,,,,,,,,,,,,,,,,,,,,,,,,,,,,,,,,,,,,,,,,,,,,56,152005,21,Female,1,2024/02/14_12:13:15,SD,59.98725138
,,,,,,calibration,0,15,2,679,6,F,0,right,0.399568498,1,0,,,,,,,,,,,,,,,,,,,,,1,,,,,,,,,,,,,,,,,,,,,,,,,,,,,,,,,,,,,,,,,,,,,,56,152005,21,Female,1,2024/02/14_12:13:15,SD,59.98725138
,,,,,,calibration,0,15,2,679,7,C,0,right,0.517297551,1,0,,,,,,,,,,,,,,,,,,,,,1,,,,,,,,,,,,,,,,,,,,,,,,,,,,,,,,,,,,,,,,,,,,,,56,152005,21,Female,1,2024/02/14_12:13:15,SD,59.98725138
,,,,,,calibration,0,15,2,679,8,Q,0,right,0.470675457,1,0,,,,,,,,,,,,,,,,,,,,,1,,,,,,,,,,,,,,,,,,,,,,,,,,,,,,,,,,,,,,,,,,,,,,56,152005,21,Female,1,2024/02/14_12:13:15,SD,59.98725138
,,,,,,calibration,0,15,2,679,9,C,1,left,0.661524887,1,0,,,,,,,,,,,,,,,,,,,,,1,,,,,,,,,,,,,,,,,,,,,,,,,,,,,,,,,,,,,,,,,,,,,,56,152005,21,Female,1,2024/02/14_12:13:15,SD,59.98725138
,,,,,,calibration,0,15,2,679,10,F,0,right,0.155557477,1,0,,,,,,,,,,,,,,,,,,,,,1,,,,,,,,,,,,,,,,,,,,,,,,,,,,,,,,,,,,,,,,,,,,,,56,152005,21,Female,1,2024/02/14_12:13:15,SD,59.98725138
,,,,,,calibration,0,15,2,679,11,C,1,right,0.215361272,0,0,,,,,,,,,,,,,,,,,,,,,1,,,,,,,,,,,,,,,,,,,,,,,,,,,,,,,,,,,,,,,,,,,,,,56,152005,21,Female,1,2024/02/14_12:13:15,SD,59.98725138
,,,,,,calibration,0,15,2,679,12,F,1,right,0.408905477,0,0,,,,,,,,,,,,,,,,,,,,,1,,,,,,,,,,,,,,,,,,,,,,,,,,,,,,,,,,,,,,,,,,,,,,56,152005,21,Female,1,2024/02/14_12:13:15,SD,59.98725138
,,,,,,calibration,0,15,2,679,13,Q,0,right,1.047323478,1,0,,,,,,,,,,,,,,,,,,,,,1,,,,,,,,,,,,,,,,,,,,,,,,,,,,,,,,,,,,,,,,,,,,,,56,152005,21,Female,1,2024/02/14_12:13:15,SD,59.98725138
,,,,,,calibration,0,15,2,679,14,V,0,right,0.472319945,1,0,,,,,,,,,,,,,,,,,,,,,1,,,,,,,,,,,,,,,,,,,,,,,,,,,,,,,,,,,,,,,,,,,,,,56,152005,21,Female,1,2024/02/14_12:13:15,SD,59.98725138
,,,,,,calibration,0,15,2,679,,,,,,,,0.8,0.5,0.1,0.9,0,0.9,0.603739146,2,1,0,0,0,9,11,4,10,0,,,,1,,,,,,,,,,,,,,,,,,,,,,,,,,,,,,,,,,,,,,,,,,,,,,56,152005,21,Female,1,2024/02/14_12:13:15,SD,59.98725138
,,,,,,Calibration,0,,2,679,,,,,,,,,,,,,,,,,,,,,,,,,2,,,1,,,,,,,,,,,,,,,,,,,,,,,,,,,,,,,,,,,,,,,,,,,,,,56,152005,21,Female,1,2024/02/14_12:13:15,SD,59.98725138
,,,,,,calibration,0,6,2,679,1,V,0,right,0.830290864,1,0,,,,,,,,,,,,,,,,,,,,,1,,,,,,,,,,,,,,,,,,,,,,,,,,,,,,,,,,,,,,,,,,,,,,56,152005,21,Female,1,2024/02/14_12:13:15,SD,59.98725138
,,,,,,calibration,0,6,2,679,2,F,0,right,0.517252346,1,0,,,,,,,,,,,,,,,,,,,,,1,,,,,,,,,,,,,,,,,,,,,,,,,,,,,,,,,,,,,,,,,,,,,,56,152005,21,Female,1,2024/02/14_12:13:15,SD,59.98725138
,,,,,,calibration,0,6,2,679,3,N,0,right,0.372739022,1,0,,,,,,,,,,,,,,,,,,,,,1,,,,,,,,,,,,,,,,,,,,,,,,,,,,,,,,,,,,,,,,,,,,,,56,152005,21,Female,1,2024/02/14_12:13:15,SD,59.98725138
,,,,,,calibration,0,6,2,679,4,J,0,right,0.545783371,1,0,,,,,,,,,,,,,,,,,,,,,1,,,,,,,,,,,,,,,,,,,,,,,,,,,,,,,,,,,,,,,,,,,,,,56,152005,21,Female,1,2024/02/14_12:13:15,SD,59.98725138
,,,,,,calibration,0,6,2,679,5,N,1,right,0.371107224,0,0,,,,,,,,,,,,,,,,,,,,,1,,,,,,,,,,,,,,,,,,,,,,,,,,,,,,,,,,,,,,,,,,,,,,56,152005,21,Female,1,2024/02/14_12:13:15,SD,59.98725138
,,,,,,calibration,0,6,2,679,6,X,0,right,0.374660605,1,0,,,,,,,,,,,,,,,,,,,,,1,,,,,,,,,,,,,,,,,,,,,,,,,,,,,,,,,,,,,,,,,,,,,,56,152005,21,Female,1,2024/02/14_12:13:15,SD,59.98725138
,,,,,,calibration,0,6,2,679,7,C,0,right,0.678578746,1,0,,,,,,,,,,,,,,,,,,,,,1,,,,,,,,,,,,,,,,,,,,,,,,,,,,,,,,,,,,,,,,,,,,,,56,152005,21,Female,1,2024/02/14_12:13:15,SD,59.98725138
,,,,,,calibration,0,6,2,679,8,S,0,right,0.51759963,1,0,,,,,,,,,,,,,,,,,,,,,1,,,,,,,,,,,,,,,,,,,,,,,,,,,,,,,,,,,,,,,,,,,,,,56,152005,21,Female,1,2024/02/14_12:13:15,SD,59.98725138
,,,,,,calibration,0,6,2,679,9,C,1,left,0.386354487,1,0,,,,,,,,,,,,,,,,,,,,,1,,,,,,,,,,,,,,,,,,,,,,,,,,,,,,,,,,,,,,,,,,,,,,56,152005,21,Female,1,2024/02/14_12:13:15,SD,59.98725138
,,,,,,calibration,0,6,2,679,10,V,0,right,0.678043911,1,0,,,,,,,,,,,,,,,,,,,,,1,,,,,,,,,,,,,,,,,,,,,,,,,,,,,,,,,,,,,,,,,,,,,,56,152005,21,Female,1,2024/02/14_12:13:15,SD,59.98725138
,,,,,,calibration,0,6,2,679,11,C,1,left,1.161750921,1,0,,,,,,,,,,,,,,,,,,,,,1,,,,,,,,,,,,,,,,,,,,,,,,,,,,,,,,,,,,,,,,,,,,,,56,152005,21,Female,1,2024/02/14_12:13:15,SD,59.98725138
,,,,,,calibration,0,6,2,679,12,X,0,right,0.139560801,1,0,,,,,,,,,,,,,,,,,,,,,1,,,,,,,,,,,,,,,,,,,,,,,,,,,,,,,,,,,,,,,,,,,,,,56,152005,21,Female,1,2024/02/14_12:13:15,SD,59.98725138
,,,,,,calibration,0,6,2,679,13,C,1,left,0.527939368,1,0,,,,,,,,,,,,,,,,,,,,,1,,,,,,,,,,,,,,,,,,,,,,,,,,,,,,,,,,,,,,,,,,,,,,56,152005,21,Female,1,2024/02/14_12:13:15,SD,59.98725138
,,,,,,calibration,0,6,2,679,14,Q,0,right,0.428032926,1,0,,,,,,,,,,,,,,,,,,,,,1,,,,,,,,,,,,,,,,,,,,,,,,,,,,,,,,,,,,,,,,,,,,,,56,152005,21,Female,1,2024/02/14_12:13:15,SD,59.98725138
,,,,,,calibration,0,6,2,679,,,,,,,,0.9375,0.75,0,1,0,1,0.537835302,3,0,0,0,0,10,13,4,10,0,,,,1,,,,,,,,,,,,,,,,,,,,,,,,,,,,,,,,,,,,,,,,,,,,,,56,152005,21,Female,1,2024/02/14_12:13:15,SD,59.98725138
,,,,,,Calibration,0,,2,679,,,,,,,,,,,,,,,,,,,,,,,,,3,,,1,,,,,,,,,,,,,,,,,,,,,,,,,,,,,,,,,,,,,,,,,,,,,,56,152005,21,Female,1,2024/02/14_12:13:15,SD,59.98725138
,,,,,,calibration,0,8,2,583,1,J,0,right,0.861793385,1,0,,,,,,,,,,,,,,,,,,,,,1,,,,,,,,,,,,,,,,,,,,,,,,,,,,,,,,,,,,,,,,,,,,,,56,152005,21,Female,1,2024/02/14_12:13:15,SD,59.98725138
,,,,,,calibration,0,8,2,583,2,Q,0,right,0.475368458,1,0,,,,,,,,,,,,,,,,,,,,,1,,,,,,,,,,,,,,,,,,,,,,,,,,,,,,,,,,,,,,,,,,,,,,56,152005,21,Female,1,2024/02/14_12:13:15,SD,59.98725138
,,,,,,calibration,0,8,2,583,3,J,1,left,0.490267227,1,0,,,,,,,,,,,,,,,,,,,,,1,,,,,,,,,,,,,,,,,,,,,,,,,,,,,,,,,,,,,,,,,,,,,,56,152005,21,Female,1,2024/02/14_12:13:15,SD,59.98725138
,,,,,,calibration,0,8,2,583,4,N,0,right,0.286808912,1,0,,,,,,,,,,,,,,,,,,,,,1,,,,,,,,,,,,,,,,,,,,,,,,,,,,,,,,,,,,,,,,,,,,,,56,152005,21,Female,1,2024/02/14_12:13:15,SD,59.98725138
,,,,,,calibration,0,8,2,583,5,J,1,left,0.595414972,1,0,,,,,,,,,,,,,,,,,,,,,1,,,,,,,,,,,,,,,,,,,,,,,,,,,,,,,,,,,,,,,,,,,,,,56,152005,21,Female,1,2024/02/14_12:13:15,SD,59.98725138
,,,,,,calibration,0,8,2,583,6,C,0,right,0.326864203,1,0,,,,,,,,,,,,,,,,,,,,,1,,,,,,,,,,,,,,,,,,,,,,,,,,,,,,,,,,,,,,,,,,,,,,56,152005,21,Female,1,2024/02/14_12:13:15,SD,59.98725138
,,,,,,calibration,0,8,2,583,7,X,0,right,0.628080481,1,0,,,,,,,,,,,,,,,,,,,,,1,,,,,,,,,,,,,,,,,,,,,,,,,,,,,,,,,,,,,,,,,,,,,,56,152005,21,Female,1,2024/02/14_12:13:15,SD,59.98725138
,,,,,,calibration,0,8,2,583,8,V,0,right,0.372480092,1,0,,,,,,,,,,,,,,,,,,,,,1,,,,,,,,,,,,,,,,,,,,,,,,,,,,,,,,,,,,,,,,,,,,,,56,152005,21,Female,1,2024/02/14_12:13:15,SD,59.98725138
,,,,,,calibration,0,8,2,583,9,N,0,right,0.961441651,1,0,,,,,,,,,,,,,,,,,,,,,1,,,,,,,,,,,,,,,,,,,,,,,,,,,,,,,,,,,,,,,,,,,,,,56,152005,21,Female,1,2024/02/14_12:13:15,SD,59.98725138
,,,,,,calibration,0,8,2,583,10,J,0,right,0.67837691,1,0,,,,,,,,,,,,,,,,,,,,,1,,,,,,,,,,,,,,,,,,,,,,,,,,,,,,,,,,,,,,,,,,,,,,56,152005,21,Female,1,2024/02/14_12:13:15,SD,59.98725138
,,,,,,calibration,0,8,2,583,11,N,1,left,0.578027853,1,0,,,,,,,,,,,,,,,,,,,,,1,,,,,,,,,,,,,,,,,,,,,,,,,,,,,,,,,,,,,,,,,,,,,,56,152005,21,Female,1,2024/02/14_12:13:15,SD,59.98725138
,,,,,,calibration,0,8,2,583,12,J,1,right,0.160722715,0,0,,,,,,,,,,,,,,,,,,,,,1,,,,,,,,,,,,,,,,,,,,,,,,,,,,,,,,,,,,,,,,,,,,,,56,152005,21,Female,1,2024/02/14_12:13:15,SD,59.98725138
,,,,,,calibration,0,8,2,583,13,C,0,right,0.370527539,1,0,,,,,,,,,,,,,,,,,,,,,1,,,,,,,,,,,,,,,,,,,,,,,,,,,,,,,,,,,,,,,,,,,,,,56,152005,21,Female,1,2024/02/14_12:13:15,SD,59.98725138
,,,,,,calibration,0,8,2,583,14,F,0,left,0.578598806,0,0,,,,,,,,,,,,,,,,,,,,,1,,,,,,,,,,,,,,,,,,,,,,,,,,,,,,,,,,,,,,,,,,,,,,56,152005,21,Female,1,2024/02/14_12:13:15,SD,59.98725138
,,,,,,calibration,0,8,2,583,15,Q,0,right,0.063727124,1,0,,,,,,,,,,,,,,,,,,,,,1,,,,,,,,,,,,,,,,,,,,,,,,,,,,,,,,,,,,,,,,,,,,,,56,152005,21,Female,1,2024/02/14_12:13:15,SD,59.98725138
,,,,,,calibration,0,8,2,583,,,,,,,,0.892045455,0.75,0.090909091,0.909090909,0,0.909090909,0.495233355,3,1,0,0,0,10,13,4,11,0,,,,1,,,,,,,,,,,,,,,,,,,,,,,,,,,,,,,,,,,,,,,,,,,,,,56,152005,21,Female,1,2024/02/14_12:13:15,SD,59.98725138
,,,,,,Calibration,0,,2,583,,,,,,,,,,,,,,,,,,,,,,,,,4,,,1,,,,,,,,,,,,,,,,,,,,,,,,,,,,,,,,,,,,,,,,,,,,,,56,152005,21,Female,1,2024/02/14_12:13:15,SD,59.98725138
,,,,,,calibration,0,30,2,500,1,N,0,right,0.351138498,1,0,,,,,,,,,,,,,,,,,,,,,1,,,,,,,,,,,,,,,,,,,,,,,,,,,,,,,,,,,,,,,,,,,,,,56,152005,21,Female,1,2024/02/14_12:13:15,SD,59.98725138
,,,,,,calibration,0,30,2,500,2,S,0,right,0.339368624,1,0,,,,,,,,,,,,,,,,,,,,,1,,,,,,,,,,,,,,,,,,,,,,,,,,,,,,,,,,,,,,,,,,,,,,56,152005,21,Female,1,2024/02/14_12:13:15,SD,59.98725138
,,,,,,calibration,0,30,2,500,3,Q,0,right,0.375842267,1,0,,,,,,,,,,,,,,,,,,,,,1,,,,,,,,,,,,,,,,,,,,,,,,,,,,,,,,,,,,,,,,,,,,,,56,152005,21,Female,1,2024/02/14_12:13:15,SD,59.98725138
,,,,,,calibration,0,30,2,500,4,S,1,right,0.442947628,0,0,,,,,,,,,,,,,,,,,,,,,1,,,,,,,,,,,,,,,,,,,,,,,,,,,,,,,,,,,,,,,,,,,,,,56,152005,21,Female,1,2024/02/14_12:13:15,SD,59.98725138
,,,,,,calibration,0,30,2,500,5,X,0,right,0.39501785,1,0,,,,,,,,,,,,,,,,,,,,,1,,,,,,,,,,,,,,,,,,,,,,,,,,,,,,,,,,,,,,,,,,,,,,56,152005,21,Female,1,2024/02/14_12:13:15,SD,59.98725138
,,,,,,calibration,0,30,2,500,6,N,0,right,0.713701399,1,0,,,,,,,,,,,,,,,,,,,,,1,,,,,,,,,,,,,,,,,,,,,,,,,,,,,,,,,,,,,,,,,,,,,,56,152005,21,Female,1,2024/02/14_12:13:15,SD,59.98725138
,,,,,,calibration,0,30,2,500,7,V,0,right,0.344576638,1,0,,,,,,,,,,,,,,,,,,,,,1,,,,,,,,,,,,,,,,,,,,,,,,,,,,,,,,,,,,,,,,,,,,,,56,152005,21,Female,1,2024/02/14_12:13:15,SD,59.98725138
,,,,,,calibration,0,30,2,500,8,N,1,right,0.332856773,0,0,,,,,,,,,,,,,,,,,,,,,1,,,,,,,,,,,,,,,,,,,,,,,,,,,,,,,,,,,,,,,,,,,,,,56,152005,21,Female,1,2024/02/14_12:13:15,SD,59.98725138
,,,,,,calibration,0,30,2,500,9,C,0,right,0.266141088,1,0,,,,,,,,,,,,,,,,,,,,,1,,,,,,,,,,,,,,,,,,,,,,,,,,,,,,,,,,,,,,,,,,,,,,56,152005,21,Female,1,2024/02/14_12:13:15,SD,59.98725138
,,,,,,calibration,0,30,2,500,10,S,0,right,0.457651086,1,0,,,,,,,,,,,,,,,,,,,,,1,,,,,,,,,,,,,,,,,,,,,,,,,,,,,,,,,,,,,,,,,,,,,,56,152005,21,Female,1,2024/02/14_12:13:15,SD,59.98725138
,,,,,,calibration,0,30,2,500,11,F,0,right,0.519691656,1,0,,,,,,,,,,,,,,,,,,,,,1,,,,,,,,,,,,,,,,,,,,,,,,,,,,,,,,,,,,,,,,,,,,,,56,152005,21,Female,1,2024/02/14_12:13:15,SD,59.98725138
,,,,,,calibration,0,30,2,500,12,Q,0,right,0.492576781,1,0,,,,,,,,,,,,,,,,,,,,,1,,,,,,,,,,,,,,,,,,,,,,,,,,,,,,,,,,,,,,,,,,,,,,56,152005,21,Female,1,2024/02/14_12:13:15,SD,59.98725138
,,,,,,calibration,0,30,2,500,13,F,1,right,0.517480144,0,0,,,,,,,,,,,,,,,,,,,,,1,,,,,,,,,,,,,,,,,,,,,,,,,,,,,,,,,,,,,,,,,,,,,,56,152005,21,Female,1,2024/02/14_12:13:15,SD,59.98725138
,,,,,,calibration,0,30,2,500,14,Q,1,right,0.761809078,0,0,,,,,,,,,,,,,,,,,,,,,1,,,,,,,,,,,,,,,,,,,,,,,,,,,,,,,,,,,,,,,,,,,,,,56,152005,21,Female,1,2024/02/14_12:13:15,SD,59.98725138
,,,,,,calibration,0,30,2,500,15,V,0,right,nan,0,1,,,,,,,,,,,,,,,,,,,,,1,,,,,,,,,,,,,,,,,,,,,,,,,,,,,,,,,,,,,,,,,,,,,,56,152005,21,Female,1,2024/02/14_12:13:15,SD,59.98725138
,,,,,,calibration,0,30,2,500,16,F,0,right,0.442321917,1,0,,,,,,,,,,,,,,,,,,,,,1,,,,,,,,,,,,,,,,,,,,,,,,,,,,,,,,,,,,,,,,,,,,,,56,152005,21,Female,1,2024/02/14_12:13:15,SD,59.98725138
,,,,,,calibration,0,30,2,500,,,,,,,,0.5,0,0,1,0.0625,0.9375,0.450208095,0,0,0,1,1,11,11,4,12,0,,,,1,,,,,,,,,,,,,,,,,,,,,,,,,,,,,,,,,,,,,,,,,,,,,,56,152005,21,Female,1,2024/02/14_12:13:15,SD,59.98725138
,,,,,,Calibration,0,,2,500,,,,,,,,,,,,,,,,,,,,,,,,,5,,,1,,,,,,,,,,,,,,,,,,,,,,,,,,,,,,,,,,,,,,,,,,,,,,56,152005,21,Female,1,2024/02/14_12:13:15,SD,59.98725138
,,,,,,calibration,0,18,2,583,1,X,0,right,0.33245696,1,0,,,,,,,,,,,,,,,,,,,,,1,,,,,,,,,,,,,,,,,,,,,,,,,,,,,,,,,,,,,,,,,,,,,,56,152005,21,Female,1,2024/02/14_12:13:15,SD,59.98725138
,,,,,,calibration,0,18,2,583,2,C,0,right,0.319488483,1,0,,,,,,,,,,,,,,,,,,,,,1,,,,,,,,,,,,,,,,,,,,,,,,,,,,,,,,,,,,,,,,,,,,,,56,152005,21,Female,1,2024/02/14_12:13:15,SD,59.98725138
,,,,,,calibration,0,18,2,583,3,S,0,right,0.236638776,1,0,,,,,,,,,,,,,,,,,,,,,1,,,,,,,,,,,,,,,,,,,,,,,,,,,,,,,,,,,,,,,,,,,,,,56,152005,21,Female,1,2024/02/14_12:13:15,SD,59.98725138
,,,,,,calibration,0,18,2,583,4,V,0,right,0.252926661,1,0,,,,,,,,,,,,,,,,,,,,,1,,,,,,,,,,,,,,,,,,,,,,,,,,,,,,,,,,,,,,,,,,,,,,56,152005,21,Female,1,2024/02/14_12:13:15,SD,59.98725138
,,,,,,calibration,0,18,2,583,5,X,0,right,0.356792392,1,0,,,,,,,,,,,,,,,,,,,,,1,,,,,,,,,,,,,,,,,,,,,,,,,,,,,,,,,,,,,,,,,,,,,,56,152005,21,Female,1,2024/02/14_12:13:15,SD,59.98725138
,,,,,,calibration,0,18,2,583,6,J,0,right,0.455995303,1,0,,,,,,,,,,,,,,,,,,,,,1,,,,,,,,,,,,,,,,,,,,,,,,,,,,,,,,,,,,,,,,,,,,,,56,152005,21,Female,1,2024/02/14_12:13:15,SD,59.98725138
,,,,,,calibration,0,18,2,583,7,X,1,left,0.780764685,1,0,,,,,,,,,,,,,,,,,,,,,1,,,,,,,,,,,,,,,,,,,,,,,,,,,,,,,,,,,,,,,,,,,,,,56,152005,21,Female,1,2024/02/14_12:13:15,SD,59.98725138
,,,,,,calibration,0,18,2,583,8,J,1,right,0.056233853,0,0,,,,,,,,,,,,,,,,,,,,,1,,,,,,,,,,,,,,,,,,,,,,,,,,,,,,,,,,,,,,,,,,,,,,56,152005,21,Female,1,2024/02/14_12:13:15,SD,59.98725138
,,,,,,calibration,0,18,2,583,9,V,0,right,0.264185713,1,0,,,,,,,,,,,,,,,,,,,,,1,,,,,,,,,,,,,,,,,,,,,,,,,,,,,,,,,,,,,,,,,,,,,,56,152005,21,Female,1,2024/02/14_12:13:15,SD,59.98725138
,,,,,,calibration,0,18,2,583,10,J,1,right,0.359724155,0,0,,,,,,,,,,,,,,,,,,,,,1,,,,,,,,,,,,,,,,,,,,,,,,,,,,,,,,,,,,,,,,,,,,,,56,152005,21,Female,1,2024/02/14_12:13:15,SD,59.98725138
,,,,,,calibration,0,18,2,583,11,Q,0,right,0.363335092,1,0,,,,,,,,,,,,,,,,,,,,,1,,,,,,,,,,,,,,,,,,,,,,,,,,,,,,,,,,,,,,,,,,,,,,56,152005,21,Female,1,2024/02/14_12:13:15,SD,59.98725138
,,,,,,calibration,0,18,2,583,12,F,0,right,0.423339864,1,0,,,,,,,,,,,,,,,,,,,,,1,,,,,,,,,,,,,,,,,,,,,,,,,,,,,,,,,,,,,,,,,,,,,,56,152005,21,Female,1,2024/02/14_12:13:15,SD,59.98725138
,,,,,,calibration,0,18,2,583,13,Q,1,left,0.446272093,1,0,,,,,,,,,,,,,,,,,,,,,1,,,,,,,,,,,,,,,,,,,,,,,,,,,,,,,,,,,,,,,,,,,,,,56,152005,21,Female,1,2024/02/14_12:13:15,SD,59.98725138
,,,,,,calibration,0,18,2,583,14,N,0,right,0.302670412,1,0,,,,,,,,,,,,,,,,,,,,,1,,,,,,,,,,,,,,,,,,,,,,,,,,,,,,,,,,,,,,,,,,,,,,56,152005,21,Female,1,2024/02/14_12:13:15,SD,59.98725138
,,,,,,calibration,0,18,2,583,15,J,0,right,0.476981494,1,0,,,,,,,,,,,,,,,,,,,,,1,,,,,,,,,,,,,,,,,,,,,,,,,,,,,,,,,,,,,,,,,,,,,,56,152005,21,Female,1,2024/02/14_12:13:15,SD,59.98725138
,,,,,,calibration,0,18,2,583,,,,,,,,0.875,0.5,0,1,0,1,0.361853729,2,0,0,0,0,11,13,4,11,0,,,,1,,,,,,,,,,,,,,,,,,,,,,,,,,,,,,,,,,,,,,,,,,,,,,56,152005,21,Female,1,2024/02/14_12:13:15,SD,59.98725138
,,,,,,Calibration,0,,2,583,,,,,,,,,,,,,,,,,,,,,,,,,6,,,1,,,,,,,,,,,,,,,,,,,,,,,,,,,,,,,,,,,,,,,,,,,,,,56,152005,21,Female,1,2024/02/14_12:13:15,SD,59.98725138
,,,,,,calibration,0,3,2,500,1,F,0,right,0.395554628,1,0,,,,,,,,,,,,,,,,,,,,,1,,,,,,,,,,,,,,,,,,,,,,,,,,,,,,,,,,,,,,,,,,,,,,56,152005,21,Female,1,2024/02/14_12:13:15,SD,59.98725138
,,,,,,calibration,0,3,2,500,2,V,0,right,0.405885021,1,0,,,,,,,,,,,,,,,,,,,,,1,,,,,,,,,,,,,,,,,,,,,,,,,,,,,,,,,,,,,,,,,,,,,,56,152005,21,Female,1,2024/02/14_12:13:15,SD,59.98725138
,,,,,,calibration,0,3,2,500,3,F,1,left,0.423709488,1,0,,,,,,,,,,,,,,,,,,,,,1,,,,,,,,,,,,,,,,,,,,,,,,,,,,,,,,,,,,,,,,,,,,,,56,152005,21,Female,1,2024/02/14_12:13:15,SD,59.98725138
,,,,,,calibration,0,3,2,500,4,J,0,right,0.288785649,1,0,,,,,,,,,,,,,,,,,,,,,1,,,,,,,,,,,,,,,,,,,,,,,,,,,,,,,,,,,,,,,,,,,,,,56,152005,21,Female,1,2024/02/14_12:13:15,SD,59.98725138
,,,,,,calibration,0,3,2,500,5,Q,0,right,0.270835159,1,0,,,,,,,,,,,,,,,,,,,,,1,,,,,,,,,,,,,,,,,,,,,,,,,,,,,,,,,,,,,,,,,,,,,,56,152005,21,Female,1,2024/02/14_12:13:15,SD,59.98725138
,,,,,,calibration,0,3,2,500,6,C,0,right,0.529763349,1,0,,,,,,,,,,,,,,,,,,,,,1,,,,,,,,,,,,,,,,,,,,,,,,,,,,,,,,,,,,,,,,,,,,,,56,152005,21,Female,1,2024/02/14_12:13:15,SD,59.98725138
,,,,,,calibration,0,3,2,500,7,Q,1,right,0.336552481,0,0,,,,,,,,,,,,,,,,,,,,,1,,,,,,,,,,,,,,,,,,,,,,,,,,,,,,,,,,,,,,,,,,,,,,56,152005,21,Female,1,2024/02/14_12:13:15,SD,59.98725138
,,,,,,calibration,0,3,2,500,8,N,0,right,0.44483855,1,0,,,,,,,,,,,,,,,,,,,,,1,,,,,,,,,,,,,,,,,,,,,,,,,,,,,,,,,,,,,,,,,,,,,,56,152005,21,Female,1,2024/02/14_12:13:15,SD,59.98725138
,,,,,,calibration,0,3,2,500,9,V,0,right,0.517385627,1,0,,,,,,,,,,,,,,,,,,,,,1,,,,,,,,,,,,,,,,,,,,,,,,,,,,,,,,,,,,,,,,,,,,,,56,152005,21,Female,1,2024/02/14_12:13:15,SD,59.98725138
,,,,,,calibration,0,3,2,500,10,N,1,right,nan,0,1,,,,,,,,,,,,,,,,,,,,,1,,,,,,,,,,,,,,,,,,,,,,,,,,,,,,,,,,,,,,,,,,,,,,56,152005,21,Female,1,2024/02/14_12:13:15,SD,59.98725138
,,,,,,calibration,0,3,2,500,11,F,0,right,nan,0,1,,,,,,,,,,,,,,,,,,,,,1,,,,,,,,,,,,,,,,,,,,,,,,,,,,,,,,,,,,,,,,,,,,,,56,152005,21,Female,1,2024/02/14_12:13:15,SD,59.98725138
,,,,,,calibration,0,3,2,500,12,N,1,right,0.339410619,0,0,,,,,,,,,,,,,,,,,,,,,1,,,,,,,,,,,,,,,,,,,,,,,,,,,,,,,,,,,,,,,,,,,,,,56,152005,21,Female,1,2024/02/14_12:13:15,SD,59.98725138
,,,,,,calibration,0,3,2,500,13,X,0,right,nan,0,1,,,,,,,,,,,,,,,,,,,,,1,,,,,,,,,,,,,,,,,,,,,,,,,,,,,,,,,,,,,,,,,,,,,,56,152005,21,Female,1,2024/02/14_12:13:15,SD,59.98725138
,,,,,,calibration,0,3,2,500,14,N,1,right,nan,0,1,,,,,,,,,,,,,,,,,,,,,1,,,,,,,,,,,,,,,,,,,,,,,,,,,,,,,,,,,,,,,,,,,,,,56,152005,21,Female,1,2024/02/14_12:13:15,SD,59.98725138
,,,,,,calibration,0,3,2,500,15,S,0,right,nan,0,1,,,,,,,,,,,,,,,,,,,,,1,,,,,,,,,,,,,,,,,,,,,,,,,,,,,,,,,,,,,,,,,,,,,,56,152005,21,Female,1,2024/02/14_12:13:15,SD,59.98725138
,,,,,,calibration,0,3,2,500,16,Q,0,right,0.378281228,1,0,,,,,,,,,,,,,,,,,,,,,1,,,,,,,,,,,,,,,,,,,,,,,,,,,,,,,,,,,,,,,,,,,,,,56,152005,21,Female,1,2024/02/14_12:13:15,SD,59.98725138
,,,,,,calibration,0,3,2,500,,,,,,,,0.8,0.2,0,1,0.3125,0.6875,0.393727436,1,0,2,3,5,8,9,5,11,0,,,,1,,,,,,,,,,,,,,,,,,,,,,,,,,,,,,,,,,,,,,,,,,,,,,56,152005,21,Female,1,2024/02/14_12:13:15,SD,59.98725138
,,,,,,Calibration,0,,2,500,,,,,,,,,,,,,,,,,,,,,,,,,7,,,1,,,,,,,,,,,,,,,,,,,,,,,,,,,,,,,,,,,,,,,,,,,,,,56,152005,21,Female,1,2024/02/14_12:13:15,SD,59.98725138
,,,,,,calibration,0,29,2,500,1,S,0,right,0.348906779,1,0,,,,,,,,,,,,,,,,,,,,,1,,,,,,,,,,,,,,,,,,,,,,,,,,,,,,,,,,,,,,,,,,,,,,56,152005,21,Female,1,2024/02/14_12:13:15,SD,59.98725138
,,,,,,calibration,0,29,2,500,2,F,0,right,0.545530356,1,0,,,,,,,,,,,,,,,,,,,,,1,,,,,,,,,,,,,,,,,,,,,,,,,,,,,,,,,,,,,,,,,,,,,,56,152005,21,Female,1,2024/02/14_12:13:15,SD,59.98725138
,,,,,,calibration,0,29,2,500,3,V,0,right,0.476716734,1,0,,,,,,,,,,,,,,,,,,,,,1,,,,,,,,,,,,,,,,,,,,,,,,,,,,,,,,,,,,,,,,,,,,,,56,152005,21,Female,1,2024/02/14_12:13:15,SD,59.98725138
,,,,,,calibration,0,29,2,500,4,F,1,left,0.627777137,1,0,,,,,,,,,,,,,,,,,,,,,1,,,,,,,,,,,,,,,,,,,,,,,,,,,,,,,,,,,,,,,,,,,,,,56,152005,21,Female,1,2024/02/14_12:13:15,SD,59.98725138
,,,,,,calibration,0,29,2,500,5,V,1,right,0.162165587,0,0,,,,,,,,,,,,,,,,,,,,,1,,,,,,,,,,,,,,,,,,,,,,,,,,,,,,,,,,,,,,,,,,,,,,56,152005,21,Female,1,2024/02/14_12:13:15,SD,59.98725138
,,,,,,calibration,0,29,2,500,6,N,0,right,0.285898791,1,0,,,,,,,,,,,,,,,,,,,,,1,,,,,,,,,,,,,,,,,,,,,,,,,,,,,,,,,,,,,,,,,,,,,,56,152005,21,Female,1,2024/02/14_12:13:15,SD,59.98725138
,,,,,,calibration,0,29,2,500,7,V,1,right,0.429093976,0,0,,,,,,,,,,,,,,,,,,,,,1,,,,,,,,,,,,,,,,,,,,,,,,,,,,,,,,,,,,,,,,,,,,,,56,152005,21,Female,1,2024/02/14_12:13:15,SD,59.98725138
,,,,,,calibration,0,29,2,500,8,J,0,right,nan,0,1,,,,,,,,,,,,,,,,,,,,,1,,,,,,,,,,,,,,,,,,,,,,,,,,,,,,,,,,,,,,,,,,,,,,56,152005,21,Female,1,2024/02/14_12:13:15,SD,59.98725138
,,,,,,calibration,0,29,2,500,9,V,1,right,0.295530647,0,0,,,,,,,,,,,,,,,,,,,,,1,,,,,,,,,,,,,,,,,,,,,,,,,,,,,,,,,,,,,,,,,,,,,,56,152005,21,Female,1,2024/02/14_12:13:15,SD,59.98725138
,,,,,,calibration,0,29,2,500,10,S,0,right,0.944734292,1,0,,,,,,,,,,,,,,,,,,,,,1,,,,,,,,,,,,,,,,,,,,,,,,,,,,,,,,,,,,,,,,,,,,,,56,152005,21,Female,1,2024/02/14_12:13:15,SD,59.98725138
,,,,,,calibration,0,29,2,500,11,C,0,right,0.431846357,1,0,,,,,,,,,,,,,,,,,,,,,1,,,,,,,,,,,,,,,,,,,,,,,,,,,,,,,,,,,,,,,,,,,,,,56,152005,21,Female,1,2024/02/14_12:13:15,SD,59.98725138
,,,,,,calibration,0,29,2,500,12,S,1,left,0.578361777,1,0,,,,,,,,,,,,,,,,,,,,,1,,,,,,,,,,,,,,,,,,,,,,,,,,,,,,,,,,,,,,,,,,,,,,56,152005,21,Female,1,2024/02/14_12:13:15,SD,59.98725138
,,,,,,calibration,0,29,2,500,13,V,0,right,0.170532938,1,0,,,,,,,,,,,,,,,,,,,,,1,,,,,,,,,,,,,,,,,,,,,,,,,,,,,,,,,,,,,,,,,,,,,,56,152005,21,Female,1,2024/02/14_12:13:15,SD,59.98725138
,,,,,,calibration,0,29,2,500,14,Q,0,right,0.214315515,1,0,,,,,,,,,,,,,,,,,,,,,1,,,,,,,,,,,,,,,,,,,,,,,,,,,,,,,,,,,,,,,,,,,,,,56,152005,21,Female,1,2024/02/14_12:13:15,SD,59.98725138
,,,,,,calibration,0,29,2,500,15,F,0,right,0.777953626,1,0,,,,,,,,,,,,,,,,,,,,,1,,,,,,,,,,,,,,,,,,,,,,,,,,,,,,,,,,,,,,,,,,,,,,56,152005,21,Female,1,2024/02/14_12:13:15,SD,59.98725138
,,,,,,calibration,0,29,2,500,16,J,0,right,0.561120279,1,0,,,,,,,,,,,,,,,,,,,,,1,,,,,,,,,,,,,,,,,,,,,,,,,,,,,,,,,,,,,,,,,,,,,,56,152005,21,Female,1,2024/02/14_12:13:15,SD,59.98725138
,,,,,,calibration,0,29,2,500,,,,,,,,0.85,0.4,0,1,0.0625,0.9375,0.456698986,2,0,0,1,1,10,12,5,11,0,,,,1,,,,,,,,,,,,,,,,,,,,,,,,,,,,,,,,,,,,,,,,,,,,,,56,152005,21,Female,1,2024/02/14_12:13:15,SD,59.98725138
,,,,,,Calibration,0,,2,500,,,,,,,,,,,,,,,,,,,,,,,,,8,,,1,,,,,,,,,,,,,,,,,,,,,,,,,,,,,,,,,,,,,,,,,,,,,,56,152005,21,Female,1,2024/02/14_12:13:15,SD,59.98725138
,,,,,,calibration,0,10,2,500,1,N,0,right,0.544828256,1,0,,,,,,,,,,,,,,,,,,,,,1,,,,,,,,,,,,,,,,,,,,,,,,,,,,,,,,,,,,,,,,,,,,,,56,152005,21,Female,1,2024/02/14_12:13:15,SD,59.98725138
,,,,,,calibration,0,10,2,500,2,C,0,right,0.811722849,1,0,,,,,,,,,,,,,,,,,,,,,1,,,,,,,,,,,,,,,,,,,,,,,,,,,,,,,,,,,,,,,,,,,,,,56,152005,21,Female,1,2024/02/14_12:13:15,SD,59.98725138
,,,,,,calibration,0,10,2,500,3,S,0,right,0.561840157,1,0,,,,,,,,,,,,,,,,,,,,,1,,,,,,,,,,,,,,,,,,,,,,,,,,,,,,,,,,,,,,,,,,,,,,56,152005,21,Female,1,2024/02/14_12:13:15,SD,59.98725138
,,,,,,calibration,0,10,2,500,4,C,1,left,0.828322107,1,0,,,,,,,,,,,,,,,,,,,,,1,,,,,,,,,,,,,,,,,,,,,,,,,,,,,,,,,,,,,,,,,,,,,,56,152005,21,Female,1,2024/02/14_12:13:15,SD,59.98725138
,,,,,,calibration,0,10,2,500,5,N,0,right,0.169020015,1,0,,,,,,,,,,,,,,,,,,,,,1,,,,,,,,,,,,,,,,,,,,,,,,,,,,,,,,,,,,,,,,,,,,,,56,152005,21,Female,1,2024/02/14_12:13:15,SD,59.98725138
,,,,,,calibration,0,10,2,500,6,V,0,right,0.212314955,1,0,,,,,,,,,,,,,,,,,,,,,1,,,,,,,,,,,,,,,,,,,,,,,,,,,,,,,,,,,,,,,,,,,,,,56,152005,21,Female,1,2024/02/14_12:13:15,SD,59.98725138
,,,,,,calibration,0,10,2,500,7,Q,0,left,0.645140055,0,0,,,,,,,,,,,,,,,,,,,,,1,,,,,,,,,,,,,,,,,,,,,,,,,,,,,,,,,,,,,,,,,,,,,,56,152005,21,Female,1,2024/02/14_12:13:15,SD,59.98725138
,,,,,,calibration,0,10,2,500,8,N,0,right,0.205797406,1,0,,,,,,,,,,,,,,,,,,,,,1,,,,,,,,,,,,,,,,,,,,,,,,,,,,,,,,,,,,,,,,,,,,,,56,152005,21,Female,1,2024/02/14_12:13:15,SD,59.98725138
,,,,,,calibration,0,10,2,500,9,J,0,right,0.111314562,1,0,,,,,,,,,,,,,,,,,,,,,1,,,,,,,,,,,,,,,,,,,,,,,,,,,,,,,,,,,,,,,,,,,,,,56,152005,21,Female,1,2024/02/14_12:13:15,SD,59.98725138
,,,,,,calibration,0,10,2,500,10,N,1,right,0.437268453,0,0,,,,,,,,,,,,,,,,,,,,,1,,,,,,,,,,,,,,,,,,,,,,,,,,,,,,,,,,,,,,,,,,,,,,56,152005,21,Female,1,2024/02/14_12:13:15,SD,59.98725138
,,,,,,calibration,0,10,2,500,11,V,0,right,0.561273189,1,0,,,,,,,,,,,,,,,,,,,,,1,,,,,,,,,,,,,,,,,,,,,,,,,,,,,,,,,,,,,,,,,,,,,,56,152005,21,Female,1,2024/02/14_12:13:15,SD,59.98725138
,,,,,,calibration,0,10,2,500,12,C,0,right,0.40642381,1,0,,,,,,,,,,,,,,,,,,,,,1,,,,,,,,,,,,,,,,,,,,,,,,,,,,,,,,,,,,,,,,,,,,,,56,152005,21,Female,1,2024/02/14_12:13:15,SD,59.98725138
,,,,,,calibration,0,10,2,500,13,F,0,left,0.795123186,0,0,,,,,,,,,,,,,,,,,,,,,1,,,,,,,,,,,,,,,,,,,,,,,,,,,,,,,,,,,,,,,,,,,,,,56,152005,21,Female,1,2024/02/14_12:13:15,SD,59.98725138
,,,,,,calibration,0,10,2,500,14,C,1,right,0.217539315,0,0,,,,,,,,,,,,,,,,,,,,,1,,,,,,,,,,,,,,,,,,,,,,,,,,,,,,,,,,,,,,,,,,,,,,56,152005,21,Female,1,2024/02/14_12:13:15,SD,59.98725138
,,,,,,calibration,0,10,2,500,15,F,1,right,0.468004644,0,0,,,,,,,,,,,,,,,,,,,,,1,,,,,,,,,,,,,,,,,,,,,,,,,,,,,,,,,,,,,,,,,,,,,,56,152005,21,Female,1,2024/02/14_12:13:15,SD,59.98725138
,,,,,,calibration,0,10,2,500,16,J,0,right,nan,0,1,,,,,,,,,,,,,,,,,,,,,1,,,,,,,,,,,,,,,,,,,,,,,,,,,,,,,,,,,,,,,,,,,,,,56,152005,21,Female,1,2024/02/14_12:13:15,SD,59.98725138
,,,,,,calibration,0,10,2,500,,,,,,,,0.604166667,0.25,0.166666667,0.818181818,0.0625,0.770833333,0.465062197,1,2,0,1,1,9,10,4,12,0,,,,1,,,,,,,,,,,,,,,,,,,,,,,,,,,,,,,,,,,,,,,,,,,,,,56,152005,21,Female,1,2024/02/14_12:13:15,SD,59.98725138
,,,,,,Calibration,0,,2,500,,,,,,,,,,,,,,,,,,,,,,,,,9,,,1,,,,,,,,,,,,,,,,,,,,,,,,,,,,,,,,,,,,,,,,,,,,,,56,152005,21,Female,1,2024/02/14_12:13:15,SD,59.98725138
,,,,,,calibration,0,15,2,583,1,N,0,right,0.420166852,1,0,,,,,,,,,,,,,,,,,,,,,1,,,,,,,,,,,,,,,,,,,,,,,,,,,,,,,,,,,,,,,,,,,,,,56,152005,21,Female,1,2024/02/14_12:13:15,SD,59.98725138
,,,,,,calibration,0,15,2,583,2,S,0,right,0.355952269,1,0,,,,,,,,,,,,,,,,,,,,,1,,,,,,,,,,,,,,,,,,,,,,,,,,,,,,,,,,,,,,,,,,,,,,56,152005,21,Female,1,2024/02/14_12:13:15,SD,59.98725138
,,,,,,calibration,0,15,2,583,3,C,0,right,0.76137193,1,0,,,,,,,,,,,,,,,,,,,,,1,,,,,,,,,,,,,,,,,,,,,,,,,,,,,,,,,,,,,,,,,,,,,,56,152005,21,Female,1,2024/02/14_12:13:15,SD,59.98725138
,,,,,,calibration,0,15,2,583,4,X,0,right,0.490612542,1,0,,,,,,,,,,,,,,,,,,,,,1,,,,,,,,,,,,,,,,,,,,,,,,,,,,,,,,,,,,,,,,,,,,,,56,152005,21,Female,1,2024/02/14_12:13:15,SD,59.98725138
,,,,,,calibration,0,15,2,583,5,F,0,right,0.61193257,1,0,,,,,,,,,,,,,,,,,,,,,1,,,,,,,,,,,,,,,,,,,,,,,,,,,,,,,,,,,,,,,,,,,,,,56,152005,21,Female,1,2024/02/14_12:13:15,SD,59.98725138
,,,,,,calibration,0,15,2,583,6,S,0,left,0.729923795,0,0,,,,,,,,,,,,,,,,,,,,,1,,,,,,,,,,,,,,,,,,,,,,,,,,,,,,,,,,,,,,,,,,,,,,56,152005,21,Female,1,2024/02/14_12:13:15,SD,59.98725138
,,,,,,calibration,0,15,2,583,7,F,1,right,0.036412105,0,0,,,,,,,,,,,,,,,,,,,,,1,,,,,,,,,,,,,,,,,,,,,,,,,,,,,,,,,,,,,,,,,,,,,,56,152005,21,Female,1,2024/02/14_12:13:15,SD,59.98725138
,,,,,,calibration,0,15,2,583,8,Q,0,right,nan,0,1,,,,,,,,,,,,,,,,,,,,,1,,,,,,,,,,,,,,,,,,,,,,,,,,,,,,,,,,,,,,,,,,,,,,56,152005,21,Female,1,2024/02/14_12:13:15,SD,59.98725138
,,,,,,calibration,0,15,2,583,9,F,1,right,1.630463587,0,0,,,,,,,,,,,,,,,,,,,,,1,,,,,,,,,,,,,,,,,,,,,,,,,,,,,,,,,,,,,,,,,,,,,,56,152005,21,Female,1,2024/02/14_12:13:15,SD,59.98725138
,,,,,,calibration,0,15,2,583,10,C,0,right,1.078486352,1,0,,,,,,,,,,,,,,,,,,,,,1,,,,,,,,,,,,,,,,,,,,,,,,,,,,,,,,,,,,,,,,,,,,,,56,152005,21,Female,1,2024/02/14_12:13:15,SD,59.98725138
,,,,,,calibration,0,15,2,583,11,F,1,left,1.061850615,1,0,,,,,,,,,,,,,,,,,,,,,1,,,,,,,,,,,,,,,,,,,,,,,,,,,,,,,,,,,,,,,,,,,,,,56,152005,21,Female,1,2024/02/14_12:13:15,SD,59.98725138
,,,,,,calibration,0,15,2,583,12,C,1,right,0.663547615,0,0,,,,,,,,,,,,,,,,,,,,,1,,,,,,,,,,,,,,,,,,,,,,,,,,,,,,,,,,,,,,,,,,,,,,56,152005,21,Female,1,2024/02/14_12:13:15,SD,59.98725138
,,,,,,calibration,0,15,2,583,13,S,0,right,0.560993906,1,0,,,,,,,,,,,,,,,,,,,,,1,,,,,,,,,,,,,,,,,,,,,,,,,,,,,,,,,,,,,,,,,,,,,,56,152005,21,Female,1,2024/02/14_12:13:15,SD,59.98725138
,,,,,,calibration,0,15,2,583,14,X,0,right,0.440790309,1,0,,,,,,,,,,,,,,,,,,,,,1,,,,,,,,,,,,,,,,,,,,,,,,,,,,,,,,,,,,,,,,,,,,,,56,152005,21,Female,1,2024/02/14_12:13:15,SD,59.98725138
,,,,,,calibration,0,15,2,583,15,Q,0,right,0.517815451,1,0,,,,,,,,,,,,,,,,,,,,,1,,,,,,,,,,,,,,,,,,,,,,,,,,,,,,,,,,,,,,,,,,,,,,56,152005,21,Female,1,2024/02/14_12:13:15,SD,59.98725138
,,,,,,calibration,0,15,2,583,,,,,,,,0.698863636,0.25,0.090909091,0.9,0.066666667,0.842424242,0.668594278,1,1,0,1,1,9,10,4,11,0,,,,1,,,,,,,,,,,,,,,,,,,,,,,,,,,,,,,,,,,,,,,,,,,,,,56,152005,21,Female,1,2024/02/14_12:13:15,SD,59.98725138
,,,,,,Calibration,0,,2,583,,,,,,,,,,,,,,,,,,,,,,,,,10,,,1,,,,,,,,,,,,,,,,,,,,,,,,,,,,,,,,,,,,,,,,,,,,,,56,152005,21,Female,1,2024/02/14_12:13:15,SD,59.98725138
,,,,,,calibration,0,5,2,679,1,N,0,right,0.469712067,1,0,,,,,,,,,,,,,,,,,,,,,1,,,,,,,,,,,,,,,,,,,,,,,,,,,,,,,,,,,,,,,,,,,,,,56,152005,21,Female,1,2024/02/14_12:13:15,SD,59.98725138
,,,,,,calibration,0,5,2,679,2,Q,0,right,0.460726967,1,0,,,,,,,,,,,,,,,,,,,,,1,,,,,,,,,,,,,,,,,,,,,,,,,,,,,,,,,,,,,,,,,,,,,,56,152005,21,Female,1,2024/02/14_12:13:15,SD,59.98725138
,,,,,,calibration,0,5,2,679,3,X,0,right,0.436331537,1,0,,,,,,,,,,,,,,,,,,,,,1,,,,,,,,,,,,,,,,,,,,,,,,,,,,,,,,,,,,,,,,,,,,,,56,152005,21,Female,1,2024/02/14_12:13:15,SD,59.98725138
,,,,,,calibration,0,5,2,679,4,Q,1,left,0.780352585,1,0,,,,,,,,,,,,,,,,,,,,,1,,,,,,,,,,,,,,,,,,,,,,,,,,,,,,,,,,,,,,,,,,,,,,56,152005,21,Female,1,2024/02/14_12:13:15,SD,59.98725138
,,,,,,calibration,0,5,2,679,5,J,0,right,0.292956198,1,0,,,,,,,,,,,,,,,,,,,,,1,,,,,,,,,,,,,,,,,,,,,,,,,,,,,,,,,,,,,,,,,,,,,,56,152005,21,Female,1,2024/02/14_12:13:15,SD,59.98725138
,,,,,,calibration,0,5,2,679,6,Q,1,right,0.379487487,0,0,,,,,,,,,,,,,,,,,,,,,1,,,,,,,,,,,,,,,,,,,,,,,,,,,,,,,,,,,,,,,,,,,,,,56,152005,21,Female,1,2024/02/14_12:13:15,SD,59.98725138
,,,,,,calibration,0,5,2,679,7,J,1,right,0.350391752,0,0,,,,,,,,,,,,,,,,,,,,,1,,,,,,,,,,,,,,,,,,,,,,,,,,,,,,,,,,,,,,,,,,,,,,56,152005,21,Female,1,2024/02/14_12:13:15,SD,59.98725138
,,,,,,calibration,0,5,2,679,8,C,0,right,0.994740016,1,0,,,,,,,,,,,,,,,,,,,,,1,,,,,,,,,,,,,,,,,,,,,,,,,,,,,,,,,,,,,,,,,,,,,,56,152005,21,Female,1,2024/02/14_12:13:15,SD,59.98725138
,,,,,,calibration,0,5,2,679,9,J,1,right,0.563951918,0,0,,,,,,,,,,,,,,,,,,,,,1,,,,,,,,,,,,,,,,,,,,,,,,,,,,,,,,,,,,,,,,,,,,,,56,152005,21,Female,1,2024/02/14_12:13:15,SD,59.98725138
,,,,,,calibration,0,5,2,679,10,V,0,right,0.711568291,1,0,,,,,,,,,,,,,,,,,,,,,1,,,,,,,,,,,,,,,,,,,,,,,,,,,,,,,,,,,,,,,,,,,,,,56,152005,21,Female,1,2024/02/14_12:13:15,SD,59.98725138
,,,,,,calibration,0,5,2,679,11,C,0,right,0.794517522,1,0,,,,,,,,,,,,,,,,,,,,,1,,,,,,,,,,,,,,,,,,,,,,,,,,,,,,,,,,,,,,,,,,,,,,56,152005,21,Female,1,2024/02/14_12:13:15,SD,59.98725138
,,,,,,calibration,0,5,2,679,12,S,0,right,0.761558679,1,0,,,,,,,,,,,,,,,,,,,,,1,,,,,,,,,,,,,,,,,,,,,,,,,,,,,,,,,,,,,,,,,,,,,,56,152005,21,Female,1,2024/02/14_12:13:15,SD,59.98725138
,,,,,,calibration,0,5,2,679,13,X,0,right,0.961338356,1,0,,,,,,,,,,,,,,,,,,,,,1,,,,,,,,,,,,,,,,,,,,,,,,,,,,,,,,,,,,,,,,,,,,,,56,152005,21,Female,1,2024/02/14_12:13:15,SD,59.98725138
,,,,,,calibration,0,5,2,679,14,J,0,left,0.978832628,0,0,,,,,,,,,,,,,,,,,,,,,1,,,,,,,,,,,,,,,,,,,,,,,,,,,,,,,,,,,,,,,,,,,,,,56,152005,21,Female,1,2024/02/14_12:13:15,SD,59.98725138
,,,,,,calibration,0,5,2,679,,,,,,,,0.6875,0.25,0.1,0.9,0,0.9,0.638319,1,1,0,0,0,9,10,4,10,0,,,,1,,,,,,,,,,,,,,,,,,,,,,,,,,,,,,,,,,,,,,,,,,,,,,56,152005,21,Female,1,2024/02/14_12:13:15,SD,59.98725138
,,,,,,Calibration,0,,2,679,,,,,,,,,,,,,,,,,,,,,,,,,11,,,1,,,,,,,,,,,,,,,,,,,,,,,,,,,,,,,,,,,,,,,,,,,,,,56,152005,21,Female,1,2024/02/14_12:13:15,SD,59.98725138
,,,,,,calibration,0,28,2,788,1,V,0,right,0.29749095,1,0,,,,,,,,,,,,,,,,,,,,,1,,,,,,,,,,,,,,,,,,,,,,,,,,,,,,,,,,,,,,,,,,,,,,56,152005,21,Female,1,2024/02/14_12:13:15,SD,59.98725138
,,,,,,calibration,0,28,2,788,2,V,0,right,0.51742014,1,0,,,,,,,,,,,,,,,,,,,,,1,,,,,,,,,,,,,,,,,,,,,,,,,,,,,,,,,,,,,,,,,,,,,,56,152005,21,Female,1,2024/02/14_12:13:15,SD,59.98725138
,,,,,,calibration,0,28,2,788,3,F,0,right,0.74498539,1,0,,,,,,,,,,,,,,,,,,,,,1,,,,,,,,,,,,,,,,,,,,,,,,,,,,,,,,,,,,,,,,,,,,,,56,152005,21,Female,1,2024/02/14_12:13:15,SD,59.98725138
,,,,,,calibration,0,28,2,788,4,X,0,right,0.545286682,1,0,,,,,,,,,,,,,,,,,,,,,1,,,,,,,,,,,,,,,,,,,,,,,,,,,,,,,,,,,,,,,,,,,,,,56,152005,21,Female,1,2024/02/14_12:13:15,SD,59.98725138
,,,,,,calibration,0,28,2,788,5,F,1,right,0.380377687,0,0,,,,,,,,,,,,,,,,,,,,,1,,,,,,,,,,,,,,,,,,,,,,,,,,,,,,,,,,,,,,,,,,,,,,56,152005,21,Female,1,2024/02/14_12:13:15,SD,59.98725138
,,,,,,calibration,0,28,2,788,6,V,0,right,1.194888032,1,0,,,,,,,,,,,,,,,,,,,,,1,,,,,,,,,,,,,,,,,,,,,,,,,,,,,,,,,,,,,,,,,,,,,,56,152005,21,Female,1,2024/02/14_12:13:15,SD,59.98725138
,,,,,,calibration,0,28,2,788,7,F,1,left,0.645084885,1,0,,,,,,,,,,,,,,,,,,,,,1,,,,,,,,,,,,,,,,,,,,,,,,,,,,,,,,,,,,,,,,,,,,,,56,152005,21,Female,1,2024/02/14_12:13:15,SD,59.98725138
,,,,,,calibration,0,28,2,788,8,Q,0,right,1.262951986,1,0,,,,,,,,,,,,,,,,,,,,,1,,,,,,,,,,,,,,,,,,,,,,,,,,,,,,,,,,,,,,,,,,,,,,56,152005,21,Female,1,2024/02/14_12:13:15,SD,59.98725138
,,,,,,calibration,0,28,2,788,9,S,0,right,0.74480828,1,0,,,,,,,,,,,,,,,,,,,,,1,,,,,,,,,,,,,,,,,,,,,,,,,,,,,,,,,,,,,,,,,,,,,,56,152005,21,Female,1,2024/02/14_12:13:15,SD,59.98725138
,,,,,,calibration,0,28,2,788,10,Q,1,right,0.828280175,0,0,,,,,,,,,,,,,,,,,,,,,1,,,,,,,,,,,,,,,,,,,,,,,,,,,,,,,,,,,,,,,,,,,,,,56,152005,21,Female,1,2024/02/14_12:13:15,SD,59.98725138
,,,,,,calibration,0,28,2,788,11,F,0,right,0.777978106,1,0,,,,,,,,,,,,,,,,,,,,,1,,,,,,,,,,,,,,,,,,,,,,,,,,,,,,,,,,,,,,,,,,,,,,56,152005,21,Female,1,2024/02/14_12:13:15,SD,59.98725138
,,,,,,calibration,0,28,2,788,12,Q,1,left,1.097186676,1,0,,,,,,,,,,,,,,,,,,,,,1,,,,,,,,,,,,,,,,,,,,,,,,,,,,,,,,,,,,,,,,,,,,,,56,152005,21,Female,1,2024/02/14_12:13:15,SD,59.98725138
,,,,,,calibration,0,28,2,788,13,J,0,right,0.036552552,1,0,,,,,,,,,,,,,,,,,,,,,1,,,,,,,,,,,,,,,,,,,,,,,,,,,,,,,,,,,,,,,,,,,,,,56,152005,21,Female,1,2024/02/14_12:13:15,SD,59.98725138
,,,,,,calibration,0,28,2,788,,,,,,,,0.875,0.5,0,1,0,1,0.697945503,2,0,0,0,0,9,11,4,9,0,,,,1,,,,,,,,,,,,,,,,,,,,,,,,,,,,,,,,,,,,,,,,,,,,,,56,152005,21,Female,1,2024/02/14_12:13:15,SD,59.98725138
,,,,,,Calibration,0,,2,788,,,,,,,,,,,,,,,,,,,,,,,,,12,,,1,,,,,,,,,,,,,,,,,,,,,,,,,,,,,,,,,,,,,,,,,,,,,,56,152005,21,Female,1,2024/02/14_12:13:15,SD,59.98725138
,,,,,,calibration,0,36,2,679,1,F,0,right,0.562130102,1,0,,,,,,,,,,,,,,,,,,,,,1,,,,,,,,,,,,,,,,,,,,,,,,,,,,,,,,,,,,,,,,,,,,,,56,152005,21,Female,1,2024/02/14_12:13:15,SD,59.98725138
,,,,,,calibration,0,36,2,679,2,V,0,right,0.400448613,1,0,,,,,,,,,,,,,,,,,,,,,1,,,,,,,,,,,,,,,,,,,,,,,,,,,,,,,,,,,,,,,,,,,,,,56,152005,21,Female,1,2024/02/14_12:13:15,SD,59.98725138
,,,,,,calibration,0,36,2,679,3,S,0,right,0.458901591,1,0,,,,,,,,,,,,,,,,,,,,,1,,,,,,,,,,,,,,,,,,,,,,,,,,,,,,,,,,,,,,,,,,,,,,56,152005,21,Female,1,2024/02/14_12:13:15,SD,59.98725138
,,,,,,calibration,0,36,2,679,4,F,0,right,0.418573759,1,0,,,,,,,,,,,,,,,,,,,,,1,,,,,,,,,,,,,,,,,,,,,,,,,,,,,,,,,,,,,,,,,,,,,,56,152005,21,Female,1,2024/02/14_12:13:15,SD,59.98725138
,,,,,,calibration,0,36,2,679,5,V,0,left,0.000656439,0,0,,,,,,,,,,,,,,,,,,,,,1,,,,,,,,,,,,,,,,,,,,,,,,,,,,,,,,,,,,,,,,,,,,,,56,152005,21,Female,1,2024/02/14_12:13:15,SD,59.98725138
,,,,,,calibration,0,36,2,679,6,F,1,left,nan,0,1,,,,,,,,,,,,,,,,,,,,,1,,,,,,,,,,,,,,,,,,,,,,,,,,,,,,,,,,,,,,,,,,,,,,56,152005,21,Female,1,2024/02/14_12:13:15,SD,59.98725138
,,,,,,calibration,0,36,2,679,7,V,1,right,0.944880731,0,0,,,,,,,,,,,,,,,,,,,,,1,,,,,,,,,,,,,,,,,,,,,,,,,,,,,,,,,,,,,,,,,,,,,,56,152005,21,Female,1,2024/02/14_12:13:15,SD,59.98725138
,,,,,,calibration,0,36,2,679,8,C,0,right,0.644888871,1,0,,,,,,,,,,,,,,,,,,,,,1,,,,,,,,,,,,,,,,,,,,,,,,,,,,,,,,,,,,,,,,,,,,,,56,152005,21,Female,1,2024/02/14_12:13:15,SD,59.98725138
,,,,,,calibration,0,36,2,679,9,N,0,right,0.497127096,1,0,,,,,,,,,,,,,,,,,,,,,1,,,,,,,,,,,,,,,,,,,,,,,,,,,,,,,,,,,,,,,,,,,,,,56,152005,21,Female,1,2024/02/14_12:13:15,SD,59.98725138
,,,,,,calibration,0,36,2,679,10,V,0,left,0.661401342,0,0,,,,,,,,,,,,,,,,,,,,,1,,,,,,,,,,,,,,,,,,,,,,,,,,,,,,,,,,,,,,,,,,,,,,56,152005,21,Female,1,2024/02/14_12:13:15,SD,59.98725138
,,,,,,calibration,0,36,2,679,11,X,0,right,0.340214127,1,0,,,,,,,,,,,,,,,,,,,,,1,,,,,,,,,,,,,,,,,,,,,,,,,,,,,,,,,,,,,,,,,,,,,,56,152005,21,Female,1,2024/02/14_12:13:15,SD,59.98725138
,,,,,,calibration,0,36,2,679,12,V,1,right,0.360714608,0,0,,,,,,,,,,,,,,,,,,,,,1,,,,,,,,,,,,,,,,,,,,,,,,,,,,,,,,,,,,,,,,,,,,,,56,152005,21,Female,1,2024/02/14_12:13:15,SD,59.98725138
,,,,,,calibration,0,36,2,679,13,C,0,right,0.561349893,1,0,,,,,,,,,,,,,,,,,,,,,1,,,,,,,,,,,,,,,,,,,,,,,,,,,,,,,,,,,,,,,,,,,,,,56,152005,21,Female,1,2024/02/14_12:13:15,SD,59.98725138
,,,,,,calibration,0,36,2,679,14,V,1,left,0.661776494,1,0,,,,,,,,,,,,,,,,,,,,,1,,,,,,,,,,,,,,,,,,,,,,,,,,,,,,,,,,,,,,,,,,,,,,56,152005,21,Female,1,2024/02/14_12:13:15,SD,59.98725138
,,,,,,calibration,0,36,2,679,,,,,,,,0.5625,0.25,0.2,0.8,0.071428571,0.728571429,0.501004897,1,2,1,0,1,8,9,4,10,0,,,,1,,,,,,,,,,,,,,,,,,,,,,,,,,,,,,,,,,,,,,,,,,,,,,56,152005,21,Female,1,2024/02/14_12:13:15,SD,59.98725138
,,,,,,Calibration,0,,2,679,,,,,,,,,,,,,,,,,,,,,,,,,13,,,1,,,,,,,,,,,,,,,,,,,,,,,,,,,,,,,,,,,,,,,,,,,,,,56,152005,21,Female,1,2024/02/14_12:13:15,SD,59.98725138
,,,,,,calibration,0,12,2,788,1,C,0,right,0.309344648,1,0,,,,,,,,,,,,,,,,,,,,,1,,,,,,,,,,,,,,,,,,,,,,,,,,,,,,,,,,,,,,,,,,,,,,56,152005,21,Female,1,2024/02/14_12:13:15,SD,59.98725138
,,,,,,calibration,0,12,2,788,2,X,0,right,0.38764628,1,0,,,,,,,,,,,,,,,,,,,,,1,,,,,,,,,,,,,,,,,,,,,,,,,,,,,,,,,,,,,,,,,,,,,,56,152005,21,Female,1,2024/02/14_12:13:15,SD,59.98725138
,,,,,,calibration,0,12,2,788,3,N,0,right,0.430166579,1,0,,,,,,,,,,,,,,,,,,,,,1,,,,,,,,,,,,,,,,,,,,,,,,,,,,,,,,,,,,,,,,,,,,,,56,152005,21,Female,1,2024/02/14_12:13:15,SD,59.98725138
,,,,,,calibration,0,12,2,788,4,F,0,right,0.928462441,1,0,,,,,,,,,,,,,,,,,,,,,1,,,,,,,,,,,,,,,,,,,,,,,,,,,,,,,,,,,,,,,,,,,,,,56,152005,21,Female,1,2024/02/14_12:13:15,SD,59.98725138
,,,,,,calibration,0,12,2,788,5,S,0,right,0.745376728,1,0,,,,,,,,,,,,,,,,,,,,,1,,,,,,,,,,,,,,,,,,,,,,,,,,,,,,,,,,,,,,,,,,,,,,56,152005,21,Female,1,2024/02/14_12:13:15,SD,59.98725138
,,,,,,calibration,0,12,2,788,6,F,1,left,0.678566292,1,0,,,,,,,,,,,,,,,,,,,,,1,,,,,,,,,,,,,,,,,,,,,,,,,,,,,,,,,,,,,,,,,,,,,,56,152005,21,Female,1,2024/02/14_12:13:15,SD,59.98725138
,,,,,,calibration,0,12,2,788,7,V,0,right,0.243679476,1,0,,,,,,,,,,,,,,,,,,,,,1,,,,,,,,,,,,,,,,,,,,,,,,,,,,,,,,,,,,,,,,,,,,,,56,152005,21,Female,1,2024/02/14_12:13:15,SD,59.98725138
,,,,,,calibration,0,12,2,788,8,F,1,right,0.241501455,0,0,,,,,,,,,,,,,,,,,,,,,1,,,,,,,,,,,,,,,,,,,,,,,,,,,,,,,,,,,,,,,,,,,,,,56,152005,21,Female,1,2024/02/14_12:13:15,SD,59.98725138
,,,,,,calibration,0,12,2,788,9,N,0,right,0.578670057,1,0,,,,,,,,,,,,,,,,,,,,,1,,,,,,,,,,,,,,,,,,,,,,,,,,,,,,,,,,,,,,,,,,,,,,56,152005,21,Female,1,2024/02/14_12:13:15,SD,59.98725138
,,,,,,calibration,0,12,2,788,10,X,0,right,0.645293911,1,0,,,,,,,,,,,,,,,,,,,,,1,,,,,,,,,,,,,,,,,,,,,,,,,,,,,,,,,,,,,,,,,,,,,,56,152005,21,Female,1,2024/02/14_12:13:15,SD,59.98725138
,,,,,,calibration,0,12,2,788,11,N,1,right,0.517365819,0,0,,,,,,,,,,,,,,,,,,,,,1,,,,,,,,,,,,,,,,,,,,,,,,,,,,,,,,,,,,,,,,,,,,,,56,152005,21,Female,1,2024/02/14_12:13:15,SD,59.98725138
,,,,,,calibration,0,12,2,788,12,Q,0,right,0.5200775,1,0,,,,,,,,,,,,,,,,,,,,,1,,,,,,,,,,,,,,,,,,,,,,,,,,,,,,,,,,,,,,,,,,,,,,56,152005,21,Female,1,2024/02/14_12:13:15,SD,59.98725138
,,,,,,calibration,0,12,2,788,13,N,1,right,0.45188779,0,0,,,,,,,,,,,,,,,,,,,,,1,,,,,,,,,,,,,,,,,,,,,,,,,,,,,,,,,,,,,,,,,,,,,,56,152005,21,Female,1,2024/02/14_12:13:15,SD,59.98725138
,,,,,,calibration,0,12,2,788,,,,,,,,0.8125,0.25,0,1,0,1,0.513695306,1,0,0,0,0,9,10,4,9,0,,,,1,,,,,,,,,,,,,,,,,,,,,,,,,,,,,,,,,,,,,,,,,,,,,,56,152005,21,Female,1,2024/02/14_12:13:15,SD,59.98725138
,,,,,,Calibration,0,,2,788,,,,,,,,,,,,,,,,,,,,,,,,,14,,,1,,,,,,,,,,,,,,,,,,,,,,,,,,,,,,,,,,,,,,,,,,,,,,56,152005,21,Female,1,2024/02/14_12:13:15,SD,59.98725138
,,,,,,calibration,0,30,2,788,1,Q,0,right,0.545002743,1,0,,,,,,,,,,,,,,,,,,,,,1,,,,,,,,,,,,,,,,,,,,,,,,,,,,,,,,,,,,,,,,,,,,,,56,152005,21,Female,1,2024/02/14_12:13:15,SD,59.98725138
,,,,,,calibration,0,30,2,788,2,S,0,right,0.407493341,1,0,,,,,,,,,,,,,,,,,,,,,1,,,,,,,,,,,,,,,,,,,,,,,,,,,,,,,,,,,,,,,,,,,,,,56,152005,21,Female,1,2024/02/14_12:13:15,SD,59.98725138
,,,,,,calibration,0,30,2,788,3,F,0,right,0.844925401,1,0,,,,,,,,,,,,,,,,,,,,,1,,,,,,,,,,,,,,,,,,,,,,,,,,,,,,,,,,,,,,,,,,,,,,56,152005,21,Female,1,2024/02/14_12:13:15,SD,59.98725138
,,,,,,calibration,0,30,2,788,4,S,1,right,0.595165804,0,0,,,,,,,,,,,,,,,,,,,,,1,,,,,,,,,,,,,,,,,,,,,,,,,,,,,,,,,,,,,,,,,,,,,,56,152005,21,Female,1,2024/02/14_12:13:15,SD,59.98725138
,,,,,,calibration,0,30,2,788,5,J,0,left,0.761807078,0,0,,,,,,,,,,,,,,,,,,,,,1,,,,,,,,,,,,,,,,,,,,,,,,,,,,,,,,,,,,,,,,,,,,,,56,152005,21,Female,1,2024/02/14_12:13:15,SD,59.98725138
,,,,,,calibration,0,30,2,788,6,S,1,left,nan,0,1,,,,,,,,,,,,,,,,,,,,,1,,,,,,,,,,,,,,,,,,,,,,,,,,,,,,,,,,,,,,,,,,,,,,56,152005,21,Female,1,2024/02/14_12:13:15,SD,59.98725138
,,,,,,calibration,0,30,2,788,7,V,0,right,0.468831129,1,0,,,,,,,,,,,,,,,,,,,,,1,,,,,,,,,,,,,,,,,,,,,,,,,,,,,,,,,,,,,,,,,,,,,,56,152005,21,Female,1,2024/02/14_12:13:15,SD,59.98725138
,,,,,,calibration,0,30,2,788,8,S,1,right,0.811790159,0,0,,,,,,,,,,,,,,,,,,,,,1,,,,,,,,,,,,,,,,,,,,,,,,,,,,,,,,,,,,,,,,,,,,,,56,152005,21,Female,1,2024/02/14_12:13:15,SD,59.98725138
,,,,,,calibration,0,30,2,788,9,J,0,right,0.56155658,1,0,,,,,,,,,,,,,,,,,,,,,1,,,,,,,,,,,,,,,,,,,,,,,,,,,,,,,,,,,,,,,,,,,,,,56,152005,21,Female,1,2024/02/14_12:13:15,SD,59.98725138
,,,,,,calibration,0,30,2,788,10,F,0,right,0.961691781,1,0,,,,,,,,,,,,,,,,,,,,,1,,,,,,,,,,,,,,,,,,,,,,,,,,,,,,,,,,,,,,,,,,,,,,56,152005,21,Female,1,2024/02/14_12:13:15,SD,59.98725138
,,,,,,calibration,0,30,2,788,11,J,1,right,0.661829919,0,0,,,,,,,,,,,,,,,,,,,,,1,,,,,,,,,,,,,,,,,,,,,,,,,,,,,,,,,,,,,,,,,,,,,,56,152005,21,Female,1,2024/02/14_12:13:15,SD,59.98725138
,,,,,,calibration,0,30,2,788,12,Q,0,right,0.595321857,1,0,,,,,,,,,,,,,,,,,,,,,1,,,,,,,,,,,,,,,,,,,,,,,,,,,,,,,,,,,,,,,,,,,,,,56,152005,21,Female,1,2024/02/14_12:13:15,SD,59.98725138
,,,,,,calibration,0,30,2,788,13,F,0,right,0.695584461,1,0,,,,,,,,,,,,,,,,,,,,,1,,,,,,,,,,,,,,,,,,,,,,,,,,,,,,,,,,,,,,,,,,,,,,56,152005,21,Female,1,2024/02/14_12:13:15,SD,59.98725138
,,,,,,calibration,0,30,2,788,,,,,,,,0.222222222,0,0.111111111,0.888888889,0.076923077,0.811965812,0.659250021,0,1,1,0,1,8,8,4,9,0,,,,1,,,,,,,,,,,,,,,,,,,,,,,,,,,,,,,,,,,,,,,,,,,,,,56,152005,21,Female,1,2024/02/14_12:13:15,SD,59.98725138
,,,,,,Calibration,0,,2,788,,,,,,,,,,,,,,,,,,,,,,,,,15,,,1,,,,,,,,,,,,,,,,,,,,,,,,,,,,,,,,,,,,,,,,,,,,,,56,152005,21,Female,1,2024/02/14_12:13:15,SD,59.98725138
,,,,,,calibration,0,11,2,917,1,J,0,right,0.373848715,1,0,,,,,,,,,,,,,,,,,,,,,1,,,,,,,,,,,,,,,,,,,,,,,,,,,,,,,,,,,,,,,,,,,,,,56,152005,21,Female,1,2024/02/14_12:13:15,SD,59.98725138
,,,,,,calibration,0,11,2,917,2,C,0,right,0.481422401,1,0,,,,,,,,,,,,,,,,,,,,,1,,,,,,,,,,,,,,,,,,,,,,,,,,,,,,,,,,,,,,,,,,,,,,56,152005,21,Female,1,2024/02/14_12:13:15,SD,59.98725138
,,,,,,calibration,0,11,2,917,3,J,1,left,0.527579423,1,0,,,,,,,,,,,,,,,,,,,,,1,,,,,,,,,,,,,,,,,,,,,,,,,,,,,,,,,,,,,,,,,,,,,,56,152005,21,Female,1,2024/02/14_12:13:15,SD,59.98725138
,,,,,,calibration,0,11,2,917,4,C,1,right,0.545761383,0,0,,,,,,,,,,,,,,,,,,,,,1,,,,,,,,,,,,,,,,,,,,,,,,,,,,,,,,,,,,,,,,,,,,,,56,152005,21,Female,1,2024/02/14_12:13:15,SD,59.98725138
,,,,,,calibration,0,11,2,917,5,N,0,left,0.944696271,0,0,,,,,,,,,,,,,,,,,,,,,1,,,,,,,,,,,,,,,,,,,,,,,,,,,,,,,,,,,,,,,,,,,,,,56,152005,21,Female,1,2024/02/14_12:13:15,SD,59.98725138
,,,,,,calibration,0,11,2,917,6,V,0,right,0.9970162,1,0,,,,,,,,,,,,,,,,,,,,,1,,,,,,,,,,,,,,,,,,,,,,,,,,,,,,,,,,,,,,,,,,,,,,56,152005,21,Female,1,2024/02/14_12:13:15,SD,59.98725138
,,,,,,calibration,0,11,2,917,7,C,0,right,0.473281828,1,0,,,,,,,,,,,,,,,,,,,,,1,,,,,,,,,,,,,,,,,,,,,,,,,,,,,,,,,,,,,,,,,,,,,,56,152005,21,Female,1,2024/02/14_12:13:15,SD,59.98725138
,,,,,,calibration,0,11,2,917,8,S,0,right,0.545731305,1,0,,,,,,,,,,,,,,,,,,,,,1,,,,,,,,,,,,,,,,,,,,,,,,,,,,,,,,,,,,,,,,,,,,,,56,152005,21,Female,1,2024/02/14_12:13:15,SD,59.98725138
,,,,,,calibration,0,11,2,917,9,C,1,left,0.794747129,1,0,,,,,,,,,,,,,,,,,,,,,1,,,,,,,,,,,,,,,,,,,,,,,,,,,,,,,,,,,,,,,,,,,,,,56,152005,21,Female,1,2024/02/14_12:13:15,SD,59.98725138
,,,,,,calibration,0,11,2,917,10,S,1,right,0.493807783,0,0,,,,,,,,,,,,,,,,,,,,,1,,,,,,,,,,,,,,,,,,,,,,,,,,,,,,,,,,,,,,,,,,,,,,56,152005,21,Female,1,2024/02/14_12:13:15,SD,59.98725138
,,,,,,calibration,0,11,2,917,11,X,0,right,0.527960088,1,0,,,,,,,,,,,,,,,,,,,,,1,,,,,,,,,,,,,,,,,,,,,,,,,,,,,,,,,,,,,,,,,,,,,,56,152005,21,Female,1,2024/02/14_12:13:15,SD,59.98725138
,,,,,,calibration,0,11,2,917,12,C,0,right,0.828644527,1,0,,,,,,,,,,,,,,,,,,,,,1,,,,,,,,,,,,,,,,,,,,,,,,,,,,,,,,,,,,,,,,,,,,,,56,152005,21,Female,1,2024/02/14_12:13:15,SD,59.98725138
,,,,,,calibration,0,11,2,917,,,,,,,,0.78125,0.5,0.125,0.875,0,0.875,0.627874754,2,1,0,0,0,7,9,4,8,0,,,,1,,,,,,,,,,,,,,,,,,,,,,,,,,,,,,,,,,,,,,,,,,,,,,56,152005,21,Female,1,2024/02/14_12:13:15,SD,59.98725138
,,,,,,Calibration,0,,2,917,,,,,,,,,,,,,,,,,,,,,,,,,16,,,1,,,,,,,,,,,,,,,,,,,,,,,,,,,,,,,,,,,,,,,,,,,,,,56,152005,21,Female,1,2024/02/14_12:13:15,SD,59.98725138
,,,,,,CALIBRATION,0,,,,,,,,,,,,,,,,,,,,,,,,,,,,16,0.78125,917,1,,,,,,,,,,,,,,,,,,,,,,,,,,,,,,,,,,,,,,,,,,,,,,56,152005,21,Female,1,2024/02/14_12:13:15,SD,59.98725138
1,./instructions/inst_prac_1/Slide24.png,right,15.1691722,568.673835,583.8430072,,,,,,,,,,,,,,,,,,,,,,,,,,,,,,,,,1,,,,,,,,,,,,,,,,,,,,,,,,,,,,,,,,,,,,,,,,,,,,,,56,152005,21,Female,1,2024/02/14_12:13:15,SD,59.98725138
2,./instructions/inst_prac_1/Slide25.png,right,1.995903834,583.9514012,585.947305,,,,,,,,,,,,,,,,,,,,,,,,,,,,,,,,,1,,,,,,,,,,,,,,,,,,,,,,,,,,,,,,,,,,,,,,,,,,,,,,56,152005,21,Female,1,2024/02/14_12:13:15,SD,59.98725138
3,./instructions/inst_prac_1/Slide26.png,right,4.744191405,586.0351368,590.7793282,,,,,,,,,,,,,,,,,,,,,,,,,,,,,,,,,1,,,,,,,,,,,,,,,,,,,,,,,,,,,,,,,,,,,,,,,,,,,,,,56,152005,21,Female,1,2024/02/14_12:13:15,SD,59.98725138
4,./instructions/inst_prac_1/Slide27.png,right,1.293115627,591.078165,592.3712806,,,,,,,,,,,,,,,,,,,,,,,,,,,,,,,,,1,,,,,,,,,,,,,,,,,,,,,,,,,,,,,,,,,,,,,,,,,,,,,,56,152005,21,Female,1,2024/02/14_12:13:15,SD,59.98725138
5,./instructions/inst_prac_1/Slide28.png,right,0.813959416,592.4452473,593.2592068,,,,,,,,,,,,,,,,,,,,,,,,,,,,,,,,,1,,,,,,,,,,,,,,,,,,,,,,,,,,,,,,,,,,,,,,,,,,,,,,56,152005,21,Female,1,2024/02/14_12:13:15,SD,59.98725138
6,./instructions/inst_prac_1/Slide29.png,right,3.61464149,593.3086827,596.9233242,,,,,,,,,,,,,,,,,,,,,,,,,,,,,,,,,1,,,,,,,,,,,,,,,,,,,,,,,,,,,,,,,,,,,,,,,,,,,,,,56,152005,21,Female,1,2024/02/14_12:13:15,SD,59.98725138
7,./instructions/inst_prac_1/Slide30.png,right,4.441817468,596.993439,601.4352565,,,,,,,,,,,,,,,,,,,,,,,,,,,,,,,,,1,,,,,,,,,,,,,,,,,,,,,,,,,,,,,,,,,,,,,,,,,,,,,,56,152005,21,Female,1,2024/02/14_12:13:15,SD,59.98725138
,,,,,,practice,0,18,1,1250,1,X,0,right,4.203212187,1,0,,,,,,,,,,,,,,,,,,,,,1,,,,,,,,,,,,,,,,,,,,,,,,,,,,,,,,,,,,,,,,,,,,,,56,152005,21,Female,1,2024/02/14_12:13:15,SD,59.98725138
,,,,,,practice,0,18,1,1250,2,X,1,left,1.524920519,1,0,,,,,,,,,,,,,,,,,,,,,1,,,,,,,,,,,,,,,,,,,,,,,,,,,,,,,,,,,,,,,,,,,,,,56,152005,21,Female,1,2024/02/14_12:13:15,SD,59.98725138
,,,,,,practice,0,18,1,1250,3,F,0,right,0.994274793,1,0,,,,,,,,,,,,,,,,,,,,,1,,,,,,,,,,,,,,,,,,,,,,,,,,,,,,,,,,,,,,,,,,,,,,56,152005,21,Female,1,2024/02/14_12:13:15,SD,59.98725138
,,,,,,practice,0,18,1,1250,4,N,0,right,2.742689192,1,0,,,,,,,,,,,,,,,,,,,,,1,,,,,,,,,,,,,,,,,,,,,,,,,,,,,,,,,,,,,,,,,,,,,,56,152005,21,Female,1,2024/02/14_12:13:15,SD,59.98725138
,,,,,,practice,0,18,1,1250,5,F,0,right,0.698812419,1,0,,,,,,,,,,,,,,,,,,,,,1,,,,,,,,,,,,,,,,,,,,,,,,,,,,,,,,,,,,,,,,,,,,,,56,152005,21,Female,1,2024/02/14_12:13:15,SD,59.98725138
,,,,,,practice,0,18,1,1250,6,Q,0,right,0.553176327,1,0,,,,,,,,,,,,,,,,,,,,,1,,,,,,,,,,,,,,,,,,,,,,,,,,,,,,,,,,,,,,,,,,,,,,56,152005,21,Female,1,2024/02/14_12:13:15,SD,59.98725138
,,,,,,practice,0,18,1,1250,7,Q,1,left,0.829430062,1,0,,,,,,,,,,,,,,,,,,,,,1,,,,,,,,,,,,,,,,,,,,,,,,,,,,,,,,,,,,,,,,,,,,,,56,152005,21,Female,1,2024/02/14_12:13:15,SD,59.98725138
,,,,,,practice,0,18,1,1250,8,V,0,right,0.792956441,1,0,,,,,,,,,,,,,,,,,,,,,1,,,,,,,,,,,,,,,,,,,,,,,,,,,,,,,,,,,,,,,,,,,,,,56,152005,21,Female,1,2024/02/14_12:13:15,SD,59.98725138
,,,,,,practice,0,18,1,1250,9,F,0,right,6.294054795,1,0,,,,,,,,,,,,,,,,,,,,,1,,,,,,,,,,,,,,,,,,,,,,,,,,,,,,,,,,,,,,,,,,,,,,56,152005,21,Female,1,2024/02/14_12:13:15,SD,59.98725138
,,,,,,practice,0,18,1,1250,10,F,1,left,0.912725553,1,0,,,,,,,,,,,,,,,,,,,,,1,,,,,,,,,,,,,,,,,,,,,,,,,,,,,,,,,,,,,,,,,,,,,,56,152005,21,Female,1,2024/02/14_12:13:15,SD,59.98725138
,,,,,,practice,0,18,1,1250,,,,,,,,1,1,0,1,0,1,1.954625229,3,0,0,0,0,7,10,3,7,0,,,,1,,,,,,,,,,,,,,,,,,,,,,,,,,,,,,,,,,,,,,,,,,,,,,56,152005,21,Female,1,2024/02/14_12:13:15,SD,59.98725138
1,./instructions/inst_prac_1_next/Slide35.png,right,2.519051617,631.9242997,634.4433513,,,,,,,,,,,,,,,,,,,,,,,,,,,,,,,,,1,,,,,,,,,,,,,,,,,,,,,,,,,,,,,,,,,,,,,,,,,,,,,,56,152005,21,Female,1,2024/02/14_12:13:15,SD,59.98725138
,,,,,,practice,0,17,1,917,1,V,0,right,1.042449467,1,0,,,,,,,,,,,,,,,,,,,,,1,,,,,,,,,,,,,,,,,,,,,,,,,,,,,,,,,,,,,,,,,,,,,,56,152005,21,Female,1,2024/02/14_12:13:15,SD,59.98725138
,,,,,,practice,0,17,1,917,2,V,1,left,0.619311884,1,0,,,,,,,,,,,,,,,,,,,,,1,,,,,,,,,,,,,,,,,,,,,,,,,,,,,,,,,,,,,,,,,,,,,,56,152005,21,Female,1,2024/02/14_12:13:15,SD,59.98725138
,,,,,,practice,0,17,1,917,3,N,0,right,1.498543082,1,0,,,,,,,,,,,,,,,,,,,,,1,,,,,,,,,,,,,,,,,,,,,,,,,,,,,,,,,,,,,,,,,,,,,,56,152005,21,Female,1,2024/02/14_12:13:15,SD,59.98725138
,,,,,,practice,0,17,1,917,4,S,0,right,1.024664996,1,0,,,,,,,,,,,,,,,,,,,,,1,,,,,,,,,,,,,,,,,,,,,,,,,,,,,,,,,,,,,,,,,,,,,,56,152005,21,Female,1,2024/02/14_12:13:15,SD,59.98725138
,,,,,,practice,0,17,1,917,5,V,0,right,0.689629404,1,0,,,,,,,,,,,,,,,,,,,,,1,,,,,,,,,,,,,,,,,,,,,,,,,,,,,,,,,,,,,,,,,,,,,,56,152005,21,Female,1,2024/02/14_12:13:15,SD,59.98725138
,,,,,,practice,0,17,1,917,6,C,0,right,0.869794192,1,0,,,,,,,,,,,,,,,,,,,,,1,,,,,,,,,,,,,,,,,,,,,,,,,,,,,,,,,,,,,,,,,,,,,,56,152005,21,Female,1,2024/02/14_12:13:15,SD,59.98725138
,,,,,,practice,0,17,1,917,7,X,0,right,0.876563658,1,0,,,,,,,,,,,,,,,,,,,,,1,,,,,,,,,,,,,,,,,,,,,,,,,,,,,,,,,,,,,,,,,,,,,,56,152005,21,Female,1,2024/02/14_12:13:15,SD,59.98725138
,,,,,,practice,0,17,1,917,8,S,0,right,0.499268555,1,0,,,,,,,,,,,,,,,,,,,,,1,,,,,,,,,,,,,,,,,,,,,,,,,,,,,,,,,,,,,,,,,,,,,,56,152005,21,Female,1,2024/02/14_12:13:15,SD,59.98725138
,,,,,,practice,0,17,1,917,9,V,0,right,0.825904632,1,0,,,,,,,,,,,,,,,,,,,,,1,,,,,,,,,,,,,,,,,,,,,,,,,,,,,,,,,,,,,,,,,,,,,,56,152005,21,Female,1,2024/02/14_12:13:15,SD,59.98725138
,,,,,,practice,0,17,1,917,10,V,1,left,0.496711338,1,0,,,,,,,,,,,,,,,,,,,,,1,,,,,,,,,,,,,,,,,,,,,,,,,,,,,,,,,,,,,,,,,,,,,,56,152005,21,Female,1,2024/02/14_12:13:15,SD,59.98725138
,,,,,,practice,0,17,1,917,11,Q,0,right,0.567163343,1,0,,,,,,,,,,,,,,,,,,,,,1,,,,,,,,,,,,,,,,,,,,,,,,,,,,,,,,,,,,,,,,,,,,,,56,152005,21,Female,1,2024/02/14_12:13:15,SD,59.98725138
,,,,,,practice,0,17,1,917,12,Q,1,left,0.594848105,1,0,,,,,,,,,,,,,,,,,,,,,1,,,,,,,,,,,,,,,,,,,,,,,,,,,,,,,,,,,,,,,,,,,,,,56,152005,21,Female,1,2024/02/14_12:13:15,SD,59.98725138
,,,,,,practice,0,17,1,917,,,,,,,,1,1,0,1,0,1,0.800404388,3,0,0,0,0,9,12,3,9,0,,,,1,,,,,,,,,,,,,,,,,,,,,,,,,,,,,,,,,,,,,,,,,,,,,,56,152005,21,Female,1,2024/02/14_12:13:15,SD,59.98725138
,,,,,,practice,0,4,1,917,1,C,0,right,0.533774573,1,0,,,,,,,,,,,,,,,,,,,,,1,,,,,,,,,,,,,,,,,,,,,,,,,,,,,,,,,,,,,,,,,,,,,,56,152005,21,Female,1,2024/02/14_12:13:15,SD,59.98725138
,,,,,,practice,0,4,1,917,2,V,0,right,0.410592449,1,0,,,,,,,,,,,,,,,,,,,,,1,,,,,,,,,,,,,,,,,,,,,,,,,,,,,,,,,,,,,,,,,,,,,,56,152005,21,Female,1,2024/02/14_12:13:15,SD,59.98725138
,,,,,,practice,0,4,1,917,3,F,0,right,0.436353899,1,0,,,,,,,,,,,,,,,,,,,,,1,,,,,,,,,,,,,,,,,,,,,,,,,,,,,,,,,,,,,,,,,,,,,,56,152005,21,Female,1,2024/02/14_12:13:15,SD,59.98725138
,,,,,,practice,0,4,1,917,4,J,0,right,0.372744236,1,0,,,,,,,,,,,,,,,,,,,,,1,,,,,,,,,,,,,,,,,,,,,,,,,,,,,,,,,,,,,,,,,,,,,,56,152005,21,Female,1,2024/02/14_12:13:15,SD,59.98725138
,,,,,,practice,0,4,1,917,5,J,1,left,0.599672678,1,0,,,,,,,,,,,,,,,,,,,,,1,,,,,,,,,,,,,,,,,,,,,,,,,,,,,,,,,,,,,,,,,,,,,,56,152005,21,Female,1,2024/02/14_12:13:15,SD,59.98725138
,,,,,,practice,0,4,1,917,6,V,0,right,0.512179751,1,0,,,,,,,,,,,,,,,,,,,,,1,,,,,,,,,,,,,,,,,,,,,,,,,,,,,,,,,,,,,,,,,,,,,,56,152005,21,Female,1,2024/02/14_12:13:15,SD,59.98725138
,,,,,,practice,0,4,1,917,7,N,0,right,0.349861917,1,0,,,,,,,,,,,,,,,,,,,,,1,,,,,,,,,,,,,,,,,,,,,,,,,,,,,,,,,,,,,,,,,,,,,,56,152005,21,Female,1,2024/02/14_12:13:15,SD,59.98725138
,,,,,,practice,0,4,1,917,8,J,0,right,0.625955867,1,0,,,,,,,,,,,,,,,,,,,,,1,,,,,,,,,,,,,,,,,,,,,,,,,,,,,,,,,,,,,,,,,,,,,,56,152005,21,Female,1,2024/02/14_12:13:15,SD,59.98725138
,,,,,,practice,0,4,1,917,9,J,1,right,0.386996441,0,0,,,,,,,,,,,,,,,,,,,,,1,,,,,,,,,,,,,,,,,,,,,,,,,,,,,,,,,,,,,,,,,,,,,,56,152005,21,Female,1,2024/02/14_12:13:15,SD,59.98725138
,,,,,,practice,0,4,1,917,10,N,0,left,0.117433129,0,0,,,,,,,,,,,,,,,,,,,,,1,,,,,,,,,,,,,,,,,,,,,,,,,,,,,,,,,,,,,,,,,,,,,,56,152005,21,Female,1,2024/02/14_12:13:15,SD,59.98725138
,,,,,,practice,0,4,1,917,11,N,1,right,0.731450799,0,0,,,,,,,,,,,,,,,,,,,,,1,,,,,,,,,,,,,,,,,,,,,,,,,,,,,,,,,,,,,,,,,,,,,,56,152005,21,Female,1,2024/02/14_12:13:15,SD,59.98725138
,,,,,,practice,0,4,1,917,12,Q,0,right,1.118282258,1,0,,,,,,,,,,,,,,,,,,,,,1,,,,,,,,,,,,,,,,,,,,,,,,,,,,,,,,,,,,,,,,,,,,,,56,152005,21,Female,1,2024/02/14_12:13:15,SD,59.98725138
,,,,,,practice,0,4,1,917,,,,,,,,0.722222222,0.333333333,0.111111111,0.888888889,0,0.888888889,0.516274833,1,1,0,0,0,8,9,3,9,0,,,,1,,,,,,,,,,,,,,,,,,,,,,,,,,,,,,,,,,,,,,,,,,,,,,56,152005,21,Female,1,2024/02/14_12:13:15,SD,59.98725138
1,./instructions/inst_redo_1/Slide33.png,right,7.618071207,665.84928,673.4673512,,,,,,,,,,,,,,,,,,,,,,,,,,,,,,,,,1,,,,,,,,,,,,,,,,,,,,,,,,,,,,,,,,,,,,,,,,,,,,,,56,152005,21,Female,1,2024/02/14_12:13:15,SD,59.98725138
,,,,,,practice,0,6,1,917,1,X,0,right,0.477941766,1,0,,,,,,,,,,,,,,,,,,,,,1,,,,,,,,,,,,,,,,,,,,,,,,,,,,,,,,,,,,,,,,,,,,,,56,152005,21,Female,1,2024/02/14_12:13:15,SD,59.98725138
,,,,,,practice,0,6,1,917,2,Q,0,right,0.501073624,1,0,,,,,,,,,,,,,,,,,,,,,1,,,,,,,,,,,,,,,,,,,,,,,,,,,,,,,,,,,,,,,,,,,,,,56,152005,21,Female,1,2024/02/14_12:13:15,SD,59.98725138
,,,,,,practice,0,6,1,917,3,J,0,right,0.42724242,1,0,,,,,,,,,,,,,,,,,,,,,1,,,,,,,,,,,,,,,,,,,,,,,,,,,,,,,,,,,,,,,,,,,,,,56,152005,21,Female,1,2024/02/14_12:13:15,SD,59.98725138
,,,,,,practice,0,6,1,917,4,F,0,right,0.4444874,1,0,,,,,,,,,,,,,,,,,,,,,1,,,,,,,,,,,,,,,,,,,,,,,,,,,,,,,,,,,,,,,,,,,,,,56,152005,21,Female,1,2024/02/14_12:13:15,SD,59.98725138
,,,,,,practice,0,6,1,917,5,J,0,right,0.810716669,1,0,,,,,,,,,,,,,,,,,,,,,1,,,,,,,,,,,,,,,,,,,,,,,,,,,,,,,,,,,,,,,,,,,,,,56,152005,21,Female,1,2024/02/14_12:13:15,SD,59.98725138
,,,,,,practice,0,6,1,917,6,J,1,left,0.628390883,1,0,,,,,,,,,,,,,,,,,,,,,1,,,,,,,,,,,,,,,,,,,,,,,,,,,,,,,,,,,,,,,,,,,,,,56,152005,21,Female,1,2024/02/14_12:13:15,SD,59.98725138
,,,,,,practice,0,6,1,917,7,N,0,right,0.565432544,1,0,,,,,,,,,,,,,,,,,,,,,1,,,,,,,,,,,,,,,,,,,,,,,,,,,,,,,,,,,,,,,,,,,,,,56,152005,21,Female,1,2024/02/14_12:13:15,SD,59.98725138
,,,,,,practice,0,6,1,917,8,X,0,right,0.448605747,1,0,,,,,,,,,,,,,,,,,,,,,1,,,,,,,,,,,,,,,,,,,,,,,,,,,,,,,,,,,,,,,,,,,,,,56,152005,21,Female,1,2024/02/14_12:13:15,SD,59.98725138
,,,,,,practice,0,6,1,917,9,X,1,right,0.471066722,0,0,,,,,,,,,,,,,,,,,,,,,1,,,,,,,,,,,,,,,,,,,,,,,,,,,,,,,,,,,,,,,,,,,,,,56,152005,21,Female,1,2024/02/14_12:13:15,SD,59.98725138
,,,,,,practice,0,6,1,917,10,N,0,right,1.486225829,1,0,,,,,,,,,,,,,,,,,,,,,1,,,,,,,,,,,,,,,,,,,,,,,,,,,,,,,,,,,,,,,,,,,,,,56,152005,21,Female,1,2024/02/14_12:13:15,SD,59.98725138
,,,,,,practice,0,6,1,917,11,J,0,right,0.8450725,1,0,,,,,,,,,,,,,,,,,,,,,1,,,,,,,,,,,,,,,,,,,,,,,,,,,,,,,,,,,,,,,,,,,,,,56,152005,21,Female,1,2024/02/14_12:13:15,SD,59.98725138
,,,,,,practice,0,6,1,917,12,J,1,left,0.645378676,1,0,,,,,,,,,,,,,,,,,,,,,1,,,,,,,,,,,,,,,,,,,,,,,,,,,,,,,,,,,,,,,,,,,,,,56,152005,21,Female,1,2024/02/14_12:13:15,SD,59.98725138
,,,,,,practice,0,6,1,917,,,,,,,,0.916666667,0.666666667,0,1,0,1,0.645969565,2,0,0,0,0,9,11,3,9,0,,,,1,,,,,,,,,,,,,,,,,,,,,,,,,,,,,,,,,,,,,,,,,,,,,,56,152005,21,Female,1,2024/02/14_12:13:15,SD,59.98725138
1,./instructions/inst_prac_3/Slide37.png,right,9.851423542,690.3117847,700.1632082,,,,,,,,,,,,,,,,,,,,,,,,,,,,,,,,,1,,,,,,,,,,,,,,,,,,,,,,,,,,,,,,,,,,,,,,,,,,,,,,56,152005,21,Female,1,2024/02/14_12:13:15,SD,59.98725138
2,./instructions/inst_prac_3/Slide38.png,right,1.671043038,700.2522936,701.9233367,,,,,,,,,,,,,,,,,,,,,,,,,,,,,,,,,1,,,,,,,,,,,,,,,,,,,,,,,,,,,,,,,,,,,,,,,,,,,,,,56,152005,21,Female,1,2024/02/14_12:13:15,SD,59.98725138
3,./instructions/inst_prac_3/Slide39.png,right,2.648813062,702.0024098,704.6512228,,,,,,,,,,,,,,,,,,,,,,,,,,,,,,,,,1,,,,,,,,,,,,,,,,,,,,,,,,,,,,,,,,,,,,,,,,,,,,,,56,152005,21,Female,1,2024/02/14_12:13:15,SD,59.98725138
4,./instructions/inst_prac_3/Slide40.png,right,1.855460407,704.755827,706.6112874,,,,,,,,,,,,,,,,,,,,,,,,,,,,,,,,,1,,,,,,,,,,,,,,,,,,,,,,,,,,,,,,,,,,,,,,,,,,,,,,56,152005,21,Female,1,2024/02/14_12:13:15,SD,59.98725138
5,./instructions/inst_prac_3/Slide41.png,right,2.025206602,706.6899326,708.7151392,,,,,,,,,,,,,,,,,,,,,,,,,,,,,,,,,1,,,,,,,,,,,,,,,,,,,,,,,,,,,,,,,,,,,,,,,,,,,,,,56,152005,21,Female,1,2024/02/14_12:13:15,SD,59.98725138
6,./instructions/inst_prac_3/Slide42.png,right,8.299882339,708.775282,717.0751643,,,,,,,,,,,,,,,,,,,,,,,,,,,,,,,,,1,,,,,,,,,,,,,,,,,,,,,,,,,,,,,,,,,,,,,,,,,,,,,,56,152005,21,Female,1,2024/02/14_12:13:15,SD,59.98725138
7,./instructions/inst_prac_3/Slide43.png,right,2.702212573,717.1812403,719.8834529,,,,,,,,,,,,,,,,,,,,,,,,,,,,,,,,,1,,,,,,,,,,,,,,,,,,,,,,,,,,,,,,,,,,,,,,,,,,,,,,56,152005,21,Female,1,2024/02/14_12:13:15,SD,59.98725138
8,./instructions/inst_prac_3/Slide44.png,right,4.686347438,719.9888463,724.6751937,,,,,,,,,,,,,,,,,,,,,,,,,,,,,,,,,1,,,,,,,,,,,,,,,,,,,,,,,,,,,,,,,,,,,,,,,,,,,,,,56,152005,21,Female,1,2024/02/14_12:13:15,SD,59.98725138
,,,,,,practice,0,12,3,788,1,S,0,right,1.707085529,1,0,,,,,,,,,,,,,,,,,,,,,1,,,,,,,,,,,,,,,,,,,,,,,,,,,,,,,,,,,,,,,,,,,,,,56,152005,21,Female,1,2024/02/14_12:13:15,SD,59.98725138
,,,,,,practice,0,12,3,788,2,N,0,right,0.794650143,1,0,,,,,,,,,,,,,,,,,,,,,1,,,,,,,,,,,,,,,,,,,,,,,,,,,,,,,,,,,,,,,,,,,,,,56,152005,21,Female,1,2024/02/14_12:13:15,SD,59.98725138
,,,,,,practice,0,12,3,788,3,J,0,right,0.557691071,1,0,,,,,,,,,,,,,,,,,,,,,1,,,,,,,,,,,,,,,,,,,,,,,,,,,,,,,,,,,,,,,,,,,,,,56,152005,21,Female,1,2024/02/14_12:13:15,SD,59.98725138
,,,,,,practice,0,12,3,788,4,N,0,right,0.587567688,1,0,,,,,,,,,,,,,,,,,,,,,1,,,,,,,,,,,,,,,,,,,,,,,,,,,,,,,,,,,,,,,,,,,,,,56,152005,21,Female,1,2024/02/14_12:13:15,SD,59.98725138
,,,,,,practice,0,12,3,788,5,N,1,left,1.384319343,1,0,,,,,,,,,,,,,,,,,,,,,1,,,,,,,,,,,,,,,,,,,,,,,,,,,,,,,,,,,,,,,,,,,,,,56,152005,21,Female,1,2024/02/14_12:13:15,SD,59.98725138
,,,,,,practice,0,12,3,788,6,V,0,right,2.619661886,1,0,,,,,,,,,,,,,,,,,,,,,1,,,,,,,,,,,,,,,,,,,,,,,,,,,,,,,,,,,,,,,,,,,,,,56,152005,21,Female,1,2024/02/14_12:13:15,SD,59.98725138
,,,,,,practice,0,12,3,788,7,N,1,left,0.949009821,1,0,,,,,,,,,,,,,,,,,,,,,1,,,,,,,,,,,,,,,,,,,,,,,,,,,,,,,,,,,,,,,,,,,,,,56,152005,21,Female,1,2024/02/14_12:13:15,SD,59.98725138
,,,,,,practice,0,12,3,788,8,Q,0,right,0.835951248,1,0,,,,,,,,,,,,,,,,,,,,,1,,,,,,,,,,,,,,,,,,,,,,,,,,,,,,,,,,,,,,,,,,,,,,56,152005,21,Female,1,2024/02/14_12:13:15,SD,59.98725138
,,,,,,practice,0,12,3,788,9,S,0,right,0.662665166,1,0,,,,,,,,,,,,,,,,,,,,,1,,,,,,,,,,,,,,,,,,,,,,,,,,,,,,,,,,,,,,,,,,,,,,56,152005,21,Female,1,2024/02/14_12:13:15,SD,59.98725138
,,,,,,practice,0,12,3,788,10,N,1,left,0.694754969,1,0,,,,,,,,,,,,,,,,,,,,,1,,,,,,,,,,,,,,,,,,,,,,,,,,,,,,,,,,,,,,,,,,,,,,56,152005,21,Female,1,2024/02/14_12:13:15,SD,59.98725138
,,,,,,practice,0,12,3,788,11,Q,1,left,5.43158067,1,0,,,,,,,,,,,,,,,,,,,,,1,,,,,,,,,,,,,,,,,,,,,,,,,,,,,,,,,,,,,,,,,,,,,,56,152005,21,Female,1,2024/02/14_12:13:15,SD,59.98725138
,,,,,,practice,0,12,3,788,12,C,0,left,1.047168491,0,0,,,,,,,,,,,,,,,,,,,,,1,,,,,,,,,,,,,,,,,,,,,,,,,,,,,,,,,,,,,,,,,,,,,,56,152005,21,Female,1,2024/02/14_12:13:15,SD,59.98725138
,,,,,,practice,0,12,3,788,13,S,0,right,0.79485452,1,0,,,,,,,,,,,,,,,,,,,,,1,,,,,,,,,,,,,,,,,,,,,,,,,,,,,,,,,,,,,,,,,,,,,,56,152005,21,Female,1,2024/02/14_12:13:15,SD,59.98725138
,,,,,,practice,0,12,3,788,,,,,,,,0.972222222,1,0.111111111,0.888888889,0,0.888888889,1.389766196,4,1,0,0,0,8,12,4,9,0,,,,1,,,,,,,,,,,,,,,,,,,,,,,,,,,,,,,,,,,,,,,,,,,,,,56,152005,21,Female,1,2024/02/14_12:13:15,SD,59.98725138
1,./instructions/inst_prac_3_next/Slide49.png,right,4.639879019,757.315211,761.95509,,,,,,,,,,,,,,,,,,,,,,,,,,,,,,,,,1,,,,,,,,,,,,,,,,,,,,,,,,,,,,,,,,,,,,,,,,,,,,,,56,152005,21,Female,1,2024/02/14_12:13:15,SD,59.98725138
,,,,,,practice,0,5,3,917,1,S,0,right,1.20639054,1,0,,,,,,,,,,,,,,,,,,,,,1,,,,,,,,,,,,,,,,,,,,,,,,,,,,,,,,,,,,,,,,,,,,,,56,152005,21,Female,1,2024/02/14_12:13:15,SD,59.98725138
,,,,,,practice,0,5,3,917,2,J,0,right,0.461533008,1,0,,,,,,,,,,,,,,,,,,,,,1,,,,,,,,,,,,,,,,,,,,,,,,,,,,,,,,,,,,,,,,,,,,,,56,152005,21,Female,1,2024/02/14_12:13:15,SD,59.98725138
,,,,,,practice,0,5,3,917,3,N,0,right,0.317280594,1,0,,,,,,,,,,,,,,,,,,,,,1,,,,,,,,,,,,,,,,,,,,,,,,,,,,,,,,,,,,,,,,,,,,,,56,152005,21,Female,1,2024/02/14_12:13:15,SD,59.98725138
,,,,,,practice,0,5,3,917,4,S,1,left,0.338705914,1,0,,,,,,,,,,,,,,,,,,,,,1,,,,,,,,,,,,,,,,,,,,,,,,,,,,,,,,,,,,,,,,,,,,,,56,152005,21,Female,1,2024/02/14_12:13:15,SD,59.98725138
,,,,,,practice,0,5,3,917,5,J,1,right,0.511347047,0,0,,,,,,,,,,,,,,,,,,,,,1,,,,,,,,,,,,,,,,,,,,,,,,,,,,,,,,,,,,,,,,,,,,,,56,152005,21,Female,1,2024/02/14_12:13:15,SD,59.98725138
,,,,,,practice,0,5,3,917,6,F,0,right,0.403098739,1,0,,,,,,,,,,,,,,,,,,,,,1,,,,,,,,,,,,,,,,,,,,,,,,,,,,,,,,,,,,,,,,,,,,,,56,152005,21,Female,1,2024/02/14_12:13:15,SD,59.98725138
,,,,,,practice,0,5,3,917,7,V,0,right,0.372406468,1,0,,,,,,,,,,,,,,,,,,,,,1,,,,,,,,,,,,,,,,,,,,,,,,,,,,,,,,,,,,,,,,,,,,,,56,152005,21,Female,1,2024/02/14_12:13:15,SD,59.98725138
,,,,,,practice,0,5,3,917,8,J,1,left,0.591609785,1,0,,,,,,,,,,,,,,,,,,,,,1,,,,,,,,,,,,,,,,,,,,,,,,,,,,,,,,,,,,,,,,,,,,,,56,152005,21,Female,1,2024/02/14_12:13:15,SD,59.98725138
,,,,,,practice,0,5,3,917,9,S,0,right,0.353700578,1,0,,,,,,,,,,,,,,,,,,,,,1,,,,,,,,,,,,,,,,,,,,,,,,,,,,,,,,,,,,,,,,,,,,,,56,152005,21,Female,1,2024/02/14_12:13:15,SD,59.98725138
,,,,,,practice,0,5,3,917,10,N,0,right,0.405894233,1,0,,,,,,,,,,,,,,,,,,,,,1,,,,,,,,,,,,,,,,,,,,,,,,,,,,,,,,,,,,,,,,,,,,,,56,152005,21,Female,1,2024/02/14_12:13:15,SD,59.98725138
,,,,,,practice,0,5,3,917,11,V,0,right,0.445311764,1,0,,,,,,,,,,,,,,,,,,,,,1,,,,,,,,,,,,,,,,,,,,,,,,,,,,,,,,,,,,,,,,,,,,,,56,152005,21,Female,1,2024/02/14_12:13:15,SD,59.98725138
,,,,,,practice,0,5,3,917,12,S,1,left,0.933785758,1,0,,,,,,,,,,,,,,,,,,,,,1,,,,,,,,,,,,,,,,,,,,,,,,,,,,,,,,,,,,,,,,,,,,,,56,152005,21,Female,1,2024/02/14_12:13:15,SD,59.98725138
,,,,,,practice,0,5,3,917,,,,,,,,0.9375,0.75,0,1,0,1,0.528422036,3,0,0,0,0,8,11,4,8,0,,,,1,,,,,,,,,,,,,,,,,,,,,,,,,,,,,,,,,,,,,,,,,,,,,,56,152005,21,Female,1,2024/02/14_12:13:15,SD,59.98725138
,,,,,,practice,0,2,3,917,1,X,0,right,0.860978037,1,0,,,,,,,,,,,,,,,,,,,,,1,,,,,,,,,,,,,,,,,,,,,,,,,,,,,,,,,,,,,,,,,,,,,,56,152005,21,Female,1,2024/02/14_12:13:15,SD,59.98725138
,,,,,,practice,0,2,3,917,2,X,0,right,0.242549009,1,0,,,,,,,,,,,,,,,,,,,,,1,,,,,,,,,,,,,,,,,,,,,,,,,,,,,,,,,,,,,,,,,,,,,,56,152005,21,Female,1,2024/02/14_12:13:15,SD,59.98725138
,,,,,,practice,0,2,3,917,3,F,0,right,0.882992896,1,0,,,,,,,,,,,,,,,,,,,,,1,,,,,,,,,,,,,,,,,,,,,,,,,,,,,,,,,,,,,,,,,,,,,,56,152005,21,Female,1,2024/02/14_12:13:15,SD,59.98725138
,,,,,,practice,0,2,3,917,4,J,0,right,1.329861813,1,0,,,,,,,,,,,,,,,,,,,,,1,,,,,,,,,,,,,,,,,,,,,,,,,,,,,,,,,,,,,,,,,,,,,,56,152005,21,Female,1,2024/02/14_12:13:15,SD,59.98725138
,,,,,,practice,0,2,3,917,5,F,0,right,0.526697746,1,0,,,,,,,,,,,,,,,,,,,,,1,,,,,,,,,,,,,,,,,,,,,,,,,,,,,,,,,,,,,,,,,,,,,,56,152005,21,Female,1,2024/02/14_12:13:15,SD,59.98725138
,,,,,,practice,0,2,3,917,6,J,0,right,0.681670647,1,0,,,,,,,,,,,,,,,,,,,,,1,,,,,,,,,,,,,,,,,,,,,,,,,,,,,,,,,,,,,,,,,,,,,,56,152005,21,Female,1,2024/02/14_12:13:15,SD,59.98725138
,,,,,,practice,0,2,3,917,7,C,0,left,1.032610397,0,0,,,,,,,,,,,,,,,,,,,,,1,,,,,,,,,,,,,,,,,,,,,,,,,,,,,,,,,,,,,,,,,,,,,,56,152005,21,Female,1,2024/02/14_12:13:15,SD,59.98725138
,,,,,,practice,0,2,3,917,8,F,1,right,0.545307978,0,0,,,,,,,,,,,,,,,,,,,,,1,,,,,,,,,,,,,,,,,,,,,,,,,,,,,,,,,,,,,,,,,,,,,,56,152005,21,Female,1,2024/02/14_12:13:15,SD,59.98725138
,,,,,,practice,0,2,3,917,9,X,0,right,1.197816279,1,0,,,,,,,,,,,,,,,,,,,,,1,,,,,,,,,,,,,,,,,,,,,,,,,,,,,,,,,,,,,,,,,,,,,,56,152005,21,Female,1,2024/02/14_12:13:15,SD,59.98725138
,,,,,,practice,0,2,3,917,10,X,0,right,0.36593588,1,0,,,,,,,,,,,,,,,,,,,,,1,,,,,,,,,,,,,,,,,,,,,,,,,,,,,,,,,,,,,,,,,,,,,,56,152005,21,Female,1,2024/02/14_12:13:15,SD,59.98725138
,,,,,,practice,0,2,3,917,11,F,1,right,1.521770068,0,0,,,,,,,,,,,,,,,,,,,,,1,,,,,,,,,,,,,,,,,,,,,,,,,,,,,,,,,,,,,,,,,,,,,,56,152005,21,Female,1,2024/02/14_12:13:15,SD,59.98725138
,,,,,,practice,0,2,3,917,12,X,1,right,1.230184685,0,0,,,,,,,,,,,,,,,,,,,,,1,,,,,,,,,,,,,,,,,,,,,,,,,,,,,,,,,,,,,,,,,,,,,,56,152005,21,Female,1,2024/02/14_12:13:15,SD,59.98725138
,,,,,,practice,0,2,3,917,,,,,,,,0.222222222,0,0.111111111,0.888888889,0,0.888888889,0.868197953,0,1,0,0,0,8,8,3,9,0,,,,1,,,,,,,,,,,,,,,,,,,,,,,,,,,,,,,,,,,,,,,,,,,,,,56,152005,21,Female,1,2024/02/14_12:13:15,SD,59.98725138
1,./instructions/inst_redo_3/Slide47.png,right,7.299309234,794.3599265,801.6592357,,,,,,,,,,,,,,,,,,,,,,,,,,,,,,,,,1,,,,,,,,,,,,,,,,,,,,,,,,,,,,,,,,,,,,,,,,,,,,,,56,152005,21,Female,1,2024/02/14_12:13:15,SD,59.98725138
,,,,,,practice,0,22,3,917,1,V,0,right,0.68626853,1,0,,,,,,,,,,,,,,,,,,,,,1,,,,,,,,,,,,,,,,,,,,,,,,,,,,,,,,,,,,,,,,,,,,,,56,152005,21,Female,1,2024/02/14_12:13:15,SD,59.98725138
,,,,,,practice,0,22,3,917,2,S,0,right,0.58700881,1,0,,,,,,,,,,,,,,,,,,,,,1,,,,,,,,,,,,,,,,,,,,,,,,,,,,,,,,,,,,,,,,,,,,,,56,152005,21,Female,1,2024/02/14_12:13:15,SD,59.98725138
,,,,,,practice,0,22,3,917,3,C,0,right,0.477341108,1,0,,,,,,,,,,,,,,,,,,,,,1,,,,,,,,,,,,,,,,,,,,,,,,,,,,,,,,,,,,,,,,,,,,,,56,152005,21,Female,1,2024/02/14_12:13:15,SD,59.98725138
,,,,,,practice,0,22,3,917,4,C,0,right,0.844407123,1,0,,,,,,,,,,,,,,,,,,,,,1,,,,,,,,,,,,,,,,,,,,,,,,,,,,,,,,,,,,,,,,,,,,,,56,152005,21,Female,1,2024/02/14_12:13:15,SD,59.98725138
,,,,,,practice,0,22,3,917,5,S,1,right,0.924665644,0,0,,,,,,,,,,,,,,,,,,,,,1,,,,,,,,,,,,,,,,,,,,,,,,,,,,,,,,,,,,,,,,,,,,,,56,152005,21,Female,1,2024/02/14_12:13:15,SD,59.98725138
,,,,,,practice,0,22,3,917,6,S,0,right,0.975601556,1,0,,,,,,,,,,,,,,,,,,,,,1,,,,,,,,,,,,,,,,,,,,,,,,,,,,,,,,,,,,,,,,,,,,,,56,152005,21,Female,1,2024/02/14_12:13:15,SD,59.98725138
,,,,,,practice,0,22,3,917,7,C,1,right,5.210283246,0,0,,,,,,,,,,,,,,,,,,,,,1,,,,,,,,,,,,,,,,,,,,,,,,,,,,,,,,,,,,,,,,,,,,,,56,152005,21,Female,1,2024/02/14_12:13:15,SD,59.98725138
,,,,,,practice,0,22,3,917,8,J,0,right,0.896062039,1,0,,,,,,,,,,,,,,,,,,,,,1,,,,,,,,,,,,,,,,,,,,,,,,,,,,,,,,,,,,,,,,,,,,,,56,152005,21,Female,1,2024/02/14_12:13:15,SD,59.98725138
,,,,,,practice,0,22,3,917,9,J,0,right,1.038585511,1,0,,,,,,,,,,,,,,,,,,,,,1,,,,,,,,,,,,,,,,,,,,,,,,,,,,,,,,,,,,,,,,,,,,,,56,152005,21,Female,1,2024/02/14_12:13:15,SD,59.98725138
,,,,,,practice,0,22,3,917,10,F,0,right,0.636769453,1,0,,,,,,,,,,,,,,,,,,,,,1,,,,,,,,,,,,,,,,,,,,,,,,,,,,,,,,,,,,,,,,,,,,,,56,152005,21,Female,1,2024/02/14_12:13:15,SD,59.98725138
,,,,,,practice,0,22,3,917,11,J,1,right,0.525208385,0,0,,,,,,,,,,,,,,,,,,,,,1,,,,,,,,,,,,,,,,,,,,,,,,,,,,,,,,,,,,,,,,,,,,,,56,152005,21,Female,1,2024/02/14_12:13:15,SD,59.98725138
,,,,,,practice,0,22,3,917,12,S,0,right,0.450166022,1,0,,,,,,,,,,,,,,,,,,,,,1,,,,,,,,,,,,,,,,,,,,,,,,,,,,,,,,,,,,,,,,,,,,,,56,152005,21,Female,1,2024/02/14_12:13:15,SD,59.98725138
,,,,,,practice,0,22,3,917,,,,,,,,0.5,0,0,1,0,1,1.104363952,0,0,0,0,0,9,9,3,9,0,,,,1,,,,,,,,,,,,,,,,,,,,,,,,,,,,,,,,,,,,,,,,,,,,,,56,152005,21,Female,1,2024/02/14_12:13:15,SD,59.98725138
1,./instructions/inst_redo_3/Slide47.png,right,1.583920332,822.5073488,824.0912691,,,,,,,,,,,,,,,,,,,,,,,,,,,,,,,,,1,,,,,,,,,,,,,,,,,,,,,,,,,,,,,,,,,,,,,,,,,,,,,,56,152005,21,Female,1,2024/02/14_12:13:15,SD,59.98725138
,,,,,,practice,0,19,3,917,1,F,0,right,1.236169943,1,0,,,,,,,,,,,,,,,,,,,,,1,,,,,,,,,,,,,,,,,,,,,,,,,,,,,,,,,,,,,,,,,,,,,,56,152005,21,Female,1,2024/02/14_12:13:15,SD,59.98725138
,,,,,,practice,0,19,3,917,2,S,0,right,0.41278889,1,0,,,,,,,,,,,,,,,,,,,,,1,,,,,,,,,,,,,,,,,,,,,,,,,,,,,,,,,,,,,,,,,,,,,,56,152005,21,Female,1,2024/02/14_12:13:15,SD,59.98725138
,,,,,,practice,0,19,3,917,3,F,0,right,0.790853189,1,0,,,,,,,,,,,,,,,,,,,,,1,,,,,,,,,,,,,,,,,,,,,,,,,,,,,,,,,,,,,,,,,,,,,,56,152005,21,Female,1,2024/02/14_12:13:15,SD,59.98725138
,,,,,,practice,0,19,3,917,4,S,0,right,1.2627798,1,0,,,,,,,,,,,,,,,,,,,,,1,,,,,,,,,,,,,,,,,,,,,,,,,,,,,,,,,,,,,,,,,,,,,,56,152005,21,Female,1,2024/02/14_12:13:15,SD,59.98725138
,,,,,,practice,0,19,3,917,5,V,0,right,1.49421513,1,0,,,,,,,,,,,,,,,,,,,,,1,,,,,,,,,,,,,,,,,,,,,,,,,,,,,,,,,,,,,,,,,,,,,,56,152005,21,Female,1,2024/02/14_12:13:15,SD,59.98725138
,,,,,,practice,0,19,3,917,6,J,0,right,0.724458892,1,0,,,,,,,,,,,,,,,,,,,,,1,,,,,,,,,,,,,,,,,,,,,,,,,,,,,,,,,,,,,,,,,,,,,,56,152005,21,Female,1,2024/02/14_12:13:15,SD,59.98725138
,,,,,,practice,0,19,3,917,7,V,0,right,0.727070255,1,0,,,,,,,,,,,,,,,,,,,,,1,,,,,,,,,,,,,,,,,,,,,,,,,,,,,,,,,,,,,,,,,,,,,,56,152005,21,Female,1,2024/02/14_12:13:15,SD,59.98725138
,,,,,,practice,0,19,3,917,8,V,1,left,0.828100807,1,0,,,,,,,,,,,,,,,,,,,,,1,,,,,,,,,,,,,,,,,,,,,,,,,,,,,,,,,,,,,,,,,,,,,,56,152005,21,Female,1,2024/02/14_12:13:15,SD,59.98725138
,,,,,,practice,0,19,3,917,9,S,0,right,0.500675829,1,0,,,,,,,,,,,,,,,,,,,,,1,,,,,,,,,,,,,,,,,,,,,,,,,,,,,,,,,,,,,,,,,,,,,,56,152005,21,Female,1,2024/02/14_12:13:15,SD,59.98725138
,,,,,,practice,0,19,3,917,10,V,1,left,1.171333791,1,0,,,,,,,,,,,,,,,,,,,,,1,,,,,,,,,,,,,,,,,,,,,,,,,,,,,,,,,,,,,,,,,,,,,,56,152005,21,Female,1,2024/02/14_12:13:15,SD,59.98725138
,,,,,,practice,0,19,3,917,11,X,0,right,0.579429811,1,0,,,,,,,,,,,,,,,,,,,,,1,,,,,,,,,,,,,,,,,,,,,,,,,,,,,,,,,,,,,,,,,,,,,,56,152005,21,Female,1,2024/02/14_12:13:15,SD,59.98725138
,,,,,,practice,0,19,3,917,12,S,1,right,1.223634535,0,0,,,,,,,,,,,,,,,,,,,,,1,,,,,,,,,,,,,,,,,,,,,,,,,,,,,,,,,,,,,,,,,,,,,,56,152005,21,Female,1,2024/02/14_12:13:15,SD,59.98725138
,,,,,,practice,0,19,3,917,,,,,,,,0.916666667,0.666666667,0,1,0,1,0.912625906,2,0,0,0,0,9,11,3,9,0,,,,1,,,,,,,,,,,,,,,,,,,,,,,,,,,,,,,,,,,,,,,,,,,,,,56,152005,21,Female,1,2024/02/14_12:13:15,SD,59.98725138
1,./instructions/inst_prac_main/Slide51.png,right,2.774797816,844.1483773,846.9231751,,,,,,,,,,,,,,,,,,,,,,,,,,,,,,,,,1,,,,,,,,,,,,,,,,,,,,,,,,,,,,,,,,,,,,,,,,,,,,,,56,152005,21,Female,1,2024/02/14_12:13:15,SD,59.98725138
2,./instructions/inst_prac_main/Slide52.png,right,10.24387654,846.9909918,857.2348683,,,,,,,,,,,,,,,,,,,,,,,,,,,,,,,,,1,,,,,,,,,,,,,,,,,,,,,,,,,,,,,,,,,,,,,,,,,,,,,,56,152005,21,Female,1,2024/02/14_12:13:15,SD,59.98725138
3,./instructions/inst_prac_main/Slide53.png,right,4.919538746,857.2996449,862.2191836,,,,,,,,,,,,,,,,,,,,,,,,,,,,,,,,,1,,,,,,,,,,,,,,,,,,,,,,,,,,,,,,,,,,,,,,,,,,,,,,56,152005,21,Female,1,2024/02/14_12:13:15,SD,59.98725138
4,./instructions/inst_prac_main/Slide54.png,right,10.33627076,862.2750549,872.6113256,,,,,,,,,,,,,,,,,,,,,,,,,,,,,,,,,1,,,,,,,,,,,,,,,,,,,,,,,,,,,,,,,,,,,,,,,,,,,,,,56,152005,21,Female,1,2024/02/14_12:13:15,SD,59.98725138
,,,,,,practice_main,0,1,1,917,1,V,0,None,nan,0,1,,,,,,,,,,,,,,,,,,,,,1,,,,,,,,,,,,,,,,,,,,,,,,,,,,,,,,,,,,,,,,,,,,,,56,152005,21,Female,1,2024/02/14_12:13:15,SD,59.98725138
,,,,,,practice_main,0,1,1,917,2,V,1,left,0.628208723,1,0,,,,,,,,,,,,,,,,,,,,,1,,,,,,,,,,,,,,,,,,,,,,,,,,,,,,,,,,,,,,,,,,,,,,56,152005,21,Female,1,2024/02/14_12:13:15,SD,59.98725138
,,,,,,practice_main,0,1,1,917,3,F,0,right,0.39862824,1,0,,,,,,,,,,,,,,,,,,,,,1,,,,,,,,,,,,,,,,,,,,,,,,,,,,,,,,,,,,,,,,,,,,,,56,152005,21,Female,1,2024/02/14_12:13:15,SD,59.98725138
,,,,,,practice_main,0,1,1,917,4,V,0,right,1.195311095,1,0,,,,,,,,,,,,,,,,,,,,,1,,,,,,,,,,,,,,,,,,,,,,,,,,,,,,,,,,,,,,,,,,,,,,56,152005,21,Female,1,2024/02/14_12:13:15,SD,59.98725138
,,,,,,practice_main,0,1,1,917,5,X,0,right,0.563300699,1,0,,,,,,,,,,,,,,,,,,,,,1,,,,,,,,,,,,,,,,,,,,,,,,,,,,,,,,,,,,,,,,,,,,,,56,152005,21,Female,1,2024/02/14_12:13:15,SD,59.98725138
,,,,,,practice_main,0,1,1,917,6,X,1,left,0.561361986,1,0,,,,,,,,,,,,,,,,,,,,,1,,,,,,,,,,,,,,,,,,,,,,,,,,,,,,,,,,,,,,,,,,,,,,56,152005,21,Female,1,2024/02/14_12:13:15,SD,59.98725138
,,,,,,practice_main,0,1,1,917,7,N,0,right,0.374602502,1,0,,,,,,,,,,,,,,,,,,,,,1,,,,,,,,,,,,,,,,,,,,,,,,,,,,,,,,,,,,,,,,,,,,,,56,152005,21,Female,1,2024/02/14_12:13:15,SD,59.98725138
,,,,,,practice_main,0,1,1,917,8,N,1,right,0.31360638,0,0,,,,,,,,,,,,,,,,,,,,,1,,,,,,,,,,,,,,,,,,,,,,,,,,,,,,,,,,,,,,,,,,,,,,56,152005,21,Female,1,2024/02/14_12:13:15,SD,59.98725138
,,,,,,practice_main,0,1,1,917,9,V,0,right,0.527831986,1,0,,,,,,,,,,,,,,,,,,,,,1,,,,,,,,,,,,,,,,,,,,,,,,,,,,,,,,,,,,,,,,,,,,,,56,152005,21,Female,1,2024/02/14_12:13:15,SD,59.98725138
,,,,,,practice_main,0,1,1,917,10,S,0,right,0.547826973,1,0,,,,,,,,,,,,,,,,,,,,,1,,,,,,,,,,,,,,,,,,,,,,,,,,,,,,,,,,,,,,,,,,,,,,56,152005,21,Female,1,2024/02/14_12:13:15,SD,59.98725138
,,,,,,practice_main,0,1,1,917,11,N,0,right,1.144840499,1,0,,,,,,,,,,,,,,,,,,,,,1,,,,,,,,,,,,,,,,,,,,,,,,,,,,,,,,,,,,,,,,,,,,,,56,152005,21,Female,1,2024/02/14_12:13:15,SD,59.98725138
,,,,,,practice_main,0,1,1,917,12,X,0,right,0.376406212,1,0,,,,,,,,,,,,,,,,,,,,,1,,,,,,,,,,,,,,,,,,,,,,,,,,,,,,,,,,,,,,,,,,,,,,56,152005,21,Female,1,2024/02/14_12:13:15,SD,59.98725138
,,,,,,practice_main,0,1,1,917,,,,,,,,0.916666667,0.666666667,0,1,0.083333333,0.916666667,0.6029023,2,0,0,1,1,8,10,3,9,0,,,,1,,,,,,,,,,,,,,,,,,,,,,,,,,,,,,,,,,,,,,,,,,,,,,56,152005,21,Female,1,2024/02/14_12:13:15,SD,59.98725138
,,,,,240214_131525,PRACTICE,0,1,1,917,,,,,,,,,,,,,,,,,,,,,,,,,,,,1,30,1,1,cue2.png,easy,B,18,2.943636748,0,876.24645,879.2440616,,,,,,,,,,,,,,,,,,,,,,,,,,,,,,,,,,,56,152005,21,Female,1,2024/02/14_12:13:15,SD,59.98725138
,,,,,,practice_main,0,2,1,917,1,J,0,right,0.761930748,1,0,,,,,,,,,,,,,,,,,,,,,1,,,,,,,,,,,,,,,,,,,,,,,,,,,,,,,,,,,,,,,,,,,,,,56,152005,21,Female,1,2024/02/14_12:13:15,SD,59.98725138
,,,,,,practice_main,0,2,1,917,2,X,0,right,0.371846271,1,0,,,,,,,,,,,,,,,,,,,,,1,,,,,,,,,,,,,,,,,,,,,,,,,,,,,,,,,,,,,,,,,,,,,,56,152005,21,Female,1,2024/02/14_12:13:15,SD,59.98725138
,,,,,,practice_main,0,2,1,917,3,F,0,right,0.414459142,1,0,,,,,,,,,,,,,,,,,,,,,1,,,,,,,,,,,,,,,,,,,,,,,,,,,,,,,,,,,,,,,,,,,,,,56,152005,21,Female,1,2024/02/14_12:13:15,SD,59.98725138
,,,,,,practice_main,0,2,1,917,4,X,0,right,0.360557453,1,0,,,,,,,,,,,,,,,,,,,,,1,,,,,,,,,,,,,,,,,,,,,,,,,,,,,,,,,,,,,,,,,,,,,,56,152005,21,Female,1,2024/02/14_12:13:15,SD,59.98725138
,,,,,,practice_main,0,2,1,917,5,X,1,left,0.611634032,1,0,,,,,,,,,,,,,,,,,,,,,1,,,,,,,,,,,,,,,,,,,,,,,,,,,,,,,,,,,,,,,,,,,,,,56,152005,21,Female,1,2024/02/14_12:13:15,SD,59.98725138
,,,,,,practice_main,0,2,1,917,6,Q,0,right,0.243453295,1,0,,,,,,,,,,,,,,,,,,,,,1,,,,,,,,,,,,,,,,,,,,,,,,,,,,,,,,,,,,,,,,,,,,,,56,152005,21,Female,1,2024/02/14_12:13:15,SD,59.98725138
,,,,,,practice_main,0,2,1,917,7,F,0,right,0.483792924,1,0,,,,,,,,,,,,,,,,,,,,,1,,,,,,,,,,,,,,,,,,,,,,,,,,,,,,,,,,,,,,,,,,,,,,56,152005,21,Female,1,2024/02/14_12:13:15,SD,59.98725138
,,,,,,practice_main,0,2,1,917,8,F,1,left,0.54562409,1,0,,,,,,,,,,,,,,,,,,,,,1,,,,,,,,,,,,,,,,,,,,,,,,,,,,,,,,,,,,,,,,,,,,,,56,152005,21,Female,1,2024/02/14_12:13:15,SD,59.98725138
,,,,,,practice_main,0,2,1,917,9,J,0,right,0.430766594,1,0,,,,,,,,,,,,,,,,,,,,,1,,,,,,,,,,,,,,,,,,,,,,,,,,,,,,,,,,,,,,,,,,,,,,56,152005,21,Female,1,2024/02/14_12:13:15,SD,59.98725138
,,,,,,practice_main,0,2,1,917,10,V,0,right,0.437366803,1,0,,,,,,,,,,,,,,,,,,,,,1,,,,,,,,,,,,,,,,,,,,,,,,,,,,,,,,,,,,,,,,,,,,,,56,152005,21,Female,1,2024/02/14_12:13:15,SD,59.98725138
,,,,,,practice_main,0,2,1,917,11,V,1,left,0.527731792,1,0,,,,,,,,,,,,,,,,,,,,,1,,,,,,,,,,,,,,,,,,,,,,,,,,,,,,,,,,,,,,,,,,,,,,56,152005,21,Female,1,2024/02/14_12:13:15,SD,59.98725138
,,,,,,practice_main,0,2,1,917,12,J,0,right,0.370209992,1,0,,,,,,,,,,,,,,,,,,,,,1,,,,,,,,,,,,,,,,,,,,,,,,,,,,,,,,,,,,,,,,,,,,,,56,152005,21,Female,1,2024/02/14_12:13:15,SD,59.98725138
,,,,,,practice_main,0,2,1,917,,,,,,,,1,1,0,1,0,1,0.463281095,3,0,0,0,0,9,12,3,9,0,,,,1,,,,,,,,,,,,,,,,,,,,,,,,,,,,,,,,,,,,,,,,,,,,,,56,152005,21,Female,1,2024/02/14_12:13:15,SD,59.98725138
,,,,,240214_131555,PRACTICE,0,2,1,917,,,,,,,,,,,,,,,,,,,,,,,,,,,,1,37,3,2,cue2.png,easy,B,17,0.719051847,0,911.8213086,912.5836775,,,,,,,,,,,,,,,,,,,,,,,,,,,,,,,,,,,56,152005,21,Female,1,2024/02/14_12:13:15,SD,59.98725138
,,,,,,practice_main,0,3,1,917,1,N,0,right,0.744771234,1,0,,,,,,,,,,,,,,,,,,,,,1,,,,,,,,,,,,,,,,,,,,,,,,,,,,,,,,,,,,,,,,,,,,,,56,152005,21,Female,1,2024/02/14_12:13:15,SD,59.98725138
,,,,,,practice_main,0,3,1,917,2,C,0,right,0.347817332,1,0,,,,,,,,,,,,,,,,,,,,,1,,,,,,,,,,,,,,,,,,,,,,,,,,,,,,,,,,,,,,,,,,,,,,56,152005,21,Female,1,2024/02/14_12:13:15,SD,59.98725138
,,,,,,practice_main,0,3,1,917,3,C,1,left,0.456363135,1,0,,,,,,,,,,,,,,,,,,,,,1,,,,,,,,,,,,,,,,,,,,,,,,,,,,,,,,,,,,,,,,,,,,,,56,152005,21,Female,1,2024/02/14_12:13:15,SD,59.98725138
,,,,,,practice_main,0,3,1,917,4,J,0,right,0.351932146,1,0,,,,,,,,,,,,,,,,,,,,,1,,,,,,,,,,,,,,,,,,,,,,,,,,,,,,,,,,,,,,,,,,,,,,56,152005,21,Female,1,2024/02/14_12:13:15,SD,59.98725138
,,,,,,practice_main,0,3,1,917,5,J,1,left,0.612136538,1,0,,,,,,,,,,,,,,,,,,,,,1,,,,,,,,,,,,,,,,,,,,,,,,,,,,,,,,,,,,,,,,,,,,,,56,152005,21,Female,1,2024/02/14_12:13:15,SD,59.98725138
,,,,,,practice_main,0,3,1,917,6,S,0,right,0.397204495,1,0,,,,,,,,,,,,,,,,,,,,,1,,,,,,,,,,,,,,,,,,,,,,,,,,,,,,,,,,,,,,,,,,,,,,56,152005,21,Female,1,2024/02/14_12:13:15,SD,59.98725138
,,,,,,practice_main,0,3,1,917,7,S,1,left,0.611516751,1,0,,,,,,,,,,,,,,,,,,,,,1,,,,,,,,,,,,,,,,,,,,,,,,,,,,,,,,,,,,,,,,,,,,,,56,152005,21,Female,1,2024/02/14_12:13:15,SD,59.98725138
,,,,,,practice_main,0,3,1,917,8,C,0,right,0.430673191,1,0,,,,,,,,,,,,,,,,,,,,,1,,,,,,,,,,,,,,,,,,,,,,,,,,,,,,,,,,,,,,,,,,,,,,56,152005,21,Female,1,2024/02/14_12:13:15,SD,59.98725138
,,,,,,practice_main,0,3,1,917,9,Q,0,right,0.995224852,1,0,,,,,,,,,,,,,,,,,,,,,1,,,,,,,,,,,,,,,,,,,,,,,,,,,,,,,,,,,,,,,,,,,,,,56,152005,21,Female,1,2024/02/14_12:13:15,SD,59.98725138
,,,,,,practice_main,0,3,1,917,10,S,0,right,0.545474197,1,0,,,,,,,,,,,,,,,,,,,,,1,,,,,,,,,,,,,,,,,,,,,,,,,,,,,,,,,,,,,,,,,,,,,,56,152005,21,Female,1,2024/02/14_12:13:15,SD,59.98725138
,,,,,,practice_main,0,3,1,917,11,F,0,right,0.37325909,1,0,,,,,,,,,,,,,,,,,,,,,1,,,,,,,,,,,,,,,,,,,,,,,,,,,,,,,,,,,,,,,,,,,,,,56,152005,21,Female,1,2024/02/14_12:13:15,SD,59.98725138
,,,,,,practice_main,0,3,1,917,12,C,0,right,0.469894809,1,0,,,,,,,,,,,,,,,,,,,,,1,,,,,,,,,,,,,,,,,,,,,,,,,,,,,,,,,,,,,,,,,,,,,,56,152005,21,Female,1,2024/02/14_12:13:15,SD,59.98725138
,,,,,,practice_main,0,3,1,917,,,,,,,,1,1,0,1,0,1,0.528022314,3,0,0,0,0,9,12,3,9,0,,,,1,,,,,,,,,,,,,,,,,,,,,,,,,,,,,,,,,,,,,,,,,,,,,,56,152005,21,Female,1,2024/02/14_12:13:15,SD,59.98725138
,,,,,240214_131618,PRACTICE,0,3,1,917,,,,,,,,,,,,,,,,,,,,,,,,,,,,1,44,4,3,cue2.png,easy,B,14,0.987571377,0,933.9888178,935.0010431,,,,,,,,,,,,,,,,,,,,,,,,,,,,,,,,,,,56,152005,21,Female,1,2024/02/14_12:13:15,SD,59.98725138
-1,./instructions/inst_prac_end/Slide56.png,left,223.4579248,955.5933457,1179.051271,,,,,,,,,,,,,,,,,,,,,,,,,,,,,,,,,1,,,,,,,,,,,,,,,,,,,,,,,,,,,,,,,,,,,,,,,,,,,,,,56,152005,21,Female,1,2024/02/14_12:13:15,SD,59.98725138
1,./instructions/inst_test/Slide57.png,right,9.307010682,1179.184135,1188.491146,,,,,,,,,,,,,,,,,,,,,,,,,,,,,,,,,1,,,,,,,,,,,,,,,,,,,,,,,,,,,,,,,,,,,,,,,,,,,,,,56,152005,21,Female,1,2024/02/14_12:13:15,SD,59.98725138
,,,,,,test,1,1,1,917,1,N,0,right,0.561648432,1,0,,,,,,,,,,,,,,,,,,,,,1,,,,,,,,,,,,,,,,,,,,,,,,,,,,,,,,,,,,,,,,,,,,,,56,152005,21,Female,1,2024/02/14_12:13:15,SD,59.98725138
,,,,,,test,1,1,1,917,2,V,0,right,0.517413797,1,0,,,,,,,,,,,,,,,,,,,,,1,,,,,,,,,,,,,,,,,,,,,,,,,,,,,,,,,,,,,,,,,,,,,,56,152005,21,Female,1,2024/02/14_12:13:15,SD,59.98725138
,,,,,,test,1,1,1,917,3,V,1,right,0.315918918,0,0,,,,,,,,,,,,,,,,,,,,,1,,,,,,,,,,,,,,,,,,,,,,,,,,,,,,,,,,,,,,,,,,,,,,56,152005,21,Female,1,2024/02/14_12:13:15,SD,59.98725138
,,,,,,test,1,1,1,917,4,F,0,right,0.577976742,1,0,,,,,,,,,,,,,,,,,,,,,1,,,,,,,,,,,,,,,,,,,,,,,,,,,,,,,,,,,,,,,,,,,,,,56,152005,21,Female,1,2024/02/14_12:13:15,SD,59.98725138
,,,,,,test,1,1,1,917,5,Q,0,right,0.517398946,1,0,,,,,,,,,,,,,,,,,,,,,1,,,,,,,,,,,,,,,,,,,,,,,,,,,,,,,,,,,,,,,,,,,,,,56,152005,21,Female,1,2024/02/14_12:13:15,SD,59.98725138
,,,,,,test,1,1,1,917,6,N,0,right,0.401164575,1,0,,,,,,,,,,,,,,,,,,,,,1,,,,,,,,,,,,,,,,,,,,,,,,,,,,,,,,,,,,,,,,,,,,,,56,152005,21,Female,1,2024/02/14_12:13:15,SD,59.98725138
,,,,,,test,1,1,1,917,7,C,0,right,0.417433834,1,0,,,,,,,,,,,,,,,,,,,,,1,,,,,,,,,,,,,,,,,,,,,,,,,,,,,,,,,,,,,,,,,,,,,,56,152005,21,Female,1,2024/02/14_12:13:15,SD,59.98725138
,,,,,,test,1,1,1,917,8,C,1,left,0.594764477,1,0,,,,,,,,,,,,,,,,,,,,,1,,,,,,,,,,,,,,,,,,,,,,,,,,,,,,,,,,,,,,,,,,,,,,56,152005,21,Female,1,2024/02/14_12:13:15,SD,59.98725138
,,,,,,test,1,1,1,917,9,F,0,right,0.380495322,1,0,,,,,,,,,,,,,,,,,,,,,1,,,,,,,,,,,,,,,,,,,,,,,,,,,,,,,,,,,,,,,,,,,,,,56,152005,21,Female,1,2024/02/14_12:13:15,SD,59.98725138
,,,,,,test,1,1,1,917,10,N,0,right,0.695029415,1,0,,,,,,,,,,,,,,,,,,,,,1,,,,,,,,,,,,,,,,,,,,,,,,,,,,,,,,,,,,,,,,,,,,,,56,152005,21,Female,1,2024/02/14_12:13:15,SD,59.98725138
,,,,,,test,1,1,1,917,11,Q,0,right,0.445335714,1,0,,,,,,,,,,,,,,,,,,,,,1,,,,,,,,,,,,,,,,,,,,,,,,,,,,,,,,,,,,,,,,,,,,,,56,152005,21,Female,1,2024/02/14_12:13:15,SD,59.98725138
,,,,,,test,1,1,1,917,12,Q,1,left,0.628235276,1,0,,,,,,,,,,,,,,,,,,,,,1,,,,,,,,,,,,,,,,,,,,,,,,,,,,,,,,,,,,,,,,,,,,,,56,152005,21,Female,1,2024/02/14_12:13:15,SD,59.98725138
,,,,,,Test,1,1,1,917,,,,,,,,0.916666667,0.666666667,0,1,0,1,0.504401287,2,0,0,0,0,9,11,3,9,0,,,,1,,,,,,,,,,,,,,,,,,,,,,,,,,,,,,,,,,,,,,,,,,,,,,56,152005,21,Female,1,2024/02/14_12:13:15,SD,59.98725138
,,,,,240214_132038,TEST,1,1,1,917,,,,,,,,,,,,,,,,,,,,,,,,,,,,1,1,1,1,cue2.png,easy,B,22,1.387463535,0,1193.928256,1195.340743,,,,,,,,,,,,,,,,,,,,,,,,,,,,,,,,,,,56,152005,21,Female,1,2024/02/14_12:13:15,SD,59.98725138
,,,,,,test,1,2,3,917,1,X,0,right,0.711621988,1,0,,,,,,,,,,,,,,,,,,,,,1,,,,,,,,,,,,,,,,,,,,,,,,,,,,,,,,,,,,,,,,,,,,,,56,152005,21,Female,1,2024/02/14_12:13:15,SD,59.98725138
,,,,,,test,1,2,3,917,2,X,0,right,0.645060569,1,0,,,,,,,,,,,,,,,,,,,,,1,,,,,,,,,,,,,,,,,,,,,,,,,,,,,,,,,,,,,,,,,,,,,,56,152005,21,Female,1,2024/02/14_12:13:15,SD,59.98725138
,,,,,,test,1,2,3,917,3,F,0,right,0.563659098,1,0,,,,,,,,,,,,,,,,,,,,,1,,,,,,,,,,,,,,,,,,,,,,,,,,,,,,,,,,,,,,,,,,,,,,56,152005,21,Female,1,2024/02/14_12:13:15,SD,59.98725138
,,,,,,test,1,2,3,917,4,J,0,right,0.517359526,1,0,,,,,,,,,,,,,,,,,,,,,1,,,,,,,,,,,,,,,,,,,,,,,,,,,,,,,,,,,,,,,,,,,,,,56,152005,21,Female,1,2024/02/14_12:13:15,SD,59.98725138
,,,,,,test,1,2,3,917,5,F,0,left,0.961130603,0,0,,,,,,,,,,,,,,,,,,,,,1,,,,,,,,,,,,,,,,,,,,,,,,,,,,,,,,,,,,,,,,,,,,,,56,152005,21,Female,1,2024/02/14_12:13:15,SD,59.98725138
,,,,,,test,1,2,3,917,6,J,0,right,0.578141218,1,0,,,,,,,,,,,,,,,,,,,,,1,,,,,,,,,,,,,,,,,,,,,,,,,,,,,,,,,,,,,,,,,,,,,,56,152005,21,Female,1,2024/02/14_12:13:15,SD,59.98725138
,,,,,,test,1,2,3,917,7,C,0,right,0.796953294,1,0,,,,,,,,,,,,,,,,,,,,,1,,,,,,,,,,,,,,,,,,,,,,,,,,,,,,,,,,,,,,,,,,,,,,56,152005,21,Female,1,2024/02/14_12:13:15,SD,59.98725138
,,,,,,test,1,2,3,917,8,F,1,right,0.578290652,0,0,,,,,,,,,,,,,,,,,,,,,1,,,,,,,,,,,,,,,,,,,,,,,,,,,,,,,,,,,,,,,,,,,,,,56,152005,21,Female,1,2024/02/14_12:13:15,SD,59.98725138
,,,,,,test,1,2,3,917,9,X,0,right,0.472054827,1,0,,,,,,,,,,,,,,,,,,,,,1,,,,,,,,,,,,,,,,,,,,,,,,,,,,,,,,,,,,,,,,,,,,,,56,152005,21,Female,1,2024/02/14_12:13:15,SD,59.98725138
,,,,,,test,1,2,3,917,10,X,0,right,0.961599981,1,0,,,,,,,,,,,,,,,,,,,,,1,,,,,,,,,,,,,,,,,,,,,,,,,,,,,,,,,,,,,,,,,,,,,,56,152005,21,Female,1,2024/02/14_12:13:15,SD,59.98725138
,,,,,,test,1,2,3,917,11,F,1,left,0.797175432,1,0,,,,,,,,,,,,,,,,,,,,,1,,,,,,,,,,,,,,,,,,,,,,,,,,,,,,,,,,,,,,,,,,,,,,56,152005,21,Female,1,2024/02/14_12:13:15,SD,59.98725138
,,,,,,test,1,2,3,917,12,X,1,right,0.2412363,0,0,,,,,,,,,,,,,,,,,,,,,1,,,,,,,,,,,,,,,,,,,,,,,,,,,,,,,,,,,,,,,,,,,,,,56,152005,21,Female,1,2024/02/14_12:13:15,SD,59.98725138
,,,,,,Test,1,2,3,917,,,,,,,,0.722222222,0.333333333,0.111111111,0.888888889,0,0.888888889,0.652023624,1,1,0,0,0,8,9,3,9,0,,,,1,,,,,,,,,,,,,,,,,,,,,,,,,,,,,,,,,,,,,,,,,,,,,,56,152005,21,Female,1,2024/02/14_12:13:15,SD,59.98725138
,,,,,240214_132103,TEST,1,2,3,917,,,,,,,,,,,,,,,,,,,,,,,,,,,,1,2,2,2,cue1.png,hard,B,55,1.074538216,0,1217.22744,1218.339491,,,,,,,,,,,,,,,,,,,,,,,,,,,,,,,,,,,56,152005,21,Female,1,2024/02/14_12:13:15,SD,59.98725138
,,,,,,test,1,3,3,917,1,C,0,right,0.45566795,1,0,,,,,,,,,,,,,,,,,,,,,1,,,,,,,,,,,,,,,,,,,,,,,,,,,,,,,,,,,,,,,,,,,,,,56,152005,21,Female,1,2024/02/14_12:13:15,SD,59.98725138
,,,,,,test,1,3,3,917,2,C,0,right,0.463259801,1,0,,,,,,,,,,,,,,,,,,,,,1,,,,,,,,,,,,,,,,,,,,,,,,,,,,,,,,,,,,,,,,,,,,,,56,152005,21,Female,1,2024/02/14_12:13:15,SD,59.98725138
,,,,,,test,1,3,3,917,3,S,0,right,0.545689194,1,0,,,,,,,,,,,,,,,,,,,,,1,,,,,,,,,,,,,,,,,,,,,,,,,,,,,,,,,,,,,,,,,,,,,,56,152005,21,Female,1,2024/02/14_12:13:15,SD,59.98725138
,,,,,,test,1,3,3,917,4,C,1,left,0.545803197,1,0,,,,,,,,,,,,,,,,,,,,,1,,,,,,,,,,,,,,,,,,,,,,,,,,,,,,,,,,,,,,,,,,,,,,56,152005,21,Female,1,2024/02/14_12:13:15,SD,59.98725138
,,,,,,test,1,3,3,917,5,Q,0,right,0.436384541,1,0,,,,,,,,,,,,,,,,,,,,,1,,,,,,,,,,,,,,,,,,,,,,,,,,,,,,,,,,,,,,,,,,,,,,56,152005,21,Female,1,2024/02/14_12:13:15,SD,59.98725138
,,,,,,test,1,3,3,917,6,X,0,right,0.460332011,1,0,,,,,,,,,,,,,,,,,,,,,1,,,,,,,,,,,,,,,,,,,,,,,,,,,,,,,,,,,,,,,,,,,,,,56,152005,21,Female,1,2024/02/14_12:13:15,SD,59.98725138
,,,,,,test,1,3,3,917,7,C,1,left,0.963473854,1,0,,,,,,,,,,,,,,,,,,,,,1,,,,,,,,,,,,,,,,,,,,,,,,,,,,,,,,,,,,,,,,,,,,,,56,152005,21,Female,1,2024/02/14_12:13:15,SD,59.98725138
,,,,,,test,1,3,3,917,8,Q,1,right,0.317274918,0,0,,,,,,,,,,,,,,,,,,,,,1,,,,,,,,,,,,,,,,,,,,,,,,,,,,,,,,,,,,,,,,,,,,,,56,152005,21,Female,1,2024/02/14_12:13:15,SD,59.98725138
,,,,,,test,1,3,3,917,9,Q,0,right,0.282929677,1,0,,,,,,,,,,,,,,,,,,,,,1,,,,,,,,,,,,,,,,,,,,,,,,,,,,,,,,,,,,,,,,,,,,,,56,152005,21,Female,1,2024/02/14_12:13:15,SD,59.98725138
,,,,,,test,1,3,3,917,10,V,0,right,0.912275049,1,0,,,,,,,,,,,,,,,,,,,,,1,,,,,,,,,,,,,,,,,,,,,,,,,,,,,,,,,,,,,,,,,,,,,,56,152005,21,Female,1,2024/02/14_12:13:15,SD,59.98725138
,,,,,,test,1,3,3,917,11,S,0,right,0.414994672,1,0,,,,,,,,,,,,,,,,,,,,,1,,,,,,,,,,,,,,,,,,,,,,,,,,,,,,,,,,,,,,,,,,,,,,56,152005,21,Female,1,2024/02/14_12:13:15,SD,59.98725138
,,,,,,test,1,3,3,917,12,S,0,right,0.382533606,1,0,,,,,,,,,,,,,,,,,,,,,1,,,,,,,,,,,,,,,,,,,,,,,,,,,,,,,,,,,,,,,,,,,,,,56,152005,21,Female,1,2024/02/14_12:13:15,SD,59.98725138
,,,,,,Test,1,3,3,917,,,,,,,,0.916666667,0.666666667,0,1,0,1,0.515051539,2,0,0,0,0,9,11,3,9,0,,,,1,,,,,,,,,,,,,,,,,,,,,,,,,,,,,,,,,,,,,,,,,,,,,,56,152005,21,Female,1,2024/02/14_12:13:15,SD,59.98725138
,,,,,240214_132128,TEST,1,3,3,917,,,,,,,,,,,,,,,,,,,,,,,,,,,,1,3,3,3,cue1.png,hard,B,44,2.539644237,0,1242.095489,1244.659013,,,,,,,,,,,,,,,,,,,,,,,,,,,,,,,,,,,56,152005,21,Female,1,2024/02/14_12:13:15,SD,59.98725138
,,,,,,test,1,4,3,917,1,N,0,right,0.387078059,1,0,,,,,,,,,,,,,,,,,,,,,1,,,,,,,,,,,,,,,,,,,,,,,,,,,,,,,,,,,,,,,,,,,,,,56,152005,21,Female,1,2024/02/14_12:13:15,SD,59.98725138
,,,,,,test,1,4,3,917,2,F,0,right,0.405238098,1,0,,,,,,,,,,,,,,,,,,,,,1,,,,,,,,,,,,,,,,,,,,,,,,,,,,,,,,,,,,,,,,,,,,,,56,152005,21,Female,1,2024/02/14_12:13:15,SD,59.98725138
,,,,,,test,1,4,3,917,3,C,0,right,0.350996492,1,0,,,,,,,,,,,,,,,,,,,,,1,,,,,,,,,,,,,,,,,,,,,,,,,,,,,,,,,,,,,,,,,,,,,,56,152005,21,Female,1,2024/02/14_12:13:15,SD,59.98725138
,,,,,,test,1,4,3,917,4,X,0,right,0.403197123,1,0,,,,,,,,,,,,,,,,,,,,,1,,,,,,,,,,,,,,,,,,,,,,,,,,,,,,,,,,,,,,,,,,,,,,56,152005,21,Female,1,2024/02/14_12:13:15,SD,59.98725138
,,,,,,test,1,4,3,917,5,F,1,left,0.88029529,1,0,,,,,,,,,,,,,,,,,,,,,1,,,,,,,,,,,,,,,,,,,,,,,,,,,,,,,,,,,,,,,,,,,,,,56,152005,21,Female,1,2024/02/14_12:13:15,SD,59.98725138
,,,,,,test,1,4,3,917,6,Q,0,right,0.233453307,1,0,,,,,,,,,,,,,,,,,,,,,1,,,,,,,,,,,,,,,,,,,,,,,,,,,,,,,,,,,,,,,,,,,,,,56,152005,21,Female,1,2024/02/14_12:13:15,SD,59.98725138
,,,,,,test,1,4,3,917,7,X,1,right,0.362405402,0,0,,,,,,,,,,,,,,,,,,,,,1,,,,,,,,,,,,,,,,,,,,,,,,,,,,,,,,,,,,,,,,,,,,,,56,152005,21,Female,1,2024/02/14_12:13:15,SD,59.98725138
,,,,,,test,1,4,3,917,8,F,1,left,0.342194469,1,0,,,,,,,,,,,,,,,,,,,,,1,,,,,,,,,,,,,,,,,,,,,,,,,,,,,,,,,,,,,,,,,,,,,,56,152005,21,Female,1,2024/02/14_12:13:15,SD,59.98725138
,,,,,,test,1,4,3,917,9,C,0,right,0.282175764,1,0,,,,,,,,,,,,,,,,,,,,,1,,,,,,,,,,,,,,,,,,,,,,,,,,,,,,,,,,,,,,,,,,,,,,56,152005,21,Female,1,2024/02/14_12:13:15,SD,59.98725138
,,,,,,test,1,4,3,917,10,N,0,right,0.378036636,1,0,,,,,,,,,,,,,,,,,,,,,1,,,,,,,,,,,,,,,,,,,,,,,,,,,,,,,,,,,,,,,,,,,,,,56,152005,21,Female,1,2024/02/14_12:13:15,SD,59.98725138
,,,,,,test,1,4,3,917,11,Q,0,right,0.77856753,1,0,,,,,,,,,,,,,,,,,,,,,1,,,,,,,,,,,,,,,,,,,,,,,,,,,,,,,,,,,,,,,,,,,,,,56,152005,21,Female,1,2024/02/14_12:13:15,SD,59.98725138
,,,,,,test,1,4,3,917,12,N,0,right,0.795115927,1,0,,,,,,,,,,,,,,,,,,,,,1,,,,,,,,,,,,,,,,,,,,,,,,,,,,,,,,,,,,,,,,,,,,,,56,152005,21,Female,1,2024/02/14_12:13:15,SD,59.98725138
,,,,,,Test,1,4,3,917,,,,,,,,0.916666667,0.666666667,0,1,0,1,0.466562841,2,0,0,0,0,9,11,3,9,0,,,,1,,,,,,,,,,,,,,,,,,,,,,,,,,,,,,,,,,,,,,,,,,,,,,56,152005,21,Female,1,2024/02/14_12:13:15,SD,59.98725138
,,,,,240214_132150,TEST,1,4,3,917,,,,,,,,,,,,,,,,,,,,,,,,,,,,1,4,4,4,cue1.png,hard,B,57,0.702797693,0,1266.613953,1267.358319,,,,,,,,,,,,,,,,,,,,,,,,,,,,,,,,,,,56,152005,21,Female,1,2024/02/14_12:13:15,SD,59.98725138
,,,,,,test,1,5,1,917,1,F,0,right,0.292213065,1,0,,,,,,,,,,,,,,,,,,,,,1,,,,,,,,,,,,,,,,,,,,,,,,,,,,,,,,,,,,,,,,,,,,,,56,152005,21,Female,1,2024/02/14_12:13:15,SD,59.98725138
,,,,,,test,1,5,1,917,2,J,0,right,0.354673088,1,0,,,,,,,,,,,,,,,,,,,,,1,,,,,,,,,,,,,,,,,,,,,,,,,,,,,,,,,,,,,,,,,,,,,,56,152005,21,Female,1,2024/02/14_12:13:15,SD,59.98725138
,,,,,,test,1,5,1,917,3,N,0,right,0.380472705,1,0,,,,,,,,,,,,,,,,,,,,,1,,,,,,,,,,,,,,,,,,,,,,,,,,,,,,,,,,,,,,,,,,,,,,56,152005,21,Female,1,2024/02/14_12:13:15,SD,59.98725138
,,,,,,test,1,5,1,917,4,X,0,right,0.367526287,1,0,,,,,,,,,,,,,,,,,,,,,1,,,,,,,,,,,,,,,,,,,,,,,,,,,,,,,,,,,,,,,,,,,,,,56,152005,21,Female,1,2024/02/14_12:13:15,SD,59.98725138
,,,,,,test,1,5,1,917,5,X,1,right,0.363321214,0,0,,,,,,,,,,,,,,,,,,,,,1,,,,,,,,,,,,,,,,,,,,,,,,,,,,,,,,,,,,,,,,,,,,,,56,152005,21,Female,1,2024/02/14_12:13:15,SD,59.98725138
,,,,,,test,1,5,1,917,6,F,0,right,0.486802392,1,0,,,,,,,,,,,,,,,,,,,,,1,,,,,,,,,,,,,,,,,,,,,,,,,,,,,,,,,,,,,,,,,,,,,,56,152005,21,Female,1,2024/02/14_12:13:15,SD,59.98725138
,,,,,,test,1,5,1,917,7,C,0,right,0.695007295,1,0,,,,,,,,,,,,,,,,,,,,,1,,,,,,,,,,,,,,,,,,,,,,,,,,,,,,,,,,,,,,,,,,,,,,56,152005,21,Female,1,2024/02/14_12:13:15,SD,59.98725138
