Instruction,Stimulus,Key,RT,START,END,Phase,Block,TrialN,NbackLevel,ISI,LetterN,Letter,Letter_isSame,Letter_Resp,Letter_RT,Letter_Accuracy,Letter_Timeout,Trial_A_measure,Trial_HR,Trial_FAR,Trial_CDR,Trial_MSR,Trial_ACC,Trial_RT,Trial_HitsCount,Trial_FAsCount,Trial_SameNoRespCount,Trial_DiffNoRespCount,Trial_NoRespCount,Trial_CDsCount,Trial_CorrectRespCount,Trial_SameLetterCount,Trial_DiffLetterCount,Trial_InvalidLetterCount,TrialCountCali,CaliEnd_A_measure,ISI_calibrated,Run,TrialIndex,TrialNumber_total,TrialNumber_valid,CueLearning,TrialDemandLearning,CueMapping,OnlineRating,OnlineRatingRT,OnlineRatingTimeOut,CueSTART,RatingSTART,OfflineRatingTimePoint,OfflineRatingQuesIndex,CueFigure,TrialDemand,OfflineRating,OfflineRatingRT,CueStart,OfflineRatingStart,PhaseType,CueLeft,CueDemandLeft,CueRight,CueDemandRight,Choice,ChoiceDemand,TaskDemand,ChoiceRT,ChoiceTimeOut,ChoiceSTART,CueCheck,CueDemandCheck,CorrectAnswer,Answer,AnswerDemand,AnswerRT,AnswerACC,AnswerTimeOut,CheckSTART,DemandRatingQuesIndex,QuesTLX,DemandLevel,DemandRating,DemandRatingRT,QuesStart,PID,SONA,Age,Gender,Run,TIME,EXPERIMENTER,frameRate
1,./instructions/inst_begin/Slide2.png,right,15.36059057,2.389845831,17.75043641,,,,,,,,,,,,,,,,,,,,,,,,,,,,,,,,,1,,,,,,,,,,,,,,,,,,,,,,,,,,,,,,,,,,,,,,,,,,,,,,55,152122,21,Female,1,2024/02/14_09:23:01,SD,60.08727182
2,./instructions/inst_begin/Slide3.png,right,9.120115504,17.80639539,26.9265109,,,,,,,,,,,,,,,,,,,,,,,,,,,,,,,,,1,,,,,,,,,,,,,,,,,,,,,,,,,,,,,,,,,,,,,,,,,,,,,,55,152122,21,Female,1,2024/02/14_09:23:01,SD,60.08727182
3,./instructions/inst_begin/Slide4.png,right,12.94553635,27.00491018,39.95044654,,,,,,,,,,,,,,,,,,,,,,,,,,,,,,,,,1,,,,,,,,,,,,,,,,,,,,,,,,,,,,,,,,,,,,,,,,,,,,,,55,152122,21,Female,1,2024/02/14_09:23:01,SD,60.08727182
1,./instructions/inst_prac_2/Slide6.png,right,16.06164889,40.07252781,56.1341767,,,,,,,,,,,,,,,,,,,,,,,,,,,,,,,,,1,,,,,,,,,,,,,,,,,,,,,,,,,,,,,,,,,,,,,,,,,,,,,,55,152122,21,Female,1,2024/02/14_09:23:01,SD,60.08727182
2,./instructions/inst_prac_2/Slide7.png,right,20.17885906,56.21135045,76.39020951,,,,,,,,,,,,,,,,,,,,,,,,,,,,,,,,,1,,,,,,,,,,,,,,,,,,,,,,,,,,,,,,,,,,,,,,,,,,,,,,55,152122,21,Female,1,2024/02/14_09:23:01,SD,60.08727182
3,./instructions/inst_prac_2/Slide8.png,right,10.79068136,76.4639747,87.25465606,,,,,,,,,,,,,,,,,,,,,,,,,,,,,,,,,1,,,,,,,,,,,,,,,,,,,,,,,,,,,,,,,,,,,,,,,,,,,,,,55,152122,21,Female,1,2024/02/14_09:23:01,SD,60.08727182
4,./instructions/inst_prac_2/Slide9.png,right,4.823273915,87.35090448,92.17417839,,,,,,,,,,,,,,,,,,,,,,,,,,,,,,,,,1,,,,,,,,,,,,,,,,,,,,,,,,,,,,,,,,,,,,,,,,,,,,,,55,152122,21,Female,1,2024/02/14_09:23:01,SD,60.08727182
5,./instructions/inst_prac_2/Slide10.png,right,3.539749875,92.22665867,95.76640855,,,,,,,,,,,,,,,,,,,,,,,,,,,,,,,,,1,,,,,,,,,,,,,,,,,,,,,,,,,,,,,,,,,,,,,,,,,,,,,,55,152122,21,Female,1,2024/02/14_09:23:01,SD,60.08727182
6,./instructions/inst_prac_2/Slide11.png,right,2.586750527,95.82776831,98.41451883,,,,,,,,,,,,,,,,,,,,,,,,,,,,,,,,,1,,,,,,,,,,,,,,,,,,,,,,,,,,,,,,,,,,,,,,,,,,,,,,55,152122,21,Female,1,2024/02/14_09:23:01,SD,60.08727182
7,./instructions/inst_prac_2/Slide12.png,right,3.610445176,98.4917467,102.1021919,,,,,,,,,,,,,,,,,,,,,,,,,,,,,,,,,1,,,,,,,,,,,,,,,,,,,,,,,,,,,,,,,,,,,,,,,,,,,,,,55,152122,21,Female,1,2024/02/14_09:23:01,SD,60.08727182
8,./instructions/inst_prac_2/Slide13.png,right,6.699636984,102.1785445,108.8781814,,,,,,,,,,,,,,,,,,,,,,,,,,,,,,,,,1,,,,,,,,,,,,,,,,,,,,,,,,,,,,,,,,,,,,,,,,,,,,,,55,152122,21,Female,1,2024/02/14_09:23:01,SD,60.08727182
9,./instructions/inst_prac_2/Slide14.png,right,17.39511587,108.9549422,126.3500581,,,,,,,,,,,,,,,,,,,,,,,,,,,,,,,,,1,,,,,,,,,,,,,,,,,,,,,,,,,,,,,,,,,,,,,,,,,,,,,,55,152122,21,Female,1,2024/02/14_09:23:01,SD,60.08727182
10,./instructions/inst_prac_2/Slide15.png,right,18.14679164,126.4274266,144.5742182,,,,,,,,,,,,,,,,,,,,,,,,,,,,,,,,,1,,,,,,,,,,,,,,,,,,,,,,,,,,,,,,,,,,,,,,,,,,,,,,55,152122,21,Female,1,2024/02/14_09:23:01,SD,60.08727182
,,,,,,practice,0,8,2,2583,1,X,0,right,5.212561492,1,0,,,,,,,,,,,,,,,,,,,,,1,,,,,,,,,,,,,,,,,,,,,,,,,,,,,,,,,,,,,,,,,,,,,,55,152122,21,Female,1,2024/02/14_09:23:01,SD,60.08727182
,,,,,,practice,0,8,2,2583,2,C,0,right,1.909387382,1,0,,,,,,,,,,,,,,,,,,,,,1,,,,,,,,,,,,,,,,,,,,,,,,,,,,,,,,,,,,,,,,,,,,,,55,152122,21,Female,1,2024/02/14_09:23:01,SD,60.08727182
,,,,,,practice,0,8,2,2583,3,X,1,left,2.355252892,1,0,,,,,,,,,,,,,,,,,,,,,1,,,,,,,,,,,,,,,,,,,,,,,,,,,,,,,,,,,,,,,,,,,,,,55,152122,21,Female,1,2024/02/14_09:23:01,SD,60.08727182
,,,,,,practice,0,8,2,2583,4,C,1,left,1.486463636,1,0,,,,,,,,,,,,,,,,,,,,,1,,,,,,,,,,,,,,,,,,,,,,,,,,,,,,,,,,,,,,,,,,,,,,55,152122,21,Female,1,2024/02/14_09:23:01,SD,60.08727182
,,,,,,practice,0,8,2,2583,5,Q,0,right,1.263005872,1,0,,,,,,,,,,,,,,,,,,,,,1,,,,,,,,,,,,,,,,,,,,,,,,,,,,,,,,,,,,,,,,,,,,,,55,152122,21,Female,1,2024/02/14_09:23:01,SD,60.08727182
,,,,,,practice,0,8,2,2583,6,V,0,right,2.510949907,1,0,,,,,,,,,,,,,,,,,,,,,1,,,,,,,,,,,,,,,,,,,,,,,,,,,,,,,,,,,,,,,,,,,,,,55,152122,21,Female,1,2024/02/14_09:23:01,SD,60.08727182
,,,,,,practice,0,8,2,2583,,,,,,,,1,1,0,1,0,1,2.456270197,2,0,0,0,0,4,6,2,4,0,,,,1,,,,,,,,,,,,,,,,,,,,,,,,,,,,,,,,,,,,,,,,,,,,,,55,152122,21,Female,1,2024/02/14_09:23:01,SD,60.08727182
1,./instructions/inst_to_cali/Slide20.png,right,8.261580953,165.8566711,174.1182521,,,,,,,,,,,,,,,,,,,,,,,,,,,,,,,,,1,,,,,,,,,,,,,,,,,,,,,,,,,,,,,,,,,,,,,,,,,,,,,,55,152122,21,Female,1,2024/02/14_09:23:01,SD,60.08727182
1,./instructions/inst_cali/Slide22.png,right,15.43683124,174.1853905,189.6222217,,,,,,,,,,,,,,,,,,,,,,,,,,,,,,,,,1,,,,,,,,,,,,,,,,,,,,,,,,,,,,,,,,,,,,,,,,,,,,,,55,152122,21,Female,1,2024/02/14_09:23:01,SD,60.08727182
,,,,,,calibration,0,22,2,583,1,F,0,right,1.047155869,1,0,,,,,,,,,,,,,,,,,,,,,1,,,,,,,,,,,,,,,,,,,,,,,,,,,,,,,,,,,,,,,,,,,,,,55,152122,21,Female,1,2024/02/14_09:23:01,SD,60.08727182
,,,,,,calibration,0,22,2,583,2,F,0,right,nan,0,1,,,,,,,,,,,,,,,,,,,,,1,,,,,,,,,,,,,,,,,,,,,,,,,,,,,,,,,,,,,,,,,,,,,,55,152122,21,Female,1,2024/02/14_09:23:01,SD,60.08727182
,,,,,,calibration,0,22,2,583,3,F,1,left,0.728491052,1,0,,,,,,,,,,,,,,,,,,,,,1,,,,,,,,,,,,,,,,,,,,,,,,,,,,,,,,,,,,,,,,,,,,,,55,152122,21,Female,1,2024/02/14_09:23:01,SD,60.08727182
,,,,,,calibration,0,22,2,583,4,F,1,left,1.128195798,1,0,,,,,,,,,,,,,,,,,,,,,1,,,,,,,,,,,,,,,,,,,,,,,,,,,,,,,,,,,,,,,,,,,,,,55,152122,21,Female,1,2024/02/14_09:23:01,SD,60.08727182
,,,,,,calibration,0,22,2,583,5,X,0,right,0.944996886,1,0,,,,,,,,,,,,,,,,,,,,,1,,,,,,,,,,,,,,,,,,,,,,,,,,,,,,,,,,,,,,,,,,,,,,55,152122,21,Female,1,2024/02/14_09:23:01,SD,60.08727182
,,,,,,calibration,0,22,2,583,6,F,1,right,1.730501631,0,0,,,,,,,,,,,,,,,,,,,,,1,,,,,,,,,,,,,,,,,,,,,,,,,,,,,,,,,,,,,,,,,,,,,,55,152122,21,Female,1,2024/02/14_09:23:01,SD,60.08727182
,,,,,,calibration,0,22,2,583,7,N,0,right,1.0622413,1,0,,,,,,,,,,,,,,,,,,,,,1,,,,,,,,,,,,,,,,,,,,,,,,,,,,,,,,,,,,,,,,,,,,,,55,152122,21,Female,1,2024/02/14_09:23:01,SD,60.08727182
,,,,,,calibration,0,22,2,583,8,S,0,right,1.695179431,1,0,,,,,,,,,,,,,,,,,,,,,1,,,,,,,,,,,,,,,,,,,,,,,,,,,,,,,,,,,,,,,,,,,,,,55,152122,21,Female,1,2024/02/14_09:23:01,SD,60.08727182
,,,,,,calibration,0,22,2,583,9,X,0,right,1.847515171,1,0,,,,,,,,,,,,,,,,,,,,,1,,,,,,,,,,,,,,,,,,,,,,,,,,,,,,,,,,,,,,,,,,,,,,55,152122,21,Female,1,2024/02/14_09:23:01,SD,60.08727182
,,,,,,calibration,0,22,2,583,10,S,1,left,1.294658226,1,0,,,,,,,,,,,,,,,,,,,,,1,,,,,,,,,,,,,,,,,,,,,,,,,,,,,,,,,,,,,,,,,,,,,,55,152122,21,Female,1,2024/02/14_09:23:01,SD,60.08727182
,,,,,,calibration,0,22,2,583,11,X,1,left,nan,0,1,,,,,,,,,,,,,,,,,,,,,1,,,,,,,,,,,,,,,,,,,,,,,,,,,,,,,,,,,,,,,,,,,,,,55,152122,21,Female,1,2024/02/14_09:23:01,SD,60.08727182
,,,,,,calibration,0,22,2,583,12,J,0,left,0.034316692,0,0,,,,,,,,,,,,,,,,,,,,,1,,,,,,,,,,,,,,,,,,,,,,,,,,,,,,,,,,,,,,,,,,,,,,55,152122,21,Female,1,2024/02/14_09:23:01,SD,60.08727182
,,,,,,calibration,0,22,2,583,13,N,0,left,nan,0,1,,,,,,,,,,,,,,,,,,,,,1,,,,,,,,,,,,,,,,,,,,,,,,,,,,,,,,,,,,,,,,,,,,,,55,152122,21,Female,1,2024/02/14_09:23:01,SD,60.08727182
,,,,,,calibration,0,22,2,583,14,X,0,right,1.197099583,1,0,,,,,,,,,,,,,,,,,,,,,1,,,,,,,,,,,,,,,,,,,,,,,,,,,,,,,,,,,,,,,,,,,,,,55,152122,21,Female,1,2024/02/14_09:23:01,SD,60.08727182
,,,,,,calibration,0,22,2,583,15,J,0,left,1.062116177,0,0,,,,,,,,,,,,,,,,,,,,,1,,,,,,,,,,,,,,,,,,,,,,,,,,,,,,,,,,,,,,,,,,,,,,55,152122,21,Female,1,2024/02/14_09:23:01,SD,60.08727182
,,,,,,calibration,0,22,2,583,,,,,,,,0.77,0.6,0.2,0.75,0.2,0.6,1.147705651,3,2,1,2,3,6,9,5,10,0,,,,1,,,,,,,,,,,,,,,,,,,,,,,,,,,,,,,,,,,,,,,,,,,,,,55,152122,21,Female,1,2024/02/14_09:23:01,SD,60.08727182
,,,,,,Calibration,0,,2,583,,,,,,,,,,,,,,,,,,,,,,,,,1,,,1,,,,,,,,,,,,,,,,,,,,,,,,,,,,,,,,,,,,,,,,,,,,,,55,152122,21,Female,1,2024/02/14_09:23:01,SD,60.08727182
,,,,,,calibration,0,4,2,583,1,F,0,right,0.911894896,1,0,,,,,,,,,,,,,,,,,,,,,1,,,,,,,,,,,,,,,,,,,,,,,,,,,,,,,,,,,,,,,,,,,,,,55,152122,21,Female,1,2024/02/14_09:23:01,SD,60.08727182
,,,,,,calibration,0,4,2,583,2,N,0,right,0.878721702,1,0,,,,,,,,,,,,,,,,,,,,,1,,,,,,,,,,,,,,,,,,,,,,,,,,,,,,,,,,,,,,,,,,,,,,55,152122,21,Female,1,2024/02/14_09:23:01,SD,60.08727182
,,,,,,calibration,0,4,2,583,3,S,0,right,0.77804065,1,0,,,,,,,,,,,,,,,,,,,,,1,,,,,,,,,,,,,,,,,,,,,,,,,,,,,,,,,,,,,,,,,,,,,,55,152122,21,Female,1,2024/02/14_09:23:01,SD,60.08727182
,,,,,,calibration,0,4,2,583,4,N,1,left,1.113878278,1,0,,,,,,,,,,,,,,,,,,,,,1,,,,,,,,,,,,,,,,,,,,,,,,,,,,,,,,,,,,,,,,,,,,,,55,152122,21,Female,1,2024/02/14_09:23:01,SD,60.08727182
,,,,,,calibration,0,4,2,583,5,C,0,right,1.361970532,1,0,,,,,,,,,,,,,,,,,,,,,1,,,,,,,,,,,,,,,,,,,,,,,,,,,,,,,,,,,,,,,,,,,,,,55,152122,21,Female,1,2024/02/14_09:23:01,SD,60.08727182
,,,,,,calibration,0,4,2,583,6,N,1,left,1.262242123,1,0,,,,,,,,,,,,,,,,,,,,,1,,,,,,,,,,,,,,,,,,,,,,,,,,,,,,,,,,,,,,,,,,,,,,55,152122,21,Female,1,2024/02/14_09:23:01,SD,60.08727182
,,,,,,calibration,0,4,2,583,7,S,0,right,1.39718727,1,0,,,,,,,,,,,,,,,,,,,,,1,,,,,,,,,,,,,,,,,,,,,,,,,,,,,,,,,,,,,,,,,,,,,,55,152122,21,Female,1,2024/02/14_09:23:01,SD,60.08727182
,,,,,,calibration,0,4,2,583,8,V,0,right,0.795083021,1,0,,,,,,,,,,,,,,,,,,,,,1,,,,,,,,,,,,,,,,,,,,,,,,,,,,,,,,,,,,,,,,,,,,,,55,152122,21,Female,1,2024/02/14_09:23:01,SD,60.08727182
,,,,,,calibration,0,4,2,583,9,Q,0,right,0.811552694,1,0,,,,,,,,,,,,,,,,,,,,,1,,,,,,,,,,,,,,,,,,,,,,,,,,,,,,,,,,,,,,,,,,,,,,55,152122,21,Female,1,2024/02/14_09:23:01,SD,60.08727182
,,,,,,calibration,0,4,2,583,10,V,1,left,0.714108315,1,0,,,,,,,,,,,,,,,,,,,,,1,,,,,,,,,,,,,,,,,,,,,,,,,,,,,,,,,,,,,,,,,,,,,,55,152122,21,Female,1,2024/02/14_09:23:01,SD,60.08727182
,,,,,,calibration,0,4,2,583,11,S,0,right,1.128533414,1,0,,,,,,,,,,,,,,,,,,,,,1,,,,,,,,,,,,,,,,,,,,,,,,,,,,,,,,,,,,,,,,,,,,,,55,152122,21,Female,1,2024/02/14_09:23:01,SD,60.08727182
,,,,,,calibration,0,4,2,583,12,Q,0,left,1.128572147,0,0,,,,,,,,,,,,,,,,,,,,,1,,,,,,,,,,,,,,,,,,,,,,,,,,,,,,,,,,,,,,,,,,,,,,55,152122,21,Female,1,2024/02/14_09:23:01,SD,60.08727182
,,,,,,calibration,0,4,2,583,13,X,0,right,1.013997794,1,0,,,,,,,,,,,,,,,,,,,,,1,,,,,,,,,,,,,,,,,,,,,,,,,,,,,,,,,,,,,,,,,,,,,,55,152122,21,Female,1,2024/02/14_09:23:01,SD,60.08727182
,,,,,,calibration,0,4,2,583,14,Q,1,left,1.128225506,1,0,,,,,,,,,,,,,,,,,,,,,1,,,,,,,,,,,,,,,,,,,,,,,,,,,,,,,,,,,,,,,,,,,,,,55,152122,21,Female,1,2024/02/14_09:23:01,SD,60.08727182
,,,,,,calibration,0,4,2,583,15,S,0,right,1.161768748,1,0,,,,,,,,,,,,,,,,,,,,,1,,,,,,,,,,,,,,,,,,,,,,,,,,,,,,,,,,,,,,,,,,,,,,55,152122,21,Female,1,2024/02/14_09:23:01,SD,60.08727182
,,,,,,calibration,0,4,2,583,,,,,,,,0.977272727,1,0.090909091,0.909090909,0,0.909090909,1.039051806,4,1,0,0,0,10,14,4,11,0,,,,1,,,,,,,,,,,,,,,,,,,,,,,,,,,,,,,,,,,,,,,,,,,,,,55,152122,21,Female,1,2024/02/14_09:23:01,SD,60.08727182
,,,,,,Calibration,0,,2,583,,,,,,,,,,,,,,,,,,,,,,,,,2,,,1,,,,,,,,,,,,,,,,,,,,,,,,,,,,,,,,,,,,,,,,,,,,,,55,152122,21,Female,1,2024/02/14_09:23:01,SD,60.08727182
,,,,,,calibration,0,19,2,500,1,V,0,None,nan,0,1,,,,,,,,,,,,,,,,,,,,,1,,,,,,,,,,,,,,,,,,,,,,,,,,,,,,,,,,,,,,,,,,,,,,55,152122,21,Female,1,2024/02/14_09:23:01,SD,60.08727182
,,,,,,calibration,0,19,2,500,2,S,0,None,nan,0,1,,,,,,,,,,,,,,,,,,,,,1,,,,,,,,,,,,,,,,,,,,,,,,,,,,,,,,,,,,,,,,,,,,,,55,152122,21,Female,1,2024/02/14_09:23:01,SD,60.08727182
,,,,,,calibration,0,19,2,500,3,N,0,right,0.747816313,1,0,,,,,,,,,,,,,,,,,,,,,1,,,,,,,,,,,,,,,,,,,,,,,,,,,,,,,,,,,,,,,,,,,,,,55,152122,21,Female,1,2024/02/14_09:23:01,SD,60.08727182
,,,,,,calibration,0,19,2,500,4,S,1,left,0.911825557,1,0,,,,,,,,,,,,,,,,,,,,,1,,,,,,,,,,,,,,,,,,,,,,,,,,,,,,,,,,,,,,,,,,,,,,55,152122,21,Female,1,2024/02/14_09:23:01,SD,60.08727182
,,,,,,calibration,0,19,2,500,5,N,1,left,nan,0,1,,,,,,,,,,,,,,,,,,,,,1,,,,,,,,,,,,,,,,,,,,,,,,,,,,,,,,,,,,,,,,,,,,,,55,152122,21,Female,1,2024/02/14_09:23:01,SD,60.08727182
,,,,,,calibration,0,19,2,500,6,C,0,left,0.265840489,0,0,,,,,,,,,,,,,,,,,,,,,1,,,,,,,,,,,,,,,,,,,,,,,,,,,,,,,,,,,,,,,,,,,,,,55,152122,21,Female,1,2024/02/14_09:23:01,SD,60.08727182
,,,,,,calibration,0,19,2,500,7,Q,0,left,nan,0,1,,,,,,,,,,,,,,,,,,,,,1,,,,,,,,,,,,,,,,,,,,,,,,,,,,,,,,,,,,,,,,,,,,,,55,152122,21,Female,1,2024/02/14_09:23:01,SD,60.08727182
,,,,,,calibration,0,19,2,500,8,V,0,left,nan,0,1,,,,,,,,,,,,,,,,,,,,,1,,,,,,,,,,,,,,,,,,,,,,,,,,,,,,,,,,,,,,,,,,,,,,55,152122,21,Female,1,2024/02/14_09:23:01,SD,60.08727182
,,,,,,calibration,0,19,2,500,9,Q,1,left,0.712731046,1,0,,,,,,,,,,,,,,,,,,,,,1,,,,,,,,,,,,,,,,,,,,,,,,,,,,,,,,,,,,,,,,,,,,,,55,152122,21,Female,1,2024/02/14_09:23:01,SD,60.08727182
,,,,,,calibration,0,19,2,500,10,J,0,right,0.714126019,1,0,,,,,,,,,,,,,,,,,,,,,1,,,,,,,,,,,,,,,,,,,,,,,,,,,,,,,,,,,,,,,,,,,,,,55,152122,21,Female,1,2024/02/14_09:23:01,SD,60.08727182
,,,,,,calibration,0,19,2,500,11,C,0,right,nan,0,1,,,,,,,,,,,,,,,,,,,,,1,,,,,,,,,,,,,,,,,,,,,,,,,,,,,,,,,,,,,,,,,,,,,,55,152122,21,Female,1,2024/02/14_09:23:01,SD,60.08727182
,,,,,,calibration,0,19,2,500,12,J,1,left,0.695256246,1,0,,,,,,,,,,,,,,,,,,,,,1,,,,,,,,,,,,,,,,,,,,,,,,,,,,,,,,,,,,,,,,,,,,,,55,152122,21,Female,1,2024/02/14_09:23:01,SD,60.08727182
,,,,,,calibration,0,19,2,500,13,S,0,left,nan,0,1,,,,,,,,,,,,,,,,,,,,,1,,,,,,,,,,,,,,,,,,,,,,,,,,,,,,,,,,,,,,,,,,,,,,55,152122,21,Female,1,2024/02/14_09:23:01,SD,60.08727182
,,,,,,calibration,0,19,2,500,14,C,0,left,0.947210684,0,0,,,,,,,,,,,,,,,,,,,,,1,,,,,,,,,,,,,,,,,,,,,,,,,,,,,,,,,,,,,,,,,,,,,,55,152122,21,Female,1,2024/02/14_09:23:01,SD,60.08727182
,,,,,,calibration,0,19,2,500,15,J,0,left,0.81155737,0,0,,,,,,,,,,,,,,,,,,,,,1,,,,,,,,,,,,,,,,,,,,,,,,,,,,,,,,,,,,,,,,,,,,,,55,152122,21,Female,1,2024/02/14_09:23:01,SD,60.08727182
,,,,,,calibration,0,19,2,500,16,N,0,left,nan,0,1,,,,,,,,,,,,,,,,,,,,,1,,,,,,,,,,,,,,,,,,,,,,,,,,,,,,,,,,,,,,,,,,,,,,55,152122,21,Female,1,2024/02/14_09:23:01,SD,60.08727182
,,,,,,calibration,0,19,2,500,,,,,,,,0.8125,0.75,0.25,0.4,0.5,0.25,0.725795465,3,3,1,7,8,2,5,4,12,0,,,,1,,,,,,,,,,,,,,,,,,,,,,,,,,,,,,,,,,,,,,,,,,,,,,55,152122,21,Female,1,2024/02/14_09:23:01,SD,60.08727182
,,,,,,Calibration,0,,2,500,,,,,,,,,,,,,,,,,,,,,,,,,3,,,1,,,,,,,,,,,,,,,,,,,,,,,,,,,,,,,,,,,,,,,,,,,,,,55,152122,21,Female,1,2024/02/14_09:23:01,SD,60.08727182
,,,,,,calibration,0,35,2,500,1,X,0,right,0.844869682,1,0,,,,,,,,,,,,,,,,,,,,,1,,,,,,,,,,,,,,,,,,,,,,,,,,,,,,,,,,,,,,,,,,,,,,55,152122,21,Female,1,2024/02/14_09:23:01,SD,60.08727182
,,,,,,calibration,0,35,2,500,2,N,0,right,0.894973848,1,0,,,,,,,,,,,,,,,,,,,,,1,,,,,,,,,,,,,,,,,,,,,,,,,,,,,,,,,,,,,,,,,,,,,,55,152122,21,Female,1,2024/02/14_09:23:01,SD,60.08727182
,,,,,,calibration,0,35,2,500,3,C,0,right,0.830490638,1,0,,,,,,,,,,,,,,,,,,,,,1,,,,,,,,,,,,,,,,,,,,,,,,,,,,,,,,,,,,,,,,,,,,,,55,152122,21,Female,1,2024/02/14_09:23:01,SD,60.08727182
,,,,,,calibration,0,35,2,500,4,N,1,left,0.827851539,1,0,,,,,,,,,,,,,,,,,,,,,1,,,,,,,,,,,,,,,,,,,,,,,,,,,,,,,,,,,,,,,,,,,,,,55,152122,21,Female,1,2024/02/14_09:23:01,SD,60.08727182
,,,,,,calibration,0,35,2,500,5,S,0,right,0.911437712,1,0,,,,,,,,,,,,,,,,,,,,,1,,,,,,,,,,,,,,,,,,,,,,,,,,,,,,,,,,,,,,,,,,,,,,55,152122,21,Female,1,2024/02/14_09:23:01,SD,60.08727182
,,,,,,calibration,0,35,2,500,6,C,0,left,0.828884864,0,0,,,,,,,,,,,,,,,,,,,,,1,,,,,,,,,,,,,,,,,,,,,,,,,,,,,,,,,,,,,,,,,,,,,,55,152122,21,Female,1,2024/02/14_09:23:01,SD,60.08727182
,,,,,,calibration,0,35,2,500,7,N,0,left,nan,0,1,,,,,,,,,,,,,,,,,,,,,1,,,,,,,,,,,,,,,,,,,,,,,,,,,,,,,,,,,,,,,,,,,,,,55,152122,21,Female,1,2024/02/14_09:23:01,SD,60.08727182
,,,,,,calibration,0,35,2,500,8,C,1,left,nan,0,1,,,,,,,,,,,,,,,,,,,,,1,,,,,,,,,,,,,,,,,,,,,,,,,,,,,,,,,,,,,,,,,,,,,,55,152122,21,Female,1,2024/02/14_09:23:01,SD,60.08727182
,,,,,,calibration,0,35,2,500,9,Q,0,right,0.112002474,1,0,,,,,,,,,,,,,,,,,,,,,1,,,,,,,,,,,,,,,,,,,,,,,,,,,,,,,,,,,,,,,,,,,,,,55,152122,21,Female,1,2024/02/14_09:23:01,SD,60.08727182
,,,,,,calibration,0,35,2,500,10,C,1,right,nan,0,1,,,,,,,,,,,,,,,,,,,,,1,,,,,,,,,,,,,,,,,,,,,,,,,,,,,,,,,,,,,,,,,,,,,,55,152122,21,Female,1,2024/02/14_09:23:01,SD,60.08727182
,,,,,,calibration,0,35,2,500,11,N,0,right,0.000493724,1,0,,,,,,,,,,,,,,,,,,,,,1,,,,,,,,,,,,,,,,,,,,,,,,,,,,,,,,,,,,,,,,,,,,,,55,152122,21,Female,1,2024/02/14_09:23:01,SD,60.08727182
,,,,,,calibration,0,35,2,500,12,C,1,right,nan,0,1,,,,,,,,,,,,,,,,,,,,,1,,,,,,,,,,,,,,,,,,,,,,,,,,,,,,,,,,,,,,,,,,,,,,55,152122,21,Female,1,2024/02/14_09:23:01,SD,60.08727182
,,,,,,calibration,0,35,2,500,13,N,1,right,nan,0,1,,,,,,,,,,,,,,,,,,,,,1,,,,,,,,,,,,,,,,,,,,,,,,,,,,,,,,,,,,,,,,,,,,,,55,152122,21,Female,1,2024/02/14_09:23:01,SD,60.08727182
,,,,,,calibration,0,35,2,500,14,V,0,right,0.896746538,1,0,,,,,,,,,,,,,,,,,,,,,1,,,,,,,,,,,,,,,,,,,,,,,,,,,,,,,,,,,,,,,,,,,,,,55,152122,21,Female,1,2024/02/14_09:23:01,SD,60.08727182
,,,,,,calibration,0,35,2,500,15,J,0,right,0.438354349,1,0,,,,,,,,,,,,,,,,,,,,,1,,,,,,,,,,,,,,,,,,,,,,,,,,,,,,,,,,,,,,,,,,,,,,55,152122,21,Female,1,2024/02/14_09:23:01,SD,60.08727182
,,,,,,calibration,0,35,2,500,16,S,0,right,nan,0,1,,,,,,,,,,,,,,,,,,,,,1,,,,,,,,,,,,,,,,,,,,,,,,,,,,,,,,,,,,,,,,,,,,,,55,152122,21,Female,1,2024/02/14_09:23:01,SD,60.08727182
,,,,,,calibration,0,35,2,500,,,,,,,,0.663636364,0.2,0.090909091,0.888888889,0.375,0.534090909,0.658610537,1,1,4,2,6,8,9,5,11,0,,,,1,,,,,,,,,,,,,,,,,,,,,,,,,,,,,,,,,,,,,,,,,,,,,,55,152122,21,Female,1,2024/02/14_09:23:01,SD,60.08727182
,,,,,,Calibration,0,,2,500,,,,,,,,,,,,,,,,,,,,,,,,,4,,,1,,,,,,,,,,,,,,,,,,,,,,,,,,,,,,,,,,,,,,,,,,,,,,55,152122,21,Female,1,2024/02/14_09:23:01,SD,60.08727182
,,,,,,calibration,0,25,2,583,1,N,0,right,1.528452181,1,0,,,,,,,,,,,,,,,,,,,,,1,,,,,,,,,,,,,,,,,,,,,,,,,,,,,,,,,,,,,,,,,,,,,,55,152122,21,Female,1,2024/02/14_09:23:01,SD,60.08727182
,,,,,,calibration,0,25,2,583,2,X,0,right,1.212009805,1,0,,,,,,,,,,,,,,,,,,,,,1,,,,,,,,,,,,,,,,,,,,,,,,,,,,,,,,,,,,,,,,,,,,,,55,152122,21,Female,1,2024/02/14_09:23:01,SD,60.08727182
,,,,,,calibration,0,25,2,583,3,S,0,right,0.681066307,1,0,,,,,,,,,,,,,,,,,,,,,1,,,,,,,,,,,,,,,,,,,,,,,,,,,,,,,,,,,,,,,,,,,,,,55,152122,21,Female,1,2024/02/14_09:23:01,SD,60.08727182
,,,,,,calibration,0,25,2,583,4,V,0,right,0.762310733,1,0,,,,,,,,,,,,,,,,,,,,,1,,,,,,,,,,,,,,,,,,,,,,,,,,,,,,,,,,,,,,,,,,,,,,55,152122,21,Female,1,2024/02/14_09:23:01,SD,60.08727182
,,,,,,calibration,0,25,2,583,5,C,0,left,0.861466846,0,0,,,,,,,,,,,,,,,,,,,,,1,,,,,,,,,,,,,,,,,,,,,,,,,,,,,,,,,,,,,,,,,,,,,,55,152122,21,Female,1,2024/02/14_09:23:01,SD,60.08727182
,,,,,,calibration,0,25,2,583,6,X,0,right,0.995059985,1,0,,,,,,,,,,,,,,,,,,,,,1,,,,,,,,,,,,,,,,,,,,,,,,,,,,,,,,,,,,,,,,,,,,,,55,152122,21,Female,1,2024/02/14_09:23:01,SD,60.08727182
,,,,,,calibration,0,25,2,583,7,F,0,right,0.895032115,1,0,,,,,,,,,,,,,,,,,,,,,1,,,,,,,,,,,,,,,,,,,,,,,,,,,,,,,,,,,,,,,,,,,,,,55,152122,21,Female,1,2024/02/14_09:23:01,SD,60.08727182
,,,,,,calibration,0,25,2,583,8,V,0,left,0.928647256,0,0,,,,,,,,,,,,,,,,,,,,,1,,,,,,,,,,,,,,,,,,,,,,,,,,,,,,,,,,,,,,,,,,,,,,55,152122,21,Female,1,2024/02/14_09:23:01,SD,60.08727182
,,,,,,calibration,0,25,2,583,9,J,0,right,0.694762838,1,0,,,,,,,,,,,,,,,,,,,,,1,,,,,,,,,,,,,,,,,,,,,,,,,,,,,,,,,,,,,,,,,,,,,,55,152122,21,Female,1,2024/02/14_09:23:01,SD,60.08727182
,,,,,,calibration,0,25,2,583,10,Q,0,right,0.913721097,1,0,,,,,,,,,,,,,,,,,,,,,1,,,,,,,,,,,,,,,,,,,,,,,,,,,,,,,,,,,,,,,,,,,,,,55,152122,21,Female,1,2024/02/14_09:23:01,SD,60.08727182
,,,,,,calibration,0,25,2,583,11,J,1,left,0.711550191,1,0,,,,,,,,,,,,,,,,,,,,,1,,,,,,,,,,,,,,,,,,,,,,,,,,,,,,,,,,,,,,,,,,,,,,55,152122,21,Female,1,2024/02/14_09:23:01,SD,60.08727182
,,,,,,calibration,0,25,2,583,12,Q,1,left,0.912179246,1,0,,,,,,,,,,,,,,,,,,,,,1,,,,,,,,,,,,,,,,,,,,,,,,,,,,,,,,,,,,,,,,,,,,,,55,152122,21,Female,1,2024/02/14_09:23:01,SD,60.08727182
,,,,,,calibration,0,25,2,583,13,X,0,right,0.928014833,1,0,,,,,,,,,,,,,,,,,,,,,1,,,,,,,,,,,,,,,,,,,,,,,,,,,,,,,,,,,,,,,,,,,,,,55,152122,21,Female,1,2024/02/14_09:23:01,SD,60.08727182
,,,,,,calibration,0,25,2,583,14,Q,1,right,1.378609022,0,0,,,,,,,,,,,,,,,,,,,,,1,,,,,,,,,,,,,,,,,,,,,,,,,,,,,,,,,,,,,,,,,,,,,,55,152122,21,Female,1,2024/02/14_09:23:01,SD,60.08727182
,,,,,,calibration,0,25,2,583,15,X,1,left,1.045338616,1,0,,,,,,,,,,,,,,,,,,,,,1,,,,,,,,,,,,,,,,,,,,,,,,,,,,,,,,,,,,,,,,,,,,,,55,152122,21,Female,1,2024/02/14_09:23:01,SD,60.08727182
,,,,,,calibration,0,25,2,583,,,,,,,,0.846590909,0.75,0.181818182,0.818181818,0,0.818181818,0.963214738,3,2,0,0,0,9,12,4,11,0,,,,1,,,,,,,,,,,,,,,,,,,,,,,,,,,,,,,,,,,,,,,,,,,,,,55,152122,21,Female,1,2024/02/14_09:23:01,SD,60.08727182
,,,,,,Calibration,0,,2,583,,,,,,,,,,,,,,,,,,,,,,,,,5,,,1,,,,,,,,,,,,,,,,,,,,,,,,,,,,,,,,,,,,,,,,,,,,,,55,152122,21,Female,1,2024/02/14_09:23:01,SD,60.08727182
,,,,,,calibration,0,30,2,583,1,C,0,right,0.978627786,1,0,,,,,,,,,,,,,,,,,,,,,1,,,,,,,,,,,,,,,,,,,,,,,,,,,,,,,,,,,,,,,,,,,,,,55,152122,21,Female,1,2024/02/14_09:23:01,SD,60.08727182
,,,,,,calibration,0,30,2,583,2,X,0,right,0.628349906,1,0,,,,,,,,,,,,,,,,,,,,,1,,,,,,,,,,,,,,,,,,,,,,,,,,,,,,,,,,,,,,,,,,,,,,55,152122,21,Female,1,2024/02/14_09:23:01,SD,60.08727182
,,,,,,calibration,0,30,2,583,3,F,0,left,0.517627669,0,0,,,,,,,,,,,,,,,,,,,,,1,,,,,,,,,,,,,,,,,,,,,,,,,,,,,,,,,,,,,,,,,,,,,,55,152122,21,Female,1,2024/02/14_09:23:01,SD,60.08727182
,,,,,,calibration,0,30,2,583,4,Q,0,left,nan,0,1,,,,,,,,,,,,,,,,,,,,,1,,,,,,,,,,,,,,,,,,,,,,,,,,,,,,,,,,,,,,,,,,,,,,55,152122,21,Female,1,2024/02/14_09:23:01,SD,60.08727182
,,,,,,calibration,0,30,2,583,5,F,1,left,0.778072067,1,0,,,,,,,,,,,,,,,,,,,,,1,,,,,,,,,,,,,,,,,,,,,,,,,,,,,,,,,,,,,,,,,,,,,,55,152122,21,Female,1,2024/02/14_09:23:01,SD,60.08727182
,,,,,,calibration,0,30,2,583,6,N,0,right,0.92815244,1,0,,,,,,,,,,,,,,,,,,,,,1,,,,,,,,,,,,,,,,,,,,,,,,,,,,,,,,,,,,,,,,,,,,,,55,152122,21,Female,1,2024/02/14_09:23:01,SD,60.08727182
,,,,,,calibration,0,30,2,583,7,Q,0,right,1.878810987,1,0,,,,,,,,,,,,,,,,,,,,,1,,,,,,,,,,,,,,,,,,,,,,,,,,,,,,,,,,,,,,,,,,,,,,55,152122,21,Female,1,2024/02/14_09:23:01,SD,60.08727182
,,,,,,calibration,0,30,2,583,8,N,1,left,0.745291888,1,0,,,,,,,,,,,,,,,,,,,,,1,,,,,,,,,,,,,,,,,,,,,,,,,,,,,,,,,,,,,,,,,,,,,,55,152122,21,Female,1,2024/02/14_09:23:01,SD,60.08727182
,,,,,,calibration,0,30,2,583,9,S,0,right,1.814296315,1,0,,,,,,,,,,,,,,,,,,,,,1,,,,,,,,,,,,,,,,,,,,,,,,,,,,,,,,,,,,,,,,,,,,,,55,152122,21,Female,1,2024/02/14_09:23:01,SD,60.08727182
,,,,,,calibration,0,30,2,583,10,J,0,right,1.312561365,1,0,,,,,,,,,,,,,,,,,,,,,1,,,,,,,,,,,,,,,,,,,,,,,,,,,,,,,,,,,,,,,,,,,,,,55,152122,21,Female,1,2024/02/14_09:23:01,SD,60.08727182
,,,,,,calibration,0,30,2,583,11,N,0,left,0.611359188,0,0,,,,,,,,,,,,,,,,,,,,,1,,,,,,,,,,,,,,,,,,,,,,,,,,,,,,,,,,,,,,,,,,,,,,55,152122,21,Female,1,2024/02/14_09:23:01,SD,60.08727182
,,,,,,calibration,0,30,2,583,12,J,1,left,1.364092535,1,0,,,,,,,,,,,,,,,,,,,,,1,,,,,,,,,,,,,,,,,,,,,,,,,,,,,,,,,,,,,,,,,,,,,,55,152122,21,Female,1,2024/02/14_09:23:01,SD,60.08727182
,,,,,,calibration,0,30,2,583,13,F,0,right,1.461717829,1,0,,,,,,,,,,,,,,,,,,,,,1,,,,,,,,,,,,,,,,,,,,,,,,,,,,,,,,,,,,,,,,,,,,,,55,152122,21,Female,1,2024/02/14_09:23:01,SD,60.08727182
,,,,,,calibration,0,30,2,583,14,J,1,left,1.512046452,1,0,,,,,,,,,,,,,,,,,,,,,1,,,,,,,,,,,,,,,,,,,,,,,,,,,,,,,,,,,,,,,,,,,,,,55,152122,21,Female,1,2024/02/14_09:23:01,SD,60.08727182
,,,,,,calibration,0,30,2,583,15,N,0,right,1.395302678,1,0,,,,,,,,,,,,,,,,,,,,,1,,,,,,,,,,,,,,,,,,,,,,,,,,,,,,,,,,,,,,,,,,,,,,55,152122,21,Female,1,2024/02/14_09:23:01,SD,60.08727182
,,,,,,calibration,0,30,2,583,,,,,,,,0.954545455,1,0.181818182,0.8,0.066666667,0.751515152,1.137593508,4,2,0,1,1,8,12,4,11,0,,,,1,,,,,,,,,,,,,,,,,,,,,,,,,,,,,,,,,,,,,,,,,,,,,,55,152122,21,Female,1,2024/02/14_09:23:01,SD,60.08727182
,,,,,,Calibration,0,,2,583,,,,,,,,,,,,,,,,,,,,,,,,,6,,,1,,,,,,,,,,,,,,,,,,,,,,,,,,,,,,,,,,,,,,,,,,,,,,55,152122,21,Female,1,2024/02/14_09:23:01,SD,60.08727182
,,,,,,calibration,0,24,2,500,1,N,0,right,0.980483206,1,0,,,,,,,,,,,,,,,,,,,,,1,,,,,,,,,,,,,,,,,,,,,,,,,,,,,,,,,,,,,,,,,,,,,,55,152122,21,Female,1,2024/02/14_09:23:01,SD,60.08727182
,,,,,,calibration,0,24,2,500,2,V,0,right,nan,0,1,,,,,,,,,,,,,,,,,,,,,1,,,,,,,,,,,,,,,,,,,,,,,,,,,,,,,,,,,,,,,,,,,,,,55,152122,21,Female,1,2024/02/14_09:23:01,SD,60.08727182
,,,,,,calibration,0,24,2,500,3,N,1,left,0.595070169,1,0,,,,,,,,,,,,,,,,,,,,,1,,,,,,,,,,,,,,,,,,,,,,,,,,,,,,,,,,,,,,,,,,,,,,55,152122,21,Female,1,2024/02/14_09:23:01,SD,60.08727182
,,,,,,calibration,0,24,2,500,4,S,0,left,nan,0,1,,,,,,,,,,,,,,,,,,,,,1,,,,,,,,,,,,,,,,,,,,,,,,,,,,,,,,,,,,,,,,,,,,,,55,152122,21,Female,1,2024/02/14_09:23:01,SD,60.08727182
,,,,,,calibration,0,24,2,500,5,F,0,left,nan,0,1,,,,,,,,,,,,,,,,,,,,,1,,,,,,,,,,,,,,,,,,,,,,,,,,,,,,,,,,,,,,,,,,,,,,55,152122,21,Female,1,2024/02/14_09:23:01,SD,60.08727182
,,,,,,calibration,0,24,2,500,6,X,0,left,nan,0,1,,,,,,,,,,,,,,,,,,,,,1,,,,,,,,,,,,,,,,,,,,,,,,,,,,,,,,,,,,,,,,,,,,,,55,152122,21,Female,1,2024/02/14_09:23:01,SD,60.08727182
,,,,,,calibration,0,24,2,500,7,F,1,left,0.795311665,1,0,,,,,,,,,,,,,,,,,,,,,1,,,,,,,,,,,,,,,,,,,,,,,,,,,,,,,,,,,,,,,,,,,,,,55,152122,21,Female,1,2024/02/14_09:23:01,SD,60.08727182
,,,,,,calibration,0,24,2,500,8,N,0,left,nan,0,1,,,,,,,,,,,,,,,,,,,,,1,,,,,,,,,,,,,,,,,,,,,,,,,,,,,,,,,,,,,,,,,,,,,,55,152122,21,Female,1,2024/02/14_09:23:01,SD,60.08727182
,,,,,,calibration,0,24,2,500,9,J,0,right,0.527853237,1,0,,,,,,,,,,,,,,,,,,,,,1,,,,,,,,,,,,,,,,,,,,,,,,,,,,,,,,,,,,,,,,,,,,,,55,152122,21,Female,1,2024/02/14_09:23:01,SD,60.08727182
,,,,,,calibration,0,24,2,500,10,Q,0,right,0.745003892,1,0,,,,,,,,,,,,,,,,,,,,,1,,,,,,,,,,,,,,,,,,,,,,,,,,,,,,,,,,,,,,,,,,,,,,55,152122,21,Female,1,2024/02/14_09:23:01,SD,60.08727182
,,,,,,calibration,0,24,2,500,11,X,0,right,nan,0,1,,,,,,,,,,,,,,,,,,,,,1,,,,,,,,,,,,,,,,,,,,,,,,,,,,,,,,,,,,,,,,,,,,,,55,152122,21,Female,1,2024/02/14_09:23:01,SD,60.08727182
,,,,,,calibration,0,24,2,500,12,Q,1,left,0.695201276,1,0,,,,,,,,,,,,,,,,,,,,,1,,,,,,,,,,,,,,,,,,,,,,,,,,,,,,,,,,,,,,,,,,,,,,55,152122,21,Female,1,2024/02/14_09:23:01,SD,60.08727182
,,,,,,calibration,0,24,2,500,13,X,1,left,nan,0,1,,,,,,,,,,,,,,,,,,,,,1,,,,,,,,,,,,,,,,,,,,,,,,,,,,,,,,,,,,,,,,,,,,,,55,152122,21,Female,1,2024/02/14_09:23:01,SD,60.08727182
,,,,,,calibration,0,24,2,500,14,C,0,right,0.744759537,1,0,,,,,,,,,,,,,,,,,,,,,1,,,,,,,,,,,,,,,,,,,,,,,,,,,,,,,,,,,,,,,,,,,,,,55,152122,21,Female,1,2024/02/14_09:23:01,SD,60.08727182
,,,,,,calibration,0,24,2,500,15,F,0,right,nan,0,1,,,,,,,,,,,,,,,,,,,,,1,,,,,,,,,,,,,,,,,,,,,,,,,,,,,,,,,,,,,,,,,,,,,,55,152122,21,Female,1,2024/02/14_09:23:01,SD,60.08727182
,,,,,,calibration,0,24,2,500,16,N,0,right,nan,0,1,,,,,,,,,,,,,,,,,,,,,1,,,,,,,,,,,,,,,,,,,,,,,,,,,,,,,,,,,,,,,,,,,,,,55,152122,21,Female,1,2024/02/14_09:23:01,SD,60.08727182
,,,,,,calibration,0,24,2,500,,,,,,,,0.9375,0.75,0,1,0.5625,0.4375,0.726240426,3,0,1,8,9,4,7,4,12,0,,,,1,,,,,,,,,,,,,,,,,,,,,,,,,,,,,,,,,,,,,,,,,,,,,,55,152122,21,Female,1,2024/02/14_09:23:01,SD,60.08727182
,,,,,,Calibration,0,,2,500,,,,,,,,,,,,,,,,,,,,,,,,,7,,,1,,,,,,,,,,,,,,,,,,,,,,,,,,,,,,,,,,,,,,,,,,,,,,55,152122,21,Female,1,2024/02/14_09:23:01,SD,60.08727182
,,,,,,calibration,0,23,2,426,1,S,0,right,0.995121375,1,0,,,,,,,,,,,,,,,,,,,,,1,,,,,,,,,,,,,,,,,,,,,,,,,,,,,,,,,,,,,,,,,,,,,,55,152122,21,Female,1,2024/02/14_09:23:01,SD,60.08727182
,,,,,,calibration,0,23,2,426,2,S,0,right,0.978254998,1,0,,,,,,,,,,,,,,,,,,,,,1,,,,,,,,,,,,,,,,,,,,,,,,,,,,,,,,,,,,,,,,,,,,,,55,152122,21,Female,1,2024/02/14_09:23:01,SD,60.08727182
,,,,,,calibration,0,23,2,426,3,Q,0,right,0.711286073,1,0,,,,,,,,,,,,,,,,,,,,,1,,,,,,,,,,,,,,,,,,,,,,,,,,,,,,,,,,,,,,,,,,,,,,55,152122,21,Female,1,2024/02/14_09:23:01,SD,60.08727182
,,,,,,calibration,0,23,2,426,4,F,0,right,nan,0,1,,,,,,,,,,,,,,,,,,,,,1,,,,,,,,,,,,,,,,,,,,,,,,,,,,,,,,,,,,,,,,,,,,,,55,152122,21,Female,1,2024/02/14_09:23:01,SD,60.08727182
,,,,,,calibration,0,23,2,426,5,Q,1,left,0.794872653,1,0,,,,,,,,,,,,,,,,,,,,,1,,,,,,,,,,,,,,,,,,,,,,,,,,,,,,,,,,,,,,,,,,,,,,55,152122,21,Female,1,2024/02/14_09:23:01,SD,60.08727182
,,,,,,calibration,0,23,2,426,6,F,1,left,nan,0,1,,,,,,,,,,,,,,,,,,,,,1,,,,,,,,,,,,,,,,,,,,,,,,,,,,,,,,,,,,,,,,,,,,,,55,152122,21,Female,1,2024/02/14_09:23:01,SD,60.08727182
,,,,,,calibration,0,23,2,426,7,N,0,left,nan,0,1,,,,,,,,,,,,,,,,,,,,,1,,,,,,,,,,,,,,,,,,,,,,,,,,,,,,,,,,,,,,,,,,,,,,55,152122,21,Female,1,2024/02/14_09:23:01,SD,60.08727182
,,,,,,calibration,0,23,2,426,8,F,1,right,0,0,0,,,,,,,,,,,,,,,,,,,,,1,,,,,,,,,,,,,,,,,,,,,,,,,,,,,,,,,,,,,,,,,,,,,,55,152122,21,Female,1,2024/02/14_09:23:01,SD,60.08727182
,,,,,,calibration,0,23,2,426,9,N,1,right,nan,0,1,,,,,,,,,,,,,,,,,,,,,1,,,,,,,,,,,,,,,,,,,,,,,,,,,,,,,,,,,,,,,,,,,,,,55,152122,21,Female,1,2024/02/14_09:23:01,SD,60.08727182
,,,,,,calibration,0,23,2,426,10,C,0,right,0.861967568,1,0,,,,,,,,,,,,,,,,,,,,,1,,,,,,,,,,,,,,,,,,,,,,,,,,,,,,,,,,,,,,,,,,,,,,55,152122,21,Female,1,2024/02/14_09:23:01,SD,60.08727182
,,,,,,calibration,0,23,2,426,11,J,0,right,nan,0,1,,,,,,,,,,,,,,,,,,,,,1,,,,,,,,,,,,,,,,,,,,,,,,,,,,,,,,,,,,,,,,,,,,,,55,152122,21,Female,1,2024/02/14_09:23:01,SD,60.08727182
,,,,,,calibration,0,23,2,426,12,N,0,right,0.061467389,1,0,,,,,,,,,,,,,,,,,,,,,1,,,,,,,,,,,,,,,,,,,,,,,,,,,,,,,,,,,,,,,,,,,,,,55,152122,21,Female,1,2024/02/14_09:23:01,SD,60.08727182
,,,,,,calibration,0,23,2,426,13,S,0,right,nan,0,1,,,,,,,,,,,,,,,,,,,,,1,,,,,,,,,,,,,,,,,,,,,,,,,,,,,,,,,,,,,,,,,,,,,,55,152122,21,Female,1,2024/02/14_09:23:01,SD,60.08727182
,,,,,,calibration,0,23,2,426,14,F,0,left,0.745041252,0,0,,,,,,,,,,,,,,,,,,,,,1,,,,,,,,,,,,,,,,,,,,,,,,,,,,,,,,,,,,,,,,,,,,,,55,152122,21,Female,1,2024/02/14_09:23:01,SD,60.08727182
,,,,,,calibration,0,23,2,426,15,S,1,left,nan,0,1,,,,,,,,,,,,,,,,,,,,,1,,,,,,,,,,,,,,,,,,,,,,,,,,,,,,,,,,,,,,,,,,,,,,55,152122,21,Female,1,2024/02/14_09:23:01,SD,60.08727182
,,,,,,calibration,0,23,2,426,16,J,0,left,nan,0,1,,,,,,,,,,,,,,,,,,,,,1,,,,,,,,,,,,,,,,,,,,,,,,,,,,,,,,,,,,,,,,,,,,,,55,152122,21,Female,1,2024/02/14_09:23:01,SD,60.08727182
,,,,,,calibration,0,23,2,426,17,C,0,left,nan,0,1,,,,,,,,,,,,,,,,,,,,,1,,,,,,,,,,,,,,,,,,,,,,,,,,,,,,,,,,,,,,,,,,,,,,55,152122,21,Female,1,2024/02/14_09:23:01,SD,60.08727182
,,,,,,calibration,0,23,2,426,,,,,,,,0.675,0.2,0.083333333,0.833333333,0.529411765,0.387254902,0.643501414,1,1,3,6,9,5,6,5,12,0,,,,1,,,,,,,,,,,,,,,,,,,,,,,,,,,,,,,,,,,,,,,,,,,,,,55,152122,21,Female,1,2024/02/14_09:23:01,SD,60.08727182
,,,,,,Calibration,0,,2,426,,,,,,,,,,,,,,,,,,,,,,,,,8,,,1,,,,,,,,,,,,,,,,,,,,,,,,,,,,,,,,,,,,,,,,,,,,,,55,152122,21,Female,1,2024/02/14_09:23:01,SD,60.08727182
,,,,,,calibration,0,16,2,500,1,F,0,None,nan,0,1,,,,,,,,,,,,,,,,,,,,,1,,,,,,,,,,,,,,,,,,,,,,,,,,,,,,,,,,,,,,,,,,,,,,55,152122,21,Female,1,2024/02/14_09:23:01,SD,60.08727182
,,,,,,calibration,0,16,2,500,2,S,0,None,nan,0,1,,,,,,,,,,,,,,,,,,,,,1,,,,,,,,,,,,,,,,,,,,,,,,,,,,,,,,,,,,,,,,,,,,,,55,152122,21,Female,1,2024/02/14_09:23:01,SD,60.08727182
,,,,,,calibration,0,16,2,500,3,J,0,None,nan,0,1,,,,,,,,,,,,,,,,,,,,,1,,,,,,,,,,,,,,,,,,,,,,,,,,,,,,,,,,,,,,,,,,,,,,55,152122,21,Female,1,2024/02/14_09:23:01,SD,60.08727182
,,,,,,calibration,0,16,2,500,4,N,0,right,0.79463861,1,0,,,,,,,,,,,,,,,,,,,,,1,,,,,,,,,,,,,,,,,,,,,,,,,,,,,,,,,,,,,,,,,,,,,,55,152122,21,Female,1,2024/02/14_09:23:01,SD,60.08727182
,,,,,,calibration,0,16,2,500,5,J,1,left,0.694791721,1,0,,,,,,,,,,,,,,,,,,,,,1,,,,,,,,,,,,,,,,,,,,,,,,,,,,,,,,,,,,,,,,,,,,,,55,152122,21,Female,1,2024/02/14_09:23:01,SD,60.08727182
,,,,,,calibration,0,16,2,500,6,X,0,right,0.577869166,1,0,,,,,,,,,,,,,,,,,,,,,1,,,,,,,,,,,,,,,,,,,,,,,,,,,,,,,,,,,,,,,,,,,,,,55,152122,21,Female,1,2024/02/14_09:23:01,SD,60.08727182
,,,,,,calibration,0,16,2,500,7,J,1,left,0.630964287,1,0,,,,,,,,,,,,,,,,,,,,,1,,,,,,,,,,,,,,,,,,,,,,,,,,,,,,,,,,,,,,,,,,,,,,55,152122,21,Female,1,2024/02/14_09:23:01,SD,60.08727182
,,,,,,calibration,0,16,2,500,8,S,0,left,nan,0,1,,,,,,,,,,,,,,,,,,,,,1,,,,,,,,,,,,,,,,,,,,,,,,,,,,,,,,,,,,,,,,,,,,,,55,152122,21,Female,1,2024/02/14_09:23:01,SD,60.08727182
,,,,,,calibration,0,16,2,500,9,Q,0,right,0.064461527,1,0,,,,,,,,,,,,,,,,,,,,,1,,,,,,,,,,,,,,,,,,,,,,,,,,,,,,,,,,,,,,,,,,,,,,55,152122,21,Female,1,2024/02/14_09:23:01,SD,60.08727182
,,,,,,calibration,0,16,2,500,10,S,1,right,nan,0,1,,,,,,,,,,,,,,,,,,,,,1,,,,,,,,,,,,,,,,,,,,,,,,,,,,,,,,,,,,,,,,,,,,,,55,152122,21,Female,1,2024/02/14_09:23:01,SD,60.08727182
,,,,,,calibration,0,16,2,500,11,J,0,right,nan,0,1,,,,,,,,,,,,,,,,,,,,,1,,,,,,,,,,,,,,,,,,,,,,,,,,,,,,,,,,,,,,,,,,,,,,55,152122,21,Female,1,2024/02/14_09:23:01,SD,60.08727182
,,,,,,calibration,0,16,2,500,12,S,1,right,nan,0,1,,,,,,,,,,,,,,,,,,,,,1,,,,,,,,,,,,,,,,,,,,,,,,,,,,,,,,,,,,,,,,,,,,,,55,152122,21,Female,1,2024/02/14_09:23:01,SD,60.08727182
,,,,,,calibration,0,16,2,500,13,Q,0,right,nan,0,1,,,,,,,,,,,,,,,,,,,,,1,,,,,,,,,,,,,,,,,,,,,,,,,,,,,,,,,,,,,,,,,,,,,,55,152122,21,Female,1,2024/02/14_09:23:01,SD,60.08727182
,,,,,,calibration,0,16,2,500,14,J,0,left,0.629424778,0,0,,,,,,,,,,,,,,,,,,,,,1,,,,,,,,,,,,,,,,,,,,,,,,,,,,,,,,,,,,,,,,,,,,,,55,152122,21,Female,1,2024/02/14_09:23:01,SD,60.08727182
,,,,,,calibration,0,16,2,500,15,V,0,right,0.727851368,1,0,,,,,,,,,,,,,,,,,,,,,1,,,,,,,,,,,,,,,,,,,,,,,,,,,,,,,,,,,,,,,,,,,,,,55,152122,21,Female,1,2024/02/14_09:23:01,SD,60.08727182
,,,,,,calibration,0,16,2,500,16,J,1,left,0.728458496,1,0,,,,,,,,,,,,,,,,,,,,,1,,,,,,,,,,,,,,,,,,,,,,,,,,,,,,,,,,,,,,,,,,,,,,55,152122,21,Female,1,2024/02/14_09:23:01,SD,60.08727182
,,,,,,calibration,0,16,2,500,,,,,,,,0.840909091,0.6,0.090909091,0.8,0.5,0.409090909,0.606057494,3,1,2,6,8,4,7,5,11,0,,,,1,,,,,,,,,,,,,,,,,,,,,,,,,,,,,,,,,,,,,,,,,,,,,,55,152122,21,Female,1,2024/02/14_09:23:01,SD,60.08727182
,,,,,,Calibration,0,,2,500,,,,,,,,,,,,,,,,,,,,,,,,,9,,,1,,,,,,,,,,,,,,,,,,,,,,,,,,,,,,,,,,,,,,,,,,,,,,55,152122,21,Female,1,2024/02/14_09:23:01,SD,60.08727182
,,,,,,calibration,0,11,2,500,1,J,0,right,0.89481751,1,0,,,,,,,,,,,,,,,,,,,,,1,,,,,,,,,,,,,,,,,,,,,,,,,,,,,,,,,,,,,,,,,,,,,,55,152122,21,Female,1,2024/02/14_09:23:01,SD,60.08727182
,,,,,,calibration,0,11,2,500,2,S,0,right,0.711898155,1,0,,,,,,,,,,,,,,,,,,,,,1,,,,,,,,,,,,,,,,,,,,,,,,,,,,,,,,,,,,,,,,,,,,,,55,152122,21,Female,1,2024/02/14_09:23:01,SD,60.08727182
,,,,,,calibration,0,11,2,500,3,J,1,left,0.444941276,1,0,,,,,,,,,,,,,,,,,,,,,1,,,,,,,,,,,,,,,,,,,,,,,,,,,,,,,,,,,,,,,,,,,,,,55,152122,21,Female,1,2024/02/14_09:23:01,SD,60.08727182
,,,,,,calibration,0,11,2,500,4,C,0,right,0.578453019,1,0,,,,,,,,,,,,,,,,,,,,,1,,,,,,,,,,,,,,,,,,,,,,,,,,,,,,,,,,,,,,,,,,,,,,55,152122,21,Female,1,2024/02/14_09:23:01,SD,60.08727182
,,,,,,calibration,0,11,2,500,5,S,0,left,0.54533202,0,0,,,,,,,,,,,,,,,,,,,,,1,,,,,,,,,,,,,,,,,,,,,,,,,,,,,,,,,,,,,,,,,,,,,,55,152122,21,Female,1,2024/02/14_09:23:01,SD,60.08727182
,,,,,,calibration,0,11,2,500,6,C,1,left,0.84479791,1,0,,,,,,,,,,,,,,,,,,,,,1,,,,,,,,,,,,,,,,,,,,,,,,,,,,,,,,,,,,,,,,,,,,,,55,152122,21,Female,1,2024/02/14_09:23:01,SD,60.08727182
,,,,,,calibration,0,11,2,500,7,J,0,left,nan,0,1,,,,,,,,,,,,,,,,,,,,,1,,,,,,,,,,,,,,,,,,,,,,,,,,,,,,,,,,,,,,,,,,,,,,55,152122,21,Female,1,2024/02/14_09:23:01,SD,60.08727182
,,,,,,calibration,0,11,2,500,8,N,0,right,0.913294803,1,0,,,,,,,,,,,,,,,,,,,,,1,,,,,,,,,,,,,,,,,,,,,,,,,,,,,,,,,,,,,,,,,,,,,,55,152122,21,Female,1,2024/02/14_09:23:01,SD,60.08727182
,,,,,,calibration,0,11,2,500,9,V,0,right,0.84484746,1,0,,,,,,,,,,,,,,,,,,,,,1,,,,,,,,,,,,,,,,,,,,,,,,,,,,,,,,,,,,,,,,,,,,,,55,152122,21,Female,1,2024/02/14_09:23:01,SD,60.08727182
,,,,,,calibration,0,11,2,500,10,N,1,left,0.711763045,1,0,,,,,,,,,,,,,,,,,,,,,1,,,,,,,,,,,,,,,,,,,,,,,,,,,,,,,,,,,,,,,,,,,,,,55,152122,21,Female,1,2024/02/14_09:23:01,SD,60.08727182
,,,,,,calibration,0,11,2,500,11,C,0,left,nan,0,1,,,,,,,,,,,,,,,,,,,,,1,,,,,,,,,,,,,,,,,,,,,,,,,,,,,,,,,,,,,,,,,,,,,,55,152122,21,Female,1,2024/02/14_09:23:01,SD,60.08727182
,,,,,,calibration,0,11,2,500,12,S,0,right,0.712027267,1,0,,,,,,,,,,,,,,,,,,,,,1,,,,,,,,,,,,,,,,,,,,,,,,,,,,,,,,,,,,,,,,,,,,,,55,152122,21,Female,1,2024/02/14_09:23:01,SD,60.08727182
,,,,,,calibration,0,11,2,500,13,C,1,left,0.611223228,1,0,,,,,,,,,,,,,,,,,,,,,1,,,,,,,,,,,,,,,,,,,,,,,,,,,,,,,,,,,,,,,,,,,,,,55,152122,21,Female,1,2024/02/14_09:23:01,SD,60.08727182
,,,,,,calibration,0,11,2,500,14,J,0,right,0.895023586,1,0,,,,,,,,,,,,,,,,,,,,,1,,,,,,,,,,,,,,,,,,,,,,,,,,,,,,,,,,,,,,,,,,,,,,55,152122,21,Female,1,2024/02/14_09:23:01,SD,60.08727182
,,,,,,calibration,0,11,2,500,15,X,0,right,0.612287819,1,0,,,,,,,,,,,,,,,,,,,,,1,,,,,,,,,,,,,,,,,,,,,,,,,,,,,,,,,,,,,,,,,,,,,,55,152122,21,Female,1,2024/02/14_09:23:01,SD,60.08727182
,,,,,,calibration,0,11,2,500,16,Q,0,right,0.861143625,1,0,,,,,,,,,,,,,,,,,,,,,1,,,,,,,,,,,,,,,,,,,,,,,,,,,,,,,,,,,,,,,,,,,,,,55,152122,21,Female,1,2024/02/14_09:23:01,SD,60.08727182
,,,,,,calibration,0,11,2,500,,,,,,,,0.979166667,1,0.083333333,0.9,0.125,0.791666667,0.727275052,4,1,0,2,2,9,13,4,12,0,,,,1,,,,,,,,,,,,,,,,,,,,,,,,,,,,,,,,,,,,,,,,,,,,,,55,152122,21,Female,1,2024/02/14_09:23:01,SD,60.08727182
,,,,,,Calibration,0,,2,500,,,,,,,,,,,,,,,,,,,,,,,,,10,,,1,,,,,,,,,,,,,,,,,,,,,,,,,,,,,,,,,,,,,,,,,,,,,,55,152122,21,Female,1,2024/02/14_09:23:01,SD,60.08727182
,,,,,,calibration,0,23,2,426,1,S,0,right,0.980438147,1,0,,,,,,,,,,,,,,,,,,,,,1,,,,,,,,,,,,,,,,,,,,,,,,,,,,,,,,,,,,,,,,,,,,,,55,152122,21,Female,1,2024/02/14_09:23:01,SD,60.08727182
,,,,,,calibration,0,23,2,426,2,S,0,right,0.578258133,1,0,,,,,,,,,,,,,,,,,,,,,1,,,,,,,,,,,,,,,,,,,,,,,,,,,,,,,,,,,,,,,,,,,,,,55,152122,21,Female,1,2024/02/14_09:23:01,SD,60.08727182
,,,,,,calibration,0,23,2,426,3,Q,0,right,0.661897427,1,0,,,,,,,,,,,,,,,,,,,,,1,,,,,,,,,,,,,,,,,,,,,,,,,,,,,,,,,,,,,,,,,,,,,,55,152122,21,Female,1,2024/02/14_09:23:01,SD,60.08727182
,,,,,,calibration,0,23,2,426,4,F,0,right,0.795183234,1,0,,,,,,,,,,,,,,,,,,,,,1,,,,,,,,,,,,,,,,,,,,,,,,,,,,,,,,,,,,,,,,,,,,,,55,152122,21,Female,1,2024/02/14_09:23:01,SD,60.08727182
,,,,,,calibration,0,23,2,426,5,Q,1,left,0.528193737,1,0,,,,,,,,,,,,,,,,,,,,,1,,,,,,,,,,,,,,,,,,,,,,,,,,,,,,,,,,,,,,,,,,,,,,55,152122,21,Female,1,2024/02/14_09:23:01,SD,60.08727182
,,,,,,calibration,0,23,2,426,6,F,1,left,0.678546529,1,0,,,,,,,,,,,,,,,,,,,,,1,,,,,,,,,,,,,,,,,,,,,,,,,,,,,,,,,,,,,,,,,,,,,,55,152122,21,Female,1,2024/02/14_09:23:01,SD,60.08727182
,,,,,,calibration,0,23,2,426,7,N,0,left,nan,0,1,,,,,,,,,,,,,,,,,,,,,1,,,,,,,,,,,,,,,,,,,,,,,,,,,,,,,,,,,,,,,,,,,,,,55,152122,21,Female,1,2024/02/14_09:23:01,SD,60.08727182
,,,,,,calibration,0,23,2,426,8,F,1,left,nan,0,1,,,,,,,,,,,,,,,,,,,,,1,,,,,,,,,,,,,,,,,,,,,,,,,,,,,,,,,,,,,,,,,,,,,,55,152122,21,Female,1,2024/02/14_09:23:01,SD,60.08727182
,,,,,,calibration,0,23,2,426,9,N,1,left,nan,0,1,,,,,,,,,,,,,,,,,,,,,1,,,,,,,,,,,,,,,,,,,,,,,,,,,,,,,,,,,,,,,,,,,,,,55,152122,21,Female,1,2024/02/14_09:23:01,SD,60.08727182
,,,,,,calibration,0,23,2,426,10,C,0,left,nan,0,1,,,,,,,,,,,,,,,,,,,,,1,,,,,,,,,,,,,,,,,,,,,,,,,,,,,,,,,,,,,,,,,,,,,,55,152122,21,Female,1,2024/02/14_09:23:01,SD,60.08727182
,,,,,,calibration,0,23,2,426,11,J,0,right,0.762073413,1,0,,,,,,,,,,,,,,,,,,,,,1,,,,,,,,,,,,,,,,,,,,,,,,,,,,,,,,,,,,,,,,,,,,,,55,152122,21,Female,1,2024/02/14_09:23:01,SD,60.08727182
,,,,,,calibration,0,23,2,426,12,N,0,right,nan,0,1,,,,,,,,,,,,,,,,,,,,,1,,,,,,,,,,,,,,,,,,,,,,,,,,,,,,,,,,,,,,,,,,,,,,55,152122,21,Female,1,2024/02/14_09:23:01,SD,60.08727182
,,,,,,calibration,0,23,2,426,13,S,0,right,0.745204945,1,0,,,,,,,,,,,,,,,,,,,,,1,,,,,,,,,,,,,,,,,,,,,,,,,,,,,,,,,,,,,,,,,,,,,,55,152122,21,Female,1,2024/02/14_09:23:01,SD,60.08727182
,,,,,,calibration,0,23,2,426,14,F,0,right,nan,0,1,,,,,,,,,,,,,,,,,,,,,1,,,,,,,,,,,,,,,,,,,,,,,,,,,,,,,,,,,,,,,,,,,,,,55,152122,21,Female,1,2024/02/14_09:23:01,SD,60.08727182
,,,,,,calibration,0,23,2,426,15,S,1,left,0.894778371,1,0,,,,,,,,,,,,,,,,,,,,,1,,,,,,,,,,,,,,,,,,,,,,,,,,,,,,,,,,,,,,,,,,,,,,55,152122,21,Female,1,2024/02/14_09:23:01,SD,60.08727182
,,,,,,calibration,0,23,2,426,16,J,0,left,nan,0,1,,,,,,,,,,,,,,,,,,,,,1,,,,,,,,,,,,,,,,,,,,,,,,,,,,,,,,,,,,,,,,,,,,,,55,152122,21,Female,1,2024/02/14_09:23:01,SD,60.08727182
,,,,,,calibration,0,23,2,426,17,C,0,right,0.645073967,1,0,,,,,,,,,,,,,,,,,,,,,1,,,,,,,,,,,,,,,,,,,,,,,,,,,,,,,,,,,,,,,,,,,,,,55,152122,21,Female,1,2024/02/14_09:23:01,SD,60.08727182
,,,,,,calibration,0,23,2,426,,,,,,,,0.9,0.6,0,1,0.411764706,0.588235294,0.72696479,3,0,2,5,7,7,10,5,12,0,,,,1,,,,,,,,,,,,,,,,,,,,,,,,,,,,,,,,,,,,,,,,,,,,,,55,152122,21,Female,1,2024/02/14_09:23:01,SD,60.08727182
,,,,,,Calibration,0,,2,426,,,,,,,,,,,,,,,,,,,,,,,,,11,,,1,,,,,,,,,,,,,,,,,,,,,,,,,,,,,,,,,,,,,,,,,,,,,,55,152122,21,Female,1,2024/02/14_09:23:01,SD,60.08727182
,,,,,,calibration,0,21,2,361,1,V,0,None,nan,0,1,,,,,,,,,,,,,,,,,,,,,1,,,,,,,,,,,,,,,,,,,,,,,,,,,,,,,,,,,,,,,,,,,,,,55,152122,21,Female,1,2024/02/14_09:23:01,SD,60.08727182
,,,,,,calibration,0,21,2,361,2,Q,0,right,0.962192027,1,0,,,,,,,,,,,,,,,,,,,,,1,,,,,,,,,,,,,,,,,,,,,,,,,,,,,,,,,,,,,,,,,,,,,,55,152122,21,Female,1,2024/02/14_09:23:01,SD,60.08727182
,,,,,,calibration,0,21,2,361,3,V,1,right,0.355810084,0,0,,,,,,,,,,,,,,,,,,,,,1,,,,,,,,,,,,,,,,,,,,,,,,,,,,,,,,,,,,,,,,,,,,,,55,152122,21,Female,1,2024/02/14_09:23:01,SD,60.08727182
,,,,,,calibration,0,21,2,361,4,S,0,right,nan,0,1,,,,,,,,,,,,,,,,,,,,,1,,,,,,,,,,,,,,,,,,,,,,,,,,,,,,,,,,,,,,,,,,,,,,55,152122,21,Female,1,2024/02/14_09:23:01,SD,60.08727182
,,,,,,calibration,0,21,2,361,5,V,1,left,0.678572562,1,0,,,,,,,,,,,,,,,,,,,,,1,,,,,,,,,,,,,,,,,,,,,,,,,,,,,,,,,,,,,,,,,,,,,,55,152122,21,Female,1,2024/02/14_09:23:01,SD,60.08727182
,,,,,,calibration,0,21,2,361,6,F,0,left,nan,0,1,,,,,,,,,,,,,,,,,,,,,1,,,,,,,,,,,,,,,,,,,,,,,,,,,,,,,,,,,,,,,,,,,,,,55,152122,21,Female,1,2024/02/14_09:23:01,SD,60.08727182
,,,,,,calibration,0,21,2,361,7,S,0,left,nan,0,1,,,,,,,,,,,,,,,,,,,,,1,,,,,,,,,,,,,,,,,,,,,,,,,,,,,,,,,,,,,,,,,,,,,,55,152122,21,Female,1,2024/02/14_09:23:01,SD,60.08727182
,,,,,,calibration,0,21,2,361,8,C,0,right,0,1,0,,,,,,,,,,,,,,,,,,,,,1,,,,,,,,,,,,,,,,,,,,,,,,,,,,,,,,,,,,,,,,,,,,,,55,152122,21,Female,1,2024/02/14_09:23:01,SD,60.08727182
,,,,,,calibration,0,21,2,361,9,X,0,right,0.728328424,1,0,,,,,,,,,,,,,,,,,,,,,1,,,,,,,,,,,,,,,,,,,,,,,,,,,,,,,,,,,,,,,,,,,,,,55,152122,21,Female,1,2024/02/14_09:23:01,SD,60.08727182
,,,,,,calibration,0,21,2,361,10,C,1,left,0.678508499,1,0,,,,,,,,,,,,,,,,,,,,,1,,,,,,,,,,,,,,,,,,,,,,,,,,,,,,,,,,,,,,,,,,,,,,55,152122,21,Female,1,2024/02/14_09:23:01,SD,60.08727182
,,,,,,calibration,0,21,2,361,11,Q,0,left,nan,0,1,,,,,,,,,,,,,,,,,,,,,1,,,,,,,,,,,,,,,,,,,,,,,,,,,,,,,,,,,,,,,,,,,,,,55,152122,21,Female,1,2024/02/14_09:23:01,SD,60.08727182
,,,,,,calibration,0,21,2,361,12,C,1,left,nan,0,1,,,,,,,,,,,,,,,,,,,,,1,,,,,,,,,,,,,,,,,,,,,,,,,,,,,,,,,,,,,,,,,,,,,,55,152122,21,Female,1,2024/02/14_09:23:01,SD,60.08727182
,,,,,,calibration,0,21,2,361,13,N,0,right,0.244772932,1,0,,,,,,,,,,,,,,,,,,,,,1,,,,,,,,,,,,,,,,,,,,,,,,,,,,,,,,,,,,,,,,,,,,,,55,152122,21,Female,1,2024/02/14_09:23:01,SD,60.08727182
,,,,,,calibration,0,21,2,361,14,X,0,right,0.878279844,1,0,,,,,,,,,,,,,,,,,,,,,1,,,,,,,,,,,,,,,,,,,,,,,,,,,,,,,,,,,,,,,,,,,,,,55,152122,21,Female,1,2024/02/14_09:23:01,SD,60.08727182
,,,,,,calibration,0,21,2,361,15,N,1,left,0.911615869,1,0,,,,,,,,,,,,,,,,,,,,,1,,,,,,,,,,,,,,,,,,,,,,,,,,,,,,,,,,,,,,,,,,,,,,55,152122,21,Female,1,2024/02/14_09:23:01,SD,60.08727182
,,,,,,calibration,0,21,2,361,16,F,0,left,nan,0,1,,,,,,,,,,,,,,,,,,,,,1,,,,,,,,,,,,,,,,,,,,,,,,,,,,,,,,,,,,,,,,,,,,,,55,152122,21,Female,1,2024/02/14_09:23:01,SD,60.08727182
,,,,,,calibration,0,21,2,361,17,X,0,left,nan,0,1,,,,,,,,,,,,,,,,,,,,,1,,,,,,,,,,,,,,,,,,,,,,,,,,,,,,,,,,,,,,,,,,,,,,55,152122,21,Female,1,2024/02/14_09:23:01,SD,60.08727182
,,,,,,calibration,0,21,2,361,18,F,1,right,0.441039963,0,0,,,,,,,,,,,,,,,,,,,,,1,,,,,,,,,,,,,,,,,,,,,,,,,,,,,,,,,,,,,,,,,,,,,,55,152122,21,Female,1,2024/02/14_09:23:01,SD,60.08727182
,,,,,,calibration,0,21,2,361,,,,,,,,0.875,0.5,0,1,0.444444444,0.555555556,0.58791202,3,0,1,7,8,5,8,6,12,0,,,,1,,,,,,,,,,,,,,,,,,,,,,,,,,,,,,,,,,,,,,,,,,,,,,55,152122,21,Female,1,2024/02/14_09:23:01,SD,60.08727182
,,,,,,Calibration,0,,2,361,,,,,,,,,,,,,,,,,,,,,,,,,12,,,1,,,,,,,,,,,,,,,,,,,,,,,,,,,,,,,,,,,,,,,,,,,,,,55,152122,21,Female,1,2024/02/14_09:23:01,SD,60.08727182
,,,,,,calibration,0,29,2,303,1,C,0,right,0.481248191,1,0,,,,,,,,,,,,,,,,,,,,,1,,,,,,,,,,,,,,,,,,,,,,,,,,,,,,,,,,,,,,,,,,,,,,55,152122,21,Female,1,2024/02/14_09:23:01,SD,60.08727182
,,,,,,calibration,0,29,2,303,2,V,0,right,nan,0,1,,,,,,,,,,,,,,,,,,,,,1,,,,,,,,,,,,,,,,,,,,,,,,,,,,,,,,,,,,,,,,,,,,,,55,152122,21,Female,1,2024/02/14_09:23:01,SD,60.08727182
,,,,,,calibration,0,29,2,303,3,S,0,right,nan,0,1,,,,,,,,,,,,,,,,,,,,,1,,,,,,,,,,,,,,,,,,,,,,,,,,,,,,,,,,,,,,,,,,,,,,55,152122,21,Female,1,2024/02/14_09:23:01,SD,60.08727182
,,,,,,calibration,0,29,2,303,4,Q,0,right,0.561964564,1,0,,,,,,,,,,,,,,,,,,,,,1,,,,,,,,,,,,,,,,,,,,,,,,,,,,,,,,,,,,,,,,,,,,,,55,152122,21,Female,1,2024/02/14_09:23:01,SD,60.08727182
,,,,,,calibration,0,29,2,303,5,J,0,right,0.51723841,1,0,,,,,,,,,,,,,,,,,,,,,1,,,,,,,,,,,,,,,,,,,,,,,,,,,,,,,,,,,,,,,,,,,,,,55,152122,21,Female,1,2024/02/14_09:23:01,SD,60.08727182
,,,,,,calibration,0,29,2,303,6,Q,1,left,0.628734993,1,0,,,,,,,,,,,,,,,,,,,,,1,,,,,,,,,,,,,,,,,,,,,,,,,,,,,,,,,,,,,,,,,,,,,,55,152122,21,Female,1,2024/02/14_09:23:01,SD,60.08727182
,,,,,,calibration,0,29,2,303,7,J,1,left,0.695079341,1,0,,,,,,,,,,,,,,,,,,,,,1,,,,,,,,,,,,,,,,,,,,,,,,,,,,,,,,,,,,,,,,,,,,,,55,152122,21,Female,1,2024/02/14_09:23:01,SD,60.08727182
,,,,,,calibration,0,29,2,303,8,V,0,right,0.545691592,1,0,,,,,,,,,,,,,,,,,,,,,1,,,,,,,,,,,,,,,,,,,,,,,,,,,,,,,,,,,,,,,,,,,,,,55,152122,21,Female,1,2024/02/14_09:23:01,SD,60.08727182
,,,,,,calibration,0,29,2,303,9,F,0,right,nan,0,1,,,,,,,,,,,,,,,,,,,,,1,,,,,,,,,,,,,,,,,,,,,,,,,,,,,,,,,,,,,,,,,,,,,,55,152122,21,Female,1,2024/02/14_09:23:01,SD,60.08727182
,,,,,,calibration,0,29,2,303,10,N,0,right,nan,0,1,,,,,,,,,,,,,,,,,,,,,1,,,,,,,,,,,,,,,,,,,,,,,,,,,,,,,,,,,,,,,,,,,,,,55,152122,21,Female,1,2024/02/14_09:23:01,SD,60.08727182
,,,,,,calibration,0,29,2,303,11,F,1,left,0.613695593,1,0,,,,,,,,,,,,,,,,,,,,,1,,,,,,,,,,,,,,,,,,,,,,,,,,,,,,,,,,,,,,,,,,,,,,55,152122,21,Female,1,2024/02/14_09:23:01,SD,60.08727182
,,,,,,calibration,0,29,2,303,12,S,0,right,0.517436735,1,0,,,,,,,,,,,,,,,,,,,,,1,,,,,,,,,,,,,,,,,,,,,,,,,,,,,,,,,,,,,,,,,,,,,,55,152122,21,Female,1,2024/02/14_09:23:01,SD,60.08727182
,,,,,,calibration,0,29,2,303,13,J,0,right,0.962337794,1,0,,,,,,,,,,,,,,,,,,,,,1,,,,,,,,,,,,,,,,,,,,,,,,,,,,,,,,,,,,,,,,,,,,,,55,152122,21,Female,1,2024/02/14_09:23:01,SD,60.08727182
,,,,,,calibration,0,29,2,303,14,N,0,right,nan,0,1,,,,,,,,,,,,,,,,,,,,,1,,,,,,,,,,,,,,,,,,,,,,,,,,,,,,,,,,,,,,,,,,,,,,55,152122,21,Female,1,2024/02/14_09:23:01,SD,60.08727182
,,,,,,calibration,0,29,2,303,15,Q,0,right,0.981001683,1,0,,,,,,,,,,,,,,,,,,,,,1,,,,,,,,,,,,,,,,,,,,,,,,,,,,,,,,,,,,,,,,,,,,,,55,152122,21,Female,1,2024/02/14_09:23:01,SD,60.08727182
,,,,,,calibration,0,29,2,303,16,N,1,left,0.745416771,1,0,,,,,,,,,,,,,,,,,,,,,1,,,,,,,,,,,,,,,,,,,,,,,,,,,,,,,,,,,,,,,,,,,,,,55,152122,21,Female,1,2024/02/14_09:23:01,SD,60.08727182
,,,,,,calibration,0,29,2,303,17,Q,1,left,nan,0,1,,,,,,,,,,,,,,,,,,,,,1,,,,,,,,,,,,,,,,,,,,,,,,,,,,,,,,,,,,,,,,,,,,,,55,152122,21,Female,1,2024/02/14_09:23:01,SD,60.08727182
,,,,,,calibration,0,29,2,303,18,J,0,right,0.645307536,1,0,,,,,,,,,,,,,,,,,,,,,1,,,,,,,,,,,,,,,,,,,,,,,,,,,,,,,,,,,,,,,,,,,,,,55,152122,21,Female,1,2024/02/14_09:23:01,SD,60.08727182
,,,,,,calibration,0,29,2,303,19,S,0,right,0.795058427,1,0,,,,,,,,,,,,,,,,,,,,,1,,,,,,,,,,,,,,,,,,,,,,,,,,,,,,,,,,,,,,,,,,,,,,55,152122,21,Female,1,2024/02/14_09:23:01,SD,60.08727182
,,,,,,calibration,0,29,2,303,,,,,,,,0.95,0.8,0,1,0.315789474,0.684210526,0.668477818,4,0,1,5,6,9,13,5,14,0,,,,1,,,,,,,,,,,,,,,,,,,,,,,,,,,,,,,,,,,,,,,,,,,,,,55,152122,21,Female,1,2024/02/14_09:23:01,SD,60.08727182
,,,,,,Calibration,0,,2,303,,,,,,,,,,,,,,,,,,,,,,,,,13,,,1,,,,,,,,,,,,,,,,,,,,,,,,,,,,,,,,,,,,,,,,,,,,,,55,152122,21,Female,1,2024/02/14_09:23:01,SD,60.08727182
,,,,,,calibration,0,19,2,250,1,V,0,right,0.64774137,1,0,,,,,,,,,,,,,,,,,,,,,1,,,,,,,,,,,,,,,,,,,,,,,,,,,,,,,,,,,,,,,,,,,,,,55,152122,21,Female,1,2024/02/14_09:23:01,SD,60.08727182
,,,,,,calibration,0,19,2,250,2,C,0,right,0.911553543,1,0,,,,,,,,,,,,,,,,,,,,,1,,,,,,,,,,,,,,,,,,,,,,,,,,,,,,,,,,,,,,,,,,,,,,55,152122,21,Female,1,2024/02/14_09:23:01,SD,60.08727182
,,,,,,calibration,0,19,2,250,3,N,0,right,0.611959088,1,0,,,,,,,,,,,,,,,,,,,,,1,,,,,,,,,,,,,,,,,,,,,,,,,,,,,,,,,,,,,,,,,,,,,,55,152122,21,Female,1,2024/02/14_09:23:01,SD,60.08727182
,,,,,,calibration,0,19,2,250,4,Q,0,right,0.561020358,1,0,,,,,,,,,,,,,,,,,,,,,1,,,,,,,,,,,,,,,,,,,,,,,,,,,,,,,,,,,,,,,,,,,,,,55,152122,21,Female,1,2024/02/14_09:23:01,SD,60.08727182
,,,,,,calibration,0,19,2,250,5,X,0,right,0.456255249,1,0,,,,,,,,,,,,,,,,,,,,,1,,,,,,,,,,,,,,,,,,,,,,,,,,,,,,,,,,,,,,,,,,,,,,55,152122,21,Female,1,2024/02/14_09:23:01,SD,60.08727182
,,,,,,calibration,0,19,2,250,6,Q,1,left,0.644546815,1,0,,,,,,,,,,,,,,,,,,,,,1,,,,,,,,,,,,,,,,,,,,,,,,,,,,,,,,,,,,,,,,,,,,,,55,152122,21,Female,1,2024/02/14_09:23:01,SD,60.08727182
,,,,,,calibration,0,19,2,250,7,C,0,right,0.628628816,1,0,,,,,,,,,,,,,,,,,,,,,1,,,,,,,,,,,,,,,,,,,,,,,,,,,,,,,,,,,,,,,,,,,,,,55,152122,21,Female,1,2024/02/14_09:23:01,SD,60.08727182
,,,,,,calibration,0,19,2,250,8,Q,1,left,0.678552892,1,0,,,,,,,,,,,,,,,,,,,,,1,,,,,,,,,,,,,,,,,,,,,,,,,,,,,,,,,,,,,,,,,,,,,,55,152122,21,Female,1,2024/02/14_09:23:01,SD,60.08727182
,,,,,,calibration,0,19,2,250,9,C,1,left,0.811186153,1,0,,,,,,,,,,,,,,,,,,,,,1,,,,,,,,,,,,,,,,,,,,,,,,,,,,,,,,,,,,,,,,,,,,,,55,152122,21,Female,1,2024/02/14_09:23:01,SD,60.08727182
,,,,,,calibration,0,19,2,250,10,V,0,left,nan,0,1,,,,,,,,,,,,,,,,,,,,,1,,,,,,,,,,,,,,,,,,,,,,,,,,,,,,,,,,,,,,,,,,,,,,55,152122,21,Female,1,2024/02/14_09:23:01,SD,60.08727182
,,,,,,calibration,0,19,2,250,11,F,0,right,0.7948222,1,0,,,,,,,,,,,,,,,,,,,,,1,,,,,,,,,,,,,,,,,,,,,,,,,,,,,,,,,,,,,,,,,,,,,,55,152122,21,Female,1,2024/02/14_09:23:01,SD,60.08727182
,,,,,,calibration,0,19,2,250,12,S,0,right,nan,0,1,,,,,,,,,,,,,,,,,,,,,1,,,,,,,,,,,,,,,,,,,,,,,,,,,,,,,,,,,,,,,,,,,,,,55,152122,21,Female,1,2024/02/14_09:23:01,SD,60.08727182
,,,,,,calibration,0,19,2,250,13,F,1,left,0.74699556,1,0,,,,,,,,,,,,,,,,,,,,,1,,,,,,,,,,,,,,,,,,,,,,,,,,,,,,,,,,,,,,,,,,,,,,55,152122,21,Female,1,2024/02/14_09:23:01,SD,60.08727182
,,,,,,calibration,0,19,2,250,14,C,0,left,nan,0,1,,,,,,,,,,,,,,,,,,,,,1,,,,,,,,,,,,,,,,,,,,,,,,,,,,,,,,,,,,,,,,,,,,,,55,152122,21,Female,1,2024/02/14_09:23:01,SD,60.08727182
,,,,,,calibration,0,19,2,250,15,N,0,right,0.000950385,1,0,,,,,,,,,,,,,,,,,,,,,1,,,,,,,,,,,,,,,,,,,,,,,,,,,,,,,,,,,,,,,,,,,,,,55,152122,21,Female,1,2024/02/14_09:23:01,SD,60.08727182
,,,,,,calibration,0,19,2,250,16,C,1,left,0.711840283,1,0,,,,,,,,,,,,,,,,,,,,,1,,,,,,,,,,,,,,,,,,,,,,,,,,,,,,,,,,,,,,,,,,,,,,55,152122,21,Female,1,2024/02/14_09:23:01,SD,60.08727182
,,,,,,calibration,0,19,2,250,17,V,0,left,nan,0,1,,,,,,,,,,,,,,,,,,,,,1,,,,,,,,,,,,,,,,,,,,,,,,,,,,,,,,,,,,,,,,,,,,,,55,152122,21,Female,1,2024/02/14_09:23:01,SD,60.08727182
,,,,,,calibration,0,19,2,250,18,J,0,left,nan,0,1,,,,,,,,,,,,,,,,,,,,,1,,,,,,,,,,,,,,,,,,,,,,,,,,,,,,,,,,,,,,,,,,,,,,55,152122,21,Female,1,2024/02/14_09:23:01,SD,60.08727182
,,,,,,calibration,0,19,2,250,19,X,0,right,0.911859632,1,0,,,,,,,,,,,,,,,,,,,,,1,,,,,,,,,,,,,,,,,,,,,,,,,,,,,,,,,,,,,,,,,,,,,,55,152122,21,Female,1,2024/02/14_09:23:01,SD,60.08727182
,,,,,,calibration,0,19,2,250,20,C,0,right,nan,0,1,,,,,,,,,,,,,,,,,,,,,1,,,,,,,,,,,,,,,,,,,,,,,,,,,,,,,,,,,,,,,,,,,,,,55,152122,21,Female,1,2024/02/14_09:23:01,SD,60.08727182
,,,,,,calibration,0,19,2,250,,,,,,,,1,1,0,1,0.3,0.7,0.651279453,5,0,0,6,6,9,14,5,15,0,,,,1,,,,,,,,,,,,,,,,,,,,,,,,,,,,,,,,,,,,,,,,,,,,,,55,152122,21,Female,1,2024/02/14_09:23:01,SD,60.08727182
,,,,,,Calibration,0,,2,250,,,,,,,,,,,,,,,,,,,,,,,,,14,,,1,,,,,,,,,,,,,,,,,,,,,,,,,,,,,,,,,,,,,,,,,,,,,,55,152122,21,Female,1,2024/02/14_09:23:01,SD,60.08727182
,,,,,,calibration,0,32,2,202,1,F,0,None,nan,0,1,,,,,,,,,,,,,,,,,,,,,1,,,,,,,,,,,,,,,,,,,,,,,,,,,,,,,,,,,,,,,,,,,,,,55,152122,21,Female,1,2024/02/14_09:23:01,SD,60.08727182
,,,,,,calibration,0,32,2,202,2,X,0,right,0.435327117,1,0,,,,,,,,,,,,,,,,,,,,,1,,,,,,,,,,,,,,,,,,,,,,,,,,,,,,,,,,,,,,,,,,,,,,55,152122,21,Female,1,2024/02/14_09:23:01,SD,60.08727182
,,,,,,calibration,0,32,2,202,3,F,1,left,0.418190169,1,0,,,,,,,,,,,,,,,,,,,,,1,,,,,,,,,,,,,,,,,,,,,,,,,,,,,,,,,,,,,,,,,,,,,,55,152122,21,Female,1,2024/02/14_09:23:01,SD,60.08727182
,,,,,,calibration,0,32,2,202,4,N,0,left,nan,0,1,,,,,,,,,,,,,,,,,,,,,1,,,,,,,,,,,,,,,,,,,,,,,,,,,,,,,,,,,,,,,,,,,,,,55,152122,21,Female,1,2024/02/14_09:23:01,SD,60.08727182
,,,,,,calibration,0,32,2,202,5,S,0,left,nan,0,1,,,,,,,,,,,,,,,,,,,,,1,,,,,,,,,,,,,,,,,,,,,,,,,,,,,,,,,,,,,,,,,,,,,,55,152122,21,Female,1,2024/02/14_09:23:01,SD,60.08727182
,,,,,,calibration,0,32,2,202,6,V,0,left,nan,0,1,,,,,,,,,,,,,,,,,,,,,1,,,,,,,,,,,,,,,,,,,,,,,,,,,,,,,,,,,,,,,,,,,,,,55,152122,21,Female,1,2024/02/14_09:23:01,SD,60.08727182
,,,,,,calibration,0,32,2,202,7,N,0,left,0.862271558,0,0,,,,,,,,,,,,,,,,,,,,,1,,,,,,,,,,,,,,,,,,,,,,,,,,,,,,,,,,,,,,,,,,,,,,55,152122,21,Female,1,2024/02/14_09:23:01,SD,60.08727182
,,,,,,calibration,0,32,2,202,8,Q,0,right,0.744892347,1,0,,,,,,,,,,,,,,,,,,,,,1,,,,,,,,,,,,,,,,,,,,,,,,,,,,,,,,,,,,,,,,,,,,,,55,152122,21,Female,1,2024/02/14_09:23:01,SD,60.08727182
,,,,,,calibration,0,32,2,202,9,F,0,right,nan,0,1,,,,,,,,,,,,,,,,,,,,,1,,,,,,,,,,,,,,,,,,,,,,,,,,,,,,,,,,,,,,,,,,,,,,55,152122,21,Female,1,2024/02/14_09:23:01,SD,60.08727182
,,,,,,calibration,0,32,2,202,10,Q,1,right,0.016271371,0,0,,,,,,,,,,,,,,,,,,,,,1,,,,,,,,,,,,,,,,,,,,,,,,,,,,,,,,,,,,,,,,,,,,,,55,152122,21,Female,1,2024/02/14_09:23:01,SD,60.08727182
,,,,,,calibration,0,32,2,202,11,F,1,left,0.274059181,1,0,,,,,,,,,,,,,,,,,,,,,1,,,,,,,,,,,,,,,,,,,,,,,,,,,,,,,,,,,,,,,,,,,,,,55,152122,21,Female,1,2024/02/14_09:23:01,SD,60.08727182
,,,,,,calibration,0,32,2,202,12,J,0,left,nan,0,1,,,,,,,,,,,,,,,,,,,,,1,,,,,,,,,,,,,,,,,,,,,,,,,,,,,,,,,,,,,,,,,,,,,,55,152122,21,Female,1,2024/02/14_09:23:01,SD,60.08727182
,,,,,,calibration,0,32,2,202,13,V,0,left,nan,0,1,,,,,,,,,,,,,,,,,,,,,1,,,,,,,,,,,,,,,,,,,,,,,,,,,,,,,,,,,,,,,,,,,,,,55,152122,21,Female,1,2024/02/14_09:23:01,SD,60.08727182
,,,,,,calibration,0,32,2,202,14,S,0,right,0.66418236,1,0,,,,,,,,,,,,,,,,,,,,,1,,,,,,,,,,,,,,,,,,,,,,,,,,,,,,,,,,,,,,,,,,,,,,55,152122,21,Female,1,2024/02/14_09:23:01,SD,60.08727182
,,,,,,calibration,0,32,2,202,15,V,1,left,0.74490473,1,0,,,,,,,,,,,,,,,,,,,,,1,,,,,,,,,,,,,,,,,,,,,,,,,,,,,,,,,,,,,,,,,,,,,,55,152122,21,Female,1,2024/02/14_09:23:01,SD,60.08727182
,,,,,,calibration,0,32,2,202,16,Q,0,left,nan,0,1,,,,,,,,,,,,,,,,,,,,,1,,,,,,,,,,,,,,,,,,,,,,,,,,,,,,,,,,,,,,,,,,,,,,55,152122,21,Female,1,2024/02/14_09:23:01,SD,60.08727182
,,,,,,calibration,0,32,2,202,17,V,1,left,nan,0,1,,,,,,,,,,,,,,,,,,,,,1,,,,,,,,,,,,,,,,,,,,,,,,,,,,,,,,,,,,,,,,,,,,,,55,152122,21,Female,1,2024/02/14_09:23:01,SD,60.08727182
,,,,,,calibration,0,32,2,202,18,J,0,left,0.545194986,0,0,,,,,,,,,,,,,,,,,,,,,1,,,,,,,,,,,,,,,,,,,,,,,,,,,,,,,,,,,,,,,,,,,,,,55,152122,21,Female,1,2024/02/14_09:23:01,SD,60.08727182
,,,,,,calibration,0,32,2,202,19,X,0,right,0.578283996,1,0,,,,,,,,,,,,,,,,,,,,,1,,,,,,,,,,,,,,,,,,,,,,,,,,,,,,,,,,,,,,,,,,,,,,55,152122,21,Female,1,2024/02/14_09:23:01,SD,60.08727182
,,,,,,calibration,0,32,2,202,20,J,1,right,0.561328147,0,0,,,,,,,,,,,,,,,,,,,,,1,,,,,,,,,,,,,,,,,,,,,,,,,,,,,,,,,,,,,,,,,,,,,,55,152122,21,Female,1,2024/02/14_09:23:01,SD,60.08727182
,,,,,,calibration,0,32,2,202,21,X,1,left,0.000532088,1,0,,,,,,,,,,,,,,,,,,,,,1,,,,,,,,,,,,,,,,,,,,,,,,,,,,,,,,,,,,,,,,,,,,,,55,152122,21,Female,1,2024/02/14_09:23:01,SD,60.08727182
,,,,,,calibration,0,32,2,202,,,,,,,,0.795918367,0.571428571,0.142857143,0.666666667,0.428571429,0.428571429,0.487119838,4,2,1,8,9,4,8,7,14,0,,,,1,,,,,,,,,,,,,,,,,,,,,,,,,,,,,,,,,,,,,,,,,,,,,,55,152122,21,Female,1,2024/02/14_09:23:01,SD,60.08727182
,,,,,,Calibration,0,,2,202,,,,,,,,,,,,,,,,,,,,,,,,,15,,,1,,,,,,,,,,,,,,,,,,,,,,,,,,,,,,,,,,,,,,,,,,,,,,55,152122,21,Female,1,2024/02/14_09:23:01,SD,60.08727182
,,,,,,CALIBRATION,0,,,,,,,,,,,,,,,,,,,,,,,,,,,,15,0.795918367,202,1,,,,,,,,,,,,,,,,,,,,,,,,,,,,,,,,,,,,,,,,,,,,,,55,152122,21,Female,1,2024/02/14_09:23:01,SD,60.08727182
1,./instructions/inst_prac_1/Slide24.png,right,12.09226082,589.298397,601.3906578,,,,,,,,,,,,,,,,,,,,,,,,,,,,,,,,,1,,,,,,,,,,,,,,,,,,,,,,,,,,,,,,,,,,,,,,,,,,,,,,55,152122,21,Female,1,2024/02/14_09:23:01,SD,60.08727182
2,./instructions/inst_prac_1/Slide25.png,right,1.404985054,601.4730131,602.8779982,,,,,,,,,,,,,,,,,,,,,,,,,,,,,,,,,1,,,,,,,,,,,,,,,,,,,,,,,,,,,,,,,,,,,,,,,,,,,,,,55,152122,21,Female,1,2024/02/14_09:23:01,SD,60.08727182
3,./instructions/inst_prac_1/Slide26.png,right,1.321355752,602.9252316,604.2465873,,,,,,,,,,,,,,,,,,,,,,,,,,,,,,,,,1,,,,,,,,,,,,,,,,,,,,,,,,,,,,,,,,,,,,,,,,,,,,,,55,152122,21,Female,1,2024/02/14_09:23:01,SD,60.08727182
4,./instructions/inst_prac_1/Slide27.png,right,3.73029308,604.2918397,608.0221328,,,,,,,,,,,,,,,,,,,,,,,,,,,,,,,,,1,,,,,,,,,,,,,,,,,,,,,,,,,,,,,,,,,,,,,,,,,,,,,,55,152122,21,Female,1,2024/02/14_09:23:01,SD,60.08727182
5,./instructions/inst_prac_1/Slide28.png,right,1.353714909,608.068595,609.4223099,,,,,,,,,,,,,,,,,,,,,,,,,,,,,,,,,1,,,,,,,,,,,,,,,,,,,,,,,,,,,,,,,,,,,,,,,,,,,,,,55,152122,21,Female,1,2024/02/14_09:23:01,SD,60.08727182
6,./instructions/inst_prac_1/Slide29.png,right,2.928174107,609.4703568,612.3985309,,,,,,,,,,,,,,,,,,,,,,,,,,,,,,,,,1,,,,,,,,,,,,,,,,,,,,,,,,,,,,,,,,,,,,,,,,,,,,,,55,152122,21,Female,1,2024/02/14_09:23:01,SD,60.08727182
7,./instructions/inst_prac_1/Slide30.png,right,3.830758073,612.4476034,616.2783615,,,,,,,,,,,,,,,,,,,,,,,,,,,,,,,,,1,,,,,,,,,,,,,,,,,,,,,,,,,,,,,,,,,,,,,,,,,,,,,,55,152122,21,Female,1,2024/02/14_09:23:01,SD,60.08727182
,,,,,,practice,0,33,1,1250,1,V,0,right,0.992459539,1,0,,,,,,,,,,,,,,,,,,,,,1,,,,,,,,,,,,,,,,,,,,,,,,,,,,,,,,,,,,,,,,,,,,,,55,152122,21,Female,1,2024/02/14_09:23:01,SD,60.08727182
,,,,,,practice,0,33,1,1250,2,F,0,right,1.691343181,1,0,,,,,,,,,,,,,,,,,,,,,1,,,,,,,,,,,,,,,,,,,,,,,,,,,,,,,,,,,,,,,,,,,,,,55,152122,21,Female,1,2024/02/14_09:23:01,SD,60.08727182
,,,,,,practice,0,33,1,1250,3,C,0,right,1.027585932,1,0,,,,,,,,,,,,,,,,,,,,,1,,,,,,,,,,,,,,,,,,,,,,,,,,,,,,,,,,,,,,,,,,,,,,55,152122,21,Female,1,2024/02/14_09:23:01,SD,60.08727182
,,,,,,practice,0,33,1,1250,4,C,1,left,0.708941457,1,0,,,,,,,,,,,,,,,,,,,,,1,,,,,,,,,,,,,,,,,,,,,,,,,,,,,,,,,,,,,,,,,,,,,,55,152122,21,Female,1,2024/02/14_09:23:01,SD,60.08727182
,,,,,,practice,0,33,1,1250,5,N,0,right,1.092889643,1,0,,,,,,,,,,,,,,,,,,,,,1,,,,,,,,,,,,,,,,,,,,,,,,,,,,,,,,,,,,,,,,,,,,,,55,152122,21,Female,1,2024/02/14_09:23:01,SD,60.08727182
,,,,,,practice,0,33,1,1250,6,N,1,left,0.917719543,1,0,,,,,,,,,,,,,,,,,,,,,1,,,,,,,,,,,,,,,,,,,,,,,,,,,,,,,,,,,,,,,,,,,,,,55,152122,21,Female,1,2024/02/14_09:23:01,SD,60.08727182
,,,,,,practice,0,33,1,1250,7,C,0,right,1.507553804,1,0,,,,,,,,,,,,,,,,,,,,,1,,,,,,,,,,,,,,,,,,,,,,,,,,,,,,,,,,,,,,,,,,,,,,55,152122,21,Female,1,2024/02/14_09:23:01,SD,60.08727182
,,,,,,practice,0,33,1,1250,8,F,0,right,0.859472337,1,0,,,,,,,,,,,,,,,,,,,,,1,,,,,,,,,,,,,,,,,,,,,,,,,,,,,,,,,,,,,,,,,,,,,,55,152122,21,Female,1,2024/02/14_09:23:01,SD,60.08727182
,,,,,,practice,0,33,1,1250,9,S,0,right,1.243698256,1,0,,,,,,,,,,,,,,,,,,,,,1,,,,,,,,,,,,,,,,,,,,,,,,,,,,,,,,,,,,,,,,,,,,,,55,152122,21,Female,1,2024/02/14_09:23:01,SD,60.08727182
,,,,,,practice,0,33,1,1250,10,S,1,left,0.766149485,1,0,,,,,,,,,,,,,,,,,,,,,1,,,,,,,,,,,,,,,,,,,,,,,,,,,,,,,,,,,,,,,,,,,,,,55,152122,21,Female,1,2024/02/14_09:23:01,SD,60.08727182
,,,,,,practice,0,33,1,1250,,,,,,,,1,1,0,1,0,1,1.080781318,3,0,0,0,0,7,10,3,7,0,,,,1,,,,,,,,,,,,,,,,,,,,,,,,,,,,,,,,,,,,,,,,,,,,,,55,152122,21,Female,1,2024/02/14_09:23:01,SD,60.08727182
-1,./instructions/inst_prac_1_next/Slide35.png,left,1.988018031,637.9063472,639.8943652,,,,,,,,,,,,,,,,,,,,,,,,,,,,,,,,,1,,,,,,,,,,,,,,,,,,,,,,,,,,,,,,,,,,,,,,,,,,,,,,55,152122,21,Female,1,2024/02/14_09:23:01,SD,60.08727182
,,,,,,practice,0,17,1,202,1,N,0,right,1.685384937,1,0,,,,,,,,,,,,,,,,,,,,,1,,,,,,,,,,,,,,,,,,,,,,,,,,,,,,,,,,,,,,,,,,,,,,55,152122,21,Female,1,2024/02/14_09:23:01,SD,60.08727182
,,,,,,practice,0,17,1,202,2,X,0,right,0.876780357,1,0,,,,,,,,,,,,,,,,,,,,,1,,,,,,,,,,,,,,,,,,,,,,,,,,,,,,,,,,,,,,,,,,,,,,55,152122,21,Female,1,2024/02/14_09:23:01,SD,60.08727182
,,,,,,practice,0,17,1,202,3,X,1,left,0.654178036,1,0,,,,,,,,,,,,,,,,,,,,,1,,,,,,,,,,,,,,,,,,,,,,,,,,,,,,,,,,,,,,,,,,,,,,55,152122,21,Female,1,2024/02/14_09:23:01,SD,60.08727182
,,,,,,practice,0,17,1,202,4,F,0,right,4.998345322,1,0,,,,,,,,,,,,,,,,,,,,,1,,,,,,,,,,,,,,,,,,,,,,,,,,,,,,,,,,,,,,,,,,,,,,55,152122,21,Female,1,2024/02/14_09:23:01,SD,60.08727182
,,,,,,practice,0,17,1,202,5,F,1,left,2.711738415,1,0,,,,,,,,,,,,,,,,,,,,,1,,,,,,,,,,,,,,,,,,,,,,,,,,,,,,,,,,,,,,,,,,,,,,55,152122,21,Female,1,2024/02/14_09:23:01,SD,60.08727182
,,,,,,practice,0,17,1,202,6,V,0,right,1.431049802,1,0,,,,,,,,,,,,,,,,,,,,,1,,,,,,,,,,,,,,,,,,,,,,,,,,,,,,,,,,,,,,,,,,,,,,55,152122,21,Female,1,2024/02/14_09:23:01,SD,60.08727182
,,,,,,practice,0,17,1,202,7,X,0,right,5.128272613,1,0,,,,,,,,,,,,,,,,,,,,,1,,,,,,,,,,,,,,,,,,,,,,,,,,,,,,,,,,,,,,,,,,,,,,55,152122,21,Female,1,2024/02/14_09:23:01,SD,60.08727182
,,,,,,practice,0,17,1,202,8,X,1,right,0.900362973,0,0,,,,,,,,,,,,,,,,,,,,,1,,,,,,,,,,,,,,,,,,,,,,,,,,,,,,,,,,,,,,,,,,,,,,55,152122,21,Female,1,2024/02/14_09:23:01,SD,60.08727182
,,,,,,practice,0,17,1,202,9,V,0,right,1.710052023,1,0,,,,,,,,,,,,,,,,,,,,,1,,,,,,,,,,,,,,,,,,,,,,,,,,,,,,,,,,,,,,,,,,,,,,55,152122,21,Female,1,2024/02/14_09:23:01,SD,60.08727182
,,,,,,practice,0,17,1,202,10,N,0,right,3.405634151,1,0,,,,,,,,,,,,,,,,,,,,,1,,,,,,,,,,,,,,,,,,,,,,,,,,,,,,,,,,,,,,,,,,,,,,55,152122,21,Female,1,2024/02/14_09:23:01,SD,60.08727182
,,,,,,practice,0,17,1,202,11,Q,0,right,1.711083691,1,0,,,,,,,,,,,,,,,,,,,,,1,,,,,,,,,,,,,,,,,,,,,,,,,,,,,,,,,,,,,,,,,,,,,,55,152122,21,Female,1,2024/02/14_09:23:01,SD,60.08727182
,,,,,,practice,0,17,1,202,12,Q,1,left,0.820755819,1,0,,,,,,,,,,,,,,,,,,,,,1,,,,,,,,,,,,,,,,,,,,,,,,,,,,,,,,,,,,,,,,,,,,,,55,152122,21,Female,1,2024/02/14_09:23:01,SD,60.08727182
,,,,,,practice,0,17,1,202,13,F,0,right,2.912368281,1,0,,,,,,,,,,,,,,,,,,,,,1,,,,,,,,,,,,,,,,,,,,,,,,,,,,,,,,,,,,,,,,,,,,,,55,152122,21,Female,1,2024/02/14_09:23:01,SD,60.08727182
,,,,,,practice,0,17,1,202,14,V,0,right,1.877584891,1,0,,,,,,,,,,,,,,,,,,,,,1,,,,,,,,,,,,,,,,,,,,,,,,,,,,,,,,,,,,,,,,,,,,,,55,152122,21,Female,1,2024/02/14_09:23:01,SD,60.08727182
,,,,,,practice,0,17,1,202,15,V,1,left,0.948485605,1,0,,,,,,,,,,,,,,,,,,,,,1,,,,,,,,,,,,,,,,,,,,,,,,,,,,,,,,,,,,,,,,,,,,,,55,152122,21,Female,1,2024/02/14_09:23:01,SD,60.08727182
,,,,,,practice,0,17,1,202,16,X,0,right,0.795166761,1,0,,,,,,,,,,,,,,,,,,,,,1,,,,,,,,,,,,,,,,,,,,,,,,,,,,,,,,,,,,,,,,,,,,,,55,152122,21,Female,1,2024/02/14_09:23:01,SD,60.08727182
,,,,,,practice,0,17,1,202,17,Q,0,right,0.856076312,1,0,,,,,,,,,,,,,,,,,,,,,1,,,,,,,,,,,,,,,,,,,,,,,,,,,,,,,,,,,,,,,,,,,,,,55,152122,21,Female,1,2024/02/14_09:23:01,SD,60.08727182
,,,,,,practice,0,17,1,202,18,Q,1,left,1.064033957,1,0,,,,,,,,,,,,,,,,,,,,,1,,,,,,,,,,,,,,,,,,,,,,,,,,,,,,,,,,,,,,,,,,,,,,55,152122,21,Female,1,2024/02/14_09:23:01,SD,60.08727182
,,,,,,practice,0,17,1,202,19,C,0,right,0.865885215,1,0,,,,,,,,,,,,,,,,,,,,,1,,,,,,,,,,,,,,,,,,,,,,,,,,,,,,,,,,,,,,,,,,,,,,55,152122,21,Female,1,2024/02/14_09:23:01,SD,60.08727182
,,,,,,practice,0,17,1,202,20,X,0,right,1.875901202,1,0,,,,,,,,,,,,,,,,,,,,,1,,,,,,,,,,,,,,,,,,,,,,,,,,,,,,,,,,,,,,,,,,,,,,55,152122,21,Female,1,2024/02/14_09:23:01,SD,60.08727182
,,,,,,practice,0,17,1,202,21,X,1,left,0.690957638,1,0,,,,,,,,,,,,,,,,,,,,,1,,,,,,,,,,,,,,,,,,,,,,,,,,,,,,,,,,,,,,,,,,,,,,55,152122,21,Female,1,2024/02/14_09:23:01,SD,60.08727182
,,,,,,practice,0,17,1,202,,,,,,,,0.964285714,0.857142857,0,1,0,1,1.805718952,6,0,0,0,0,14,20,7,14,0,,,,1,,,,,,,,,,,,,,,,,,,,,,,,,,,,,,,,,,,,,,,,,,,,,,55,152122,21,Female,1,2024/02/14_09:23:01,SD,60.08727182
1,./instructions/inst_prac_1_next/Slide35.png,right,2.037617216,701.9846734,704.0222906,,,,,,,,,,,,,,,,,,,,,,,,,,,,,,,,,1,,,,,,,,,,,,,,,,,,,,,,,,,,,,,,,,,,,,,,,,,,,,,,55,152122,21,Female,1,2024/02/14_09:23:01,SD,60.08727182
,,,,,,practice,0,10,1,202,1,X,0,right,0.908834038,1,0,,,,,,,,,,,,,,,,,,,,,1,,,,,,,,,,,,,,,,,,,,,,,,,,,,,,,,,,,,,,,,,,,,,,55,152122,21,Female,1,2024/02/14_09:23:01,SD,60.08727182
,,,,,,practice,0,10,1,202,2,N,0,right,0.786186841,1,0,,,,,,,,,,,,,,,,,,,,,1,,,,,,,,,,,,,,,,,,,,,,,,,,,,,,,,,,,,,,,,,,,,,,55,152122,21,Female,1,2024/02/14_09:23:01,SD,60.08727182
,,,,,,practice,0,10,1,202,3,J,0,right,0.547034622,1,0,,,,,,,,,,,,,,,,,,,,,1,,,,,,,,,,,,,,,,,,,,,,,,,,,,,,,,,,,,,,,,,,,,,,55,152122,21,Female,1,2024/02/14_09:23:01,SD,60.08727182
,,,,,,practice,0,10,1,202,4,J,1,left,1.255708141,1,0,,,,,,,,,,,,,,,,,,,,,1,,,,,,,,,,,,,,,,,,,,,,,,,,,,,,,,,,,,,,,,,,,,,,55,152122,21,Female,1,2024/02/14_09:23:01,SD,60.08727182
,,,,,,practice,0,10,1,202,5,X,0,right,0.910668385,1,0,,,,,,,,,,,,,,,,,,,,,1,,,,,,,,,,,,,,,,,,,,,,,,,,,,,,,,,,,,,,,,,,,,,,55,152122,21,Female,1,2024/02/14_09:23:01,SD,60.08727182
,,,,,,practice,0,10,1,202,6,X,1,left,0.940798525,1,0,,,,,,,,,,,,,,,,,,,,,1,,,,,,,,,,,,,,,,,,,,,,,,,,,,,,,,,,,,,,,,,,,,,,55,152122,21,Female,1,2024/02/14_09:23:01,SD,60.08727182
,,,,,,practice,0,10,1,202,7,N,0,right,1.758465668,1,0,,,,,,,,,,,,,,,,,,,,,1,,,,,,,,,,,,,,,,,,,,,,,,,,,,,,,,,,,,,,,,,,,,,,55,152122,21,Female,1,2024/02/14_09:23:01,SD,60.08727182
,,,,,,practice,0,10,1,202,8,C,0,right,1.137946347,1,0,,,,,,,,,,,,,,,,,,,,,1,,,,,,,,,,,,,,,,,,,,,,,,,,,,,,,,,,,,,,,,,,,,,,55,152122,21,Female,1,2024/02/14_09:23:01,SD,60.08727182
,,,,,,practice,0,10,1,202,9,N,0,right,0.684675628,1,0,,,,,,,,,,,,,,,,,,,,,1,,,,,,,,,,,,,,,,,,,,,,,,,,,,,,,,,,,,,,,,,,,,,,55,152122,21,Female,1,2024/02/14_09:23:01,SD,60.08727182
,,,,,,practice,0,10,1,202,10,C,0,right,2.53963256,1,0,,,,,,,,,,,,,,,,,,,,,1,,,,,,,,,,,,,,,,,,,,,,,,,,,,,,,,,,,,,,,,,,,,,,55,152122,21,Female,1,2024/02/14_09:23:01,SD,60.08727182
,,,,,,practice,0,10,1,202,11,C,1,left,0.687611043,1,0,,,,,,,,,,,,,,,,,,,,,1,,,,,,,,,,,,,,,,,,,,,,,,,,,,,,,,,,,,,,,,,,,,,,55,152122,21,Female,1,2024/02/14_09:23:01,SD,60.08727182
,,,,,,practice,0,10,1,202,12,S,0,right,1.612363078,1,0,,,,,,,,,,,,,,,,,,,,,1,,,,,,,,,,,,,,,,,,,,,,,,,,,,,,,,,,,,,,,,,,,,,,55,152122,21,Female,1,2024/02/14_09:23:01,SD,60.08727182
,,,,,,practice,0,10,1,202,13,S,1,left,0.909336313,1,0,,,,,,,,,,,,,,,,,,,,,1,,,,,,,,,,,,,,,,,,,,,,,,,,,,,,,,,,,,,,,,,,,,,,55,152122,21,Female,1,2024/02/14_09:23:01,SD,60.08727182
,,,,,,practice,0,10,1,202,14,N,0,right,0.787145667,1,0,,,,,,,,,,,,,,,,,,,,,1,,,,,,,,,,,,,,,,,,,,,,,,,,,,,,,,,,,,,,,,,,,,,,55,152122,21,Female,1,2024/02/14_09:23:01,SD,60.08727182
,,,,,,practice,0,10,1,202,15,N,1,right,0.651836925,0,0,,,,,,,,,,,,,,,,,,,,,1,,,,,,,,,,,,,,,,,,,,,,,,,,,,,,,,,,,,,,,,,,,,,,55,152122,21,Female,1,2024/02/14_09:23:01,SD,60.08727182
,,,,,,practice,0,10,1,202,16,V,0,right,1.884052223,1,0,,,,,,,,,,,,,,,,,,,,,1,,,,,,,,,,,,,,,,,,,,,,,,,,,,,,,,,,,,,,,,,,,,,,55,152122,21,Female,1,2024/02/14_09:23:01,SD,60.08727182
,,,,,,practice,0,10,1,202,17,V,1,left,0.866924159,1,0,,,,,,,,,,,,,,,,,,,,,1,,,,,,,,,,,,,,,,,,,,,,,,,,,,,,,,,,,,,,,,,,,,,,55,152122,21,Female,1,2024/02/14_09:23:01,SD,60.08727182
,,,,,,practice,0,10,1,202,18,Q,0,right,1.472596044,1,0,,,,,,,,,,,,,,,,,,,,,1,,,,,,,,,,,,,,,,,,,,,,,,,,,,,,,,,,,,,,,,,,,,,,55,152122,21,Female,1,2024/02/14_09:23:01,SD,60.08727182
,,,,,,practice,0,10,1,202,19,F,0,right,0.830749215,1,0,,,,,,,,,,,,,,,,,,,,,1,,,,,,,,,,,,,,,,,,,,,,,,,,,,,,,,,,,,,,,,,,,,,,55,152122,21,Female,1,2024/02/14_09:23:01,SD,60.08727182
,,,,,,practice,0,10,1,202,20,Q,0,right,1.91968293,1,0,,,,,,,,,,,,,,,,,,,,,1,,,,,,,,,,,,,,,,,,,,,,,,,,,,,,,,,,,,,,,,,,,,,,55,152122,21,Female,1,2024/02/14_09:23:01,SD,60.08727182
,,,,,,practice,0,10,1,202,21,Q,1,left,1.059187798,1,0,,,,,,,,,,,,,,,,,,,,,1,,,,,,,,,,,,,,,,,,,,,,,,,,,,,,,,,,,,,,,,,,,,,,55,152122,21,Female,1,2024/02/14_09:23:01,SD,60.08727182
,,,,,,practice,0,10,1,202,,,,,,,,0.964285714,0.857142857,0,1,0,1,1.150068388,6,0,0,0,0,14,20,7,14,0,,,,1,,,,,,,,,,,,,,,,,,,,,,,,,,,,,,,,,,,,,,,,,,,,,,55,152122,21,Female,1,2024/02/14_09:23:01,SD,60.08727182
,,,,,,practice,0,10,1,202,1,X,0,right,1.21360674,1,0,,,,,,,,,,,,,,,,,,,,,1,,,,,,,,,,,,,,,,,,,,,,,,,,,,,,,,,,,,,,,,,,,,,,55,152122,21,Female,1,2024/02/14_09:23:01,SD,60.08727182
,,,,,,practice,0,10,1,202,2,N,0,right,1.013034737,1,0,,,,,,,,,,,,,,,,,,,,,1,,,,,,,,,,,,,,,,,,,,,,,,,,,,,,,,,,,,,,,,,,,,,,55,152122,21,Female,1,2024/02/14_09:23:01,SD,60.08727182
,,,,,,practice,0,10,1,202,3,J,0,right,0.974324445,1,0,,,,,,,,,,,,,,,,,,,,,1,,,,,,,,,,,,,,,,,,,,,,,,,,,,,,,,,,,,,,,,,,,,,,55,152122,21,Female,1,2024/02/14_09:23:01,SD,60.08727182
,,,,,,practice,0,10,1,202,4,J,1,left,1.072910237,1,0,,,,,,,,,,,,,,,,,,,,,1,,,,,,,,,,,,,,,,,,,,,,,,,,,,,,,,,,,,,,,,,,,,,,55,152122,21,Female,1,2024/02/14_09:23:01,SD,60.08727182
,,,,,,practice,0,10,1,202,5,X,0,right,0.909908217,1,0,,,,,,,,,,,,,,,,,,,,,1,,,,,,,,,,,,,,,,,,,,,,,,,,,,,,,,,,,,,,,,,,,,,,55,152122,21,Female,1,2024/02/14_09:23:01,SD,60.08727182
,,,,,,practice,0,10,1,202,6,X,1,left,1.283606234,1,0,,,,,,,,,,,,,,,,,,,,,1,,,,,,,,,,,,,,,,,,,,,,,,,,,,,,,,,,,,,,,,,,,,,,55,152122,21,Female,1,2024/02/14_09:23:01,SD,60.08727182
,,,,,,practice,0,10,1,202,7,N,0,right,1.146521539,1,0,,,,,,,,,,,,,,,,,,,,,1,,,,,,,,,,,,,,,,,,,,,,,,,,,,,,,,,,,,,,,,,,,,,,55,152122,21,Female,1,2024/02/14_09:23:01,SD,60.08727182
,,,,,,practice,0,10,1,202,8,C,0,right,0.876588872,1,0,,,,,,,,,,,,,,,,,,,,,1,,,,,,,,,,,,,,,,,,,,,,,,,,,,,,,,,,,,,,,,,,,,,,55,152122,21,Female,1,2024/02/14_09:23:01,SD,60.08727182
,,,,,,practice,0,10,1,202,9,N,0,right,1.107154151,1,0,,,,,,,,,,,,,,,,,,,,,1,,,,,,,,,,,,,,,,,,,,,,,,,,,,,,,,,,,,,,,,,,,,,,55,152122,21,Female,1,2024/02/14_09:23:01,SD,60.08727182
,,,,,,practice,0,10,1,202,10,C,0,right,1.576216066,1,0,,,,,,,,,,,,,,,,,,,,,1,,,,,,,,,,,,,,,,,,,,,,,,,,,,,,,,,,,,,,,,,,,,,,55,152122,21,Female,1,2024/02/14_09:23:01,SD,60.08727182
,,,,,,practice,0,10,1,202,11,C,1,left,0.77729625,1,0,,,,,,,,,,,,,,,,,,,,,1,,,,,,,,,,,,,,,,,,,,,,,,,,,,,,,,,,,,,,,,,,,,,,55,152122,21,Female,1,2024/02/14_09:23:01,SD,60.08727182
,,,,,,practice,0,10,1,202,12,S,0,right,2.196352565,1,0,,,,,,,,,,,,,,,,,,,,,1,,,,,,,,,,,,,,,,,,,,,,,,,,,,,,,,,,,,,,,,,,,,,,55,152122,21,Female,1,2024/02/14_09:23:01,SD,60.08727182
,,,,,,practice,0,10,1,202,13,S,1,left,0.644229632,1,0,,,,,,,,,,,,,,,,,,,,,1,,,,,,,,,,,,,,,,,,,,,,,,,,,,,,,,,,,,,,,,,,,,,,55,152122,21,Female,1,2024/02/14_09:23:01,SD,60.08727182
,,,,,,practice,0,10,1,202,14,N,0,right,1.412270045,1,0,,,,,,,,,,,,,,,,,,,,,1,,,,,,,,,,,,,,,,,,,,,,,,,,,,,,,,,,,,,,,,,,,,,,55,152122,21,Female,1,2024/02/14_09:23:01,SD,60.08727182
,,,,,,practice,0,10,1,202,15,N,1,left,0.717467151,1,0,,,,,,,,,,,,,,,,,,,,,1,,,,,,,,,,,,,,,,,,,,,,,,,,,,,,,,,,,,,,,,,,,,,,55,152122,21,Female,1,2024/02/14_09:23:01,SD,60.08727182
,,,,,,practice,0,10,1,202,16,V,0,right,2.123737105,1,0,,,,,,,,,,,,,,,,,,,,,1,,,,,,,,,,,,,,,,,,,,,,,,,,,,,,,,,,,,,,,,,,,,,,55,152122,21,Female,1,2024/02/14_09:23:01,SD,60.08727182
,,,,,,practice,0,10,1,202,17,V,1,left,0.645890695,1,0,,,,,,,,,,,,,,,,,,,,,1,,,,,,,,,,,,,,,,,,,,,,,,,,,,,,,,,,,,,,,,,,,,,,55,152122,21,Female,1,2024/02/14_09:23:01,SD,60.08727182
,,,,,,practice,0,10,1,202,18,Q,0,right,1.501802444,1,0,,,,,,,,,,,,,,,,,,,,,1,,,,,,,,,,,,,,,,,,,,,,,,,,,,,,,,,,,,,,,,,,,,,,55,152122,21,Female,1,2024/02/14_09:23:01,SD,60.08727182
,,,,,,practice,0,10,1,202,19,F,0,right,0.802093426,1,0,,,,,,,,,,,,,,,,,,,,,1,,,,,,,,,,,,,,,,,,,,,,,,,,,,,,,,,,,,,,,,,,,,,,55,152122,21,Female,1,2024/02/14_09:23:01,SD,60.08727182
,,,,,,practice,0,10,1,202,20,Q,0,right,1.684174171,1,0,,,,,,,,,,,,,,,,,,,,,1,,,,,,,,,,,,,,,,,,,,,,,,,,,,,,,,,,,,,,,,,,,,,,55,152122,21,Female,1,2024/02/14_09:23:01,SD,60.08727182
,,,,,,practice,0,10,1,202,21,Q,1,left,0.802722761,1,0,,,,,,,,,,,,,,,,,,,,,1,,,,,,,,,,,,,,,,,,,,,,,,,,,,,,,,,,,,,,,,,,,,,,55,152122,21,Female,1,2024/02/14_09:23:01,SD,60.08727182
,,,,,,practice,0,10,1,202,,,,,,,,1,1,0,1,0,1,1.165805118,7,0,0,0,0,14,21,7,14,0,,,,1,,,,,,,,,,,,,,,,,,,,,,,,,,,,,,,,,,,,,,,,,,,,,,55,152122,21,Female,1,2024/02/14_09:23:01,SD,60.08727182
1,./instructions/inst_prac_3/Slide37.png,right,5.123094027,779.4191374,784.5422314,,,,,,,,,,,,,,,,,,,,,,,,,,,,,,,,,1,,,,,,,,,,,,,,,,,,,,,,,,,,,,,,,,,,,,,,,,,,,,,,55,152122,21,Female,1,2024/02/14_09:23:01,SD,60.08727182
2,./instructions/inst_prac_3/Slide38.png,right,3.99266769,784.5894661,788.5821338,,,,,,,,,,,,,,,,,,,,,,,,,,,,,,,,,1,,,,,,,,,,,,,,,,,,,,,,,,,,,,,,,,,,,,,,,,,,,,,,55,152122,21,Female,1,2024/02/14_09:23:01,SD,60.08727182
3,./instructions/inst_prac_3/Slide39.png,right,1.645555947,788.6328782,790.2784342,,,,,,,,,,,,,,,,,,,,,,,,,,,,,,,,,1,,,,,,,,,,,,,,,,,,,,,,,,,,,,,,,,,,,,,,,,,,,,,,55,152122,21,Female,1,2024/02/14_09:23:01,SD,60.08727182
4,./instructions/inst_prac_3/Slide40.png,right,1.606731778,790.3271307,791.9338624,,,,,,,,,,,,,,,,,,,,,,,,,,,,,,,,,1,,,,,,,,,,,,,,,,,,,,,,,,,,,,,,,,,,,,,,,,,,,,,,55,152122,21,Female,1,2024/02/14_09:23:01,SD,60.08727182
5,./instructions/inst_prac_3/Slide41.png,right,2.50861903,791.9775963,794.4862153,,,,,,,,,,,,,,,,,,,,,,,,,,,,,,,,,1,,,,,,,,,,,,,,,,,,,,,,,,,,,,,,,,,,,,,,,,,,,,,,55,152122,21,Female,1,2024/02/14_09:23:01,SD,60.08727182
6,./instructions/inst_prac_3/Slide42.png,right,6.156144696,794.5299946,800.6861393,,,,,,,,,,,,,,,,,,,,,,,,,,,,,,,,,1,,,,,,,,,,,,,,,,,,,,,,,,,,,,,,,,,,,,,,,,,,,,,,55,152122,21,Female,1,2024/02/14_09:23:01,SD,60.08727182
7,./instructions/inst_prac_3/Slide43.png,right,4.071877409,800.7742303,804.8461077,,,,,,,,,,,,,,,,,,,,,,,,,,,,,,,,,1,,,,,,,,,,,,,,,,,,,,,,,,,,,,,,,,,,,,,,,,,,,,,,55,152122,21,Female,1,2024/02/14_09:23:01,SD,60.08727182
8,./instructions/inst_prac_3/Slide44.png,right,3.080648103,804.8937068,807.9743549,,,,,,,,,,,,,,,,,,,,,,,,,,,,,,,,,1,,,,,,,,,,,,,,,,,,,,,,,,,,,,,,,,,,,,,,,,,,,,,,55,152122,21,Female,1,2024/02/14_09:23:01,SD,60.08727182
,,,,,,practice,0,35,3,788,1,J,0,right,1.349826592,1,0,,,,,,,,,,,,,,,,,,,,,1,,,,,,,,,,,,,,,,,,,,,,,,,,,,,,,,,,,,,,,,,,,,,,55,152122,21,Female,1,2024/02/14_09:23:01,SD,60.08727182
,,,,,,practice,0,35,3,788,2,J,0,right,0.467887783,1,0,,,,,,,,,,,,,,,,,,,,,1,,,,,,,,,,,,,,,,,,,,,,,,,,,,,,,,,,,,,,,,,,,,,,55,152122,21,Female,1,2024/02/14_09:23:01,SD,60.08727182
,,,,,,practice,0,35,3,788,3,V,0,right,1.014537123,1,0,,,,,,,,,,,,,,,,,,,,,1,,,,,,,,,,,,,,,,,,,,,,,,,,,,,,,,,,,,,,,,,,,,,,55,152122,21,Female,1,2024/02/14_09:23:01,SD,60.08727182
,,,,,,practice,0,35,3,788,4,V,0,left,1.384513872,0,0,,,,,,,,,,,,,,,,,,,,,1,,,,,,,,,,,,,,,,,,,,,,,,,,,,,,,,,,,,,,,,,,,,,,55,152122,21,Female,1,2024/02/14_09:23:01,SD,60.08727182
,,,,,,practice,0,35,3,788,5,X,0,right,1.264732007,1,0,,,,,,,,,,,,,,,,,,,,,1,,,,,,,,,,,,,,,,,,,,,,,,,,,,,,,,,,,,,,,,,,,,,,55,152122,21,Female,1,2024/02/14_09:23:01,SD,60.08727182
,,,,,,practice,0,35,3,788,6,V,1,left,1.848281235,1,0,,,,,,,,,,,,,,,,,,,,,1,,,,,,,,,,,,,,,,,,,,,,,,,,,,,,,,,,,,,,,,,,,,,,55,152122,21,Female,1,2024/02/14_09:23:01,SD,60.08727182
,,,,,,practice,0,35,3,788,7,V,1,left,1.827265783,1,0,,,,,,,,,,,,,,,,,,,,,1,,,,,,,,,,,,,,,,,,,,,,,,,,,,,,,,,,,,,,,,,,,,,,55,152122,21,Female,1,2024/02/14_09:23:01,SD,60.08727182
,,,,,,practice,0,35,3,788,8,S,0,right,2.284238192,1,0,,,,,,,,,,,,,,,,,,,,,1,,,,,,,,,,,,,,,,,,,,,,,,,,,,,,,,,,,,,,,,,,,,,,55,152122,21,Female,1,2024/02/14_09:23:01,SD,60.08727182
,,,,,,practice,0,35,3,788,9,V,1,left,2.05134273,1,0,,,,,,,,,,,,,,,,,,,,,1,,,,,,,,,,,,,,,,,,,,,,,,,,,,,,,,,,,,,,,,,,,,,,55,152122,21,Female,1,2024/02/14_09:23:01,SD,60.08727182
,,,,,,practice,0,35,3,788,10,J,0,right,0.86101747,1,0,,,,,,,,,,,,,,,,,,,,,1,,,,,,,,,,,,,,,,,,,,,,,,,,,,,,,,,,,,,,,,,,,,,,55,152122,21,Female,1,2024/02/14_09:23:01,SD,60.08727182
,,,,,,practice,0,35,3,788,11,S,1,left,3.093498481,1,0,,,,,,,,,,,,,,,,,,,,,1,,,,,,,,,,,,,,,,,,,,,,,,,,,,,,,,,,,,,,,,,,,,,,55,152122,21,Female,1,2024/02/14_09:23:01,SD,60.08727182
,,,,,,practice,0,35,3,788,12,N,0,right,1.611275507,1,0,,,,,,,,,,,,,,,,,,,,,1,,,,,,,,,,,,,,,,,,,,,,,,,,,,,,,,,,,,,,,,,,,,,,55,152122,21,Female,1,2024/02/14_09:23:01,SD,60.08727182
,,,,,,practice,0,35,3,788,13,Q,0,right,0.751156269,1,0,,,,,,,,,,,,,,,,,,,,,1,,,,,,,,,,,,,,,,,,,,,,,,,,,,,,,,,,,,,,,,,,,,,,55,152122,21,Female,1,2024/02/14_09:23:01,SD,60.08727182
,,,,,,practice,0,35,3,788,,,,,,,,0.972222222,1,0.111111111,0.888888889,0,0.888888889,1.523813311,4,1,0,0,0,8,12,4,9,0,,,,1,,,,,,,,,,,,,,,,,,,,,,,,,,,,,,,,,,,,,,,,,,,,,,55,152122,21,Female,1,2024/02/14_09:23:01,SD,60.08727182
-1,./instructions/inst_prac_3_next/Slide49.png,left,0.995671314,842.3145328,843.3102041,,,,,,,,,,,,,,,,,,,,,,,,,,,,,,,,,1,,,,,,,,,,,,,,,,,,,,,,,,,,,,,,,,,,,,,,,,,,,,,,55,152122,21,Female,1,2024/02/14_09:23:01,SD,60.08727182
,,,,,,practice,0,27,3,202,1,J,0,right,1.510252943,1,0,,,,,,,,,,,,,,,,,,,,,1,,,,,,,,,,,,,,,,,,,,,,,,,,,,,,,,,,,,,,,,,,,,,,55,152122,21,Female,1,2024/02/14_09:23:01,SD,60.08727182
,,,,,,practice,0,27,3,202,2,J,0,right,0.486154945,1,0,,,,,,,,,,,,,,,,,,,,,1,,,,,,,,,,,,,,,,,,,,,,,,,,,,,,,,,,,,,,,,,,,,,,55,152122,21,Female,1,2024/02/14_09:23:01,SD,60.08727182
,,,,,,practice,0,27,3,202,3,X,0,right,0.573756895,1,0,,,,,,,,,,,,,,,,,,,,,1,,,,,,,,,,,,,,,,,,,,,,,,,,,,,,,,,,,,,,,,,,,,,,55,152122,21,Female,1,2024/02/14_09:23:01,SD,60.08727182
,,,,,,practice,0,27,3,202,4,J,1,left,0.531221819,1,0,,,,,,,,,,,,,,,,,,,,,1,,,,,,,,,,,,,,,,,,,,,,,,,,,,,,,,,,,,,,,,,,,,,,55,152122,21,Female,1,2024/02/14_09:23:01,SD,60.08727182
,,,,,,practice,0,27,3,202,5,J,1,left,0.874737754,1,0,,,,,,,,,,,,,,,,,,,,,1,,,,,,,,,,,,,,,,,,,,,,,,,,,,,,,,,,,,,,,,,,,,,,55,152122,21,Female,1,2024/02/14_09:23:01,SD,60.08727182
,,,,,,practice,0,27,3,202,6,V,0,right,1.138355829,1,0,,,,,,,,,,,,,,,,,,,,,1,,,,,,,,,,,,,,,,,,,,,,,,,,,,,,,,,,,,,,,,,,,,,,55,152122,21,Female,1,2024/02/14_09:23:01,SD,60.08727182
,,,,,,practice,0,27,3,202,7,V,0,right,5.784622997,1,0,,,,,,,,,,,,,,,,,,,,,1,,,,,,,,,,,,,,,,,,,,,,,,,,,,,,,,,,,,,,,,,,,,,,55,152122,21,Female,1,2024/02/14_09:23:01,SD,60.08727182
,,,,,,practice,0,27,3,202,8,F,0,right,2.520583802,1,0,,,,,,,,,,,,,,,,,,,,,1,,,,,,,,,,,,,,,,,,,,,,,,,,,,,,,,,,,,,,,,,,,,,,55,152122,21,Female,1,2024/02/14_09:23:01,SD,60.08727182
,,,,,,practice,0,27,3,202,9,V,1,left,2.223343676,1,0,,,,,,,,,,,,,,,,,,,,,1,,,,,,,,,,,,,,,,,,,,,,,,,,,,,,,,,,,,,,,,,,,,,,55,152122,21,Female,1,2024/02/14_09:23:01,SD,60.08727182
,,,,,,practice,0,27,3,202,10,S,0,right,4.152528058,1,0,,,,,,,,,,,,,,,,,,,,,1,,,,,,,,,,,,,,,,,,,,,,,,,,,,,,,,,,,,,,,,,,,,,,55,152122,21,Female,1,2024/02/14_09:23:01,SD,60.08727182
,,,,,,practice,0,27,3,202,11,F,1,left,1.291903618,1,0,,,,,,,,,,,,,,,,,,,,,1,,,,,,,,,,,,,,,,,,,,,,,,,,,,,,,,,,,,,,,,,,,,,,55,152122,21,Female,1,2024/02/14_09:23:01,SD,60.08727182
,,,,,,practice,0,27,3,202,12,S,0,right,2.204401325,1,0,,,,,,,,,,,,,,,,,,,,,1,,,,,,,,,,,,,,,,,,,,,,,,,,,,,,,,,,,,,,,,,,,,,,55,152122,21,Female,1,2024/02/14_09:23:01,SD,60.08727182
,,,,,,practice,0,27,3,202,13,X,0,right,1.182615842,1,0,,,,,,,,,,,,,,,,,,,,,1,,,,,,,,,,,,,,,,,,,,,,,,,,,,,,,,,,,,,,,,,,,,,,55,152122,21,Female,1,2024/02/14_09:23:01,SD,60.08727182
,,,,,,practice,0,27,3,202,14,F,1,left,1.530060712,1,0,,,,,,,,,,,,,,,,,,,,,1,,,,,,,,,,,,,,,,,,,,,,,,,,,,,,,,,,,,,,,,,,,,,,55,152122,21,Female,1,2024/02/14_09:23:01,SD,60.08727182
,,,,,,practice,0,27,3,202,15,Q,0,right,2.289241956,1,0,,,,,,,,,,,,,,,,,,,,,1,,,,,,,,,,,,,,,,,,,,,,,,,,,,,,,,,,,,,,,,,,,,,,55,152122,21,Female,1,2024/02/14_09:23:01,SD,60.08727182
,,,,,,practice,0,27,3,202,16,J,0,right,0.871248235,1,0,,,,,,,,,,,,,,,,,,,,,1,,,,,,,,,,,,,,,,,,,,,,,,,,,,,,,,,,,,,,,,,,,,,,55,152122,21,Female,1,2024/02/14_09:23:01,SD,60.08727182
,,,,,,practice,0,27,3,202,17,J,0,right,0.776620513,1,0,,,,,,,,,,,,,,,,,,,,,1,,,,,,,,,,,,,,,,,,,,,,,,,,,,,,,,,,,,,,,,,,,,,,55,152122,21,Female,1,2024/02/14_09:23:01,SD,60.08727182
,,,,,,practice,0,27,3,202,18,Q,1,left,1.236423083,1,0,,,,,,,,,,,,,,,,,,,,,1,,,,,,,,,,,,,,,,,,,,,,,,,,,,,,,,,,,,,,,,,,,,,,55,152122,21,Female,1,2024/02/14_09:23:01,SD,60.08727182
,,,,,,practice,0,27,3,202,19,S,0,right,0.622600134,1,0,,,,,,,,,,,,,,,,,,,,,1,,,,,,,,,,,,,,,,,,,,,,,,,,,,,,,,,,,,,,,,,,,,,,55,152122,21,Female,1,2024/02/14_09:23:01,SD,60.08727182
,,,,,,practice,0,27,3,202,20,C,0,right,1.71404608,1,0,,,,,,,,,,,,,,,,,,,,,1,,,,,,,,,,,,,,,,,,,,,,,,,,,,,,,,,,,,,,,,,,,,,,55,152122,21,Female,1,2024/02/14_09:23:01,SD,60.08727182
,,,,,,practice,0,27,3,202,21,Q,1,left,0.67199261,1,0,,,,,,,,,,,,,,,,,,,,,1,,,,,,,,,,,,,,,,,,,,,,,,,,,,,,,,,,,,,,,,,,,,,,55,152122,21,Female,1,2024/02/14_09:23:01,SD,60.08727182
,,,,,,practice,0,27,3,202,,,,,,,,1,1,0,1,0,1,1.627938706,7,0,0,0,0,14,21,7,14,0,,,,1,,,,,,,,,,,,,,,,,,,,,,,,,,,,,,,,,,,,,,,,,,,,,,55,152122,21,Female,1,2024/02/14_09:23:01,SD,60.08727182
-1,./instructions/inst_prac_3_next/Slide49.png,left,2.055031796,901.2072423,903.2622741,,,,,,,,,,,,,,,,,,,,,,,,,,,,,,,,,1,,,,,,,,,,,,,,,,,,,,,,,,,,,,,,,,,,,,,,,,,,,,,,55,152122,21,Female,1,2024/02/14_09:23:01,SD,60.08727182
,,,,,,practice,0,32,3,202,1,V,0,right,1.302735938,1,0,,,,,,,,,,,,,,,,,,,,,1,,,,,,,,,,,,,,,,,,,,,,,,,,,,,,,,,,,,,,,,,,,,,,55,152122,21,Female,1,2024/02/14_09:23:01,SD,60.08727182
,,,,,,practice,0,32,3,202,2,Q,0,right,0.622947564,1,0,,,,,,,,,,,,,,,,,,,,,1,,,,,,,,,,,,,,,,,,,,,,,,,,,,,,,,,,,,,,,,,,,,,,55,152122,21,Female,1,2024/02/14_09:23:01,SD,60.08727182
,,,,,,practice,0,32,3,202,3,X,0,right,0.600140885,1,0,,,,,,,,,,,,,,,,,,,,,1,,,,,,,,,,,,,,,,,,,,,,,,,,,,,,,,,,,,,,,,,,,,,,55,152122,21,Female,1,2024/02/14_09:23:01,SD,60.08727182
,,,,,,practice,0,32,3,202,4,Q,0,right,2.517280057,1,0,,,,,,,,,,,,,,,,,,,,,1,,,,,,,,,,,,,,,,,,,,,,,,,,,,,,,,,,,,,,,,,,,,,,55,152122,21,Female,1,2024/02/14_09:23:01,SD,60.08727182
,,,,,,practice,0,32,3,202,5,J,0,right,3.874430713,1,0,,,,,,,,,,,,,,,,,,,,,1,,,,,,,,,,,,,,,,,,,,,,,,,,,,,,,,,,,,,,,,,,,,,,55,152122,21,Female,1,2024/02/14_09:23:01,SD,60.08727182
,,,,,,practice,0,32,3,202,6,X,1,left,2.8731424,1,0,,,,,,,,,,,,,,,,,,,,,1,,,,,,,,,,,,,,,,,,,,,,,,,,,,,,,,,,,,,,,,,,,,,,55,152122,21,Female,1,2024/02/14_09:23:01,SD,60.08727182
,,,,,,practice,0,32,3,202,7,V,0,right,3.727559373,1,0,,,,,,,,,,,,,,,,,,,,,1,,,,,,,,,,,,,,,,,,,,,,,,,,,,,,,,,,,,,,,,,,,,,,55,152122,21,Female,1,2024/02/14_09:23:01,SD,60.08727182
,,,,,,practice,0,32,3,202,8,C,0,right,2.238206364,1,0,,,,,,,,,,,,,,,,,,,,,1,,,,,,,,,,,,,,,,,,,,,,,,,,,,,,,,,,,,,,,,,,,,,,55,152122,21,Female,1,2024/02/14_09:23:01,SD,60.08727182
,,,,,,practice,0,32,3,202,9,F,0,right,4.310491961,1,0,,,,,,,,,,,,,,,,,,,,,1,,,,,,,,,,,,,,,,,,,,,,,,,,,,,,,,,,,,,,,,,,,,,,55,152122,21,Female,1,2024/02/14_09:23:01,SD,60.08727182
,,,,,,practice,0,32,3,202,10,V,1,left,2.659069721,1,0,,,,,,,,,,,,,,,,,,,,,1,,,,,,,,,,,,,,,,,,,,,,,,,,,,,,,,,,,,,,,,,,,,,,55,152122,21,Female,1,2024/02/14_09:23:01,SD,60.08727182
,,,,,,practice,0,32,3,202,11,J,0,right,1.634625436,1,0,,,,,,,,,,,,,,,,,,,,,1,,,,,,,,,,,,,,,,,,,,,,,,,,,,,,,,,,,,,,,,,,,,,,55,152122,21,Female,1,2024/02/14_09:23:01,SD,60.08727182
,,,,,,practice,0,32,3,202,12,F,1,right,4.051935948,0,0,,,,,,,,,,,,,,,,,,,,,1,,,,,,,,,,,,,,,,,,,,,,,,,,,,,,,,,,,,,,,,,,,,,,55,152122,21,Female,1,2024/02/14_09:23:01,SD,60.08727182
,,,,,,practice,0,32,3,202,13,V,1,left,0.526762672,1,0,,,,,,,,,,,,,,,,,,,,,1,,,,,,,,,,,,,,,,,,,,,,,,,,,,,,,,,,,,,,,,,,,,,,55,152122,21,Female,1,2024/02/14_09:23:01,SD,60.08727182
,,,,,,practice,0,32,3,202,14,S,0,right,1.702081604,1,0,,,,,,,,,,,,,,,,,,,,,1,,,,,,,,,,,,,,,,,,,,,,,,,,,,,,,,,,,,,,,,,,,,,,55,152122,21,Female,1,2024/02/14_09:23:01,SD,60.08727182
,,,,,,practice,0,32,3,202,15,V,0,right,1.916504221,1,0,,,,,,,,,,,,,,,,,,,,,1,,,,,,,,,,,,,,,,,,,,,,,,,,,,,,,,,,,,,,,,,,,,,,55,152122,21,Female,1,2024/02/14_09:23:01,SD,60.08727182
,,,,,,practice,0,32,3,202,16,S,0,right,0.692042594,1,0,,,,,,,,,,,,,,,,,,,,,1,,,,,,,,,,,,,,,,,,,,,,,,,,,,,,,,,,,,,,,,,,,,,,55,152122,21,Female,1,2024/02/14_09:23:01,SD,60.08727182
,,,,,,practice,0,32,3,202,17,F,0,right,1.821051957,1,0,,,,,,,,,,,,,,,,,,,,,1,,,,,,,,,,,,,,,,,,,,,,,,,,,,,,,,,,,,,,,,,,,,,,55,152122,21,Female,1,2024/02/14_09:23:01,SD,60.08727182
,,,,,,practice,0,32,3,202,18,V,1,left,0.918727483,1,0,,,,,,,,,,,,,,,,,,,,,1,,,,,,,,,,,,,,,,,,,,,,,,,,,,,,,,,,,,,,,,,,,,,,55,152122,21,Female,1,2024/02/14_09:23:01,SD,60.08727182
,,,,,,practice,0,32,3,202,19,N,0,right,0.702641219,1,0,,,,,,,,,,,,,,,,,,,,,1,,,,,,,,,,,,,,,,,,,,,,,,,,,,,,,,,,,,,,,,,,,,,,55,152122,21,Female,1,2024/02/14_09:23:01,SD,60.08727182
,,,,,,practice,0,32,3,202,20,F,1,left,0.597688762,1,0,,,,,,,,,,,,,,,,,,,,,1,,,,,,,,,,,,,,,,,,,,,,,,,,,,,,,,,,,,,,,,,,,,,,55,152122,21,Female,1,2024/02/14_09:23:01,SD,60.08727182
,,,,,,practice,0,32,3,202,21,X,0,right,3.106078236,1,0,,,,,,,,,,,,,,,,,,,,,1,,,,,,,,,,,,,,,,,,,,,,,,,,,,,,,,,,,,,,,,,,,,,,55,152122,21,Female,1,2024/02/14_09:23:01,SD,60.08727182
,,,,,,practice,0,32,3,202,,,,,,,,0.958333333,0.833333333,0,1,0,1,2.018864053,5,0,0,0,0,15,20,6,15,0,,,,1,,,,,,,,,,,,,,,,,,,,,,,,,,,,,,,,,,,,,,,,,,,,,,55,152122,21,Female,1,2024/02/14_09:23:01,SD,60.08727182
1,./instructions/inst_prac_3_next/Slide49.png,right,1.397376646,969.8807071,971.2780837,,,,,,,,,,,,,,,,,,,,,,,,,,,,,,,,,1,,,,,,,,,,,,,,,,,,,,,,,,,,,,,,,,,,,,,,,,,,,,,,55,152122,21,Female,1,2024/02/14_09:23:01,SD,60.08727182
,,,,,,practice,0,32,3,202,1,V,0,right,0.665224424,1,0,,,,,,,,,,,,,,,,,,,,,1,,,,,,,,,,,,,,,,,,,,,,,,,,,,,,,,,,,,,,,,,,,,,,55,152122,21,Female,1,2024/02/14_09:23:01,SD,60.08727182
,,,,,,practice,0,32,3,202,2,Q,0,right,0.93444507,1,0,,,,,,,,,,,,,,,,,,,,,1,,,,,,,,,,,,,,,,,,,,,,,,,,,,,,,,,,,,,,,,,,,,,,55,152122,21,Female,1,2024/02/14_09:23:01,SD,60.08727182
,,,,,,practice,0,32,3,202,3,X,0,right,0.979197218,1,0,,,,,,,,,,,,,,,,,,,,,1,,,,,,,,,,,,,,,,,,,,,,,,,,,,,,,,,,,,,,,,,,,,,,55,152122,21,Female,1,2024/02/14_09:23:01,SD,60.08727182
,,,,,,practice,0,32,3,202,4,Q,0,right,0.605788036,1,0,,,,,,,,,,,,,,,,,,,,,1,,,,,,,,,,,,,,,,,,,,,,,,,,,,,,,,,,,,,,,,,,,,,,55,152122,21,Female,1,2024/02/14_09:23:01,SD,60.08727182
,,,,,,practice,0,32,3,202,5,J,0,right,1.04564253,1,0,,,,,,,,,,,,,,,,,,,,,1,,,,,,,,,,,,,,,,,,,,,,,,,,,,,,,,,,,,,,,,,,,,,,55,152122,21,Female,1,2024/02/14_09:23:01,SD,60.08727182
,,,,,,practice,0,32,3,202,6,X,1,left,0.805813152,1,0,,,,,,,,,,,,,,,,,,,,,1,,,,,,,,,,,,,,,,,,,,,,,,,,,,,,,,,,,,,,,,,,,,,,55,152122,21,Female,1,2024/02/14_09:23:01,SD,60.08727182
,,,,,,practice,0,32,3,202,7,V,0,left,4.687279587,0,0,,,,,,,,,,,,,,,,,,,,,1,,,,,,,,,,,,,,,,,,,,,,,,,,,,,,,,,,,,,,,,,,,,,,55,152122,21,Female,1,2024/02/14_09:23:01,SD,60.08727182
,,,,,,practice,0,32,3,202,8,C,0,right,3.48273525,1,0,,,,,,,,,,,,,,,,,,,,,1,,,,,,,,,,,,,,,,,,,,,,,,,,,,,,,,,,,,,,,,,,,,,,55,152122,21,Female,1,2024/02/14_09:23:01,SD,60.08727182
,,,,,,practice,0,32,3,202,9,F,0,left,1.126947141,0,0,,,,,,,,,,,,,,,,,,,,,1,,,,,,,,,,,,,,,,,,,,,,,,,,,,,,,,,,,,,,,,,,,,,,55,152122,21,Female,1,2024/02/14_09:23:01,SD,60.08727182
,,,,,,practice,0,32,3,202,10,V,1,right,3.051789328,0,0,,,,,,,,,,,,,,,,,,,,,1,,,,,,,,,,,,,,,,,,,,,,,,,,,,,,,,,,,,,,,,,,,,,,55,152122,21,Female,1,2024/02/14_09:23:01,SD,60.08727182
,,,,,,practice,0,32,3,202,11,J,0,left,2.113322389,0,0,,,,,,,,,,,,,,,,,,,,,1,,,,,,,,,,,,,,,,,,,,,,,,,,,,,,,,,,,,,,,,,,,,,,55,152122,21,Female,1,2024/02/14_09:23:01,SD,60.08727182
,,,,,,practice,0,32,3,202,12,F,1,right,4.50854326,0,0,,,,,,,,,,,,,,,,,,,,,1,,,,,,,,,,,,,,,,,,,,,,,,,,,,,,,,,,,,,,,,,,,,,,55,152122,21,Female,1,2024/02/14_09:23:01,SD,60.08727182
,,,,,,practice,0,32,3,202,13,V,1,right,3.806706052,0,0,,,,,,,,,,,,,,,,,,,,,1,,,,,,,,,,,,,,,,,,,,,,,,,,,,,,,,,,,,,,,,,,,,,,55,152122,21,Female,1,2024/02/14_09:23:01,SD,60.08727182
,,,,,,practice,0,32,3,202,14,S,0,right,0.919633311,1,0,,,,,,,,,,,,,,,,,,,,,1,,,,,,,,,,,,,,,,,,,,,,,,,,,,,,,,,,,,,,,,,,,,,,55,152122,21,Female,1,2024/02/14_09:23:01,SD,60.08727182
,,,,,,practice,0,32,3,202,15,V,0,left,0.690988326,0,0,,,,,,,,,,,,,,,,,,,,,1,,,,,,,,,,,,,,,,,,,,,,,,,,,,,,,,,,,,,,,,,,,,,,55,152122,21,Female,1,2024/02/14_09:23:01,SD,60.08727182
,,,,,,practice,0,32,3,202,16,S,0,right,1.993092388,1,0,,,,,,,,,,,,,,,,,,,,,1,,,,,,,,,,,,,,,,,,,,,,,,,,,,,,,,,,,,,,,,,,,,,,55,152122,21,Female,1,2024/02/14_09:23:01,SD,60.08727182
,,,,,,practice,0,32,3,202,17,F,0,left,2.251383608,0,0,,,,,,,,,,,,,,,,,,,,,1,,,,,,,,,,,,,,,,,,,,,,,,,,,,,,,,,,,,,,,,,,,,,,55,152122,21,Female,1,2024/02/14_09:23:01,SD,60.08727182
,,,,,,practice,0,32,3,202,18,V,1,right,2.200558312,0,0,,,,,,,,,,,,,,,,,,,,,1,,,,,,,,,,,,,,,,,,,,,,,,,,,,,,,,,,,,,,,,,,,,,,55,152122,21,Female,1,2024/02/14_09:23:01,SD,60.08727182
,,,,,,practice,0,32,3,202,19,N,0,right,1.240436343,1,0,,,,,,,,,,,,,,,,,,,,,1,,,,,,,,,,,,,,,,,,,,,,,,,,,,,,,,,,,,,,,,,,,,,,55,152122,21,Female,1,2024/02/14_09:23:01,SD,60.08727182
,,,,,,practice,0,32,3,202,20,F,1,left,3.040567946,1,0,,,,,,,,,,,,,,,,,,,,,1,,,,,,,,,,,,,,,,,,,,,,,,,,,,,,,,,,,,,,,,,,,,,,55,152122,21,Female,1,2024/02/14_09:23:01,SD,60.08727182
,,,,,,practice,0,32,3,202,21,X,0,right,1.374138231,1,0,,,,,,,,,,,,,,,,,,,,,1,,,,,,,,,,,,,,,,,,,,,,,,,,,,,,,,,,,,,,,,,,,,,,55,152122,21,Female,1,2024/02/14_09:23:01,SD,60.08727182
,,,,,,practice,0,32,3,202,,,,,,,,0.5,0.333333333,0.333333333,0.666666667,0,0.666666667,1.977344376,2,5,0,0,0,10,12,6,15,0,,,,1,,,,,,,,,,,,,,,,,,,,,,,,,,,,,,,,,,,,,,,,,,,,,,55,152122,21,Female,1,2024/02/14_09:23:01,SD,60.08727182
,,,,,,practice,0,26,3,202,1,S,0,right,1.867724471,1,0,,,,,,,,,,,,,,,,,,,,,1,,,,,,,,,,,,,,,,,,,,,,,,,,,,,,,,,,,,,,,,,,,,,,55,152122,21,Female,1,2024/02/14_09:23:01,SD,60.08727182
,,,,,,practice,0,26,3,202,2,N,0,right,1.208449007,1,0,,,,,,,,,,,,,,,,,,,,,1,,,,,,,,,,,,,,,,,,,,,,,,,,,,,,,,,,,,,,,,,,,,,,55,152122,21,Female,1,2024/02/14_09:23:01,SD,60.08727182
,,,,,,practice,0,26,3,202,3,N,0,right,0.842125102,1,0,,,,,,,,,,,,,,,,,,,,,1,,,,,,,,,,,,,,,,,,,,,,,,,,,,,,,,,,,,,,,,,,,,,,55,152122,21,Female,1,2024/02/14_09:23:01,SD,60.08727182
,,,,,,practice,0,26,3,202,4,S,1,left,0.562654235,1,0,,,,,,,,,,,,,,,,,,,,,1,,,,,,,,,,,,,,,,,,,,,,,,,,,,,,,,,,,,,,,,,,,,,,55,152122,21,Female,1,2024/02/14_09:23:01,SD,60.08727182
,,,,,,practice,0,26,3,202,5,Q,0,right,5.020462059,1,0,,,,,,,,,,,,,,,,,,,,,1,,,,,,,,,,,,,,,,,,,,,,,,,,,,,,,,,,,,,,,,,,,,,,55,152122,21,Female,1,2024/02/14_09:23:01,SD,60.08727182
,,,,,,practice,0,26,3,202,6,J,0,right,1.018268021,1,0,,,,,,,,,,,,,,,,,,,,,1,,,,,,,,,,,,,,,,,,,,,,,,,,,,,,,,,,,,,,,,,,,,,,55,152122,21,Female,1,2024/02/14_09:23:01,SD,60.08727182
,,,,,,practice,0,26,3,202,7,V,0,right,4.163706181,1,0,,,,,,,,,,,,,,,,,,,,,1,,,,,,,,,,,,,,,,,,,,,,,,,,,,,,,,,,,,,,,,,,,,,,55,152122,21,Female,1,2024/02/14_09:23:01,SD,60.08727182
,,,,,,practice,0,26,3,202,8,Q,1,right,6.340110688,0,0,,,,,,,,,,,,,,,,,,,,,1,,,,,,,,,,,,,,,,,,,,,,,,,,,,,,,,,,,,,,,,,,,,,,55,152122,21,Female,1,2024/02/14_09:23:01,SD,60.08727182
,,,,,,practice,0,26,3,202,9,J,1,left,1.517050154,1,0,,,,,,,,,,,,,,,,,,,,,1,,,,,,,,,,,,,,,,,,,,,,,,,,,,,,,,,,,,,,,,,,,,,,55,152122,21,Female,1,2024/02/14_09:23:01,SD,60.08727182
,,,,,,practice,0,26,3,202,10,F,0,right,6.703964168,1,0,,,,,,,,,,,,,,,,,,,,,1,,,,,,,,,,,,,,,,,,,,,,,,,,,,,,,,,,,,,,,,,,,,,,55,152122,21,Female,1,2024/02/14_09:23:01,SD,60.08727182
,,,,,,practice,0,26,3,202,11,Q,1,right,5.002208964,0,0,,,,,,,,,,,,,,,,,,,,,1,,,,,,,,,,,,,,,,,,,,,,,,,,,,,,,,,,,,,,,,,,,,,,55,152122,21,Female,1,2024/02/14_09:23:01,SD,60.08727182
,,,,,,practice,0,26,3,202,12,V,0,right,1.657433195,1,0,,,,,,,,,,,,,,,,,,,,,1,,,,,,,,,,,,,,,,,,,,,,,,,,,,,,,,,,,,,,,,,,,,,,55,152122,21,Female,1,2024/02/14_09:23:01,SD,60.08727182
,,,,,,practice,0,26,3,202,13,Q,0,left,0.526391395,0,0,,,,,,,,,,,,,,,,,,,,,1,,,,,,,,,,,,,,,,,,,,,,,,,,,,,,,,,,,,,,,,,,,,,,55,152122,21,Female,1,2024/02/14_09:23:01,SD,60.08727182
,,,,,,practice,0,26,3,202,14,Q,1,left,4.251328589,1,0,,,,,,,,,,,,,,,,,,,,,1,,,,,,,,,,,,,,,,,,,,,,,,,,,,,,,,,,,,,,,,,,,,,,55,152122,21,Female,1,2024/02/14_09:23:01,SD,60.08727182
,,,,,,practice,0,26,3,202,15,C,0,left,1.832661675,0,0,,,,,,,,,,,,,,,,,,,,,1,,,,,,,,,,,,,,,,,,,,,,,,,,,,,,,,,,,,,,,,,,,,,,55,152122,21,Female,1,2024/02/14_09:23:01,SD,60.08727182
,,,,,,practice,0,26,3,202,16,F,0,right,0.481346174,1,0,,,,,,,,,,,,,,,,,,,,,1,,,,,,,,,,,,,,,,,,,,,,,,,,,,,,,,,,,,,,,,,,,,,,55,152122,21,Female,1,2024/02/14_09:23:01,SD,60.08727182
,,,,,,practice,0,26,3,202,17,F,0,right,1.117959361,1,0,,,,,,,,,,,,,,,,,,,,,1,,,,,,,,,,,,,,,,,,,,,,,,,,,,,,,,,,,,,,,,,,,,,,55,152122,21,Female,1,2024/02/14_09:23:01,SD,60.08727182
,,,,,,practice,0,26,3,202,18,S,0,left,1.243559392,0,0,,,,,,,,,,,,,,,,,,,,,1,,,,,,,,,,,,,,,,,,,,,,,,,,,,,,,,,,,,,,,,,,,,,,55,152122,21,Female,1,2024/02/14_09:23:01,SD,60.08727182
,,,,,,practice,0,26,3,202,19,V,0,right,1.107632416,1,0,,,,,,,,,,,,,,,,,,,,,1,,,,,,,,,,,,,,,,,,,,,,,,,,,,,,,,,,,,,,,,,,,,,,55,152122,21,Female,1,2024/02/14_09:23:01,SD,60.08727182
,,,,,,practice,0,26,3,202,20,Q,0,right,3.006985322,1,0,,,,,,,,,,,,,,,,,,,,,1,,,,,,,,,,,,,,,,,,,,,,,,,,,,,,,,,,,,,,,,,,,,,,55,152122,21,Female,1,2024/02/14_09:23:01,SD,60.08727182
,,,,,,practice,0,26,3,202,21,S,1,left,1.559942614,1,0,,,,,,,,,,,,,,,,,,,,,1,,,,,,,,,,,,,,,,,,,,,,,,,,,,,,,,,,,,,,,,,,,,,,55,152122,21,Female,1,2024/02/14_09:23:01,SD,60.08727182
,,,,,,practice,0,26,3,202,,,,,,,,0.8,0.666666667,0.2,0.8,0,0.8,2.430093485,4,3,0,0,0,12,16,6,15,0,,,,1,,,,,,,,,,,,,,,,,,,,,,,,,,,,,,,,,,,,,,,,,,,,,,55,152122,21,Female,1,2024/02/14_09:23:01,SD,60.08727182
1,./instructions/inst_prac_main/Slide51.png,right,2.736362741,1090.717855,1093.454217,,,,,,,,,,,,,,,,,,,,,,,,,,,,,,,,,1,,,,,,,,,,,,,,,,,,,,,,,,,,,,,,,,,,,,,,,,,,,,,,55,152122,21,Female,1,2024/02/14_09:23:01,SD,60.08727182
2,./instructions/inst_prac_main/Slide52.png,right,10.81236651,1093.497824,1104.310191,,,,,,,,,,,,,,,,,,,,,,,,,,,,,,,,,1,,,,,,,,,,,,,,,,,,,,,,,,,,,,,,,,,,,,,,,,,,,,,,55,152122,21,Female,1,2024/02/14_09:23:01,SD,60.08727182
3,./instructions/inst_prac_main/Slide53.png,right,7.345804647,1104.372518,1111.718323,,,,,,,,,,,,,,,,,,,,,,,,,,,,,,,,,1,,,,,,,,,,,,,,,,,,,,,,,,,,,,,,,,,,,,,,,,,,,,,,55,152122,21,Female,1,2024/02/14_09:23:01,SD,60.08727182
4,./instructions/inst_prac_main/Slide54.png,right,8.037085189,1111.793313,1119.830398,,,,,,,,,,,,,,,,,,,,,,,,,,,,,,,,,1,,,,,,,,,,,,,,,,,,,,,,,,,,,,,,,,,,,,,,,,,,,,,,55,152122,21,Female,1,2024/02/14_09:23:01,SD,60.08727182
,,,,,,practice_main,0,1,3,202,1,X,0,None,nan,0,1,,,,,,,,,,,,,,,,,,,,,1,,,,,,,,,,,,,,,,,,,,,,,,,,,,,,,,,,,,,,,,,,,,,,55,152122,21,Female,1,2024/02/14_09:23:01,SD,60.08727182
,,,,,,practice_main,0,1,3,202,2,V,0,None,nan,0,1,,,,,,,,,,,,,,,,,,,,,1,,,,,,,,,,,,,,,,,,,,,,,,,,,,,,,,,,,,,,,,,,,,,,55,152122,21,Female,1,2024/02/14_09:23:01,SD,60.08727182
,,,,,,practice_main,0,1,3,202,3,J,0,None,nan,0,1,,,,,,,,,,,,,,,,,,,,,1,,,,,,,,,,,,,,,,,,,,,,,,,,,,,,,,,,,,,,,,,,,,,,55,152122,21,Female,1,2024/02/14_09:23:01,SD,60.08727182
,,,,,,practice_main,0,1,3,202,4,X,1,right,0.594781972,0,0,,,,,,,,,,,,,,,,,,,,,1,,,,,,,,,,,,,,,,,,,,,,,,,,,,,,,,,,,,,,,,,,,,,,55,152122,21,Female,1,2024/02/14_09:23:01,SD,60.08727182
,,,,,,practice_main,0,1,3,202,5,V,1,right,nan,0,1,,,,,,,,,,,,,,,,,,,,,1,,,,,,,,,,,,,,,,,,,,,,,,,,,,,,,,,,,,,,,,,,,,,,55,152122,21,Female,1,2024/02/14_09:23:01,SD,60.08727182
,,,,,,practice_main,0,1,3,202,6,N,0,left,0.59724171,0,0,,,,,,,,,,,,,,,,,,,,,1,,,,,,,,,,,,,,,,,,,,,,,,,,,,,,,,,,,,,,,,,,,,,,55,152122,21,Female,1,2024/02/14_09:23:01,SD,60.08727182
,,,,,,practice_main,0,1,3,202,7,X,1,left,nan,0,1,,,,,,,,,,,,,,,,,,,,,1,,,,,,,,,,,,,,,,,,,,,,,,,,,,,,,,,,,,,,,,,,,,,,55,152122,21,Female,1,2024/02/14_09:23:01,SD,60.08727182
,,,,,,practice_main,0,1,3,202,8,S,0,right,0.845332994,1,0,,,,,,,,,,,,,,,,,,,,,1,,,,,,,,,,,,,,,,,,,,,,,,,,,,,,,,,,,,,,,,,,,,,,55,152122,21,Female,1,2024/02/14_09:23:01,SD,60.08727182
,,,,,,practice_main,0,1,3,202,9,C,0,right,0.661496618,1,0,,,,,,,,,,,,,,,,,,,,,1,,,,,,,,,,,,,,,,,,,,,,,,,,,,,,,,,,,,,,,,,,,,,,55,152122,21,Female,1,2024/02/14_09:23:01,SD,60.08727182
,,,,,,practice_main,0,1,3,202,10,X,1,left,0,1,0,,,,,,,,,,,,,,,,,,,,,1,,,,,,,,,,,,,,,,,,,,,,,,,,,,,,,,,,,,,,,,,,,,,,55,152122,21,Female,1,2024/02/14_09:23:01,SD,60.08727182
,,,,,,practice_main,0,1,3,202,11,J,0,left,0.928233001,0,0,,,,,,,,,,,,,,,,,,,,,1,,,,,,,,,,,,,,,,,,,,,,,,,,,,,,,,,,,,,,,,,,,,,,55,152122,21,Female,1,2024/02/14_09:23:01,SD,60.08727182
,,,,,,practice_main,0,1,3,202,12,X,0,right,0.94587249,1,0,,,,,,,,,,,,,,,,,,,,,1,,,,,,,,,,,,,,,,,,,,,,,,,,,,,,,,,,,,,,,,,,,,,,55,152122,21,Female,1,2024/02/14_09:23:01,SD,60.08727182
,,,,,,practice_main,0,1,3,202,13,N,0,right,0.778212627,1,0,,,,,,,,,,,,,,,,,,,,,1,,,,,,,,,,,,,,,,,,,,,,,,,,,,,,,,,,,,,,,,,,,,,,55,152122,21,Female,1,2024/02/14_09:23:01,SD,60.08727182
,,,,,,practice_main,0,1,3,202,14,V,0,right,nan,0,1,,,,,,,,,,,,,,,,,,,,,1,,,,,,,,,,,,,,,,,,,,,,,,,,,,,,,,,,,,,,,,,,,,,,55,152122,21,Female,1,2024/02/14_09:23:01,SD,60.08727182
,,,,,,practice_main,0,1,3,202,15,V,0,left,0.052500332,0,0,,,,,,,,,,,,,,,,,,,,,1,,,,,,,,,,,,,,,,,,,,,,,,,,,,,,,,,,,,,,,,,,,,,,55,152122,21,Female,1,2024/02/14_09:23:01,SD,60.08727182
,,,,,,practice_main,0,1,3,202,16,N,1,left,nan,0,1,,,,,,,,,,,,,,,,,,,,,1,,,,,,,,,,,,,,,,,,,,,,,,,,,,,,,,,,,,,,,,,,,,,,55,152122,21,Female,1,2024/02/14_09:23:01,SD,60.08727182
,,,,,,practice_main,0,1,3,202,17,X,0,left,nan,0,1,,,,,,,,,,,,,,,,,,,,,1,,,,,,,,,,,,,,,,,,,,,,,,,,,,,,,,,,,,,,,,,,,,,,55,152122,21,Female,1,2024/02/14_09:23:01,SD,60.08727182
,,,,,,practice_main,0,1,3,202,18,Q,0,right,0.006065046,1,0,,,,,,,,,,,,,,,,,,,,,1,,,,,,,,,,,,,,,,,,,,,,,,,,,,,,,,,,,,,,,,,,,,,,55,152122,21,Female,1,2024/02/14_09:23:01,SD,60.08727182
,,,,,,practice_main,0,1,3,202,19,N,1,left,0,1,0,,,,,,,,,,,,,,,,,,,,,1,,,,,,,,,,,,,,,,,,,,,,,,,,,,,,,,,,,,,,,,,,,,,,55,152122,21,Female,1,2024/02/14_09:23:01,SD,60.08727182
,,,,,,practice_main,0,1,3,202,20,V,0,left,nan,0,1,,,,,,,,,,,,,,,,,,,,,1,,,,,,,,,,,,,,,,,,,,,,,,,,,,,,,,,,,,,,,,,,,,,,55,152122,21,Female,1,2024/02/14_09:23:01,SD,60.08727182
,,,,,,practice_main,0,1,3,202,21,Q,1,right,0.9443062,0,0,,,,,,,,,,,,,,,,,,,,,1,,,,,,,,,,,,,,,,,,,,,,,,,,,,,,,,,,,,,,,,,,,,,,55,152122,21,Female,1,2024/02/14_09:23:01,SD,60.08727182
,,,,,,practice_main,0,1,3,202,,,,,,,,0.580357143,0.285714286,0.214285714,0.625,0.428571429,0.357142857,0.529503582,2,3,3,6,9,5,7,7,14,0,,,,1,,,,,,,,,,,,,,,,,,,,,,,,,,,,,,,,,,,,,,,,,,,,,,55,152122,21,Female,1,2024/02/14_09:23:01,SD,60.08727182
,,,,,240214_094622,PRACTICE,0,1,3,202,,,,,,,,,,,,,,,,,,,,,,,,,,,,1,35,2,1,cue2.png,hard,A,50,0.539104518,0,1132.491639,1133.061564,,,,,,,,,,,,,,,,,,,,,,,,,,,,,,,,,,,55,152122,21,Female,1,2024/02/14_09:23:01,SD,60.08727182
,,,,,,practice_main,0,2,1,202,1,Q,0,right,0.930904632,1,0,,,,,,,,,,,,,,,,,,,,,1,,,,,,,,,,,,,,,,,,,,,,,,,,,,,,,,,,,,,,,,,,,,,,55,152122,21,Female,1,2024/02/14_09:23:01,SD,60.08727182
,,,,,,practice_main,0,2,1,202,2,V,0,right,0.728293636,1,0,,,,,,,,,,,,,,,,,,,,,1,,,,,,,,,,,,,,,,,,,,,,,,,,,,,,,,,,,,,,,,,,,,,,55,152122,21,Female,1,2024/02/14_09:23:01,SD,60.08727182
,,,,,,practice_main,0,2,1,202,3,V,1,left,0.464722138,1,0,,,,,,,,,,,,,,,,,,,,,1,,,,,,,,,,,,,,,,,,,,,,,,,,,,,,,,,,,,,,,,,,,,,,55,152122,21,Female,1,2024/02/14_09:23:01,SD,60.08727182
,,,,,,practice_main,0,2,1,202,4,N,0,right,0.862003194,1,0,,,,,,,,,,,,,,,,,,,,,1,,,,,,,,,,,,,,,,,,,,,,,,,,,,,,,,,,,,,,,,,,,,,,55,152122,21,Female,1,2024/02/14_09:23:01,SD,60.08727182
,,,,,,practice_main,0,2,1,202,5,X,0,right,0.614104047,1,0,,,,,,,,,,,,,,,,,,,,,1,,,,,,,,,,,,,,,,,,,,,,,,,,,,,,,,,,,,,,,,,,,,,,55,152122,21,Female,1,2024/02/14_09:23:01,SD,60.08727182
,,,,,,practice_main,0,2,1,202,6,X,1,left,0.545657751,1,0,,,,,,,,,,,,,,,,,,,,,1,,,,,,,,,,,,,,,,,,,,,,,,,,,,,,,,,,,,,,,,,,,,,,55,152122,21,Female,1,2024/02/14_09:23:01,SD,60.08727182
,,,,,,practice_main,0,2,1,202,7,F,0,right,0.878292184,1,0,,,,,,,,,,,,,,,,,,,,,1,,,,,,,,,,,,,,,,,,,,,,,,,,,,,,,,,,,,,,,,,,,,,,55,152122,21,Female,1,2024/02/14_09:23:01,SD,60.08727182
,,,,,,practice_main,0,2,1,202,8,F,1,left,0.678407818,1,0,,,,,,,,,,,,,,,,,,,,,1,,,,,,,,,,,,,,,,,,,,,,,,,,,,,,,,,,,,,,,,,,,,,,55,152122,21,Female,1,2024/02/14_09:23:01,SD,60.08727182
,,,,,,practice_main,0,2,1,202,9,Q,0,left,nan,0,1,,,,,,,,,,,,,,,,,,,,,1,,,,,,,,,,,,,,,,,,,,,,,,,,,,,,,,,,,,,,,,,,,,,,55,152122,21,Female,1,2024/02/14_09:23:01,SD,60.08727182
,,,,,,practice_main,0,2,1,202,10,S,0,right,0.678139188,1,0,,,,,,,,,,,,,,,,,,,,,1,,,,,,,,,,,,,,,,,,,,,,,,,,,,,,,,,,,,,,,,,,,,,,55,152122,21,Female,1,2024/02/14_09:23:01,SD,60.08727182
