Instruction,Stimulus,Key,RT,START,END,Phase,Block,TrialN,NbackLevel,ISI,LetterN,Letter,Letter_isSame,Letter_Resp,Letter_RT,Letter_Accuracy,Letter_Timeout,Trial_A_measure,Trial_HR,Trial_FAR,Trial_CDR,Trial_MSR,Trial_ACC,Trial_RT,Trial_HitsCount,Trial_FAsCount,Trial_SameNoRespCount,Trial_DiffNoRespCount,Trial_NoRespCount,Trial_CDsCount,Trial_CorrectRespCount,Trial_SameLetterCount,Trial_DiffLetterCount,Trial_InvalidLetterCount,TrialCountCali,CaliEnd_A_measure,ISI_calibrated,Run,TrialIndex,TrialNumber_total,TrialNumber_valid,CueLearning,TrialDemandLearning,CueMapping,OnlineRating,OnlineRatingRT,OnlineRatingTimeOut,CueSTART,RatingSTART,OfflineRatingTimePoint,OfflineRatingQuesIndex,CueFigure,TrialDemand,OfflineRating,OfflineRatingRT,CueStart,OfflineRatingStart,PhaseType,CueLeft,CueDemandLeft,CueRight,CueDemandRight,Choice,ChoiceDemand,TaskDemand,ChoiceRT,ChoiceTimeOut,ChoiceSTART,CueCheck,CueDemandCheck,CorrectAnswer,Answer,AnswerDemand,AnswerRT,AnswerACC,AnswerTimeOut,CheckSTART,DemandRatingQuesIndex,QuesTLX,DemandLevel,DemandRating,DemandRatingRT,QuesStart,PID,SONA,Age,Gender,Run,TIME,EXPERIMENTER,frameRate,
1,./instructions/inst_begin/Slide2.png,right,13.935474024000541,0.9541585649994886,14.88963258900003,,,,,,,,,,,,,,,,,,,,,,,,,,,,,,,,,1,,,,,,,,,,,,,,,,,,,,,,,,,,,,,,,,,,,,,,,,,,,,,,49,158959,19,Male,1,2024/02/12_14:30:35,YZ,59.90173384157369,
2,./instructions/inst_begin/Slide3.png,right,12.218678510000245,14.982762473999173,27.20144098399942,,,,,,,,,,,,,,,,,,,,,,,,,,,,,,,,,1,,,,,,,,,,,,,,,,,,,,,,,,,,,,,,,,,,,,,,,,,,,,,,49,158959,19,Male,1,2024/02/12_14:30:35,YZ,59.90173384157369,
3,./instructions/inst_begin/Slide4.png,right,19.69030713199936,27.28718320600001,46.97749033799937,,,,,,,,,,,,,,,,,,,,,,,,,,,,,,,,,1,,,,,,,,,,,,,,,,,,,,,,,,,,,,,,,,,,,,,,,,,,,,,,49,158959,19,Male,1,2024/02/12_14:30:35,YZ,59.90173384157369,
1,./instructions/inst_prac_2/Slide6.png,right,33.22882771100012,47.0845849389998,80.31341264999992,,,,,,,,,,,,,,,,,,,,,,,,,,,,,,,,,1,,,,,,,,,,,,,,,,,,,,,,,,,,,,,,,,,,,,,,,,,,,,,,49,158959,19,Male,1,2024/02/12_14:30:35,YZ,59.90173384157369,
2,./instructions/inst_prac_2/Slide7.png,right,12.091003956999884,80.44635647199993,92.53736042899982,,,,,,,,,,,,,,,,,,,,,,,,,,,,,,,,,1,,,,,,,,,,,,,,,,,,,,,,,,,,,,,,,,,,,,,,,,,,,,,,49,158959,19,Male,1,2024/02/12_14:30:35,YZ,59.90173384157369,
3,./instructions/inst_prac_2/Slide8.png,right,21.036391971999365,92.59706925899991,113.63346123099927,,,,,,,,,,,,,,,,,,,,,,,,,,,,,,,,,1,,,,,,,,,,,,,,,,,,,,,,,,,,,,,,,,,,,,,,,,,,,,,,49,158959,19,Male,1,2024/02/12_14:30:35,YZ,59.90173384157369,
4,./instructions/inst_prac_2/Slide9.png,right,3.5739760229998865,113.83561762599948,117.40959364899936,,,,,,,,,,,,,,,,,,,,,,,,,,,,,,,,,1,,,,,,,,,,,,,,,,,,,,,,,,,,,,,,,,,,,,,,,,,,,,,,49,158959,19,Male,1,2024/02/12_14:30:35,YZ,59.90173384157369,
5,./instructions/inst_prac_2/Slide10.png,right,2.3709994999999253,117.47053243799928,119.8415319379992,,,,,,,,,,,,,,,,,,,,,,,,,,,,,,,,,1,,,,,,,,,,,,,,,,,,,,,,,,,,,,,,,,,,,,,,,,,,,,,,49,158959,19,Male,1,2024/02/12_14:30:35,YZ,59.90173384157369,
6,./instructions/inst_prac_2/Slide11.png,right,1.53502137400028,119.8905226729994,121.42554404699968,,,,,,,,,,,,,,,,,,,,,,,,,,,,,,,,,1,,,,,,,,,,,,,,,,,,,,,,,,,,,,,,,,,,,,,,,,,,,,,,49,158959,19,Male,1,2024/02/12_14:30:35,YZ,59.90173384157369,
7,./instructions/inst_prac_2/Slide12.png,right,3.0465194910002538,121.46680537999964,124.5133248709999,,,,,,,,,,,,,,,,,,,,,,,,,,,,,,,,,1,,,,,,,,,,,,,,,,,,,,,,,,,,,,,,,,,,,,,,,,,,,,,,49,158959,19,Male,1,2024/02/12_14:30:35,YZ,59.90173384157369,
8,./instructions/inst_prac_2/Slide13.png,right,1.4539818910006943,124.57154961799915,126.02553150899985,,,,,,,,,,,,,,,,,,,,,,,,,,,,,,,,,1,,,,,,,,,,,,,,,,,,,,,,,,,,,,,,,,,,,,,,,,,,,,,,49,158959,19,Male,1,2024/02/12_14:30:35,YZ,59.90173384157369,
9,./instructions/inst_prac_2/Slide14.png,right,19.705800011000065,126.07978480399925,145.7855848149993,,,,,,,,,,,,,,,,,,,,,,,,,,,,,,,,,1,,,,,,,,,,,,,,,,,,,,,,,,,,,,,,,,,,,,,,,,,,,,,,49,158959,19,Male,1,2024/02/12_14:30:35,YZ,59.90173384157369,
10,./instructions/inst_prac_2/Slide15.png,right,22.29346816999987,145.89200103499934,168.1854692049992,,,,,,,,,,,,,,,,,,,,,,,,,,,,,,,,,1,,,,,,,,,,,,,,,,,,,,,,,,,,,,,,,,,,,,,,,,,,,,,,49,158959,19,Male,1,2024/02/12_14:30:35,YZ,59.90173384157369,
,,,,,,practice,0,9,2,2583,1,C,0,right,1.9773741399994833,1,0,,,,,,,,,,,,,,,,,,,,,1,,,,,,,,,,,,,,,,,,,,,,,,,,,,,,,,,,,,,,,,,,,,,,49,158959,19,Male,1,2024/02/12_14:30:35,YZ,59.90173384157369,
,,,,,,practice,0,9,2,2583,2,F,0,right,1.4298070580007334,1,0,,,,,,,,,,,,,,,,,,,,,1,,,,,,,,,,,,,,,,,,,,,,,,,,,,,,,,,,,,,,,,,,,,,,49,158959,19,Male,1,2024/02/12_14:30:35,YZ,59.90173384157369,
,,,,,,practice,0,9,2,2583,3,C,1,left,0.5848372899999958,1,0,,,,,,,,,,,,,,,,,,,,,1,,,,,,,,,,,,,,,,,,,,,,,,,,,,,,,,,,,,,,,,,,,,,,49,158959,19,Male,1,2024/02/12_14:30:35,YZ,59.90173384157369,
,,,,,,practice,0,9,2,2583,4,Q,0,right,0.6389430990002438,1,0,,,,,,,,,,,,,,,,,,,,,1,,,,,,,,,,,,,,,,,,,,,,,,,,,,,,,,,,,,,,,,,,,,,,49,158959,19,Male,1,2024/02/12_14:30:35,YZ,59.90173384157369,
,,,,,,practice,0,9,2,2583,5,N,0,right,0.9480443379998178,1,0,,,,,,,,,,,,,,,,,,,,,1,,,,,,,,,,,,,,,,,,,,,,,,,,,,,,,,,,,,,,,,,,,,,,49,158959,19,Male,1,2024/02/12_14:30:35,YZ,59.90173384157369,
,,,,,,practice,0,9,2,2583,6,Q,1,left,0.71524152100028,1,0,,,,,,,,,,,,,,,,,,,,,1,,,,,,,,,,,,,,,,,,,,,,,,,,,,,,,,,,,,,,,,,,,,,,49,158959,19,Male,1,2024/02/12_14:30:35,YZ,59.90173384157369,
,,,,,,practice,0,9,2,2583,,,,,,,,1.0,1.0,0.0,1.0,0.0,1.0,1.0490412410000924,2,0,0,0,0,4,6,2,4,0,,,,1,,,,,,,,,,,,,,,,,,,,,,,,,,,,,,,,,,,,,,,,,,,,,,49,158959,19,Male,1,2024/02/12_14:30:35,YZ,59.90173384157369,
1,./instructions/inst_to_cali/Slide20.png,right,9.035038386999986,181.08653538999988,190.12157377699987,,,,,,,,,,,,,,,,,,,,,,,,,,,,,,,,,1,,,,,,,,,,,,,,,,,,,,,,,,,,,,,,,,,,,,,,,,,,,,,,49,158959,19,Male,1,2024/02/12_14:30:35,YZ,59.90173384157369,
1,./instructions/inst_cali/Slide22.png,right,17.145786498000234,190.21574162199977,207.36152812,,,,,,,,,,,,,,,,,,,,,,,,,,,,,,,,,1,,,,,,,,,,,,,,,,,,,,,,,,,,,,,,,,,,,,,,,,,,,,,,49,158959,19,Male,1,2024/02/12_14:30:35,YZ,59.90173384157369,
,,,,,,calibration,0,25,2,583,1,N,0,right,0.5695995899995978,1,0,,,,,,,,,,,,,,,,,,,,,1,,,,,,,,,,,,,,,,,,,,,,,,,,,,,,,,,,,,,,,,,,,,,,49,158959,19,Male,1,2024/02/12_14:30:35,YZ,59.90173384157369,
,,,,,,calibration,0,25,2,583,2,X,0,right,0.5895696140005384,1,0,,,,,,,,,,,,,,,,,,,,,1,,,,,,,,,,,,,,,,,,,,,,,,,,,,,,,,,,,,,,,,,,,,,,49,158959,19,Male,1,2024/02/12_14:30:35,YZ,59.90173384157369,
,,,,,,calibration,0,25,2,583,3,S,0,right,1.5799461950000477,1,0,,,,,,,,,,,,,,,,,,,,,1,,,,,,,,,,,,,,,,,,,,,,,,,,,,,,,,,,,,,,,,,,,,,,49,158959,19,Male,1,2024/02/12_14:30:35,YZ,59.90173384157369,
,,,,,,calibration,0,25,2,583,4,V,0,right,0.7258365910001885,1,0,,,,,,,,,,,,,,,,,,,,,1,,,,,,,,,,,,,,,,,,,,,,,,,,,,,,,,,,,,,,,,,,,,,,49,158959,19,Male,1,2024/02/12_14:30:35,YZ,59.90173384157369,
,,,,,,calibration,0,25,2,583,5,C,0,left,0.487523746000079,0,0,,,,,,,,,,,,,,,,,,,,,1,,,,,,,,,,,,,,,,,,,,,,,,,,,,,,,,,,,,,,,,,,,,,,49,158959,19,Male,1,2024/02/12_14:30:35,YZ,59.90173384157369,
,,,,,,calibration,0,25,2,583,6,X,0,left,1.0109232730001168,0,0,,,,,,,,,,,,,,,,,,,,,1,,,,,,,,,,,,,,,,,,,,,,,,,,,,,,,,,,,,,,,,,,,,,,49,158959,19,Male,1,2024/02/12_14:30:35,YZ,59.90173384157369,
,,,,,,calibration,0,25,2,583,7,F,0,right,0.5135284140005751,1,0,,,,,,,,,,,,,,,,,,,,,1,,,,,,,,,,,,,,,,,,,,,,,,,,,,,,,,,,,,,,,,,,,,,,49,158959,19,Male,1,2024/02/12_14:30:35,YZ,59.90173384157369,
,,,,,,calibration,0,25,2,583,8,V,0,right,0.466517732000284,1,0,,,,,,,,,,,,,,,,,,,,,1,,,,,,,,,,,,,,,,,,,,,,,,,,,,,,,,,,,,,,,,,,,,,,49,158959,19,Male,1,2024/02/12_14:30:35,YZ,59.90173384157369,
,,,,,,calibration,0,25,2,583,9,J,0,right,0.6591358660007245,1,0,,,,,,,,,,,,,,,,,,,,,1,,,,,,,,,,,,,,,,,,,,,,,,,,,,,,,,,,,,,,,,,,,,,,49,158959,19,Male,1,2024/02/12_14:30:35,YZ,59.90173384157369,
,,,,,,calibration,0,25,2,583,10,Q,0,right,0.6280447219996859,1,0,,,,,,,,,,,,,,,,,,,,,1,,,,,,,,,,,,,,,,,,,,,,,,,,,,,,,,,,,,,,,,,,,,,,49,158959,19,Male,1,2024/02/12_14:30:35,YZ,59.90173384157369,
,,,,,,calibration,0,25,2,583,11,J,1,left,0.4127828219998264,1,0,,,,,,,,,,,,,,,,,,,,,1,,,,,,,,,,,,,,,,,,,,,,,,,,,,,,,,,,,,,,,,,,,,,,49,158959,19,Male,1,2024/02/12_14:30:35,YZ,59.90173384157369,
,,,,,,calibration,0,25,2,583,12,Q,1,right,0.3682211230006942,0,0,,,,,,,,,,,,,,,,,,,,,1,,,,,,,,,,,,,,,,,,,,,,,,,,,,,,,,,,,,,,,,,,,,,,49,158959,19,Male,1,2024/02/12_14:30:35,YZ,59.90173384157369,
,,,,,,calibration,0,25,2,583,13,X,0,left,0.7809575870005574,0,0,,,,,,,,,,,,,,,,,,,,,1,,,,,,,,,,,,,,,,,,,,,,,,,,,,,,,,,,,,,,,,,,,,,,49,158959,19,Male,1,2024/02/12_14:30:35,YZ,59.90173384157369,
,,,,,,calibration,0,25,2,583,14,Q,1,right,1.011674874000164,0,0,,,,,,,,,,,,,,,,,,,,,1,,,,,,,,,,,,,,,,,,,,,,,,,,,,,,,,,,,,,,,,,,,,,,49,158959,19,Male,1,2024/02/12_14:30:35,YZ,59.90173384157369,
,,,,,,calibration,0,25,2,583,15,X,1,right,1.8182740459997149,0,0,,,,,,,,,,,,,,,,,,,,,1,,,,,,,,,,,,,,,,,,,,,,,,,,,,,,,,,,,,,,,,,,,,,,49,158959,19,Male,1,2024/02/12_14:30:35,YZ,59.90173384157369,
,,,,,,calibration,0,25,2,583,,,,,,,,0.015151515151515138,0.25,0.2727272727272727,0.7272727272727273,0.0,0.7272727272727273,0.7748357463335196,1,3,0,0,0,8,9,4,11,0,,,,1,,,,,,,,,,,,,,,,,,,,,,,,,,,,,,,,,,,,,,,,,,,,,,49,158959,19,Male,1,2024/02/12_14:30:35,YZ,59.90173384157369,
,,,,,,Calibration,0,,2,583,,,,,,,,,,,,,,,,,,,,,,,,,1,,,1,,,,,,,,,,,,,,,,,,,,,,,,,,,,,,,,,,,,,,,,,,,,,,49,158959,19,Male,1,2024/02/12_14:30:35,YZ,59.90173384157369,
,,,,,,calibration,0,8,2,679,1,J,0,right,0.6293685030004781,1,0,,,,,,,,,,,,,,,,,,,,,1,,,,,,,,,,,,,,,,,,,,,,,,,,,,,,,,,,,,,,,,,,,,,,49,158959,19,Male,1,2024/02/12_14:30:35,YZ,59.90173384157369,
,,,,,,calibration,0,8,2,679,2,C,0,right,0.6765521440001976,1,0,,,,,,,,,,,,,,,,,,,,,1,,,,,,,,,,,,,,,,,,,,,,,,,,,,,,,,,,,,,,,,,,,,,,49,158959,19,Male,1,2024/02/12_14:30:35,YZ,59.90173384157369,
,,,,,,calibration,0,8,2,679,3,J,1,left,0.47449903300002916,1,0,,,,,,,,,,,,,,,,,,,,,1,,,,,,,,,,,,,,,,,,,,,,,,,,,,,,,,,,,,,,,,,,,,,,49,158959,19,Male,1,2024/02/12_14:30:35,YZ,59.90173384157369,
,,,,,,calibration,0,8,2,679,4,S,0,right,0.5603155249991687,1,0,,,,,,,,,,,,,,,,,,,,,1,,,,,,,,,,,,,,,,,,,,,,,,,,,,,,,,,,,,,,,,,,,,,,49,158959,19,Male,1,2024/02/12_14:30:35,YZ,59.90173384157369,
,,,,,,calibration,0,8,2,679,5,J,1,left,0.7956474149996211,1,0,,,,,,,,,,,,,,,,,,,,,1,,,,,,,,,,,,,,,,,,,,,,,,,,,,,,,,,,,,,,,,,,,,,,49,158959,19,Male,1,2024/02/12_14:30:35,YZ,59.90173384157369,
,,,,,,calibration,0,8,2,679,6,N,0,right,0.4860902270002043,1,0,,,,,,,,,,,,,,,,,,,,,1,,,,,,,,,,,,,,,,,,,,,,,,,,,,,,,,,,,,,,,,,,,,,,49,158959,19,Male,1,2024/02/12_14:30:35,YZ,59.90173384157369,
,,,,,,calibration,0,8,2,679,7,V,0,right,0.603193709000152,1,0,,,,,,,,,,,,,,,,,,,,,1,,,,,,,,,,,,,,,,,,,,,,,,,,,,,,,,,,,,,,,,,,,,,,49,158959,19,Male,1,2024/02/12_14:30:35,YZ,59.90173384157369,
,,,,,,calibration,0,8,2,679,8,F,0,right,0.5574451630000112,1,0,,,,,,,,,,,,,,,,,,,,,1,,,,,,,,,,,,,,,,,,,,,,,,,,,,,,,,,,,,,,,,,,,,,,49,158959,19,Male,1,2024/02/12_14:30:35,YZ,59.90173384157369,
,,,,,,calibration,0,8,2,679,9,C,0,right,0.5677962149993618,1,0,,,,,,,,,,,,,,,,,,,,,1,,,,,,,,,,,,,,,,,,,,,,,,,,,,,,,,,,,,,,,,,,,,,,49,158959,19,Male,1,2024/02/12_14:30:35,YZ,59.90173384157369,
,,,,,,calibration,0,8,2,679,10,X,0,right,0.47257833700041374,1,0,,,,,,,,,,,,,,,,,,,,,1,,,,,,,,,,,,,,,,,,,,,,,,,,,,,,,,,,,,,,,,,,,,,,49,158959,19,Male,1,2024/02/12_14:30:35,YZ,59.90173384157369,
,,,,,,calibration,0,8,2,679,11,C,1,left,0.5588239819999217,1,0,,,,,,,,,,,,,,,,,,,,,1,,,,,,,,,,,,,,,,,,,,,,,,,,,,,,,,,,,,,,,,,,,,,,49,158959,19,Male,1,2024/02/12_14:30:35,YZ,59.90173384157369,
,,,,,,calibration,0,8,2,679,12,N,0,right,0.42942450499958795,1,0,,,,,,,,,,,,,,,,,,,,,1,,,,,,,,,,,,,,,,,,,,,,,,,,,,,,,,,,,,,,,,,,,,,,49,158959,19,Male,1,2024/02/12_14:30:35,YZ,59.90173384157369,
,,,,,,calibration,0,8,2,679,13,X,0,right,0.5592083470000944,1,0,,,,,,,,,,,,,,,,,,,,,1,,,,,,,,,,,,,,,,,,,,,,,,,,,,,,,,,,,,,,,,,,,,,,49,158959,19,Male,1,2024/02/12_14:30:35,YZ,59.90173384157369,
,,,,,,calibration,0,8,2,679,14,N,1,left,0.5134487360001003,1,0,,,,,,,,,,,,,,,,,,,,,1,,,,,,,,,,,,,,,,,,,,,,,,,,,,,,,,,,,,,,,,,,,,,,49,158959,19,Male,1,2024/02/12_14:30:35,YZ,59.90173384157369,
,,,,,,calibration,0,8,2,679,,,,,,,,1.0,1.0,0.0,1.0,0.0,1.0,0.5631708457856673,4,0,0,0,0,10,14,4,10,0,,,,1,,,,,,,,,,,,,,,,,,,,,,,,,,,,,,,,,,,,,,,,,,,,,,49,158959,19,Male,1,2024/02/12_14:30:35,YZ,59.90173384157369,
,,,,,,Calibration,0,,2,679,,,,,,,,,,,,,,,,,,,,,,,,,2,,,1,,,,,,,,,,,,,,,,,,,,,,,,,,,,,,,,,,,,,,,,,,,,,,49,158959,19,Male,1,2024/02/12_14:30:35,YZ,59.90173384157369,
,,,,,,calibration,0,24,2,583,1,C,0,right,0.39696484000069177,1,0,,,,,,,,,,,,,,,,,,,,,1,,,,,,,,,,,,,,,,,,,,,,,,,,,,,,,,,,,,,,,,,,,,,,49,158959,19,Male,1,2024/02/12_14:30:35,YZ,59.90173384157369,
,,,,,,calibration,0,24,2,583,2,S,0,right,0.33685744299964426,1,0,,,,,,,,,,,,,,,,,,,,,1,,,,,,,,,,,,,,,,,,,,,,,,,,,,,,,,,,,,,,,,,,,,,,49,158959,19,Male,1,2024/02/12_14:30:35,YZ,59.90173384157369,
,,,,,,calibration,0,24,2,583,3,V,0,right,0.42609014400022716,1,0,,,,,,,,,,,,,,,,,,,,,1,,,,,,,,,,,,,,,,,,,,,,,,,,,,,,,,,,,,,,,,,,,,,,49,158959,19,Male,1,2024/02/12_14:30:35,YZ,59.90173384157369,
,,,,,,calibration,0,24,2,583,4,C,0,left,0.4987189919993398,0,0,,,,,,,,,,,,,,,,,,,,,1,,,,,,,,,,,,,,,,,,,,,,,,,,,,,,,,,,,,,,,,,,,,,,49,158959,19,Male,1,2024/02/12_14:30:35,YZ,59.90173384157369,
,,,,,,calibration,0,24,2,583,5,V,1,right,0.8965512110007694,0,0,,,,,,,,,,,,,,,,,,,,,1,,,,,,,,,,,,,,,,,,,,,,,,,,,,,,,,,,,,,,,,,,,,,,49,158959,19,Male,1,2024/02/12_14:30:35,YZ,59.90173384157369,
,,,,,,calibration,0,24,2,583,6,N,0,right,1.2938884229997711,1,0,,,,,,,,,,,,,,,,,,,,,1,,,,,,,,,,,,,,,,,,,,,,,,,,,,,,,,,,,,,,,,,,,,,,49,158959,19,Male,1,2024/02/12_14:30:35,YZ,59.90173384157369,
,,,,,,calibration,0,24,2,583,7,V,1,left,0.5256835620002676,1,0,,,,,,,,,,,,,,,,,,,,,1,,,,,,,,,,,,,,,,,,,,,,,,,,,,,,,,,,,,,,,,,,,,,,49,158959,19,Male,1,2024/02/12_14:30:35,YZ,59.90173384157369,
,,,,,,calibration,0,24,2,583,8,J,0,right,0.3545880709998528,1,0,,,,,,,,,,,,,,,,,,,,,1,,,,,,,,,,,,,,,,,,,,,,,,,,,,,,,,,,,,,,,,,,,,,,49,158959,19,Male,1,2024/02/12_14:30:35,YZ,59.90173384157369,
,,,,,,calibration,0,24,2,583,9,F,0,right,0.6031305920005252,1,0,,,,,,,,,,,,,,,,,,,,,1,,,,,,,,,,,,,,,,,,,,,,,,,,,,,,,,,,,,,,,,,,,,,,49,158959,19,Male,1,2024/02/12_14:30:35,YZ,59.90173384157369,
,,,,,,calibration,0,24,2,583,10,J,1,left,0.45586438099962834,1,0,,,,,,,,,,,,,,,,,,,,,1,,,,,,,,,,,,,,,,,,,,,,,,,,,,,,,,,,,,,,,,,,,,,,49,158959,19,Male,1,2024/02/12_14:30:35,YZ,59.90173384157369,
,,,,,,calibration,0,24,2,583,11,F,1,left,0.5303393909998704,1,0,,,,,,,,,,,,,,,,,,,,,1,,,,,,,,,,,,,,,,,,,,,,,,,,,,,,,,,,,,,,,,,,,,,,49,158959,19,Male,1,2024/02/12_14:30:35,YZ,59.90173384157369,
,,,,,,calibration,0,24,2,583,12,S,0,right,0.4183112560003792,1,0,,,,,,,,,,,,,,,,,,,,,1,,,,,,,,,,,,,,,,,,,,,,,,,,,,,,,,,,,,,,,,,,,,,,49,158959,19,Male,1,2024/02/12_14:30:35,YZ,59.90173384157369,
,,,,,,calibration,0,24,2,583,13,F,1,right,0.5885026720006863,0,0,,,,,,,,,,,,,,,,,,,,,1,,,,,,,,,,,,,,,,,,,,,,,,,,,,,,,,,,,,,,,,,,,,,,49,158959,19,Male,1,2024/02/12_14:30:35,YZ,59.90173384157369,
,,,,,,calibration,0,24,2,583,14,Q,0,right,0.5479349230008665,1,0,,,,,,,,,,,,,,,,,,,,,1,,,,,,,,,,,,,,,,,,,,,,,,,,,,,,,,,,,,,,,,,,,,,,49,158959,19,Male,1,2024/02/12_14:30:35,YZ,59.90173384157369,
,,,,,,calibration,0,24,2,583,15,S,0,left,0.5421159469997292,0,0,,,,,,,,,,,,,,,,,,,,,1,,,,,,,,,,,,,,,,,,,,,,,,,,,,,,,,,,,,,,,,,,,,,,49,158959,19,Male,1,2024/02/12_14:30:35,YZ,59.90173384157369,
,,,,,,calibration,0,24,2,583,,,,,,,,0.77,0.6,0.2,0.8,0.0,0.8,0.56103612320015,3,2,0,0,0,8,11,5,10,0,,,,1,,,,,,,,,,,,,,,,,,,,,,,,,,,,,,,,,,,,,,,,,,,,,,49,158959,19,Male,1,2024/02/12_14:30:35,YZ,59.90173384157369,
,,,,,,Calibration,0,,2,583,,,,,,,,,,,,,,,,,,,,,,,,,3,,,1,,,,,,,,,,,,,,,,,,,,,,,,,,,,,,,,,,,,,,,,,,,,,,49,158959,19,Male,1,2024/02/12_14:30:35,YZ,59.90173384157369,
,,,,,,calibration,0,2,2,583,1,N,0,right,1.4126199629999974,1,0,,,,,,,,,,,,,,,,,,,,,1,,,,,,,,,,,,,,,,,,,,,,,,,,,,,,,,,,,,,,,,,,,,,,49,158959,19,Male,1,2024/02/12_14:30:35,YZ,59.90173384157369,
,,,,,,calibration,0,2,2,583,2,Q,0,right,0.48850528599996323,1,0,,,,,,,,,,,,,,,,,,,,,1,,,,,,,,,,,,,,,,,,,,,,,,,,,,,,,,,,,,,,,,,,,,,,49,158959,19,Male,1,2024/02/12_14:30:35,YZ,59.90173384157369,
,,,,,,calibration,0,2,2,583,3,N,1,left,0.47883106299923384,1,0,,,,,,,,,,,,,,,,,,,,,1,,,,,,,,,,,,,,,,,,,,,,,,,,,,,,,,,,,,,,,,,,,,,,49,158959,19,Male,1,2024/02/12_14:30:35,YZ,59.90173384157369,
,,,,,,calibration,0,2,2,583,4,Q,1,left,0.48054336799941666,1,0,,,,,,,,,,,,,,,,,,,,,1,,,,,,,,,,,,,,,,,,,,,,,,,,,,,,,,,,,,,,,,,,,,,,49,158959,19,Male,1,2024/02/12_14:30:35,YZ,59.90173384157369,
,,,,,,calibration,0,2,2,583,5,C,0,right,0.4857572730006723,1,0,,,,,,,,,,,,,,,,,,,,,1,,,,,,,,,,,,,,,,,,,,,,,,,,,,,,,,,,,,,,,,,,,,,,49,158959,19,Male,1,2024/02/12_14:30:35,YZ,59.90173384157369,
,,,,,,calibration,0,2,2,583,6,S,0,right,0.6786367439999594,1,0,,,,,,,,,,,,,,,,,,,,,1,,,,,,,,,,,,,,,,,,,,,,,,,,,,,,,,,,,,,,,,,,,,,,49,158959,19,Male,1,2024/02/12_14:30:35,YZ,59.90173384157369,
,,,,,,calibration,0,2,2,583,7,J,0,left,0.5134737139997014,0,0,,,,,,,,,,,,,,,,,,,,,1,,,,,,,,,,,,,,,,,,,,,,,,,,,,,,,,,,,,,,,,,,,,,,49,158959,19,Male,1,2024/02/12_14:30:35,YZ,59.90173384157369,
,,,,,,calibration,0,2,2,583,8,X,0,right,0.5613882319994445,1,0,,,,,,,,,,,,,,,,,,,,,1,,,,,,,,,,,,,,,,,,,,,,,,,,,,,,,,,,,,,,,,,,,,,,49,158959,19,Male,1,2024/02/12_14:30:35,YZ,59.90173384157369,
,,,,,,calibration,0,2,2,583,9,S,0,right,0.497892953999326,1,0,,,,,,,,,,,,,,,,,,,,,1,,,,,,,,,,,,,,,,,,,,,,,,,,,,,,,,,,,,,,,,,,,,,,49,158959,19,Male,1,2024/02/12_14:30:35,YZ,59.90173384157369,
,,,,,,calibration,0,2,2,583,10,Q,0,left,0.7314963720000378,0,0,,,,,,,,,,,,,,,,,,,,,1,,,,,,,,,,,,,,,,,,,,,,,,,,,,,,,,,,,,,,,,,,,,,,49,158959,19,Male,1,2024/02/12_14:30:35,YZ,59.90173384157369,
,,,,,,calibration,0,2,2,583,11,S,1,left,0.5437038609998126,1,0,,,,,,,,,,,,,,,,,,,,,1,,,,,,,,,,,,,,,,,,,,,,,,,,,,,,,,,,,,,,,,,,,,,,49,158959,19,Male,1,2024/02/12_14:30:35,YZ,59.90173384157369,
,,,,,,calibration,0,2,2,583,12,X,0,right,0.4271152869996513,1,0,,,,,,,,,,,,,,,,,,,,,1,,,,,,,,,,,,,,,,,,,,,,,,,,,,,,,,,,,,,,,,,,,,,,49,158959,19,Male,1,2024/02/12_14:30:35,YZ,59.90173384157369,
,,,,,,calibration,0,2,2,583,13,S,1,left,0.5785662620000949,1,0,,,,,,,,,,,,,,,,,,,,,1,,,,,,,,,,,,,,,,,,,,,,,,,,,,,,,,,,,,,,,,,,,,,,49,158959,19,Male,1,2024/02/12_14:30:35,YZ,59.90173384157369,
,,,,,,calibration,0,2,2,583,14,N,0,right,0.41351436900004046,1,0,,,,,,,,,,,,,,,,,,,,,1,,,,,,,,,,,,,,,,,,,,,,,,,,,,,,,,,,,,,,,,,,,,,,49,158959,19,Male,1,2024/02/12_14:30:35,YZ,59.90173384157369,
,,,,,,calibration,0,2,2,583,15,S,1,left,0.5522268119993896,1,0,,,,,,,,,,,,,,,,,,,,,1,,,,,,,,,,,,,,,,,,,,,,,,,,,,,,,,,,,,,,,,,,,,,,49,158959,19,Male,1,2024/02/12_14:30:35,YZ,59.90173384157369,
,,,,,,calibration,0,2,2,583,,,,,,,,0.95,1.0,0.2,0.8,0.0,0.8,0.5896181039997828,5,2,0,0,0,8,13,5,10,0,,,,1,,,,,,,,,,,,,,,,,,,,,,,,,,,,,,,,,,,,,,,,,,,,,,49,158959,19,Male,1,2024/02/12_14:30:35,YZ,59.90173384157369,
,,,,,,Calibration,0,,2,583,,,,,,,,,,,,,,,,,,,,,,,,,4,,,1,,,,,,,,,,,,,,,,,,,,,,,,,,,,,,,,,,,,,,,,,,,,,,49,158959,19,Male,1,2024/02/12_14:30:35,YZ,59.90173384157369,
,,,,,,calibration,0,31,2,500,1,V,0,right,0.5007169079999585,1,0,,,,,,,,,,,,,,,,,,,,,1,,,,,,,,,,,,,,,,,,,,,,,,,,,,,,,,,,,,,,,,,,,,,,49,158959,19,Male,1,2024/02/12_14:30:35,YZ,59.90173384157369,
,,,,,,calibration,0,31,2,500,2,N,0,right,0.30358036199959315,1,0,,,,,,,,,,,,,,,,,,,,,1,,,,,,,,,,,,,,,,,,,,,,,,,,,,,,,,,,,,,,,,,,,,,,49,158959,19,Male,1,2024/02/12_14:30:35,YZ,59.90173384157369,
,,,,,,calibration,0,31,2,500,3,F,0,right,0.3740578450006069,1,0,,,,,,,,,,,,,,,,,,,,,1,,,,,,,,,,,,,,,,,,,,,,,,,,,,,,,,,,,,,,,,,,,,,,49,158959,19,Male,1,2024/02/12_14:30:35,YZ,59.90173384157369,
,,,,,,calibration,0,31,2,500,4,N,1,left,0.5612865929997497,1,0,,,,,,,,,,,,,,,,,,,,,1,,,,,,,,,,,,,,,,,,,,,,,,,,,,,,,,,,,,,,,,,,,,,,49,158959,19,Male,1,2024/02/12_14:30:35,YZ,59.90173384157369,
,,,,,,calibration,0,31,2,500,5,S,0,right,0.5327751790000548,1,0,,,,,,,,,,,,,,,,,,,,,1,,,,,,,,,,,,,,,,,,,,,,,,,,,,,,,,,,,,,,,,,,,,,,49,158959,19,Male,1,2024/02/12_14:30:35,YZ,59.90173384157369,
,,,,,,calibration,0,31,2,500,6,Q,0,right,0.45670803699977114,1,0,,,,,,,,,,,,,,,,,,,,,1,,,,,,,,,,,,,,,,,,,,,,,,,,,,,,,,,,,,,,,,,,,,,,49,158959,19,Male,1,2024/02/12_14:30:35,YZ,59.90173384157369,
,,,,,,calibration,0,31,2,500,7,N,0,right,0.5133911779994378,1,0,,,,,,,,,,,,,,,,,,,,,1,,,,,,,,,,,,,,,,,,,,,,,,,,,,,,,,,,,,,,,,,,,,,,49,158959,19,Male,1,2024/02/12_14:30:35,YZ,59.90173384157369,
,,,,,,calibration,0,31,2,500,8,Q,1,left,0.49302830999931757,1,0,,,,,,,,,,,,,,,,,,,,,1,,,,,,,,,,,,,,,,,,,,,,,,,,,,,,,,,,,,,,,,,,,,,,49,158959,19,Male,1,2024/02/12_14:30:35,YZ,59.90173384157369,
,,,,,,calibration,0,31,2,500,9,J,0,right,0.4962507860000187,1,0,,,,,,,,,,,,,,,,,,,,,1,,,,,,,,,,,,,,,,,,,,,,,,,,,,,,,,,,,,,,,,,,,,,,49,158959,19,Male,1,2024/02/12_14:30:35,YZ,59.90173384157369,
,,,,,,calibration,0,31,2,500,10,Q,1,left,0.5136991420004051,1,0,,,,,,,,,,,,,,,,,,,,,1,,,,,,,,,,,,,,,,,,,,,,,,,,,,,,,,,,,,,,,,,,,,,,49,158959,19,Male,1,2024/02/12_14:30:35,YZ,59.90173384157369,
,,,,,,calibration,0,31,2,500,11,J,1,right,0.4812845850001395,0,0,,,,,,,,,,,,,,,,,,,,,1,,,,,,,,,,,,,,,,,,,,,,,,,,,,,,,,,,,,,,,,,,,,,,49,158959,19,Male,1,2024/02/12_14:30:35,YZ,59.90173384157369,
,,,,,,calibration,0,31,2,500,12,X,0,right,0.8346178179999697,1,0,,,,,,,,,,,,,,,,,,,,,1,,,,,,,,,,,,,,,,,,,,,,,,,,,,,,,,,,,,,,,,,,,,,,49,158959,19,Male,1,2024/02/12_14:30:35,YZ,59.90173384157369,
,,,,,,calibration,0,31,2,500,13,S,0,right,0.36980957000014314,1,0,,,,,,,,,,,,,,,,,,,,,1,,,,,,,,,,,,,,,,,,,,,,,,,,,,,,,,,,,,,,,,,,,,,,49,158959,19,Male,1,2024/02/12_14:30:35,YZ,59.90173384157369,
,,,,,,calibration,0,31,2,500,14,Q,0,right,0.45332485399922007,1,0,,,,,,,,,,,,,,,,,,,,,1,,,,,,,,,,,,,,,,,,,,,,,,,,,,,,,,,,,,,,,,,,,,,,49,158959,19,Male,1,2024/02/12_14:30:35,YZ,59.90173384157369,
,,,,,,calibration,0,31,2,500,15,S,1,left,0.7828092119998473,1,0,,,,,,,,,,,,,,,,,,,,,1,,,,,,,,,,,,,,,,,,,,,,,,,,,,,,,,,,,,,,,,,,,,,,49,158959,19,Male,1,2024/02/12_14:30:35,YZ,59.90173384157369,
,,,,,,calibration,0,31,2,500,16,J,0,right,0.3948265649996756,1,0,,,,,,,,,,,,,,,,,,,,,1,,,,,,,,,,,,,,,,,,,,,,,,,,,,,,,,,,,,,,,,,,,,,,49,158959,19,Male,1,2024/02/12_14:30:35,YZ,59.90173384157369,
,,,,,,calibration,0,31,2,500,,,,,,,,0.95,0.8,0.0,1.0,0.0,1.0,0.5038854339998693,4,0,0,0,0,11,15,5,11,0,,,,1,,,,,,,,,,,,,,,,,,,,,,,,,,,,,,,,,,,,,,,,,,,,,,49,158959,19,Male,1,2024/02/12_14:30:35,YZ,59.90173384157369,
,,,,,,Calibration,0,,2,500,,,,,,,,,,,,,,,,,,,,,,,,,5,,,1,,,,,,,,,,,,,,,,,,,,,,,,,,,,,,,,,,,,,,,,,,,,,,49,158959,19,Male,1,2024/02/12_14:30:35,YZ,59.90173384157369,
,,,,,,calibration,0,15,2,426,1,N,0,right,0.2984952920005526,1,0,,,,,,,,,,,,,,,,,,,,,1,,,,,,,,,,,,,,,,,,,,,,,,,,,,,,,,,,,,,,,,,,,,,,49,158959,19,Male,1,2024/02/12_14:30:35,YZ,59.90173384157369,
,,,,,,calibration,0,15,2,426,2,S,0,right,0.4828582700001789,1,0,,,,,,,,,,,,,,,,,,,,,1,,,,,,,,,,,,,,,,,,,,,,,,,,,,,,,,,,,,,,,,,,,,,,49,158959,19,Male,1,2024/02/12_14:30:35,YZ,59.90173384157369,
,,,,,,calibration,0,15,2,426,3,X,0,right,0.45985229300003994,1,0,,,,,,,,,,,,,,,,,,,,,1,,,,,,,,,,,,,,,,,,,,,,,,,,,,,,,,,,,,,,,,,,,,,,49,158959,19,Male,1,2024/02/12_14:30:35,YZ,59.90173384157369,
,,,,,,calibration,0,15,2,426,4,V,0,right,0.5950791229997776,1,0,,,,,,,,,,,,,,,,,,,,,1,,,,,,,,,,,,,,,,,,,,,,,,,,,,,,,,,,,,,,,,,,,,,,49,158959,19,Male,1,2024/02/12_14:30:35,YZ,59.90173384157369,
,,,,,,calibration,0,15,2,426,5,X,1,left,0.6615873219998321,1,0,,,,,,,,,,,,,,,,,,,,,1,,,,,,,,,,,,,,,,,,,,,,,,,,,,,,,,,,,,,,,,,,,,,,49,158959,19,Male,1,2024/02/12_14:30:35,YZ,59.90173384157369,
,,,,,,calibration,0,15,2,426,6,V,1,right,0.6479817000008552,0,0,,,,,,,,,,,,,,,,,,,,,1,,,,,,,,,,,,,,,,,,,,,,,,,,,,,,,,,,,,,,,,,,,,,,49,158959,19,Male,1,2024/02/12_14:30:35,YZ,59.90173384157369,
,,,,,,calibration,0,15,2,426,7,S,0,right,0.5790090489999784,1,0,,,,,,,,,,,,,,,,,,,,,1,,,,,,,,,,,,,,,,,,,,,,,,,,,,,,,,,,,,,,,,,,,,,,49,158959,19,Male,1,2024/02/12_14:30:35,YZ,59.90173384157369,
,,,,,,calibration,0,15,2,426,8,N,0,right,0.5248098050005865,1,0,,,,,,,,,,,,,,,,,,,,,1,,,,,,,,,,,,,,,,,,,,,,,,,,,,,,,,,,,,,,,,,,,,,,49,158959,19,Male,1,2024/02/12_14:30:35,YZ,59.90173384157369,
,,,,,,calibration,0,15,2,426,9,V,0,right,0.508007766999981,1,0,,,,,,,,,,,,,,,,,,,,,1,,,,,,,,,,,,,,,,,,,,,,,,,,,,,,,,,,,,,,,,,,,,,,49,158959,19,Male,1,2024/02/12_14:30:35,YZ,59.90173384157369,
,,,,,,calibration,0,15,2,426,10,C,0,right,0.5641616420007267,1,0,,,,,,,,,,,,,,,,,,,,,1,,,,,,,,,,,,,,,,,,,,,,,,,,,,,,,,,,,,,,,,,,,,,,49,158959,19,Male,1,2024/02/12_14:30:35,YZ,59.90173384157369,
,,,,,,calibration,0,15,2,426,11,V,1,right,0.6104312149991529,0,0,,,,,,,,,,,,,,,,,,,,,1,,,,,,,,,,,,,,,,,,,,,,,,,,,,,,,,,,,,,,,,,,,,,,49,158959,19,Male,1,2024/02/12_14:30:35,YZ,59.90173384157369,
,,,,,,calibration,0,15,2,426,12,N,0,right,nan,0,1,,,,,,,,,,,,,,,,,,,,,1,,,,,,,,,,,,,,,,,,,,,,,,,,,,,,,,,,,,,,,,,,,,,,49,158959,19,Male,1,2024/02/12_14:30:35,YZ,59.90173384157369,
,,,,,,calibration,0,15,2,426,13,V,1,right,0.2695533490004891,0,0,,,,,,,,,,,,,,,,,,,,,1,,,,,,,,,,,,,,,,,,,,,,,,,,,,,,,,,,,,,,,,,,,,,,49,158959,19,Male,1,2024/02/12_14:30:35,YZ,59.90173384157369,
,,,,,,calibration,0,15,2,426,14,F,0,right,0.3734567589999642,1,0,,,,,,,,,,,,,,,,,,,,,1,,,,,,,,,,,,,,,,,,,,,,,,,,,,,,,,,,,,,,,,,,,,,,49,158959,19,Male,1,2024/02/12_14:30:35,YZ,59.90173384157369,
,,,,,,calibration,0,15,2,426,15,V,1,right,0.5610972869999387,0,0,,,,,,,,,,,,,,,,,,,,,1,,,,,,,,,,,,,,,,,,,,,,,,,,,,,,,,,,,,,,,,,,,,,,49,158959,19,Male,1,2024/02/12_14:30:35,YZ,59.90173384157369,
,,,,,,calibration,0,15,2,426,16,C,0,right,0.8641501640004208,1,0,,,,,,,,,,,,,,,,,,,,,1,,,,,,,,,,,,,,,,,,,,,,,,,,,,,,,,,,,,,,,,,,,,,,49,158959,19,Male,1,2024/02/12_14:30:35,YZ,59.90173384157369,
,,,,,,calibration,0,15,2,426,17,Q,0,right,0.49770592200002284,1,0,,,,,,,,,,,,,,,,,,,,,1,,,,,,,,,,,,,,,,,,,,,,,,,,,,,,,,,,,,,,,,,,,,,,49,158959,19,Male,1,2024/02/12_14:30:35,YZ,59.90173384157369,
,,,,,,calibration,0,15,2,426,,,,,,,,0.8,0.2,0.0,1.0,0.058823529411764705,0.9411764705882353,0.5311398099376561,1,0,0,1,1,11,12,5,12,0,,,,1,,,,,,,,,,,,,,,,,,,,,,,,,,,,,,,,,,,,,,,,,,,,,,49,158959,19,Male,1,2024/02/12_14:30:35,YZ,59.90173384157369,
,,,,,,Calibration,0,,2,426,,,,,,,,,,,,,,,,,,,,,,,,,6,,,1,,,,,,,,,,,,,,,,,,,,,,,,,,,,,,,,,,,,,,,,,,,,,,49,158959,19,Male,1,2024/02/12_14:30:35,YZ,59.90173384157369,
,,,,,,calibration,0,4,2,426,1,N,0,right,0.26706807399932586,1,0,,,,,,,,,,,,,,,,,,,,,1,,,,,,,,,,,,,,,,,,,,,,,,,,,,,,,,,,,,,,,,,,,,,,49,158959,19,Male,1,2024/02/12_14:30:35,YZ,59.90173384157369,
,,,,,,calibration,0,4,2,426,2,C,0,right,0.3753691470001286,1,0,,,,,,,,,,,,,,,,,,,,,1,,,,,,,,,,,,,,,,,,,,,,,,,,,,,,,,,,,,,,,,,,,,,,49,158959,19,Male,1,2024/02/12_14:30:35,YZ,59.90173384157369,
,,,,,,calibration,0,4,2,426,3,X,0,right,0.3968773179994969,1,0,,,,,,,,,,,,,,,,,,,,,1,,,,,,,,,,,,,,,,,,,,,,,,,,,,,,,,,,,,,,,,,,,,,,49,158959,19,Male,1,2024/02/12_14:30:35,YZ,59.90173384157369,
,,,,,,calibration,0,4,2,426,4,Q,0,right,0.5109745129993826,1,0,,,,,,,,,,,,,,,,,,,,,1,,,,,,,,,,,,,,,,,,,,,,,,,,,,,,,,,,,,,,,,,,,,,,49,158959,19,Male,1,2024/02/12_14:30:35,YZ,59.90173384157369,
,,,,,,calibration,0,4,2,426,5,F,0,right,0.4291229190002923,1,0,,,,,,,,,,,,,,,,,,,,,1,,,,,,,,,,,,,,,,,,,,,,,,,,,,,,,,,,,,,,,,,,,,,,49,158959,19,Male,1,2024/02/12_14:30:35,YZ,59.90173384157369,
,,,,,,calibration,0,4,2,426,6,S,0,right,0.45540534900010243,1,0,,,,,,,,,,,,,,,,,,,,,1,,,,,,,,,,,,,,,,,,,,,,,,,,,,,,,,,,,,,,,,,,,,,,49,158959,19,Male,1,2024/02/12_14:30:35,YZ,59.90173384157369,
,,,,,,calibration,0,4,2,426,7,F,1,left,0.6059167800003706,1,0,,,,,,,,,,,,,,,,,,,,,1,,,,,,,,,,,,,,,,,,,,,,,,,,,,,,,,,,,,,,,,,,,,,,49,158959,19,Male,1,2024/02/12_14:30:35,YZ,59.90173384157369,
,,,,,,calibration,0,4,2,426,8,S,1,left,0.42225876500015147,1,0,,,,,,,,,,,,,,,,,,,,,1,,,,,,,,,,,,,,,,,,,,,,,,,,,,,,,,,,,,,,,,,,,,,,49,158959,19,Male,1,2024/02/12_14:30:35,YZ,59.90173384157369,
,,,,,,calibration,0,4,2,426,9,Q,0,right,0.43927561700002116,1,0,,,,,,,,,,,,,,,,,,,,,1,,,,,,,,,,,,,,,,,,,,,,,,,,,,,,,,,,,,,,,,,,,,,,49,158959,19,Male,1,2024/02/12_14:30:35,YZ,59.90173384157369,
,,,,,,calibration,0,4,2,426,10,S,1,left,0.5435463940002592,1,0,,,,,,,,,,,,,,,,,,,,,1,,,,,,,,,,,,,,,,,,,,,,,,,,,,,,,,,,,,,,,,,,,,,,49,158959,19,Male,1,2024/02/12_14:30:35,YZ,59.90173384157369,
,,,,,,calibration,0,4,2,426,11,F,0,right,0.5748122659997534,1,0,,,,,,,,,,,,,,,,,,,,,1,,,,,,,,,,,,,,,,,,,,,,,,,,,,,,,,,,,,,,,,,,,,,,49,158959,19,Male,1,2024/02/12_14:30:35,YZ,59.90173384157369,
,,,,,,calibration,0,4,2,426,12,Q,0,right,0.5134588020000592,1,0,,,,,,,,,,,,,,,,,,,,,1,,,,,,,,,,,,,,,,,,,,,,,,,,,,,,,,,,,,,,,,,,,,,,49,158959,19,Male,1,2024/02/12_14:30:35,YZ,59.90173384157369,
,,,,,,calibration,0,4,2,426,13,F,1,left,0.49178298199967685,1,0,,,,,,,,,,,,,,,,,,,,,1,,,,,,,,,,,,,,,,,,,,,,,,,,,,,,,,,,,,,,,,,,,,,,49,158959,19,Male,1,2024/02/12_14:30:35,YZ,59.90173384157369,
,,,,,,calibration,0,4,2,426,14,C,0,right,0.45149706700067327,1,0,,,,,,,,,,,,,,,,,,,,,1,,,,,,,,,,,,,,,,,,,,,,,,,,,,,,,,,,,,,,,,,,,,,,49,158959,19,Male,1,2024/02/12_14:30:35,YZ,59.90173384157369,
,,,,,,calibration,0,4,2,426,15,Q,0,left,0.6137398119999489,0,0,,,,,,,,,,,,,,,,,,,,,1,,,,,,,,,,,,,,,,,,,,,,,,,,,,,,,,,,,,,,,,,,,,,,49,158959,19,Male,1,2024/02/12_14:30:35,YZ,59.90173384157369,
,,,,,,calibration,0,4,2,426,16,C,1,right,0.6623497659993518,0,0,,,,,,,,,,,,,,,,,,,,,1,,,,,,,,,,,,,,,,,,,,,,,,,,,,,,,,,,,,,,,,,,,,,,49,158959,19,Male,1,2024/02/12_14:30:35,YZ,59.90173384157369,
,,,,,,calibration,0,4,2,426,17,V,0,right,0.4701776459996836,1,0,,,,,,,,,,,,,,,,,,,,,1,,,,,,,,,,,,,,,,,,,,,,,,,,,,,,,,,,,,,,,,,,,,,,49,158959,19,Male,1,2024/02/12_14:30:35,YZ,59.90173384157369,
,,,,,,calibration,0,4,2,426,,,,,,,,0.9125000000000001,0.8,0.08333333333333333,0.9166666666666666,0.0,0.9166666666666666,0.48374313041168693,4,1,0,0,0,11,15,5,12,0,,,,1,,,,,,,,,,,,,,,,,,,,,,,,,,,,,,,,,,,,,,,,,,,,,,49,158959,19,Male,1,2024/02/12_14:30:35,YZ,59.90173384157369,
,,,,,,Calibration,0,,2,426,,,,,,,,,,,,,,,,,,,,,,,,,7,,,1,,,,,,,,,,,,,,,,,,,,,,,,,,,,,,,,,,,,,,,,,,,,,,49,158959,19,Male,1,2024/02/12_14:30:35,YZ,59.90173384157369,
,,,,,,calibration,0,34,2,361,1,F,0,right,0.34648580199973367,1,0,,,,,,,,,,,,,,,,,,,,,1,,,,,,,,,,,,,,,,,,,,,,,,,,,,,,,,,,,,,,,,,,,,,,49,158959,19,Male,1,2024/02/12_14:30:35,YZ,59.90173384157369,
,,,,,,calibration,0,34,2,361,2,C,0,right,0.3606704149997313,1,0,,,,,,,,,,,,,,,,,,,,,1,,,,,,,,,,,,,,,,,,,,,,,,,,,,,,,,,,,,,,,,,,,,,,49,158959,19,Male,1,2024/02/12_14:30:35,YZ,59.90173384157369,
,,,,,,calibration,0,34,2,361,3,V,0,right,0.5279970000001413,1,0,,,,,,,,,,,,,,,,,,,,,1,,,,,,,,,,,,,,,,,,,,,,,,,,,,,,,,,,,,,,,,,,,,,,49,158959,19,Male,1,2024/02/12_14:30:35,YZ,59.90173384157369,
,,,,,,calibration,0,34,2,361,4,X,0,right,0.5257443039999998,1,0,,,,,,,,,,,,,,,,,,,,,1,,,,,,,,,,,,,,,,,,,,,,,,,,,,,,,,,,,,,,,,,,,,,,49,158959,19,Male,1,2024/02/12_14:30:35,YZ,59.90173384157369,
,,,,,,calibration,0,34,2,361,5,V,1,right,0.4689911890000076,0,0,,,,,,,,,,,,,,,,,,,,,1,,,,,,,,,,,,,,,,,,,,,,,,,,,,,,,,,,,,,,,,,,,,,,49,158959,19,Male,1,2024/02/12_14:30:35,YZ,59.90173384157369,
,,,,,,calibration,0,34,2,361,6,N,0,right,0.6224900940005682,1,0,,,,,,,,,,,,,,,,,,,,,1,,,,,,,,,,,,,,,,,,,,,,,,,,,,,,,,,,,,,,,,,,,,,,49,158959,19,Male,1,2024/02/12_14:30:35,YZ,59.90173384157369,
,,,,,,calibration,0,34,2,361,7,V,1,left,0.39831373800006986,1,0,,,,,,,,,,,,,,,,,,,,,1,,,,,,,,,,,,,,,,,,,,,,,,,,,,,,,,,,,,,,,,,,,,,,49,158959,19,Male,1,2024/02/12_14:30:35,YZ,59.90173384157369,
,,,,,,calibration,0,34,2,361,8,N,1,left,0.4451665850001518,1,0,,,,,,,,,,,,,,,,,,,,,1,,,,,,,,,,,,,,,,,,,,,,,,,,,,,,,,,,,,,,,,,,,,,,49,158959,19,Male,1,2024/02/12_14:30:35,YZ,59.90173384157369,
,,,,,,calibration,0,34,2,361,9,J,0,right,0.34356241900059104,1,0,,,,,,,,,,,,,,,,,,,,,1,,,,,,,,,,,,,,,,,,,,,,,,,,,,,,,,,,,,,,,,,,,,,,49,158959,19,Male,1,2024/02/12_14:30:35,YZ,59.90173384157369,
,,,,,,calibration,0,34,2,361,10,V,0,left,0.5561797889995432,0,0,,,,,,,,,,,,,,,,,,,,,1,,,,,,,,,,,,,,,,,,,,,,,,,,,,,,,,,,,,,,,,,,,,,,49,158959,19,Male,1,2024/02/12_14:30:35,YZ,59.90173384157369,
,,,,,,calibration,0,34,2,361,11,C,0,right,0.49426154699995095,1,0,,,,,,,,,,,,,,,,,,,,,1,,,,,,,,,,,,,,,,,,,,,,,,,,,,,,,,,,,,,,,,,,,,,,49,158959,19,Male,1,2024/02/12_14:30:35,YZ,59.90173384157369,
,,,,,,calibration,0,34,2,361,12,V,1,right,0.473017300999345,0,0,,,,,,,,,,,,,,,,,,,,,1,,,,,,,,,,,,,,,,,,,,,,,,,,,,,,,,,,,,,,,,,,,,,,49,158959,19,Male,1,2024/02/12_14:30:35,YZ,59.90173384157369,
,,,,,,calibration,0,34,2,361,13,J,0,right,0.5134078549999685,1,0,,,,,,,,,,,,,,,,,,,,,1,,,,,,,,,,,,,,,,,,,,,,,,,,,,,,,,,,,,,,,,,,,,,,49,158959,19,Male,1,2024/02/12_14:30:35,YZ,59.90173384157369,
,,,,,,calibration,0,34,2,361,14,S,0,right,0.5138081739996778,1,0,,,,,,,,,,,,,,,,,,,,,1,,,,,,,,,,,,,,,,,,,,,,,,,,,,,,,,,,,,,,,,,,,,,,49,158959,19,Male,1,2024/02/12_14:30:35,YZ,59.90173384157369,
,,,,,,calibration,0,34,2,361,15,J,1,left,0.40701228299985814,1,0,,,,,,,,,,,,,,,,,,,,,1,,,,,,,,,,,,,,,,,,,,,,,,,,,,,,,,,,,,,,,,,,,,,,49,158959,19,Male,1,2024/02/12_14:30:35,YZ,59.90173384157369,
,,,,,,calibration,0,34,2,361,16,V,0,right,0.5243340430006356,1,0,,,,,,,,,,,,,,,,,,,,,1,,,,,,,,,,,,,,,,,,,,,,,,,,,,,,,,,,,,,,,,,,,,,,49,158959,19,Male,1,2024/02/12_14:30:35,YZ,59.90173384157369,
,,,,,,calibration,0,34,2,361,17,F,0,left,0.4878782019995924,0,0,,,,,,,,,,,,,,,,,,,,,1,,,,,,,,,,,,,,,,,,,,,,,,,,,,,,,,,,,,,,,,,,,,,,49,158959,19,Male,1,2024/02/12_14:30:35,YZ,59.90173384157369,
,,,,,,calibration,0,34,2,361,18,S,0,right,0.4389994849998402,1,0,,,,,,,,,,,,,,,,,,,,,1,,,,,,,,,,,,,,,,,,,,,,,,,,,,,,,,,,,,,,,,,,,,,,49,158959,19,Male,1,2024/02/12_14:30:35,YZ,59.90173384157369,
,,,,,,calibration,0,34,2,361,,,,,,,,0.8,0.6,0.15384615384615385,0.8461538461538461,0.0,0.8461538461538461,0.4693511236110781,3,2,0,0,0,11,14,5,13,0,,,,1,,,,,,,,,,,,,,,,,,,,,,,,,,,,,,,,,,,,,,,,,,,,,,49,158959,19,Male,1,2024/02/12_14:30:35,YZ,59.90173384157369,
,,,,,,Calibration,0,,2,361,,,,,,,,,,,,,,,,,,,,,,,,,8,,,1,,,,,,,,,,,,,,,,,,,,,,,,,,,,,,,,,,,,,,,,,,,,,,49,158959,19,Male,1,2024/02/12_14:30:35,YZ,59.90173384157369,
,,,,,,calibration,0,7,2,361,1,F,0,right,0.04703360600069573,1,0,,,,,,,,,,,,,,,,,,,,,1,,,,,,,,,,,,,,,,,,,,,,,,,,,,,,,,,,,,,,,,,,,,,,49,158959,19,Male,1,2024/02/12_14:30:35,YZ,59.90173384157369,
,,,,,,calibration,0,7,2,361,2,N,0,right,0.36579526199966494,1,0,,,,,,,,,,,,,,,,,,,,,1,,,,,,,,,,,,,,,,,,,,,,,,,,,,,,,,,,,,,,,,,,,,,,49,158959,19,Male,1,2024/02/12_14:30:35,YZ,59.90173384157369,
,,,,,,calibration,0,7,2,361,3,X,0,right,0.42629529500027274,1,0,,,,,,,,,,,,,,,,,,,,,1,,,,,,,,,,,,,,,,,,,,,,,,,,,,,,,,,,,,,,,,,,,,,,49,158959,19,Male,1,2024/02/12_14:30:35,YZ,59.90173384157369,
,,,,,,calibration,0,7,2,361,4,N,1,left,0.46027897099975235,1,0,,,,,,,,,,,,,,,,,,,,,1,,,,,,,,,,,,,,,,,,,,,,,,,,,,,,,,,,,,,,,,,,,,,,49,158959,19,Male,1,2024/02/12_14:30:35,YZ,59.90173384157369,
,,,,,,calibration,0,7,2,361,5,Q,0,right,0.5273046080001222,1,0,,,,,,,,,,,,,,,,,,,,,1,,,,,,,,,,,,,,,,,,,,,,,,,,,,,,,,,,,,,,,,,,,,,,49,158959,19,Male,1,2024/02/12_14:30:35,YZ,59.90173384157369,
,,,,,,calibration,0,7,2,361,6,S,0,left,0.5960188110002491,0,0,,,,,,,,,,,,,,,,,,,,,1,,,,,,,,,,,,,,,,,,,,,,,,,,,,,,,,,,,,,,,,,,,,,,49,158959,19,Male,1,2024/02/12_14:30:35,YZ,59.90173384157369,
,,,,,,calibration,0,7,2,361,7,Q,1,right,0.7254073610001797,0,0,,,,,,,,,,,,,,,,,,,,,1,,,,,,,,,,,,,,,,,,,,,,,,,,,,,,,,,,,,,,,,,,,,,,49,158959,19,Male,1,2024/02/12_14:30:35,YZ,59.90173384157369,
,,,,,,calibration,0,7,2,361,8,V,0,left,0.6005125669998961,0,0,,,,,,,,,,,,,,,,,,,,,1,,,,,,,,,,,,,,,,,,,,,,,,,,,,,,,,,,,,,,,,,,,,,,49,158959,19,Male,1,2024/02/12_14:30:35,YZ,59.90173384157369,
,,,,,,calibration,0,7,2,361,9,F,0,left,nan,0,1,,,,,,,,,,,,,,,,,,,,,1,,,,,,,,,,,,,,,,,,,,,,,,,,,,,,,,,,,,,,,,,,,,,,49,158959,19,Male,1,2024/02/12_14:30:35,YZ,59.90173384157369,
,,,,,,calibration,0,7,2,361,10,J,0,right,0.24159768699973938,1,0,,,,,,,,,,,,,,,,,,,,,1,,,,,,,,,,,,,,,,,,,,,,,,,,,,,,,,,,,,,,,,,,,,,,49,158959,19,Male,1,2024/02/12_14:30:35,YZ,59.90173384157369,
,,,,,,calibration,0,7,2,361,11,F,1,right,0.6430313729997579,0,0,,,,,,,,,,,,,,,,,,,,,1,,,,,,,,,,,,,,,,,,,,,,,,,,,,,,,,,,,,,,,,,,,,,,49,158959,19,Male,1,2024/02/12_14:30:35,YZ,59.90173384157369,
,,,,,,calibration,0,7,2,361,12,J,1,left,0.5611893220002457,1,0,,,,,,,,,,,,,,,,,,,,,1,,,,,,,,,,,,,,,,,,,,,,,,,,,,,,,,,,,,,,,,,,,,,,49,158959,19,Male,1,2024/02/12_14:30:35,YZ,59.90173384157369,
,,,,,,calibration,0,7,2,361,13,V,0,right,0.45673593700030324,1,0,,,,,,,,,,,,,,,,,,,,,1,,,,,,,,,,,,,,,,,,,,,,,,,,,,,,,,,,,,,,,,,,,,,,49,158959,19,Male,1,2024/02/12_14:30:35,YZ,59.90173384157369,
,,,,,,calibration,0,7,2,361,14,J,1,left,0.4226191919997291,1,0,,,,,,,,,,,,,,,,,,,,,1,,,,,,,,,,,,,,,,,,,,,,,,,,,,,,,,,,,,,,,,,,,,,,49,158959,19,Male,1,2024/02/12_14:30:35,YZ,59.90173384157369,
,,,,,,calibration,0,7,2,361,15,C,0,right,0.4327050270003383,1,0,,,,,,,,,,,,,,,,,,,,,1,,,,,,,,,,,,,,,,,,,,,,,,,,,,,,,,,,,,,,,,,,,,,,49,158959,19,Male,1,2024/02/12_14:30:35,YZ,59.90173384157369,
,,,,,,calibration,0,7,2,361,16,Q,0,left,0.4847310249997463,0,0,,,,,,,,,,,,,,,,,,,,,1,,,,,,,,,,,,,,,,,,,,,,,,,,,,,,,,,,,,,,,,,,,,,,49,158959,19,Male,1,2024/02/12_14:30:35,YZ,59.90173384157369,
,,,,,,calibration,0,7,2,361,17,J,0,right,0.4770313979997809,1,0,,,,,,,,,,,,,,,,,,,,,1,,,,,,,,,,,,,,,,,,,,,,,,,,,,,,,,,,,,,,,,,,,,,,49,158959,19,Male,1,2024/02/12_14:30:35,YZ,59.90173384157369,
,,,,,,calibration,0,7,2,361,18,V,0,right,nan,0,1,,,,,,,,,,,,,,,,,,,,,1,,,,,,,,,,,,,,,,,,,,,,,,,,,,,,,,,,,,,,,,,,,,,,49,158959,19,Male,1,2024/02/12_14:30:35,YZ,59.90173384157369,
,,,,,,calibration,0,7,2,361,,,,,,,,0.75,0.6,0.23076923076923078,0.7272727272727273,0.1111111111111111,0.658119658119658,0.4667679651250296,3,3,0,2,2,8,11,5,13,0,,,,1,,,,,,,,,,,,,,,,,,,,,,,,,,,,,,,,,,,,,,,,,,,,,,49,158959,19,Male,1,2024/02/12_14:30:35,YZ,59.90173384157369,
,,,,,,Calibration,0,,2,361,,,,,,,,,,,,,,,,,,,,,,,,,9,,,1,,,,,,,,,,,,,,,,,,,,,,,,,,,,,,,,,,,,,,,,,,,,,,49,158959,19,Male,1,2024/02/12_14:30:35,YZ,59.90173384157369,
,,,,,,calibration,0,27,2,361,1,S,0,None,nan,0,1,,,,,,,,,,,,,,,,,,,,,1,,,,,,,,,,,,,,,,,,,,,,,,,,,,,,,,,,,,,,,,,,,,,,49,158959,19,Male,1,2024/02/12_14:30:35,YZ,59.90173384157369,
,,,,,,calibration,0,27,2,361,2,Q,0,None,nan,0,1,,,,,,,,,,,,,,,,,,,,,1,,,,,,,,,,,,,,,,,,,,,,,,,,,,,,,,,,,,,,,,,,,,,,49,158959,19,Male,1,2024/02/12_14:30:35,YZ,59.90173384157369,
,,,,,,calibration,0,27,2,361,3,S,1,left,0.48340160899988405,1,0,,,,,,,,,,,,,,,,,,,,,1,,,,,,,,,,,,,,,,,,,,,,,,,,,,,,,,,,,,,,,,,,,,,,49,158959,19,Male,1,2024/02/12_14:30:35,YZ,59.90173384157369,
,,,,,,calibration,0,27,2,361,4,Q,1,left,0.3566475689995059,1,0,,,,,,,,,,,,,,,,,,,,,1,,,,,,,,,,,,,,,,,,,,,,,,,,,,,,,,,,,,,,,,,,,,,,49,158959,19,Male,1,2024/02/12_14:30:35,YZ,59.90173384157369,
,,,,,,calibration,0,27,2,361,5,J,0,right,0.45581600700006675,1,0,,,,,,,,,,,,,,,,,,,,,1,,,,,,,,,,,,,,,,,,,,,,,,,,,,,,,,,,,,,,,,,,,,,,49,158959,19,Male,1,2024/02/12_14:30:35,YZ,59.90173384157369,
,,,,,,calibration,0,27,2,361,6,F,0,right,0.5927630480000516,1,0,,,,,,,,,,,,,,,,,,,,,1,,,,,,,,,,,,,,,,,,,,,,,,,,,,,,,,,,,,,,,,,,,,,,49,158959,19,Male,1,2024/02/12_14:30:35,YZ,59.90173384157369,
,,,,,,calibration,0,27,2,361,7,Q,0,right,0.6302575259996956,1,0,,,,,,,,,,,,,,,,,,,,,1,,,,,,,,,,,,,,,,,,,,,,,,,,,,,,,,,,,,,,,,,,,,,,49,158959,19,Male,1,2024/02/12_14:30:35,YZ,59.90173384157369,
,,,,,,calibration,0,27,2,361,8,C,0,right,0.5594616809994477,1,0,,,,,,,,,,,,,,,,,,,,,1,,,,,,,,,,,,,,,,,,,,,,,,,,,,,,,,,,,,,,,,,,,,,,49,158959,19,Male,1,2024/02/12_14:30:35,YZ,59.90173384157369,
,,,,,,calibration,0,27,2,361,9,V,0,right,0.5576680690001012,1,0,,,,,,,,,,,,,,,,,,,,,1,,,,,,,,,,,,,,,,,,,,,,,,,,,,,,,,,,,,,,,,,,,,,,49,158959,19,Male,1,2024/02/12_14:30:35,YZ,59.90173384157369,
,,,,,,calibration,0,27,2,361,10,C,1,left,0.470690907000062,1,0,,,,,,,,,,,,,,,,,,,,,1,,,,,,,,,,,,,,,,,,,,,,,,,,,,,,,,,,,,,,,,,,,,,,49,158959,19,Male,1,2024/02/12_14:30:35,YZ,59.90173384157369,
,,,,,,calibration,0,27,2,361,11,Q,0,left,0.567932748000203,0,0,,,,,,,,,,,,,,,,,,,,,1,,,,,,,,,,,,,,,,,,,,,,,,,,,,,,,,,,,,,,,,,,,,,,49,158959,19,Male,1,2024/02/12_14:30:35,YZ,59.90173384157369,
,,,,,,calibration,0,27,2,361,12,C,1,left,nan,0,1,,,,,,,,,,,,,,,,,,,,,1,,,,,,,,,,,,,,,,,,,,,,,,,,,,,,,,,,,,,,,,,,,,,,49,158959,19,Male,1,2024/02/12_14:30:35,YZ,59.90173384157369,
,,,,,,calibration,0,27,2,361,13,V,0,left,nan,0,1,,,,,,,,,,,,,,,,,,,,,1,,,,,,,,,,,,,,,,,,,,,,,,,,,,,,,,,,,,,,,,,,,,,,49,158959,19,Male,1,2024/02/12_14:30:35,YZ,59.90173384157369,
,,,,,,calibration,0,27,2,361,14,J,0,right,0.32670681800027523,1,0,,,,,,,,,,,,,,,,,,,,,1,,,,,,,,,,,,,,,,,,,,,,,,,,,,,,,,,,,,,,,,,,,,,,49,158959,19,Male,1,2024/02/12_14:30:35,YZ,59.90173384157369,
,,,,,,calibration,0,27,2,361,15,V,1,right,0.3537895489998846,0,0,,,,,,,,,,,,,,,,,,,,,1,,,,,,,,,,,,,,,,,,,,,,,,,,,,,,,,,,,,,,,,,,,,,,49,158959,19,Male,1,2024/02/12_14:30:35,YZ,59.90173384157369,
,,,,,,calibration,0,27,2,361,16,J,1,left,0.7438195290005751,1,0,,,,,,,,,,,,,,,,,,,,,1,,,,,,,,,,,,,,,,,,,,,,,,,,,,,,,,,,,,,,,,,,,,,,49,158959,19,Male,1,2024/02/12_14:30:35,YZ,59.90173384157369,
,,,,,,calibration,0,27,2,361,17,C,0,right,0.5244942200006335,1,0,,,,,,,,,,,,,,,,,,,,,1,,,,,,,,,,,,,,,,,,,,,,,,,,,,,,,,,,,,,,,,,,,,,,49,158959,19,Male,1,2024/02/12_14:30:35,YZ,59.90173384157369,
,,,,,,calibration,0,27,2,361,18,Q,0,right,0.4300407439995979,1,0,,,,,,,,,,,,,,,,,,,,,1,,,,,,,,,,,,,,,,,,,,,,,,,,,,,,,,,,,,,,,,,,,,,,49,158959,19,Male,1,2024/02/12_14:30:35,YZ,59.90173384157369,
,,,,,,calibration,0,27,2,361,,,,,,,,0.8680555555555555,0.6666666666666666,0.08333333333333333,0.8888888888888888,0.2222222222222222,0.6944444444444444,0.5038207159999989,4,1,1,3,4,8,12,6,12,0,,,,1,,,,,,,,,,,,,,,,,,,,,,,,,,,,,,,,,,,,,,,,,,,,,,49,158959,19,Male,1,2024/02/12_14:30:35,YZ,59.90173384157369,
,,,,,,Calibration,0,,2,361,,,,,,,,,,,,,,,,,,,,,,,,,10,,,1,,,,,,,,,,,,,,,,,,,,,,,,,,,,,,,,,,,,,,,,,,,,,,49,158959,19,Male,1,2024/02/12_14:30:35,YZ,59.90173384157369,
,,,,,,calibration,0,27,2,303,1,N,0,None,nan,0,1,,,,,,,,,,,,,,,,,,,,,1,,,,,,,,,,,,,,,,,,,,,,,,,,,,,,,,,,,,,,,,,,,,,,49,158959,19,Male,1,2024/02/12_14:30:35,YZ,59.90173384157369,
,,,,,,calibration,0,27,2,303,2,X,0,None,nan,0,1,,,,,,,,,,,,,,,,,,,,,1,,,,,,,,,,,,,,,,,,,,,,,,,,,,,,,,,,,,,,,,,,,,,,49,158959,19,Male,1,2024/02/12_14:30:35,YZ,59.90173384157369,
,,,,,,calibration,0,27,2,303,3,Q,0,right,0.525603893999687,1,0,,,,,,,,,,,,,,,,,,,,,1,,,,,,,,,,,,,,,,,,,,,,,,,,,,,,,,,,,,,,,,,,,,,,49,158959,19,Male,1,2024/02/12_14:30:35,YZ,59.90173384157369,
,,,,,,calibration,0,27,2,303,4,X,1,left,0.6700647559991921,1,0,,,,,,,,,,,,,,,,,,,,,1,,,,,,,,,,,,,,,,,,,,,,,,,,,,,,,,,,,,,,,,,,,,,,49,158959,19,Male,1,2024/02/12_14:30:35,YZ,59.90173384157369,
,,,,,,calibration,0,27,2,303,5,S,0,right,0.48125944700041146,1,0,,,,,,,,,,,,,,,,,,,,,1,,,,,,,,,,,,,,,,,,,,,,,,,,,,,,,,,,,,,,,,,,,,,,49,158959,19,Male,1,2024/02/12_14:30:35,YZ,59.90173384157369,
,,,,,,calibration,0,27,2,303,6,X,1,left,0.8864650400000755,1,0,,,,,,,,,,,,,,,,,,,,,1,,,,,,,,,,,,,,,,,,,,,,,,,,,,,,,,,,,,,,,,,,,,,,49,158959,19,Male,1,2024/02/12_14:30:35,YZ,59.90173384157369,
,,,,,,calibration,0,27,2,303,7,S,1,left,0.5781523529994956,1,0,,,,,,,,,,,,,,,,,,,,,1,,,,,,,,,,,,,,,,,,,,,,,,,,,,,,,,,,,,,,,,,,,,,,49,158959,19,Male,1,2024/02/12_14:30:35,YZ,59.90173384157369,
,,,,,,calibration,0,27,2,303,8,F,0,right,0.48943798299933405,1,0,,,,,,,,,,,,,,,,,,,,,1,,,,,,,,,,,,,,,,,,,,,,,,,,,,,,,,,,,,,,,,,,,,,,49,158959,19,Male,1,2024/02/12_14:30:35,YZ,59.90173384157369,
,,,,,,calibration,0,27,2,303,9,V,0,right,0.7122397100001763,1,0,,,,,,,,,,,,,,,,,,,,,1,,,,,,,,,,,,,,,,,,,,,,,,,,,,,,,,,,,,,,,,,,,,,,49,158959,19,Male,1,2024/02/12_14:30:35,YZ,59.90173384157369,
,,,,,,calibration,0,27,2,303,10,Q,0,right,0.6088285979994907,1,0,,,,,,,,,,,,,,,,,,,,,1,,,,,,,,,,,,,,,,,,,,,,,,,,,,,,,,,,,,,,,,,,,,,,49,158959,19,Male,1,2024/02/12_14:30:35,YZ,59.90173384157369,
,,,,,,calibration,0,27,2,303,11,C,0,right,0.8080490120000832,1,0,,,,,,,,,,,,,,,,,,,,,1,,,,,,,,,,,,,,,,,,,,,,,,,,,,,,,,,,,,,,,,,,,,,,49,158959,19,Male,1,2024/02/12_14:30:35,YZ,59.90173384157369,
,,,,,,calibration,0,27,2,303,12,N,0,left,0.652414262000093,0,0,,,,,,,,,,,,,,,,,,,,,1,,,,,,,,,,,,,,,,,,,,,,,,,,,,,,,,,,,,,,,,,,,,,,49,158959,19,Male,1,2024/02/12_14:30:35,YZ,59.90173384157369,
,,,,,,calibration,0,27,2,303,13,F,0,right,0.4762848229993324,1,0,,,,,,,,,,,,,,,,,,,,,1,,,,,,,,,,,,,,,,,,,,,,,,,,,,,,,,,,,,,,,,,,,,,,49,158959,19,Male,1,2024/02/12_14:30:35,YZ,59.90173384157369,
,,,,,,calibration,0,27,2,303,14,S,0,right,nan,0,1,,,,,,,,,,,,,,,,,,,,,1,,,,,,,,,,,,,,,,,,,,,,,,,,,,,,,,,,,,,,,,,,,,,,49,158959,19,Male,1,2024/02/12_14:30:35,YZ,59.90173384157369,
,,,,,,calibration,0,27,2,303,15,X,0,right,nan,0,1,,,,,,,,,,,,,,,,,,,,,1,,,,,,,,,,,,,,,,,,,,,,,,,,,,,,,,,,,,,,,,,,,,,,49,158959,19,Male,1,2024/02/12_14:30:35,YZ,59.90173384157369,
,,,,,,calibration,0,27,2,303,16,V,0,right,0.513290175000293,1,0,,,,,,,,,,,,,,,,,,,,,1,,,,,,,,,,,,,,,,,,,,,,,,,,,,,,,,,,,,,,,,,,,,,,49,158959,19,Male,1,2024/02/12_14:30:35,YZ,59.90173384157369,
,,,,,,calibration,0,27,2,303,17,J,0,right,0.3160872210000889,1,0,,,,,,,,,,,,,,,,,,,,,1,,,,,,,,,,,,,,,,,,,,,,,,,,,,,,,,,,,,,,,,,,,,,,49,158959,19,Male,1,2024/02/12_14:30:35,YZ,59.90173384157369,
,,,,,,calibration,0,27,2,303,18,V,1,right,nan,0,1,,,,,,,,,,,,,,,,,,,,,1,,,,,,,,,,,,,,,,,,,,,,,,,,,,,,,,,,,,,,,,,,,,,,49,158959,19,Male,1,2024/02/12_14:30:35,YZ,59.90173384157369,
,,,,,,calibration,0,27,2,303,19,J,1,right,nan,0,1,,,,,,,,,,,,,,,,,,,,,1,,,,,,,,,,,,,,,,,,,,,,,,,,,,,,,,,,,,,,,,,,,,,,49,158959,19,Male,1,2024/02/12_14:30:35,YZ,59.90173384157369,
,,,,,,calibration,0,27,2,303,,,,,,,,0.8535714285714285,0.6,0.07142857142857142,0.9,0.3157894736842105,0.6127819548872181,0.5937059441536733,3,1,2,4,6,9,12,5,14,0,,,,1,,,,,,,,,,,,,,,,,,,,,,,,,,,,,,,,,,,,,,,,,,,,,,49,158959,19,Male,1,2024/02/12_14:30:35,YZ,59.90173384157369,
,,,,,,Calibration,0,,2,303,,,,,,,,,,,,,,,,,,,,,,,,,11,,,1,,,,,,,,,,,,,,,,,,,,,,,,,,,,,,,,,,,,,,,,,,,,,,49,158959,19,Male,1,2024/02/12_14:30:35,YZ,59.90173384157369,
,,,,,,calibration,0,19,2,250,1,V,0,None,nan,0,1,,,,,,,,,,,,,,,,,,,,,1,,,,,,,,,,,,,,,,,,,,,,,,,,,,,,,,,,,,,,,,,,,,,,49,158959,19,Male,1,2024/02/12_14:30:35,YZ,59.90173384157369,
,,,,,,calibration,0,19,2,250,2,C,0,None,nan,0,1,,,,,,,,,,,,,,,,,,,,,1,,,,,,,,,,,,,,,,,,,,,,,,,,,,,,,,,,,,,,,,,,,,,,49,158959,19,Male,1,2024/02/12_14:30:35,YZ,59.90173384157369,
,,,,,,calibration,0,19,2,250,3,N,0,None,nan,0,1,,,,,,,,,,,,,,,,,,,,,1,,,,,,,,,,,,,,,,,,,,,,,,,,,,,,,,,,,,,,,,,,,,,,49,158959,19,Male,1,2024/02/12_14:30:35,YZ,59.90173384157369,
,,,,,,calibration,0,19,2,250,4,Q,0,None,nan,0,1,,,,,,,,,,,,,,,,,,,,,1,,,,,,,,,,,,,,,,,,,,,,,,,,,,,,,,,,,,,,,,,,,,,,49,158959,19,Male,1,2024/02/12_14:30:35,YZ,59.90173384157369,
,,,,,,calibration,0,19,2,250,5,X,0,right,0.6451520350001374,1,0,,,,,,,,,,,,,,,,,,,,,1,,,,,,,,,,,,,,,,,,,,,,,,,,,,,,,,,,,,,,,,,,,,,,49,158959,19,Male,1,2024/02/12_14:30:35,YZ,59.90173384157369,
,,,,,,calibration,0,19,2,250,6,Q,1,right,0.3114102810004624,0,0,,,,,,,,,,,,,,,,,,,,,1,,,,,,,,,,,,,,,,,,,,,,,,,,,,,,,,,,,,,,,,,,,,,,49,158959,19,Male,1,2024/02/12_14:30:35,YZ,59.90173384157369,
,,,,,,calibration,0,19,2,250,7,C,0,right,0.5781840690005993,1,0,,,,,,,,,,,,,,,,,,,,,1,,,,,,,,,,,,,,,,,,,,,,,,,,,,,,,,,,,,,,,,,,,,,,49,158959,19,Male,1,2024/02/12_14:30:35,YZ,59.90173384157369,
,,,,,,calibration,0,19,2,250,8,Q,1,right,0.47787811899979715,0,0,,,,,,,,,,,,,,,,,,,,,1,,,,,,,,,,,,,,,,,,,,,,,,,,,,,,,,,,,,,,,,,,,,,,49,158959,19,Male,1,2024/02/12_14:30:35,YZ,59.90173384157369,
,,,,,,calibration,0,19,2,250,9,C,1,left,0.37908369100023265,1,0,,,,,,,,,,,,,,,,,,,,,1,,,,,,,,,,,,,,,,,,,,,,,,,,,,,,,,,,,,,,,,,,,,,,49,158959,19,Male,1,2024/02/12_14:30:35,YZ,59.90173384157369,
,,,,,,calibration,0,19,2,250,10,V,0,right,0.5110205110004244,1,0,,,,,,,,,,,,,,,,,,,,,1,,,,,,,,,,,,,,,,,,,,,,,,,,,,,,,,,,,,,,,,,,,,,,49,158959,19,Male,1,2024/02/12_14:30:35,YZ,59.90173384157369,
,,,,,,calibration,0,19,2,250,11,F,0,right,0.5632340759993895,1,0,,,,,,,,,,,,,,,,,,,,,1,,,,,,,,,,,,,,,,,,,,,,,,,,,,,,,,,,,,,,,,,,,,,,49,158959,19,Male,1,2024/02/12_14:30:35,YZ,59.90173384157369,
,,,,,,calibration,0,19,2,250,12,S,0,right,0.6230818160001945,1,0,,,,,,,,,,,,,,,,,,,,,1,,,,,,,,,,,,,,,,,,,,,,,,,,,,,,,,,,,,,,,,,,,,,,49,158959,19,Male,1,2024/02/12_14:30:35,YZ,59.90173384157369,
,,,,,,calibration,0,19,2,250,13,F,1,left,0.36019292899982247,1,0,,,,,,,,,,,,,,,,,,,,,1,,,,,,,,,,,,,,,,,,,,,,,,,,,,,,,,,,,,,,,,,,,,,,49,158959,19,Male,1,2024/02/12_14:30:35,YZ,59.90173384157369,
,,,,,,calibration,0,19,2,250,14,C,0,right,0.40299908599990886,1,0,,,,,,,,,,,,,,,,,,,,,1,,,,,,,,,,,,,,,,,,,,,,,,,,,,,,,,,,,,,,,,,,,,,,49,158959,19,Male,1,2024/02/12_14:30:35,YZ,59.90173384157369,
,,,,,,calibration,0,19,2,250,15,N,0,right,0.5768991510003616,1,0,,,,,,,,,,,,,,,,,,,,,1,,,,,,,,,,,,,,,,,,,,,,,,,,,,,,,,,,,,,,,,,,,,,,49,158959,19,Male,1,2024/02/12_14:30:35,YZ,59.90173384157369,
,,,,,,calibration,0,19,2,250,16,C,1,left,0.5260223040004348,1,0,,,,,,,,,,,,,,,,,,,,,1,,,,,,,,,,,,,,,,,,,,,,,,,,,,,,,,,,,,,,,,,,,,,,49,158959,19,Male,1,2024/02/12_14:30:35,YZ,59.90173384157369,
,,,,,,calibration,0,19,2,250,17,V,0,right,0.4541011419996721,1,0,,,,,,,,,,,,,,,,,,,,,1,,,,,,,,,,,,,,,,,,,,,,,,,,,,,,,,,,,,,,,,,,,,,,49,158959,19,Male,1,2024/02/12_14:30:35,YZ,59.90173384157369,
,,,,,,calibration,0,19,2,250,18,J,0,right,0.619994571999996,1,0,,,,,,,,,,,,,,,,,,,,,1,,,,,,,,,,,,,,,,,,,,,,,,,,,,,,,,,,,,,,,,,,,,,,49,158959,19,Male,1,2024/02/12_14:30:35,YZ,59.90173384157369,
,,,,,,calibration,0,19,2,250,19,X,0,right,0.678306019000047,1,0,,,,,,,,,,,,,,,,,,,,,1,,,,,,,,,,,,,,,,,,,,,,,,,,,,,,,,,,,,,,,,,,,,,,49,158959,19,Male,1,2024/02/12_14:30:35,YZ,59.90173384157369,
,,,,,,calibration,0,19,2,250,20,C,0,right,0.6283314689999315,1,0,,,,,,,,,,,,,,,,,,,,,1,,,,,,,,,,,,,,,,,,,,,,,,,,,,,,,,,,,,,,,,,,,,,,49,158959,19,Male,1,2024/02/12_14:30:35,YZ,59.90173384157369,
,,,,,,calibration,0,19,2,250,,,,,,,,0.9,0.6,0.0,1.0,0.2,0.8,0.5209932043750882,3,0,0,4,4,11,14,5,15,0,,,,1,,,,,,,,,,,,,,,,,,,,,,,,,,,,,,,,,,,,,,,,,,,,,,49,158959,19,Male,1,2024/02/12_14:30:35,YZ,59.90173384157369,
,,,,,,Calibration,0,,2,250,,,,,,,,,,,,,,,,,,,,,,,,,12,,,1,,,,,,,,,,,,,,,,,,,,,,,,,,,,,,,,,,,,,,,,,,,,,,49,158959,19,Male,1,2024/02/12_14:30:35,YZ,59.90173384157369,
,,,,,,calibration,0,29,2,202,1,C,0,right,0.42522428699976444,1,0,,,,,,,,,,,,,,,,,,,,,1,,,,,,,,,,,,,,,,,,,,,,,,,,,,,,,,,,,,,,,,,,,,,,49,158959,19,Male,1,2024/02/12_14:30:35,YZ,59.90173384157369,
,,,,,,calibration,0,29,2,202,2,C,0,right,nan,0,1,,,,,,,,,,,,,,,,,,,,,1,,,,,,,,,,,,,,,,,,,,,,,,,,,,,,,,,,,,,,,,,,,,,,49,158959,19,Male,1,2024/02/12_14:30:35,YZ,59.90173384157369,
,,,,,,calibration,0,29,2,202,3,C,1,left,0.7965848479998385,1,0,,,,,,,,,,,,,,,,,,,,,1,,,,,,,,,,,,,,,,,,,,,,,,,,,,,,,,,,,,,,,,,,,,,,49,158959,19,Male,1,2024/02/12_14:30:35,YZ,59.90173384157369,
,,,,,,calibration,0,29,2,202,4,X,0,right,0.7942256630003612,1,0,,,,,,,,,,,,,,,,,,,,,1,,,,,,,,,,,,,,,,,,,,,,,,,,,,,,,,,,,,,,,,,,,,,,49,158959,19,Male,1,2024/02/12_14:30:35,YZ,59.90173384157369,
,,,,,,calibration,0,29,2,202,5,C,1,left,0.36540748799961875,1,0,,,,,,,,,,,,,,,,,,,,,1,,,,,,,,,,,,,,,,,,,,,,,,,,,,,,,,,,,,,,,,,,,,,,49,158959,19,Male,1,2024/02/12_14:30:35,YZ,59.90173384157369,
,,,,,,calibration,0,29,2,202,6,Q,0,right,0.5134720510004627,1,0,,,,,,,,,,,,,,,,,,,,,1,,,,,,,,,,,,,,,,,,,,,,,,,,,,,,,,,,,,,,,,,,,,,,49,158959,19,Male,1,2024/02/12_14:30:35,YZ,59.90173384157369,
,,,,,,calibration,0,29,2,202,7,J,0,right,0.4925109240002712,1,0,,,,,,,,,,,,,,,,,,,,,1,,,,,,,,,,,,,,,,,,,,,,,,,,,,,,,,,,,,,,,,,,,,,,49,158959,19,Male,1,2024/02/12_14:30:35,YZ,59.90173384157369,
,,,,,,calibration,0,29,2,202,8,S,0,right,0.4985495990003983,1,0,,,,,,,,,,,,,,,,,,,,,1,,,,,,,,,,,,,,,,,,,,,,,,,,,,,,,,,,,,,,,,,,,,,,49,158959,19,Male,1,2024/02/12_14:30:35,YZ,59.90173384157369,
,,,,,,calibration,0,29,2,202,9,J,1,right,0.6151446740004758,0,0,,,,,,,,,,,,,,,,,,,,,1,,,,,,,,,,,,,,,,,,,,,,,,,,,,,,,,,,,,,,,,,,,,,,49,158959,19,Male,1,2024/02/12_14:30:35,YZ,59.90173384157369,
,,,,,,calibration,0,29,2,202,10,S,1,right,0.6517158080005174,0,0,,,,,,,,,,,,,,,,,,,,,1,,,,,,,,,,,,,,,,,,,,,,,,,,,,,,,,,,,,,,,,,,,,,,49,158959,19,Male,1,2024/02/12_14:30:35,YZ,59.90173384157369,
,,,,,,calibration,0,29,2,202,11,Q,0,right,0.5315167299995665,1,0,,,,,,,,,,,,,,,,,,,,,1,,,,,,,,,,,,,,,,,,,,,,,,,,,,,,,,,,,,,,,,,,,,,,49,158959,19,Male,1,2024/02/12_14:30:35,YZ,59.90173384157369,
,,,,,,calibration,0,29,2,202,12,C,0,right,0.5776469729999008,1,0,,,,,,,,,,,,,,,,,,,,,1,,,,,,,,,,,,,,,,,,,,,,,,,,,,,,,,,,,,,,,,,,,,,,49,158959,19,Male,1,2024/02/12_14:30:35,YZ,59.90173384157369,
,,,,,,calibration,0,29,2,202,13,Q,1,left,0.711790227000165,1,0,,,,,,,,,,,,,,,,,,,,,1,,,,,,,,,,,,,,,,,,,,,,,,,,,,,,,,,,,,,,,,,,,,,,49,158959,19,Male,1,2024/02/12_14:30:35,YZ,59.90173384157369,
,,,,,,calibration,0,29,2,202,14,X,0,right,0.595284138000352,1,0,,,,,,,,,,,,,,,,,,,,,1,,,,,,,,,,,,,,,,,,,,,,,,,,,,,,,,,,,,,,,,,,,,,,49,158959,19,Male,1,2024/02/12_14:30:35,YZ,59.90173384157369,
,,,,,,calibration,0,29,2,202,15,Q,1,right,nan,0,1,,,,,,,,,,,,,,,,,,,,,1,,,,,,,,,,,,,,,,,,,,,,,,,,,,,,,,,,,,,,,,,,,,,,49,158959,19,Male,1,2024/02/12_14:30:35,YZ,59.90173384157369,
,,,,,,calibration,0,29,2,202,16,X,1,left,0.5941861170003904,1,0,,,,,,,,,,,,,,,,,,,,,1,,,,,,,,,,,,,,,,,,,,,,,,,,,,,,,,,,,,,,,,,,,,,,49,158959,19,Male,1,2024/02/12_14:30:35,YZ,59.90173384157369,
,,,,,,calibration,0,29,2,202,17,C,0,right,0.4265277630001947,1,0,,,,,,,,,,,,,,,,,,,,,1,,,,,,,,,,,,,,,,,,,,,,,,,,,,,,,,,,,,,,,,,,,,,,49,158959,19,Male,1,2024/02/12_14:30:35,YZ,59.90173384157369,
,,,,,,calibration,0,29,2,202,18,V,0,right,0.6237552120001055,1,0,,,,,,,,,,,,,,,,,,,,,1,,,,,,,,,,,,,,,,,,,,,,,,,,,,,,,,,,,,,,,,,,,,,,49,158959,19,Male,1,2024/02/12_14:30:35,YZ,59.90173384157369,
,,,,,,calibration,0,29,2,202,19,S,0,right,0.46372140999937983,1,0,,,,,,,,,,,,,,,,,,,,,1,,,,,,,,,,,,,,,,,,,,,,,,,,,,,,,,,,,,,,,,,,,,,,49,158959,19,Male,1,2024/02/12_14:30:35,YZ,59.90173384157369,
,,,,,,calibration,0,29,2,202,20,N,0,right,0.5764491859999907,1,0,,,,,,,,,,,,,,,,,,,,,1,,,,,,,,,,,,,,,,,,,,,,,,,,,,,,,,,,,,,,,,,,,,,,49,158959,19,Male,1,2024/02/12_14:30:35,YZ,59.90173384157369,
,,,,,,calibration,0,29,2,202,21,C,0,right,0.5788321429999996,1,0,,,,,,,,,,,,,,,,,,,,,1,,,,,,,,,,,,,,,,,,,,,,,,,,,,,,,,,,,,,,,,,,,,,,49,158959,19,Male,1,2024/02/12_14:30:35,YZ,59.90173384157369,
,,,,,,calibration,0,29,2,202,,,,,,,,0.8928571428571428,0.5714285714285714,0.0,1.0,0.09523809523809523,0.9047619047619048,0.5701339600527239,4,0,1,1,2,13,17,7,14,0,,,,1,,,,,,,,,,,,,,,,,,,,,,,,,,,,,,,,,,,,,,,,,,,,,,49,158959,19,Male,1,2024/02/12_14:30:35,YZ,59.90173384157369,
,,,,,,Calibration,0,,2,202,,,,,,,,,,,,,,,,,,,,,,,,,13,,,1,,,,,,,,,,,,,,,,,,,,,,,,,,,,,,,,,,,,,,,,,,,,,,49,158959,19,Male,1,2024/02/12_14:30:35,YZ,59.90173384157369,
,,,,,,calibration,0,24,2,159,1,F,0,right,0.4525468430001638,1,0,,,,,,,,,,,,,,,,,,,,,1,,,,,,,,,,,,,,,,,,,,,,,,,,,,,,,,,,,,,,,,,,,,,,49,158959,19,Male,1,2024/02/12_14:30:35,YZ,59.90173384157369,
,,,,,,calibration,0,24,2,159,2,J,0,right,0.30895448499995837,1,0,,,,,,,,,,,,,,,,,,,,,1,,,,,,,,,,,,,,,,,,,,,,,,,,,,,,,,,,,,,,,,,,,,,,49,158959,19,Male,1,2024/02/12_14:30:35,YZ,59.90173384157369,
,,,,,,calibration,0,24,2,159,3,F,1,right,0.31970225700024457,0,0,,,,,,,,,,,,,,,,,,,,,1,,,,,,,,,,,,,,,,,,,,,,,,,,,,,,,,,,,,,,,,,,,,,,49,158959,19,Male,1,2024/02/12_14:30:35,YZ,59.90173384157369,
,,,,,,calibration,0,24,2,159,4,C,0,right,0.47078789600072923,1,0,,,,,,,,,,,,,,,,,,,,,1,,,,,,,,,,,,,,,,,,,,,,,,,,,,,,,,,,,,,,,,,,,,,,49,158959,19,Male,1,2024/02/12_14:30:35,YZ,59.90173384157369,
,,,,,,calibration,0,24,2,159,5,F,1,left,0.5594548029994257,1,0,,,,,,,,,,,,,,,,,,,,,1,,,,,,,,,,,,,,,,,,,,,,,,,,,,,,,,,,,,,,,,,,,,,,49,158959,19,Male,1,2024/02/12_14:30:35,YZ,59.90173384157369,
,,,,,,calibration,0,24,2,159,6,N,0,right,0.561539585999526,1,0,,,,,,,,,,,,,,,,,,,,,1,,,,,,,,,,,,,,,,,,,,,,,,,,,,,,,,,,,,,,,,,,,,,,49,158959,19,Male,1,2024/02/12_14:30:35,YZ,59.90173384157369,
,,,,,,calibration,0,24,2,159,7,F,1,left,0.5343606019996514,1,0,,,,,,,,,,,,,,,,,,,,,1,,,,,,,,,,,,,,,,,,,,,,,,,,,,,,,,,,,,,,,,,,,,,,49,158959,19,Male,1,2024/02/12_14:30:35,YZ,59.90173384157369,
,,,,,,calibration,0,24,2,159,8,S,0,right,0.4795721519994913,1,0,,,,,,,,,,,,,,,,,,,,,1,,,,,,,,,,,,,,,,,,,,,,,,,,,,,,,,,,,,,,,,,,,,,,49,158959,19,Male,1,2024/02/12_14:30:35,YZ,59.90173384157369,
,,,,,,calibration,0,24,2,159,9,F,1,left,0.5339896989999033,1,0,,,,,,,,,,,,,,,,,,,,,1,,,,,,,,,,,,,,,,,,,,,,,,,,,,,,,,,,,,,,,,,,,,,,49,158959,19,Male,1,2024/02/12_14:30:35,YZ,59.90173384157369,
,,,,,,calibration,0,24,2,159,10,S,1,right,0.6133053080002355,0,0,,,,,,,,,,,,,,,,,,,,,1,,,,,,,,,,,,,,,,,,,,,,,,,,,,,,,,,,,,,,,,,,,,,,49,158959,19,Male,1,2024/02/12_14:30:35,YZ,59.90173384157369,
,,,,,,calibration,0,24,2,159,11,J,0,right,0.7136037740001484,1,0,,,,,,,,,,,,,,,,,,,,,1,,,,,,,,,,,,,,,,,,,,,,,,,,,,,,,,,,,,,,,,,,,,,,49,158959,19,Male,1,2024/02/12_14:30:35,YZ,59.90173384157369,
,,,,,,calibration,0,24,2,159,12,F,0,left,0.4729399959996954,0,0,,,,,,,,,,,,,,,,,,,,,1,,,,,,,,,,,,,,,,,,,,,,,,,,,,,,,,,,,,,,,,,,,,,,49,158959,19,Male,1,2024/02/12_14:30:35,YZ,59.90173384157369,
,,,,,,calibration,0,24,2,159,13,J,1,right,0.6577705919999062,0,0,,,,,,,,,,,,,,,,,,,,,1,,,,,,,,,,,,,,,,,,,,,,,,,,,,,,,,,,,,,,,,,,,,,,49,158959,19,Male,1,2024/02/12_14:30:35,YZ,59.90173384157369,
,,,,,,calibration,0,24,2,159,14,N,0,right,nan,0,1,,,,,,,,,,,,,,,,,,,,,1,,,,,,,,,,,,,,,,,,,,,,,,,,,,,,,,,,,,,,,,,,,,,,49,158959,19,Male,1,2024/02/12_14:30:35,YZ,59.90173384157369,
,,,,,,calibration,0,24,2,159,15,C,0,right,nan,0,1,,,,,,,,,,,,,,,,,,,,,1,,,,,,,,,,,,,,,,,,,,,,,,,,,,,,,,,,,,,,,,,,,,,,49,158959,19,Male,1,2024/02/12_14:30:35,YZ,59.90173384157369,
,,,,,,calibration,0,24,2,159,16,V,0,right,0.08589462799955072,1,0,,,,,,,,,,,,,,,,,,,,,1,,,,,,,,,,,,,,,,,,,,,,,,,,,,,,,,,,,,,,,,,,,,,,49,158959,19,Male,1,2024/02/12_14:30:35,YZ,59.90173384157369,
,,,,,,calibration,0,24,2,159,17,F,0,right,0.5617038090003916,1,0,,,,,,,,,,,,,,,,,,,,,1,,,,,,,,,,,,,,,,,,,,,,,,,,,,,,,,,,,,,,,,,,,,,,49,158959,19,Male,1,2024/02/12_14:30:35,YZ,59.90173384157369,
,,,,,,calibration,0,24,2,159,18,Q,0,right,0.4633808750004391,1,0,,,,,,,,,,,,,,,,,,,,,1,,,,,,,,,,,,,,,,,,,,,,,,,,,,,,,,,,,,,,,,,,,,,,49,158959,19,Male,1,2024/02/12_14:30:35,YZ,59.90173384157369,
,,,,,,calibration,0,24,2,159,19,C,0,right,0.674634156999673,1,0,,,,,,,,,,,,,,,,,,,,,1,,,,,,,,,,,,,,,,,,,,,,,,,,,,,,,,,,,,,,,,,,,,,,49,158959,19,Male,1,2024/02/12_14:30:35,YZ,59.90173384157369,
,,,,,,calibration,0,24,2,159,20,Q,1,right,0.4466412379997564,0,0,,,,,,,,,,,,,,,,,,,,,1,,,,,,,,,,,,,,,,,,,,,,,,,,,,,,,,,,,,,,,,,,,,,,49,158959,19,Male,1,2024/02/12_14:30:35,YZ,59.90173384157369,
,,,,,,calibration,0,24,2,159,21,V,0,right,0.6591149329997279,1,0,,,,,,,,,,,,,,,,,,,,,1,,,,,,,,,,,,,,,,,,,,,,,,,,,,,,,,,,,,,,,,,,,,,,49,158959,19,Male,1,2024/02/12_14:30:35,YZ,59.90173384157369,
,,,,,,calibration,0,24,2,159,22,F,0,right,nan,0,1,,,,,,,,,,,,,,,,,,,,,1,,,,,,,,,,,,,,,,,,,,,,,,,,,,,,,,,,,,,,,,,,,,,,49,158959,19,Male,1,2024/02/12_14:30:35,YZ,59.90173384157369,
,,,,,,calibration,0,24,2,159,,,,,,,,0.8015873015873016,0.42857142857142855,0.06666666666666667,0.9166666666666666,0.13636363636363635,0.796969696969697,0.5036788227894009,3,1,0,3,3,11,14,7,15,0,,,,1,,,,,,,,,,,,,,,,,,,,,,,,,,,,,,,,,,,,,,,,,,,,,,49,158959,19,Male,1,2024/02/12_14:30:35,YZ,59.90173384157369,
,,,,,,Calibration,0,,2,159,,,,,,,,,,,,,,,,,,,,,,,,,14,,,1,,,,,,,,,,,,,,,,,,,,,,,,,,,,,,,,,,,,,,,,,,,,,,49,158959,19,Male,1,2024/02/12_14:30:35,YZ,59.90173384157369,
,,,,,,calibration,0,36,2,159,1,S,0,right,0.4405333459999383,1,0,,,,,,,,,,,,,,,,,,,,,1,,,,,,,,,,,,,,,,,,,,,,,,,,,,,,,,,,,,,,,,,,,,,,49,158959,19,Male,1,2024/02/12_14:30:35,YZ,59.90173384157369,
,,,,,,calibration,0,36,2,159,2,F,0,right,0.6436939020004502,1,0,,,,,,,,,,,,,,,,,,,,,1,,,,,,,,,,,,,,,,,,,,,,,,,,,,,,,,,,,,,,,,,,,,,,49,158959,19,Male,1,2024/02/12_14:30:35,YZ,59.90173384157369,
,,,,,,calibration,0,36,2,159,3,Q,0,right,0.513415117000477,1,0,,,,,,,,,,,,,,,,,,,,,1,,,,,,,,,,,,,,,,,,,,,,,,,,,,,,,,,,,,,,,,,,,,,,49,158959,19,Male,1,2024/02/12_14:30:35,YZ,59.90173384157369,
,,,,,,calibration,0,36,2,159,4,X,0,right,0.5782368120007959,1,0,,,,,,,,,,,,,,,,,,,,,1,,,,,,,,,,,,,,,,,,,,,,,,,,,,,,,,,,,,,,,,,,,,,,49,158959,19,Male,1,2024/02/12_14:30:35,YZ,59.90173384157369,
,,,,,,calibration,0,36,2,159,5,S,0,right,0.6440228769997702,1,0,,,,,,,,,,,,,,,,,,,,,1,,,,,,,,,,,,,,,,,,,,,,,,,,,,,,,,,,,,,,,,,,,,,,49,158959,19,Male,1,2024/02/12_14:30:35,YZ,59.90173384157369,
,,,,,,calibration,0,36,2,159,6,X,1,left,0.742924168999707,1,0,,,,,,,,,,,,,,,,,,,,,1,,,,,,,,,,,,,,,,,,,,,,,,,,,,,,,,,,,,,,,,,,,,,,49,158959,19,Male,1,2024/02/12_14:30:35,YZ,59.90173384157369,
,,,,,,calibration,0,36,2,159,7,F,0,right,0.6803190769996945,1,0,,,,,,,,,,,,,,,,,,,,,1,,,,,,,,,,,,,,,,,,,,,,,,,,,,,,,,,,,,,,,,,,,,,,49,158959,19,Male,1,2024/02/12_14:30:35,YZ,59.90173384157369,
,,,,,,calibration,0,36,2,159,8,J,0,right,0.5248387009996804,1,0,,,,,,,,,,,,,,,,,,,,,1,,,,,,,,,,,,,,,,,,,,,,,,,,,,,,,,,,,,,,,,,,,,,,49,158959,19,Male,1,2024/02/12_14:30:35,YZ,59.90173384157369,
,,,,,,calibration,0,36,2,159,9,F,1,left,0.42812417799996183,1,0,,,,,,,,,,,,,,,,,,,,,1,,,,,,,,,,,,,,,,,,,,,,,,,,,,,,,,,,,,,,,,,,,,,,49,158959,19,Male,1,2024/02/12_14:30:35,YZ,59.90173384157369,
,,,,,,calibration,0,36,2,159,10,C,0,right,0.5774030669999775,1,0,,,,,,,,,,,,,,,,,,,,,1,,,,,,,,,,,,,,,,,,,,,,,,,,,,,,,,,,,,,,,,,,,,,,49,158959,19,Male,1,2024/02/12_14:30:35,YZ,59.90173384157369,
,,,,,,calibration,0,36,2,159,11,Q,0,right,0.8284911430000648,1,0,,,,,,,,,,,,,,,,,,,,,1,,,,,,,,,,,,,,,,,,,,,,,,,,,,,,,,,,,,,,,,,,,,,,49,158959,19,Male,1,2024/02/12_14:30:35,YZ,59.90173384157369,
,,,,,,calibration,0,36,2,159,12,N,0,right,0.7109560680000868,1,0,,,,,,,,,,,,,,,,,,,,,1,,,,,,,,,,,,,,,,,,,,,,,,,,,,,,,,,,,,,,,,,,,,,,49,158959,19,Male,1,2024/02/12_14:30:35,YZ,59.90173384157369,
,,,,,,calibration,0,36,2,159,13,Q,1,left,0.9643562080000265,1,0,,,,,,,,,,,,,,,,,,,,,1,,,,,,,,,,,,,,,,,,,,,,,,,,,,,,,,,,,,,,,,,,,,,,49,158959,19,Male,1,2024/02/12_14:30:35,YZ,59.90173384157369,
,,,,,,calibration,0,36,2,159,14,V,0,right,0.7150688430001537,1,0,,,,,,,,,,,,,,,,,,,,,1,,,,,,,,,,,,,,,,,,,,,,,,,,,,,,,,,,,,,,,,,,,,,,49,158959,19,Male,1,2024/02/12_14:30:35,YZ,59.90173384157369,
,,,,,,calibration,0,36,2,159,15,F,0,right,nan,0,1,,,,,,,,,,,,,,,,,,,,,1,,,,,,,,,,,,,,,,,,,,,,,,,,,,,,,,,,,,,,,,,,,,,,49,158959,19,Male,1,2024/02/12_14:30:35,YZ,59.90173384157369,
,,,,,,calibration,0,36,2,159,16,V,1,left,0.6654824520001057,1,0,,,,,,,,,,,,,,,,,,,,,1,,,,,,,,,,,,,,,,,,,,,,,,,,,,,,,,,,,,,,,,,,,,,,49,158959,19,Male,1,2024/02/12_14:30:35,YZ,59.90173384157369,
,,,,,,calibration,0,36,2,159,17,C,0,right,0.4144264420001491,1,0,,,,,,,,,,,,,,,,,,,,,1,,,,,,,,,,,,,,,,,,,,,,,,,,,,,,,,,,,,,,,,,,,,,,49,158959,19,Male,1,2024/02/12_14:30:35,YZ,59.90173384157369,
,,,,,,calibration,0,36,2,159,18,V,1,left,0.5675487179996708,1,0,,,,,,,,,,,,,,,,,,,,,1,,,,,,,,,,,,,,,,,,,,,,,,,,,,,,,,,,,,,,,,,,,,,,49,158959,19,Male,1,2024/02/12_14:30:35,YZ,59.90173384157369,
,,,,,,calibration,0,36,2,159,19,C,1,left,0.49147467000057077,1,0,,,,,,,,,,,,,,,,,,,,,1,,,,,,,,,,,,,,,,,,,,,,,,,,,,,,,,,,,,,,,,,,,,,,49,158959,19,Male,1,2024/02/12_14:30:35,YZ,59.90173384157369,
,,,,,,calibration,0,36,2,159,20,Q,0,right,0.524681062000127,1,0,,,,,,,,,,,,,,,,,,,,,1,,,,,,,,,,,,,,,,,,,,,,,,,,,,,,,,,,,,,,,,,,,,,,49,158959,19,Male,1,2024/02/12_14:30:35,YZ,59.90173384157369,
,,,,,,calibration,0,36,2,159,21,N,0,right,0.7356018079999558,1,0,,,,,,,,,,,,,,,,,,,,,1,,,,,,,,,,,,,,,,,,,,,,,,,,,,,,,,,,,,,,,,,,,,,,49,158959,19,Male,1,2024/02/12_14:30:35,YZ,59.90173384157369,
,,,,,,calibration,0,36,2,159,22,Q,1,left,0.674185707000106,1,0,,,,,,,,,,,,,,,,,,,,,1,,,,,,,,,,,,,,,,,,,,,,,,,,,,,,,,,,,,,,,,,,,,,,49,158959,19,Male,1,2024/02/12_14:30:35,YZ,59.90173384157369,
,,,,,,calibration,0,36,2,159,,,,,,,,1.0,1.0,0.0,1.0,0.045454545454545456,0.9545454545454546,0.622180207952451,7,0,0,1,1,14,21,7,15,0,,,,1,,,,,,,,,,,,,,,,,,,,,,,,,,,,,,,,,,,,,,,,,,,,,,49,158959,19,Male,1,2024/02/12_14:30:35,YZ,59.90173384157369,
,,,,,,Calibration,0,,2,159,,,,,,,,,,,,,,,,,,,,,,,,,15,,,1,,,,,,,,,,,,,,,,,,,,,,,,,,,,,,,,,,,,,,,,,,,,,,49,158959,19,Male,1,2024/02/12_14:30:35,YZ,59.90173384157369,
,,,,,,CALIBRATION,0,,,,,,,,,,,,,,,,,,,,,,,,,,,,15,1.0,159,1,,,,,,,,,,,,,,,,,,,,,,,,,,,,,,,,,,,,,,,,,,,,,,49,158959,19,Male,1,2024/02/12_14:30:35,YZ,59.90173384157369,
1,./instructions/inst_prac_1/Slide24.png,right,22.703094683999552,547.3783259709999,570.0814206549994,,,,,,,,,,,,,,,,,,,,,,,,,,,,,,,,,1,,,,,,,,,,,,,,,,,,,,,,,,,,,,,,,,,,,,,,,,,,,,,,49,158959,19,Male,1,2024/02/12_14:30:35,YZ,59.90173384157369,
2,./instructions/inst_prac_1/Slide25.png,right,1.0524779140005194,570.1330749969993,571.1855529109998,,,,,,,,,,,,,,,,,,,,,,,,,,,,,,,,,1,,,,,,,,,,,,,,,,,,,,,,,,,,,,,,,,,,,,,,,,,,,,,,49,158959,19,Male,1,2024/02/12_14:30:35,YZ,59.90173384157369,
3,./instructions/inst_prac_1/Slide26.png,right,0.5196177979996719,571.2180191019997,571.7376368999994,,,,,,,,,,,,,,,,,,,,,,,,,,,,,,,,,1,,,,,,,,,,,,,,,,,,,,,,,,,,,,,,,,,,,,,,,,,,,,,,49,158959,19,Male,1,2024/02/12_14:30:35,YZ,59.90173384157369,
4,./instructions/inst_prac_1/Slide27.png,right,0.42295190200002253,571.778711209,572.201663111,,,,,,,,,,,,,,,,,,,,,,,,,,,,,,,,,1,,,,,,,,,,,,,,,,,,,,,,,,,,,,,,,,,,,,,,,,,,,,,,49,158959,19,Male,1,2024/02/12_14:30:35,YZ,59.90173384157369,
5,./instructions/inst_prac_1/Slide28.png,right,0.39819110600001295,572.2433690149992,572.6415601209992,,,,,,,,,,,,,,,,,,,,,,,,,,,,,,,,,1,,,,,,,,,,,,,,,,,,,,,,,,,,,,,,,,,,,,,,,,,,,,,,49,158959,19,Male,1,2024/02/12_14:30:35,YZ,59.90173384157369,
6,./instructions/inst_prac_1/Slide29.png,right,6.365601682000488,572.6839110389992,579.0495127209997,,,,,,,,,,,,,,,,,,,,,,,,,,,,,,,,,1,,,,,,,,,,,,,,,,,,,,,,,,,,,,,,,,,,,,,,,,,,,,,,49,158959,19,Male,1,2024/02/12_14:30:35,YZ,59.90173384157369,
7,./instructions/inst_prac_1/Slide30.png,right,2.4192204569999376,579.174253534,581.5934739909999,,,,,,,,,,,,,,,,,,,,,,,,,,,,,,,,,1,,,,,,,,,,,,,,,,,,,,,,,,,,,,,,,,,,,,,,,,,,,,,,49,158959,19,Male,1,2024/02/12_14:30:35,YZ,59.90173384157369,
,,,,,,practice,0,24,1,1250,1,J,0,right,1.6858300209996742,1,0,,,,,,,,,,,,,,,,,,,,,1,,,,,,,,,,,,,,,,,,,,,,,,,,,,,,,,,,,,,,,,,,,,,,49,158959,19,Male,1,2024/02/12_14:30:35,YZ,59.90173384157369,
,,,,,,practice,0,24,1,1250,2,J,1,left,0.6544857620001494,1,0,,,,,,,,,,,,,,,,,,,,,1,,,,,,,,,,,,,,,,,,,,,,,,,,,,,,,,,,,,,,,,,,,,,,49,158959,19,Male,1,2024/02/12_14:30:35,YZ,59.90173384157369,
,,,,,,practice,0,24,1,1250,3,F,0,right,0.5612534120000419,1,0,,,,,,,,,,,,,,,,,,,,,1,,,,,,,,,,,,,,,,,,,,,,,,,,,,,,,,,,,,,,,,,,,,,,49,158959,19,Male,1,2024/02/12_14:30:35,YZ,59.90173384157369,
,,,,,,practice,0,24,1,1250,4,J,0,right,0.8968120549998275,1,0,,,,,,,,,,,,,,,,,,,,,1,,,,,,,,,,,,,,,,,,,,,,,,,,,,,,,,,,,,,,,,,,,,,,49,158959,19,Male,1,2024/02/12_14:30:35,YZ,59.90173384157369,
,,,,,,practice,0,24,1,1250,5,N,0,right,0.6147490639996249,1,0,,,,,,,,,,,,,,,,,,,,,1,,,,,,,,,,,,,,,,,,,,,,,,,,,,,,,,,,,,,,,,,,,,,,49,158959,19,Male,1,2024/02/12_14:30:35,YZ,59.90173384157369,
,,,,,,practice,0,24,1,1250,6,N,1,left,0.6224481570006901,1,0,,,,,,,,,,,,,,,,,,,,,1,,,,,,,,,,,,,,,,,,,,,,,,,,,,,,,,,,,,,,,,,,,,,,49,158959,19,Male,1,2024/02/12_14:30:35,YZ,59.90173384157369,
,,,,,,practice,0,24,1,1250,7,J,0,right,0.683409591999407,1,0,,,,,,,,,,,,,,,,,,,,,1,,,,,,,,,,,,,,,,,,,,,,,,,,,,,,,,,,,,,,,,,,,,,,49,158959,19,Male,1,2024/02/12_14:30:35,YZ,59.90173384157369,
,,,,,,practice,0,24,1,1250,8,X,0,right,0.5366765469998427,1,0,,,,,,,,,,,,,,,,,,,,,1,,,,,,,,,,,,,,,,,,,,,,,,,,,,,,,,,,,,,,,,,,,,,,49,158959,19,Male,1,2024/02/12_14:30:35,YZ,59.90173384157369,
,,,,,,practice,0,24,1,1250,9,Q,0,right,0.6330247529995177,1,0,,,,,,,,,,,,,,,,,,,,,1,,,,,,,,,,,,,,,,,,,,,,,,,,,,,,,,,,,,,,,,,,,,,,49,158959,19,Male,1,2024/02/12_14:30:35,YZ,59.90173384157369,
,,,,,,practice,0,24,1,1250,10,Q,1,left,0.6147217470006581,1,0,,,,,,,,,,,,,,,,,,,,,1,,,,,,,,,,,,,,,,,,,,,,,,,,,,,,,,,,,,,,,,,,,,,,49,158959,19,Male,1,2024/02/12_14:30:35,YZ,59.90173384157369,
,,,,,,practice,0,24,1,1250,,,,,,,,1.0,1.0,0.0,1.0,0.0,1.0,0.7503411109999434,3,0,0,0,0,7,10,3,7,0,,,,1,,,,,,,,,,,,,,,,,,,,,,,,,,,,,,,,,,,,,,,,,,,,,,49,158959,19,Male,1,2024/02/12_14:30:35,YZ,59.90173384157369,
1,./instructions/inst_prac_1_next/Slide35.png,right,2.103728683000554,599.7377259339992,601.8414546169997,,,,,,,,,,,,,,,,,,,,,,,,,,,,,,,,,1,,,,,,,,,,,,,,,,,,,,,,,,,,,,,,,,,,,,,,,,,,,,,,49,158959,19,Male,1,2024/02/12_14:30:35,YZ,59.90173384157369,
,,,,,,practice,0,19,1,159,1,C,0,right,0.5680310170000666,1,0,,,,,,,,,,,,,,,,,,,,,1,,,,,,,,,,,,,,,,,,,,,,,,,,,,,,,,,,,,,,,,,,,,,,49,158959,19,Male,1,2024/02/12_14:30:35,YZ,59.90173384157369,
,,,,,,practice,0,19,1,159,2,J,0,right,0.5003687290000016,1,0,,,,,,,,,,,,,,,,,,,,,1,,,,,,,,,,,,,,,,,,,,,,,,,,,,,,,,,,,,,,,,,,,,,,49,158959,19,Male,1,2024/02/12_14:30:35,YZ,59.90173384157369,
,,,,,,practice,0,19,1,159,3,J,1,left,0.4056792069995936,1,0,,,,,,,,,,,,,,,,,,,,,1,,,,,,,,,,,,,,,,,,,,,,,,,,,,,,,,,,,,,,,,,,,,,,49,158959,19,Male,1,2024/02/12_14:30:35,YZ,59.90173384157369,
,,,,,,practice,0,19,1,159,4,C,0,right,0.3727744409998195,1,0,,,,,,,,,,,,,,,,,,,,,1,,,,,,,,,,,,,,,,,,,,,,,,,,,,,,,,,,,,,,,,,,,,,,49,158959,19,Male,1,2024/02/12_14:30:35,YZ,59.90173384157369,
,,,,,,practice,0,19,1,159,5,C,1,right,0.4053795440004251,0,0,,,,,,,,,,,,,,,,,,,,,1,,,,,,,,,,,,,,,,,,,,,,,,,,,,,,,,,,,,,,,,,,,,,,49,158959,19,Male,1,2024/02/12_14:30:35,YZ,59.90173384157369,
,,,,,,practice,0,19,1,159,6,N,0,right,0.5186912660001326,1,0,,,,,,,,,,,,,,,,,,,,,1,,,,,,,,,,,,,,,,,,,,,,,,,,,,,,,,,,,,,,,,,,,,,,49,158959,19,Male,1,2024/02/12_14:30:35,YZ,59.90173384157369,
,,,,,,practice,0,19,1,159,7,N,1,left,0.34012256400001206,1,0,,,,,,,,,,,,,,,,,,,,,1,,,,,,,,,,,,,,,,,,,,,,,,,,,,,,,,,,,,,,,,,,,,,,49,158959,19,Male,1,2024/02/12_14:30:35,YZ,59.90173384157369,
,,,,,,practice,0,19,1,159,8,S,0,right,0.43588644200008275,1,0,,,,,,,,,,,,,,,,,,,,,1,,,,,,,,,,,,,,,,,,,,,,,,,,,,,,,,,,,,,,,,,,,,,,49,158959,19,Male,1,2024/02/12_14:30:35,YZ,59.90173384157369,
,,,,,,practice,0,19,1,159,9,J,0,right,0.5407081720004498,1,0,,,,,,,,,,,,,,,,,,,,,1,,,,,,,,,,,,,,,,,,,,,,,,,,,,,,,,,,,,,,,,,,,,,,49,158959,19,Male,1,2024/02/12_14:30:35,YZ,59.90173384157369,
,,,,,,practice,0,19,1,159,10,X,0,right,0.524670533999597,1,0,,,,,,,,,,,,,,,,,,,,,1,,,,,,,,,,,,,,,,,,,,,,,,,,,,,,,,,,,,,,,,,,,,,,49,158959,19,Male,1,2024/02/12_14:30:35,YZ,59.90173384157369,
,,,,,,practice,0,19,1,159,11,X,1,left,0.5026833690008061,1,0,,,,,,,,,,,,,,,,,,,,,1,,,,,,,,,,,,,,,,,,,,,,,,,,,,,,,,,,,,,,,,,,,,,,49,158959,19,Male,1,2024/02/12_14:30:35,YZ,59.90173384157369,
,,,,,,practice,0,19,1,159,12,V,0,right,0.47825779499999044,1,0,,,,,,,,,,,,,,,,,,,,,1,,,,,,,,,,,,,,,,,,,,,,,,,,,,,,,,,,,,,,,,,,,,,,49,158959,19,Male,1,2024/02/12_14:30:35,YZ,59.90173384157369,
,,,,,,practice,0,19,1,159,13,J,0,right,0.600302976000421,1,0,,,,,,,,,,,,,,,,,,,,,1,,,,,,,,,,,,,,,,,,,,,,,,,,,,,,,,,,,,,,,,,,,,,,49,158959,19,Male,1,2024/02/12_14:30:35,YZ,59.90173384157369,
,,,,,,practice,0,19,1,159,14,S,0,right,0.5974159269999291,1,0,,,,,,,,,,,,,,,,,,,,,1,,,,,,,,,,,,,,,,,,,,,,,,,,,,,,,,,,,,,,,,,,,,,,49,158959,19,Male,1,2024/02/12_14:30:35,YZ,59.90173384157369,
,,,,,,practice,0,19,1,159,15,N,0,right,0.5271435160002511,1,0,,,,,,,,,,,,,,,,,,,,,1,,,,,,,,,,,,,,,,,,,,,,,,,,,,,,,,,,,,,,,,,,,,,,49,158959,19,Male,1,2024/02/12_14:30:35,YZ,59.90173384157369,
,,,,,,practice,0,19,1,159,16,N,1,left,0.3578806559999066,1,0,,,,,,,,,,,,,,,,,,,,,1,,,,,,,,,,,,,,,,,,,,,,,,,,,,,,,,,,,,,,,,,,,,,,49,158959,19,Male,1,2024/02/12_14:30:35,YZ,59.90173384157369,
,,,,,,practice,0,19,1,159,17,C,0,right,0.4628008890003912,1,0,,,,,,,,,,,,,,,,,,,,,1,,,,,,,,,,,,,,,,,,,,,,,,,,,,,,,,,,,,,,,,,,,,,,49,158959,19,Male,1,2024/02/12_14:30:35,YZ,59.90173384157369,
,,,,,,practice,0,19,1,159,18,V,0,right,0.4875585689997024,1,0,,,,,,,,,,,,,,,,,,,,,1,,,,,,,,,,,,,,,,,,,,,,,,,,,,,,,,,,,,,,,,,,,,,,49,158959,19,Male,1,2024/02/12_14:30:35,YZ,59.90173384157369,
,,,,,,practice,0,19,1,159,19,V,1,left,0.48149518500031263,1,0,,,,,,,,,,,,,,,,,,,,,1,,,,,,,,,,,,,,,,,,,,,,,,,,,,,,,,,,,,,,,,,,,,,,49,158959,19,Male,1,2024/02/12_14:30:35,YZ,59.90173384157369,
,,,,,,practice,0,19,1,159,20,Q,0,right,0.49353702899952623,1,0,,,,,,,,,,,,,,,,,,,,,1,,,,,,,,,,,,,,,,,,,,,,,,,,,,,,,,,,,,,,,,,,,,,,49,158959,19,Male,1,2024/02/12_14:30:35,YZ,59.90173384157369,
,,,,,,practice,0,19,1,159,21,C,0,right,0.4664146549994257,1,0,,,,,,,,,,,,,,,,,,,,,1,,,,,,,,,,,,,,,,,,,,,,,,,,,,,,,,,,,,,,,,,,,,,,49,158959,19,Male,1,2024/02/12_14:30:35,YZ,59.90173384157369,
,,,,,,practice,0,19,1,159,22,N,0,right,0.6475247369999124,1,0,,,,,,,,,,,,,,,,,,,,,1,,,,,,,,,,,,,,,,,,,,,,,,,,,,,,,,,,,,,,,,,,,,,,49,158959,19,Male,1,2024/02/12_14:30:35,YZ,59.90173384157369,
,,,,,,practice,0,19,1,159,,,,,,,,0.9583333333333334,0.8333333333333334,0.0,1.0,0.0,1.0,0.487060328136398,5,0,0,0,0,16,21,6,16,0,,,,1,,,,,,,,,,,,,,,,,,,,,,,,,,,,,,,,,,,,,,,,,,,,,,49,158959,19,Male,1,2024/02/12_14:30:35,YZ,59.90173384157369,
,,,,,,practice,0,17,1,159,1,Q,0,right,1.1711405739997645,1,0,,,,,,,,,,,,,,,,,,,,,1,,,,,,,,,,,,,,,,,,,,,,,,,,,,,,,,,,,,,,,,,,,,,,49,158959,19,Male,1,2024/02/12_14:30:35,YZ,59.90173384157369,
,,,,,,practice,0,17,1,159,2,Q,1,left,0.5436845479998738,1,0,,,,,,,,,,,,,,,,,,,,,1,,,,,,,,,,,,,,,,,,,,,,,,,,,,,,,,,,,,,,,,,,,,,,49,158959,19,Male,1,2024/02/12_14:30:35,YZ,59.90173384157369,
,,,,,,practice,0,17,1,159,3,N,0,right,0.43658249599957344,1,0,,,,,,,,,,,,,,,,,,,,,1,,,,,,,,,,,,,,,,,,,,,,,,,,,,,,,,,,,,,,,,,,,,,,49,158959,19,Male,1,2024/02/12_14:30:35,YZ,59.90173384157369,
,,,,,,practice,0,17,1,159,4,N,1,left,0.3826026019996789,1,0,,,,,,,,,,,,,,,,,,,,,1,,,,,,,,,,,,,,,,,,,,,,,,,,,,,,,,,,,,,,,,,,,,,,49,158959,19,Male,1,2024/02/12_14:30:35,YZ,59.90173384157369,
,,,,,,practice,0,17,1,159,5,Q,0,right,0.5177119259997198,1,0,,,,,,,,,,,,,,,,,,,,,1,,,,,,,,,,,,,,,,,,,,,,,,,,,,,,,,,,,,,,,,,,,,,,49,158959,19,Male,1,2024/02/12_14:30:35,YZ,59.90173384157369,
,,,,,,practice,0,17,1,159,6,Q,1,left,0.5237238709996745,1,0,,,,,,,,,,,,,,,,,,,,,1,,,,,,,,,,,,,,,,,,,,,,,,,,,,,,,,,,,,,,,,,,,,,,49,158959,19,Male,1,2024/02/12_14:30:35,YZ,59.90173384157369,
,,,,,,practice,0,17,1,159,7,C,0,right,0.45852427299996634,1,0,,,,,,,,,,,,,,,,,,,,,1,,,,,,,,,,,,,,,,,,,,,,,,,,,,,,,,,,,,,,,,,,,,,,49,158959,19,Male,1,2024/02/12_14:30:35,YZ,59.90173384157369,
,,,,,,practice,0,17,1,159,8,V,0,right,0.5783979210000325,1,0,,,,,,,,,,,,,,,,,,,,,1,,,,,,,,,,,,,,,,,,,,,,,,,,,,,,,,,,,,,,,,,,,,,,49,158959,19,Male,1,2024/02/12_14:30:35,YZ,59.90173384157369,
,,,,,,practice,0,17,1,159,9,X,0,right,0.4580485679998674,1,0,,,,,,,,,,,,,,,,,,,,,1,,,,,,,,,,,,,,,,,,,,,,,,,,,,,,,,,,,,,,,,,,,,,,49,158959,19,Male,1,2024/02/12_14:30:35,YZ,59.90173384157369,
,,,,,,practice,0,17,1,159,10,V,0,right,0.6346479089997956,1,0,,,,,,,,,,,,,,,,,,,,,1,,,,,,,,,,,,,,,,,,,,,,,,,,,,,,,,,,,,,,,,,,,,,,49,158959,19,Male,1,2024/02/12_14:30:35,YZ,59.90173384157369,
,,,,,,practice,0,17,1,159,11,S,0,right,0.619769683999948,1,0,,,,,,,,,,,,,,,,,,,,,1,,,,,,,,,,,,,,,,,,,,,,,,,,,,,,,,,,,,,,,,,,,,,,49,158959,19,Male,1,2024/02/12_14:30:35,YZ,59.90173384157369,
,,,,,,practice,0,17,1,159,12,J,0,right,0.5444066549998752,1,0,,,,,,,,,,,,,,,,,,,,,1,,,,,,,,,,,,,,,,,,,,,,,,,,,,,,,,,,,,,,,,,,,,,,49,158959,19,Male,1,2024/02/12_14:30:35,YZ,59.90173384157369,
,,,,,,practice,0,17,1,159,13,J,1,left,0.5489791790005256,1,0,,,,,,,,,,,,,,,,,,,,,1,,,,,,,,,,,,,,,,,,,,,,,,,,,,,,,,,,,,,,,,,,,,,,49,158959,19,Male,1,2024/02/12_14:30:35,YZ,59.90173384157369,
,,,,,,practice,0,17,1,159,14,V,0,right,0.49034327600020333,1,0,,,,,,,,,,,,,,,,,,,,,1,,,,,,,,,,,,,,,,,,,,,,,,,,,,,,,,,,,,,,,,,,,,,,49,158959,19,Male,1,2024/02/12_14:30:35,YZ,59.90173384157369,
,,,,,,practice,0,17,1,159,15,C,0,right,0.4975080300000627,1,0,,,,,,,,,,,,,,,,,,,,,1,,,,,,,,,,,,,,,,,,,,,,,,,,,,,,,,,,,,,,,,,,,,,,49,158959,19,Male,1,2024/02/12_14:30:35,YZ,59.90173384157369,
,,,,,,practice,0,17,1,159,16,S,0,right,0.477285447000213,1,0,,,,,,,,,,,,,,,,,,,,,1,,,,,,,,,,,,,,,,,,,,,,,,,,,,,,,,,,,,,,,,,,,,,,49,158959,19,Male,1,2024/02/12_14:30:35,YZ,59.90173384157369,
,,,,,,practice,0,17,1,159,17,V,0,right,0.5311735679997582,1,0,,,,,,,,,,,,,,,,,,,,,1,,,,,,,,,,,,,,,,,,,,,,,,,,,,,,,,,,,,,,,,,,,,,,49,158959,19,Male,1,2024/02/12_14:30:35,YZ,59.90173384157369,
,,,,,,practice,0,17,1,159,18,S,0,right,0.5832742889997462,1,0,,,,,,,,,,,,,,,,,,,,,1,,,,,,,,,,,,,,,,,,,,,,,,,,,,,,,,,,,,,,,,,,,,,,49,158959,19,Male,1,2024/02/12_14:30:35,YZ,59.90173384157369,
,,,,,,practice,0,17,1,159,19,S,1,left,0.40339418799976556,1,0,,,,,,,,,,,,,,,,,,,,,1,,,,,,,,,,,,,,,,,,,,,,,,,,,,,,,,,,,,,,,,,,,,,,49,158959,19,Male,1,2024/02/12_14:30:35,YZ,59.90173384157369,
,,,,,,practice,0,17,1,159,20,F,0,right,0.5076685140002155,1,0,,,,,,,,,,,,,,,,,,,,,1,,,,,,,,,,,,,,,,,,,,,,,,,,,,,,,,,,,,,,,,,,,,,,49,158959,19,Male,1,2024/02/12_14:30:35,YZ,59.90173384157369,
,,,,,,practice,0,17,1,159,21,X,0,right,0.40468300199972873,1,0,,,,,,,,,,,,,,,,,,,,,1,,,,,,,,,,,,,,,,,,,,,,,,,,,,,,,,,,,,,,,,,,,,,,49,158959,19,Male,1,2024/02/12_14:30:35,YZ,59.90173384157369,
,,,,,,practice,0,17,1,159,22,X,1,left,0.4145756629995958,1,0,,,,,,,,,,,,,,,,,,,,,1,,,,,,,,,,,,,,,,,,,,,,,,,,,,,,,,,,,,,,,,,,,,,,49,158959,19,Male,1,2024/02/12_14:30:35,YZ,59.90173384157369,
,,,,,,practice,0,17,1,159,,,,,,,,1.0,1.0,0.0,1.0,0.0,1.0,0.5330966446817084,6,0,0,0,0,16,22,6,16,0,,,,1,,,,,,,,,,,,,,,,,,,,,,,,,,,,,,,,,,,,,,,,,,,,,,49,158959,19,Male,1,2024/02/12_14:30:35,YZ,59.90173384157369,
1,./instructions/inst_prac_3/Slide37.png,right,4.227783301999807,651.6376389799998,655.8654222819996,,,,,,,,,,,,,,,,,,,,,,,,,,,,,,,,,1,,,,,,,,,,,,,,,,,,,,,,,,,,,,,,,,,,,,,,,,,,,,,,49,158959,19,Male,1,2024/02/12_14:30:35,YZ,59.90173384157369,
0,./instructions/inst_prac_3/Slide38.png,left,1.5438524639994284,655.9217396089998,657.4655920729992,,,,,,,,,,,,,,,,,,,,,,,,,,,,,,,,,1,,,,,,,,,,,,,,,,,,,,,,,,,,,,,,,,,,,,,,,,,,,,,,49,158959,19,Male,1,2024/02/12_14:30:35,YZ,59.90173384157369,
1,./instructions/inst_prac_3/Slide37.png,right,2.703594712999802,657.5059291489997,660.2095238619995,,,,,,,,,,,,,,,,,,,,,,,,,,,,,,,,,1,,,,,,,,,,,,,,,,,,,,,,,,,,,,,,,,,,,,,,,,,,,,,,49,158959,19,Male,1,2024/02/12_14:30:35,YZ,59.90173384157369,
2,./instructions/inst_prac_3/Slide38.png,right,1.0570097589998113,660.2486485709996,661.3056583299995,,,,,,,,,,,,,,,,,,,,,,,,,,,,,,,,,1,,,,,,,,,,,,,,,,,,,,,,,,,,,,,,,,,,,,,,,,,,,,,,49,158959,19,Male,1,2024/02/12_14:30:35,YZ,59.90173384157369,
3,./instructions/inst_prac_3/Slide39.png,right,0.6086191769991274,661.3848251070003,661.9934442839995,,,,,,,,,,,,,,,,,,,,,,,,,,,,,,,,,1,,,,,,,,,,,,,,,,,,,,,,,,,,,,,,,,,,,,,,,,,,,,,,49,158959,19,Male,1,2024/02/12_14:30:35,YZ,59.90173384157369,
4,./instructions/inst_prac_3/Slide40.png,right,0.5676973219997308,662.033760674999,662.6014579969988,,,,,,,,,,,,,,,,,,,,,,,,,,,,,,,,,1,,,,,,,,,,,,,,,,,,,,,,,,,,,,,,,,,,,,,,,,,,,,,,49,158959,19,Male,1,2024/02/12_14:30:35,YZ,59.90173384157369,
5,./instructions/inst_prac_3/Slide41.png,right,5.0787146059992665,662.6428018939996,667.7215164999989,,,,,,,,,,,,,,,,,,,,,,,,,,,,,,,,,1,,,,,,,,,,,,,,,,,,,,,,,,,,,,,,,,,,,,,,,,,,,,,,49,158959,19,Male,1,2024/02/12_14:30:35,YZ,59.90173384157369,
6,./instructions/inst_prac_3/Slide42.png,right,3.5818634389997897,667.7876422729996,671.3695057119994,,,,,,,,,,,,,,,,,,,,,,,,,,,,,,,,,1,,,,,,,,,,,,,,,,,,,,,,,,,,,,,,,,,,,,,,,,,,,,,,49,158959,19,Male,1,2024/02/12_14:30:35,YZ,59.90173384157369,
7,./instructions/inst_prac_3/Slide43.png,right,1.6265125200006878,671.4230844799995,673.0495970000002,,,,,,,,,,,,,,,,,,,,,,,,,,,,,,,,,1,,,,,,,,,,,,,,,,,,,,,,,,,,,,,,,,,,,,,,,,,,,,,,49,158959,19,Male,1,2024/02/12_14:30:35,YZ,59.90173384157369,
8,./instructions/inst_prac_3/Slide44.png,right,0.9955106979996344,673.1098486109995,674.1053593089991,,,,,,,,,,,,,,,,,,,,,,,,,,,,,,,,,1,,,,,,,,,,,,,,,,,,,,,,,,,,,,,,,,,,,,,,,,,,,,,,49,158959,19,Male,1,2024/02/12_14:30:35,YZ,59.90173384157369,
,,,,,,practice,0,30,3,788,1,X,0,right,1.0578633880013513,1,0,,,,,,,,,,,,,,,,,,,,,1,,,,,,,,,,,,,,,,,,,,,,,,,,,,,,,,,,,,,,,,,,,,,,49,158959,19,Male,1,2024/02/12_14:30:35,YZ,59.90173384157369,
,,,,,,practice,0,30,3,788,2,V,0,right,1.0870716379995429,1,0,,,,,,,,,,,,,,,,,,,,,1,,,,,,,,,,,,,,,,,,,,,,,,,,,,,,,,,,,,,,,,,,,,,,49,158959,19,Male,1,2024/02/12_14:30:35,YZ,59.90173384157369,
,,,,,,practice,0,30,3,788,3,C,0,right,0.314928117000818,1,0,,,,,,,,,,,,,,,,,,,,,1,,,,,,,,,,,,,,,,,,,,,,,,,,,,,,,,,,,,,,,,,,,,,,49,158959,19,Male,1,2024/02/12_14:30:35,YZ,59.90173384157369,
,,,,,,practice,0,30,3,788,4,X,1,left,0.4944106749990169,1,0,,,,,,,,,,,,,,,,,,,,,1,,,,,,,,,,,,,,,,,,,,,,,,,,,,,,,,,,,,,,,,,,,,,,49,158959,19,Male,1,2024/02/12_14:30:35,YZ,59.90173384157369,
,,,,,,practice,0,30,3,788,5,F,0,right,0.8076453329995275,1,0,,,,,,,,,,,,,,,,,,,,,1,,,,,,,,,,,,,,,,,,,,,,,,,,,,,,,,,,,,,,,,,,,,,,49,158959,19,Male,1,2024/02/12_14:30:35,YZ,59.90173384157369,
,,,,,,practice,0,30,3,788,6,C,1,left,0.7079253100000642,1,0,,,,,,,,,,,,,,,,,,,,,1,,,,,,,,,,,,,,,,,,,,,,,,,,,,,,,,,,,,,,,,,,,,,,49,158959,19,Male,1,2024/02/12_14:30:35,YZ,59.90173384157369,
,,,,,,practice,0,30,3,788,7,F,0,right,0.7514453069998126,1,0,,,,,,,,,,,,,,,,,,,,,1,,,,,,,,,,,,,,,,,,,,,,,,,,,,,,,,,,,,,,,,,,,,,,49,158959,19,Male,1,2024/02/12_14:30:35,YZ,59.90173384157369,
,,,,,,practice,0,30,3,788,8,V,0,right,0.642401847999281,1,0,,,,,,,,,,,,,,,,,,,,,1,,,,,,,,,,,,,,,,,,,,,,,,,,,,,,,,,,,,,,,,,,,,,,49,158959,19,Male,1,2024/02/12_14:30:35,YZ,59.90173384157369,
,,,,,,practice,0,30,3,788,9,N,0,right,0.766574909001065,1,0,,,,,,,,,,,,,,,,,,,,,1,,,,,,,,,,,,,,,,,,,,,,,,,,,,,,,,,,,,,,,,,,,,,,49,158959,19,Male,1,2024/02/12_14:30:35,YZ,59.90173384157369,
,,,,,,practice,0,30,3,788,10,X,0,right,0.6427417700015212,1,0,,,,,,,,,,,,,,,,,,,,,1,,,,,,,,,,,,,,,,,,,,,,,,,,,,,,,,,,,,,,,,,,,,,,49,158959,19,Male,1,2024/02/12_14:30:35,YZ,59.90173384157369,
,,,,,,practice,0,30,3,788,11,V,1,left,0.47121614400020917,1,0,,,,,,,,,,,,,,,,,,,,,1,,,,,,,,,,,,,,,,,,,,,,,,,,,,,,,,,,,,,,,,,,,,,,49,158959,19,Male,1,2024/02/12_14:30:35,YZ,59.90173384157369,
,,,,,,practice,0,30,3,788,12,X,0,right,0.7021425000002637,1,0,,,,,,,,,,,,,,,,,,,,,1,,,,,,,,,,,,,,,,,,,,,,,,,,,,,,,,,,,,,,,,,,,,,,49,158959,19,Male,1,2024/02/12_14:30:35,YZ,59.90173384157369,
,,,,,,practice,0,30,3,788,13,X,1,left,0.6712157549991389,1,0,,,,,,,,,,,,,,,,,,,,,1,,,,,,,,,,,,,,,,,,,,,,,,,,,,,,,,,,,,,,,,,,,,,,49,158959,19,Male,1,2024/02/12_14:30:35,YZ,59.90173384157369,
,,,,,,practice,0,30,3,788,,,,,,,,1.0,1.0,0.0,1.0,0.0,1.0,0.7013525149232009,4,0,0,0,0,9,13,4,9,0,,,,1,,,,,,,,,,,,,,,,,,,,,,,,,,,,,,,,,,,,,,,,,,,,,,49,158959,19,Male,1,2024/02/12_14:30:35,YZ,59.90173384157369,
1,./instructions/inst_prac_3_next/Slide49.png,right,3.2116014670009463,697.1180259909988,700.3296274579998,,,,,,,,,,,,,,,,,,,,,,,,,,,,,,,,,1,,,,,,,,,,,,,,,,,,,,,,,,,,,,,,,,,,,,,,,,,,,,,,49,158959,19,Male,1,2024/02/12_14:30:35,YZ,59.90173384157369,
,,,,,,practice,0,6,3,159,1,C,0,right,1.0004896010013908,1,0,,,,,,,,,,,,,,,,,,,,,1,,,,,,,,,,,,,,,,,,,,,,,,,,,,,,,,,,,,,,,,,,,,,,49,158959,19,Male,1,2024/02/12_14:30:35,YZ,59.90173384157369,
,,,,,,practice,0,6,3,159,2,C,0,right,0.46386281800005236,1,0,,,,,,,,,,,,,,,,,,,,,1,,,,,,,,,,,,,,,,,,,,,,,,,,,,,,,,,,,,,,,,,,,,,,49,158959,19,Male,1,2024/02/12_14:30:35,YZ,59.90173384157369,
,,,,,,practice,0,6,3,159,3,J,0,right,0.5487952980001864,1,0,,,,,,,,,,,,,,,,,,,,,1,,,,,,,,,,,,,,,,,,,,,,,,,,,,,,,,,,,,,,,,,,,,,,49,158959,19,Male,1,2024/02/12_14:30:35,YZ,59.90173384157369,
,,,,,,practice,0,6,3,159,4,C,1,left,0.44365402499897755,1,0,,,,,,,,,,,,,,,,,,,,,1,,,,,,,,,,,,,,,,,,,,,,,,,,,,,,,,,,,,,,,,,,,,,,49,158959,19,Male,1,2024/02/12_14:30:35,YZ,59.90173384157369,
,,,,,,practice,0,6,3,159,5,S,0,right,0.7628164179986925,1,0,,,,,,,,,,,,,,,,,,,,,1,,,,,,,,,,,,,,,,,,,,,,,,,,,,,,,,,,,,,,,,,,,,,,49,158959,19,Male,1,2024/02/12_14:30:35,YZ,59.90173384157369,
,,,,,,practice,0,6,3,159,6,N,0,right,0.7206219480012805,1,0,,,,,,,,,,,,,,,,,,,,,1,,,,,,,,,,,,,,,,,,,,,,,,,,,,,,,,,,,,,,,,,,,,,,49,158959,19,Male,1,2024/02/12_14:30:35,YZ,59.90173384157369,
,,,,,,practice,0,6,3,159,7,X,0,right,0.8276240519990097,1,0,,,,,,,,,,,,,,,,,,,,,1,,,,,,,,,,,,,,,,,,,,,,,,,,,,,,,,,,,,,,,,,,,,,,49,158959,19,Male,1,2024/02/12_14:30:35,YZ,59.90173384157369,
,,,,,,practice,0,6,3,159,8,C,0,right,1.0845465349993901,1,0,,,,,,,,,,,,,,,,,,,,,1,,,,,,,,,,,,,,,,,,,,,,,,,,,,,,,,,,,,,,,,,,,,,,49,158959,19,Male,1,2024/02/12_14:30:35,YZ,59.90173384157369,
,,,,,,practice,0,6,3,159,9,F,0,right,1.943828088000373,1,0,,,,,,,,,,,,,,,,,,,,,1,,,,,,,,,,,,,,,,,,,,,,,,,,,,,,,,,,,,,,,,,,,,,,49,158959,19,Male,1,2024/02/12_14:30:35,YZ,59.90173384157369,
,,,,,,practice,0,6,3,159,10,X,1,left,1.869740730000558,1,0,,,,,,,,,,,,,,,,,,,,,1,,,,,,,,,,,,,,,,,,,,,,,,,,,,,,,,,,,,,,,,,,,,,,49,158959,19,Male,1,2024/02/12_14:30:35,YZ,59.90173384157369,
,,,,,,practice,0,6,3,159,11,J,0,right,1.9516467309986183,1,0,,,,,,,,,,,,,,,,,,,,,1,,,,,,,,,,,,,,,,,,,,,,,,,,,,,,,,,,,,,,,,,,,,,,49,158959,19,Male,1,2024/02/12_14:30:35,YZ,59.90173384157369,
,,,,,,practice,0,6,3,159,12,J,0,right,1.8661504720002995,1,0,,,,,,,,,,,,,,,,,,,,,1,,,,,,,,,,,,,,,,,,,,,,,,,,,,,,,,,,,,,,,,,,,,,,49,158959,19,Male,1,2024/02/12_14:30:35,YZ,59.90173384157369,
,,,,,,practice,0,6,3,159,13,N,0,right,1.2694316140004958,1,0,,,,,,,,,,,,,,,,,,,,,1,,,,,,,,,,,,,,,,,,,,,,,,,,,,,,,,,,,,,,,,,,,,,,49,158959,19,Male,1,2024/02/12_14:30:35,YZ,59.90173384157369,
,,,,,,practice,0,6,3,159,14,F,0,right,1.6555325660010567,1,0,,,,,,,,,,,,,,,,,,,,,1,,,,,,,,,,,,,,,,,,,,,,,,,,,,,,,,,,,,,,,,,,,,,,49,158959,19,Male,1,2024/02/12_14:30:35,YZ,59.90173384157369,
,,,,,,practice,0,6,3,159,15,F,0,right,2.677510413001073,1,0,,,,,,,,,,,,,,,,,,,,,1,,,,,,,,,,,,,,,,,,,,,,,,,,,,,,,,,,,,,,,,,,,,,,49,158959,19,Male,1,2024/02/12_14:30:35,YZ,59.90173384157369,
,,,,,,practice,0,6,3,159,16,X,0,right,1.9100610969999252,1,0,,,,,,,,,,,,,,,,,,,,,1,,,,,,,,,,,,,,,,,,,,,,,,,,,,,,,,,,,,,,,,,,,,,,49,158959,19,Male,1,2024/02/12_14:30:35,YZ,59.90173384157369,
,,,,,,practice,0,6,3,159,17,F,1,left,3.671796443000858,1,0,,,,,,,,,,,,,,,,,,,,,1,,,,,,,,,,,,,,,,,,,,,,,,,,,,,,,,,,,,,,,,,,,,,,49,158959,19,Male,1,2024/02/12_14:30:35,YZ,59.90173384157369,
,,,,,,practice,0,6,3,159,18,C,0,right,1.4943532289998984,1,0,,,,,,,,,,,,,,,,,,,,,1,,,,,,,,,,,,,,,,,,,,,,,,,,,,,,,,,,,,,,,,,,,,,,49,158959,19,Male,1,2024/02/12_14:30:35,YZ,59.90173384157369,
,,,,,,practice,0,6,3,159,19,X,1,left,0.986755533998803,1,0,,,,,,,,,,,,,,,,,,,,,1,,,,,,,,,,,,,,,,,,,,,,,,,,,,,,,,,,,,,,,,,,,,,,49,158959,19,Male,1,2024/02/12_14:30:35,YZ,59.90173384157369,
,,,,,,practice,0,6,3,159,20,V,0,right,2.106237002999478,1,0,,,,,,,,,,,,,,,,,,,,,1,,,,,,,,,,,,,,,,,,,,,,,,,,,,,,,,,,,,,,,,,,,,,,49,158959,19,Male,1,2024/02/12_14:30:35,YZ,59.90173384157369,
,,,,,,practice,0,6,3,159,21,C,1,left,1.5088505660005467,1,0,,,,,,,,,,,,,,,,,,,,,1,,,,,,,,,,,,,,,,,,,,,,,,,,,,,,,,,,,,,,,,,,,,,,49,158959,19,Male,1,2024/02/12_14:30:35,YZ,59.90173384157369,
,,,,,,practice,0,6,3,159,22,X,1,left,1.8149721669997234,1,0,,,,,,,,,,,,,,,,,,,,,1,,,,,,,,,,,,,,,,,,,,,,,,,,,,,,,,,,,,,,,,,,,,,,49,158959,19,Male,1,2024/02/12_14:30:35,YZ,59.90173384157369,
,,,,,,practice,0,6,3,159,,,,,,,,1.0,1.0,0.0,1.0,0.0,1.0,1.4808762430909403,6,0,0,0,0,16,22,6,16,0,,,,1,,,,,,,,,,,,,,,,,,,,,,,,,,,,,,,,,,,,,,,,,,,,,,49,158959,19,Male,1,2024/02/12_14:30:35,YZ,59.90173384157369,
,,,,,,practice,0,22,3,159,1,X,0,right,1.4751081790000171,1,0,,,,,,,,,,,,,,,,,,,,,1,,,,,,,,,,,,,,,,,,,,,,,,,,,,,,,,,,,,,,,,,,,,,,49,158959,19,Male,1,2024/02/12_14:30:35,YZ,59.90173384157369,
,,,,,,practice,0,22,3,159,2,V,0,right,0.5489313099988067,1,0,,,,,,,,,,,,,,,,,,,,,1,,,,,,,,,,,,,,,,,,,,,,,,,,,,,,,,,,,,,,,,,,,,,,49,158959,19,Male,1,2024/02/12_14:30:35,YZ,59.90173384157369,
,,,,,,practice,0,22,3,159,3,N,0,right,0.5926320970011147,1,0,,,,,,,,,,,,,,,,,,,,,1,,,,,,,,,,,,,,,,,,,,,,,,,,,,,,,,,,,,,,,,,,,,,,49,158959,19,Male,1,2024/02/12_14:30:35,YZ,59.90173384157369,
,,,,,,practice,0,22,3,159,4,S,0,right,1.3551346809999814,1,0,,,,,,,,,,,,,,,,,,,,,1,,,,,,,,,,,,,,,,,,,,,,,,,,,,,,,,,,,,,,,,,,,,,,49,158959,19,Male,1,2024/02/12_14:30:35,YZ,59.90173384157369,
,,,,,,practice,0,22,3,159,5,V,1,left,3.578598243999295,1,0,,,,,,,,,,,,,,,,,,,,,1,,,,,,,,,,,,,,,,,,,,,,,,,,,,,,,,,,,,,,,,,,,,,,49,158959,19,Male,1,2024/02/12_14:30:35,YZ,59.90173384157369,
,,,,,,practice,0,22,3,159,6,Q,0,right,3.3950013160010712,1,0,,,,,,,,,,,,,,,,,,,,,1,,,,,,,,,,,,,,,,,,,,,,,,,,,,,,,,,,,,,,,,,,,,,,49,158959,19,Male,1,2024/02/12_14:30:35,YZ,59.90173384157369,
,,,,,,practice,0,22,3,159,7,S,1,left,2.847997139000654,1,0,,,,,,,,,,,,,,,,,,,,,1,,,,,,,,,,,,,,,,,,,,,,,,,,,,,,,,,,,,,,,,,,,,,,49,158959,19,Male,1,2024/02/12_14:30:35,YZ,59.90173384157369,
,,,,,,practice,0,22,3,159,8,V,1,right,4.149257170000055,0,0,,,,,,,,,,,,,,,,,,,,,1,,,,,,,,,,,,,,,,,,,,,,,,,,,,,,,,,,,,,,,,,,,,,,49,158959,19,Male,1,2024/02/12_14:30:35,YZ,59.90173384157369,
,,,,,,practice,0,22,3,159,9,J,0,right,2.2720696489996044,1,0,,,,,,,,,,,,,,,,,,,,,1,,,,,,,,,,,,,,,,,,,,,,,,,,,,,,,,,,,,,,,,,,,,,,49,158959,19,Male,1,2024/02/12_14:30:35,YZ,59.90173384157369,
,,,,,,practice,0,22,3,159,10,F,0,right,2.0343475959998614,1,0,,,,,,,,,,,,,,,,,,,,,1,,,,,,,,,,,,,,,,,,,,,,,,,,,,,,,,,,,,,,,,,,,,,,49,158959,19,Male,1,2024/02/12_14:30:35,YZ,59.90173384157369,
,,,,,,practice,0,22,3,159,11,C,0,right,2.1404395859990473,1,0,,,,,,,,,,,,,,,,,,,,,1,,,,,,,,,,,,,,,,,,,,,,,,,,,,,,,,,,,,,,,,,,,,,,49,158959,19,Male,1,2024/02/12_14:30:35,YZ,59.90173384157369,
,,,,,,practice,0,22,3,159,12,V,0,right,3.213741420999213,1,0,,,,,,,,,,,,,,,,,,,,,1,,,,,,,,,,,,,,,,,,,,,,,,,,,,,,,,,,,,,,,,,,,,,,49,158959,19,Male,1,2024/02/12_14:30:35,YZ,59.90173384157369,
,,,,,,practice,0,22,3,159,13,F,1,left,1.0146447370007081,1,0,,,,,,,,,,,,,,,,,,,,,1,,,,,,,,,,,,,,,,,,,,,,,,,,,,,,,,,,,,,,,,,,,,,,49,158959,19,Male,1,2024/02/12_14:30:35,YZ,59.90173384157369,
,,,,,,practice,0,22,3,159,14,S,0,right,3.937628976000269,1,0,,,,,,,,,,,,,,,,,,,,,1,,,,,,,,,,,,,,,,,,,,,,,,,,,,,,,,,,,,,,,,,,,,,,49,158959,19,Male,1,2024/02/12_14:30:35,YZ,59.90173384157369,
,,,,,,practice,0,22,3,159,15,V,1,left,1.1746852249998483,1,0,,,,,,,,,,,,,,,,,,,,,1,,,,,,,,,,,,,,,,,,,,,,,,,,,,,,,,,,,,,,,,,,,,,,49,158959,19,Male,1,2024/02/12_14:30:35,YZ,59.90173384157369,
,,,,,,practice,0,22,3,159,16,X,0,right,2.0299781519988755,1,0,,,,,,,,,,,,,,,,,,,,,1,,,,,,,,,,,,,,,,,,,,,,,,,,,,,,,,,,,,,,,,,,,,,,49,158959,19,Male,1,2024/02/12_14:30:35,YZ,59.90173384157369,
,,,,,,practice,0,22,3,159,17,N,0,left,0.8744414209995739,0,0,,,,,,,,,,,,,,,,,,,,,1,,,,,,,,,,,,,,,,,,,,,,,,,,,,,,,,,,,,,,,,,,,,,,49,158959,19,Male,1,2024/02/12_14:30:35,YZ,59.90173384157369,
,,,,,,practice,0,22,3,159,18,X,0,right,1.1305846750001365,1,0,,,,,,,,,,,,,,,,,,,,,1,,,,,,,,,,,,,,,,,,,,,,,,,,,,,,,,,,,,,,,,,,,,,,49,158959,19,Male,1,2024/02/12_14:30:35,YZ,59.90173384157369,
,,,,,,practice,0,22,3,159,19,X,1,left,2.326087961000667,1,0,,,,,,,,,,,,,,,,,,,,,1,,,,,,,,,,,,,,,,,,,,,,,,,,,,,,,,,,,,,,,,,,,,,,49,158959,19,Male,1,2024/02/12_14:30:35,YZ,59.90173384157369,
,,,,,,practice,0,22,3,159,20,S,0,right,1.7405590910002502,1,0,,,,,,,,,,,,,,,,,,,,,1,,,,,,,,,,,,,,,,,,,,,,,,,,,,,,,,,,,,,,,,,,,,,,49,158959,19,Male,1,2024/02/12_14:30:35,YZ,59.90173384157369,
,,,,,,practice,0,22,3,159,21,N,0,right,1.3343215940003574,1,0,,,,,,,,,,,,,,,,,,,,,1,,,,,,,,,,,,,,,,,,,,,,,,,,,,,,,,,,,,,,,,,,,,,,49,158959,19,Male,1,2024/02/12_14:30:35,YZ,59.90173384157369,
,,,,,,practice,0,22,3,159,22,X,1,left,1.2201520759990672,1,0,,,,,,,,,,,,,,,,,,,,,1,,,,,,,,,,,,,,,,,,,,,,,,,,,,,,,,,,,,,,,,,,,,,,49,158959,19,Male,1,2024/02/12_14:30:35,YZ,59.90173384157369,
,,,,,,practice,0,22,3,159,,,,,,,,0.9380952380952381,0.8571428571428571,0.06666666666666667,0.9333333333333333,0.0,0.9333333333333333,2.017561013454476,6,1,0,0,0,14,20,7,15,0,,,,1,,,,,,,,,,,,,,,,,,,,,,,,,,,,,,,,,,,,,,,,,,,,,,49,158959,19,Male,1,2024/02/12_14:30:35,YZ,59.90173384157369,
1,./instructions/inst_prac_main/Slide51.png,right,1.6575486000001547,804.880021988999,806.5375705889992,,,,,,,,,,,,,,,,,,,,,,,,,,,,,,,,,1,,,,,,,,,,,,,,,,,,,,,,,,,,,,,,,,,,,,,,,,,,,,,,49,158959,19,Male,1,2024/02/12_14:30:35,YZ,59.90173384157369,
2,./instructions/inst_prac_main/Slide52.png,right,10.19896421500016,806.5866264269998,816.785590642,,,,,,,,,,,,,,,,,,,,,,,,,,,,,,,,,1,,,,,,,,,,,,,,,,,,,,,,,,,,,,,,,,,,,,,,,,,,,,,,49,158959,19,Male,1,2024/02/12_14:30:35,YZ,59.90173384157369,
3,./instructions/inst_prac_main/Slide53.png,right,5.710460525000599,816.843080485999,822.5535410109997,,,,,,,,,,,,,,,,,,,,,,,,,,,,,,,,,1,,,,,,,,,,,,,,,,,,,,,,,,,,,,,,,,,,,,,,,,,,,,,,49,158959,19,Male,1,2024/02/12_14:30:35,YZ,59.90173384157369,
4,./instructions/inst_prac_main/Slide54.png,right,18.718745099000444,822.6109402989996,841.329685398,,,,,,,,,,,,,,,,,,,,,,,,,,,,,,,,,1,,,,,,,,,,,,,,,,,,,,,,,,,,,,,,,,,,,,,,,,,,,,,,49,158959,19,Male,1,2024/02/12_14:30:35,YZ,59.90173384157369,
,,,,,,practice_main,0,1,3,159,1,N,0,None,nan,0,1,,,,,,,,,,,,,,,,,,,,,1,,,,,,,,,,,,,,,,,,,,,,,,,,,,,,,,,,,,,,,,,,,,,,49,158959,19,Male,1,2024/02/12_14:30:35,YZ,59.90173384157369,
,,,,,,practice_main,0,1,3,159,2,V,0,None,nan,0,1,,,,,,,,,,,,,,,,,,,,,1,,,,,,,,,,,,,,,,,,,,,,,,,,,,,,,,,,,,,,,,,,,,,,49,158959,19,Male,1,2024/02/12_14:30:35,YZ,59.90173384157369,
,,,,,,practice_main,0,1,3,159,3,X,0,None,nan,0,1,,,,,,,,,,,,,,,,,,,,,1,,,,,,,,,,,,,,,,,,,,,,,,,,,,,,,,,,,,,,,,,,,,,,49,158959,19,Male,1,2024/02/12_14:30:35,YZ,59.90173384157369,
,,,,,,practice_main,0,1,3,159,4,N,1,left,0.5238904640009423,1,0,,,,,,,,,,,,,,,,,,,,,1,,,,,,,,,,,,,,,,,,,,,,,,,,,,,,,,,,,,,,,,,,,,,,49,158959,19,Male,1,2024/02/12_14:30:35,YZ,59.90173384157369,
,,,,,,practice_main,0,1,3,159,5,V,1,left,0.6337572110005567,1,0,,,,,,,,,,,,,,,,,,,,,1,,,,,,,,,,,,,,,,,,,,,,,,,,,,,,,,,,,,,,,,,,,,,,49,158959,19,Male,1,2024/02/12_14:30:35,YZ,59.90173384157369,
,,,,,,practice_main,0,1,3,159,6,N,0,right,0.5249083470007463,1,0,,,,,,,,,,,,,,,,,,,,,1,,,,,,,,,,,,,,,,,,,,,,,,,,,,,,,,,,,,,,,,,,,,,,49,158959,19,Male,1,2024/02/12_14:30:35,YZ,59.90173384157369,
,,,,,,practice_main,0,1,3,159,7,V,0,left,0.9852176610002061,0,0,,,,,,,,,,,,,,,,,,,,,1,,,,,,,,,,,,,,,,,,,,,,,,,,,,,,,,,,,,,,,,,,,,,,49,158959,19,Male,1,2024/02/12_14:30:35,YZ,59.90173384157369,
,,,,,,practice_main,0,1,3,159,8,N,0,left,nan,0,1,,,,,,,,,,,,,,,,,,,,,1,,,,,,,,,,,,,,,,,,,,,,,,,,,,,,,,,,,,,,,,,,,,,,49,158959,19,Male,1,2024/02/12_14:30:35,YZ,59.90173384157369,
,,,,,,practice_main,0,1,3,159,9,J,0,left,nan,0,1,,,,,,,,,,,,,,,,,,,,,1,,,,,,,,,,,,,,,,,,,,,,,,,,,,,,,,,,,,,,,,,,,,,,49,158959,19,Male,1,2024/02/12_14:30:35,YZ,59.90173384157369,
,,,,,,practice_main,0,1,3,159,10,V,1,right,0.10420473200065317,0,0,,,,,,,,,,,,,,,,,,,,,1,,,,,,,,,,,,,,,,,,,,,,,,,,,,,,,,,,,,,,,,,,,,,,49,158959,19,Male,1,2024/02/12_14:30:35,YZ,59.90173384157369,
,,,,,,practice_main,0,1,3,159,11,N,1,right,nan,0,1,,,,,,,,,,,,,,,,,,,,,1,,,,,,,,,,,,,,,,,,,,,,,,,,,,,,,,,,,,,,,,,,,,,,49,158959,19,Male,1,2024/02/12_14:30:35,YZ,59.90173384157369,
,,,,,,practice_main,0,1,3,159,12,Q,0,right,0.8805402680009138,1,0,,,,,,,,,,,,,,,,,,,,,1,,,,,,,,,,,,,,,,,,,,,,,,,,,,,,,,,,,,,,,,,,,,,,49,158959,19,Male,1,2024/02/12_14:30:35,YZ,59.90173384157369,
,,,,,,practice_main,0,1,3,159,13,V,1,left,0.3466389830009575,1,0,,,,,,,,,,,,,,,,,,,,,1,,,,,,,,,,,,,,,,,,,,,,,,,,,,,,,,,,,,,,,,,,,,,,49,158959,19,Male,1,2024/02/12_14:30:35,YZ,59.90173384157369,
,,,,,,practice_main,0,1,3,159,14,C,0,right,0.7140693279998231,1,0,,,,,,,,,,,,,,,,,,,,,1,,,,,,,,,,,,,,,,,,,,,,,,,,,,,,,,,,,,,,,,,,,,,,49,158959,19,Male,1,2024/02/12_14:30:35,YZ,59.90173384157369,
,,,,,,practice_main,0,1,3,159,15,Q,1,right,0.5793359639992559,0,0,,,,,,,,,,,,,,,,,,,,,1,,,,,,,,,,,,,,,,,,,,,,,,,,,,,,,,,,,,,,,,,,,,,,49,158959,19,Male,1,2024/02/12_14:30:35,YZ,59.90173384157369,
,,,,,,practice_main,0,1,3,159,16,C,0,left,0.40813475200047833,0,0,,,,,,,,,,,,,,,,,,,,,1,,,,,,,,,,,,,,,,,,,,,,,,,,,,,,,,,,,,,,,,,,,,,,49,158959,19,Male,1,2024/02/12_14:30:35,YZ,59.90173384157369,
,,,,,,practice_main,0,1,3,159,17,N,0,right,0.4977719119997346,1,0,,,,,,,,,,,,,,,,,,,,,1,,,,,,,,,,,,,,,,,,,,,,,,,,,,,,,,,,,,,,,,,,,,,,49,158959,19,Male,1,2024/02/12_14:30:35,YZ,59.90173384157369,
,,,,,,practice_main,0,1,3,159,18,Q,1,left,0.7513802379999106,1,0,,,,,,,,,,,,,,,,,,,,,1,,,,,,,,,,,,,,,,,,,,,,,,,,,,,,,,,,,,,,,,,,,,,,49,158959,19,Male,1,2024/02/12_14:30:35,YZ,59.90173384157369,
,,,,,,practice_main,0,1,3,159,19,X,0,right,0.5472621499993693,1,0,,,,,,,,,,,,,,,,,,,,,1,,,,,,,,,,,,,,,,,,,,,,,,,,,,,,,,,,,,,,,,,,,,,,49,158959,19,Male,1,2024/02/12_14:30:35,YZ,59.90173384157369,
,,,,,,practice_main,0,1,3,159,20,V,0,right,0.660904438000216,1,0,,,,,,,,,,,,,,,,,,,,,1,,,,,,,,,,,,,,,,,,,,,,,,,,,,,,,,,,,,,,,,,,,,,,49,158959,19,Male,1,2024/02/12_14:30:35,YZ,59.90173384157369,
,,,,,,practice_main,0,1,3,159,21,V,0,right,0.4780362969995622,1,0,,,,,,,,,,,,,,,,,,,,,1,,,,,,,,,,,,,,,,,,,,,,,,,,,,,,,,,,,,,,,,,,,,,,49,158959,19,Male,1,2024/02/12_14:30:35,YZ,59.90173384157369,
,,,,,,practice_main,0,1,3,159,22,S,0,left,0.4791719210006704,0,0,,,,,,,,,,,,,,,,,,,,,1,,,,,,,,,,,,,,,,,,,,,,,,,,,,,,,,,,,,,,,,,,,,,,49,158959,19,Male,1,2024/02/12_14:30:35,YZ,59.90173384157369,
,,,,,,practice_main,0,1,3,159,,,,,,,,0.7571428571428571,0.5714285714285714,0.2,0.7,0.2727272727272727,0.5272727272727273,0.5697015416252498,4,3,1,5,6,7,11,7,15,0,,,,1,,,,,,,,,,,,,,,,,,,,,,,,,,,,,,,,,,,,,,,,,,,,,,49,158959,19,Male,1,2024/02/12_14:30:35,YZ,59.90173384157369,
,,,,,240212_144719,PRACTICE,0,1,3,159,,,,,,,,,,,,,,,,,,,,,,,,,,,,1,24,1,1,cue2.png,hard,A,55,2.11874138299936,0,845.5077885569999,847.6630998560004,,,,,,,,,,,,,,,,,,,,,,,,,,,,,,,,,,,49,158959,19,Male,1,2024/02/12_14:30:35,YZ,59.90173384157369,
,,,,,,practice_main,0,2,1,159,1,S,0,None,nan,0,1,,,,,,,,,,,,,,,,,,,,,1,,,,,,,,,,,,,,,,,,,,,,,,,,,,,,,,,,,,,,,,,,,,,,49,158959,19,Male,1,2024/02/12_14:30:35,YZ,59.90173384157369,
,,,,,,practice_main,0,2,1,159,2,S,1,left,0.47949907499969413,1,0,,,,,,,,,,,,,,,,,,,,,1,,,,,,,,,,,,,,,,,,,,,,,,,,,,,,,,,,,,,,,,,,,,,,49,158959,19,Male,1,2024/02/12_14:30:35,YZ,59.90173384157369,
,,,,,,practice_main,0,2,1,159,3,F,0,right,0.39635869399899093,1,0,,,,,,,,,,,,,,,,,,,,,1,,,,,,,,,,,,,,,,,,,,,,,,,,,,,,,,,,,,,,,,,,,,,,49,158959,19,Male,1,2024/02/12_14:30:35,YZ,59.90173384157369,
,,,,,,practice_main,0,2,1,159,4,V,0,right,0.5776874220009631,1,0,,,,,,,,,,,,,,,,,,,,,1,,,,,,,,,,,,,,,,,,,,,,,,,,,,,,,,,,,,,,,,,,,,,,49,158959,19,Male,1,2024/02/12_14:30:35,YZ,59.90173384157369,
,,,,,,practice_main,0,2,1,159,5,S,0,right,0.46240536400000565,1,0,,,,,,,,,,,,,,,,,,,,,1,,,,,,,,,,,,,,,,,,,,,,,,,,,,,,,,,,,,,,,,,,,,,,49,158959,19,Male,1,2024/02/12_14:30:35,YZ,59.90173384157369,
,,,,,,practice_main,0,2,1,159,6,N,0,right,0.5605119530009688,1,0,,,,,,,,,,,,,,,,,,,,,1,,,,,,,,,,,,,,,,,,,,,,,,,,,,,,,,,,,,,,,,,,,,,,49,158959,19,Male,1,2024/02/12_14:30:35,YZ,59.90173384157369,
,,,,,,practice_main,0,2,1,159,7,N,1,left,0.4860256739993929,1,0,,,,,,,,,,,,,,,,,,,,,1,,,,,,,,,,,,,,,,,,,,,,,,,,,,,,,,,,,,,,,,,,,,,,49,158959,19,Male,1,2024/02/12_14:30:35,YZ,59.90173384157369,
,,,,,,practice_main,0,2,1,159,8,Q,0,right,0.4384601139990991,1,0,,,,,,,,,,,,,,,,,,,,,1,,,,,,,,,,,,,,,,,,,,,,,,,,,,,,,,,,,,,,,,,,,,,,49,158959,19,Male,1,2024/02/12_14:30:35,YZ,59.90173384157369,
,,,,,,practice_main,0,2,1,159,9,S,0,right,0.4386512529999891,1,0,,,,,,,,,,,,,,,,,,,,,1,,,,,,,,,,,,,,,,,,,,,,,,,,,,,,,,,,,,,,,,,,,,,,49,158959,19,Male,1,2024/02/12_14:30:35,YZ,59.90173384157369,
,,,,,,practice_main,0,2,1,159,10,S,1,left,0.33514798000032897,1,0,,,,,,,,,,,,,,,,,,,,,1,,,,,,,,,,,,,,,,,,,,,,,,,,,,,,,,,,,,,,,,,,,,,,49,158959,19,Male,1,2024/02/12_14:30:35,YZ,59.90173384157369,
,,,,,,practice_main,0,2,1,159,11,F,0,right,0.3812985570002638,1,0,,,,,,,,,,,,,,,,,,,,,1,,,,,,,,,,,,,,,,,,,,,,,,,,,,,,,,,,,,,,,,,,,,,,49,158959,19,Male,1,2024/02/12_14:30:35,YZ,59.90173384157369,
,,,,,,practice_main,0,2,1,159,12,N,0,right,0.4696627899993473,1,0,,,,,,,,,,,,,,,,,,,,,1,,,,,,,,,,,,,,,,,,,,,,,,,,,,,,,,,,,,,,,,,,,,,,49,158959,19,Male,1,2024/02/12_14:30:35,YZ,59.90173384157369,
,,,,,,practice_main,0,2,1,159,13,C,0,right,0.4783065900010115,1,0,,,,,,,,,,,,,,,,,,,,,1,,,,,,,,,,,,,,,,,,,,,,,,,,,,,,,,,,,,,,,,,,,,,,49,158959,19,Male,1,2024/02/12_14:30:35,YZ,59.90173384157369,
,,,,,,practice_main,0,2,1,159,14,C,1,left,0.4550794120004866,1,0,,,,,,,,,,,,,,,,,,,,,1,,,,,,,,,,,,,,,,,,,,,,,,,,,,,,,,,,,,,,,,,,,,,,49,158959,19,Male,1,2024/02/12_14:30:35,YZ,59.90173384157369,
,,,,,,practice_main,0,2,1,159,15,S,0,right,0.4773663050000323,1,0,,,,,,,,,,,,,,,,,,,,,1,,,,,,,,,,,,,,,,,,,,,,,,,,,,,,,,,,,,,,,,,,,,,,49,158959,19,Male,1,2024/02/12_14:30:35,YZ,59.90173384157369,
,,,,,,practice_main,0,2,1,159,16,C,0,left,0.5232554399990477,0,0,,,,,,,,,,,,,,,,,,,,,1,,,,,,,,,,,,,,,,,,,,,,,,,,,,,,,,,,,,,,,,,,,,,,49,158959,19,Male,1,2024/02/12_14:30:35,YZ,59.90173384157369,
,,,,,,practice_main,0,2,1,159,17,C,1,right,0.5519400190005399,0,0,,,,,,,,,,,,,,,,,,,,,1,,,,,,,,,,,,,,,,,,,,,,,,,,,,,,,,,,,,,,,,,,,,,,49,158959,19,Male,1,2024/02/12_14:30:35,YZ,59.90173384157369,
,,,,,,practice_main,0,2,1,159,18,Q,0,right,0.6114006300012989,1,0,,,,,,,,,,,,,,,,,,,,,1,,,,,,,,,,,,,,,,,,,,,,,,,,,,,,,,,,,,,,,,,,,,,,49,158959,19,Male,1,2024/02/12_14:30:35,YZ,59.90173384157369,
