Instruction,Stimulus,Key,RT,START,END,Phase,Block,TrialN,NbackLevel,ISI,LetterN,Letter,Letter_isSame,Letter_Resp,Letter_RT,Letter_Accuracy,Letter_Timeout,Trial_A_measure,Trial_HR,Trial_FAR,Trial_CDR,Trial_MSR,Trial_ACC,Trial_RT,Trial_HitsCount,Trial_FAsCount,Trial_SameNoRespCount,Trial_DiffNoRespCount,Trial_NoRespCount,Trial_CDsCount,Trial_CorrectRespCount,Trial_SameLetterCount,Trial_DiffLetterCount,Trial_InvalidLetterCount,Run,TrialIndex,TrialNumber_total,TrialNumber_valid,CueLearning,TrialDemandLearning,CueMapping,OnlineRating,OnlineRatingRT,OnlineRatingTimeOut,CueSTART,RatingSTART,OfflineRatingTimePoint,OfflineRatingQuesIndex,CueFigure,TrialDemand,OfflineRating,OfflineRatingRT,CueStart,OfflineRatingStart,PhaseType,CueLeft,CueDemandLeft,CueRight,CueDemandRight,Choice,ChoiceDemand,TaskDemand,ChoiceRT,ChoiceTimeOut,ChoiceSTART,CueCheck,CueDemandCheck,CorrectAnswer,Answer,AnswerDemand,AnswerRT,AnswerACC,AnswerTimeOut,CheckSTART,DemandRatingQuesIndex,QuesTLX,DemandLevel,DemandRating,DemandRatingRT,QuesStart,PID,SONA,Age,Gender,Run,TIME,EXPERIMENTER,frameRate,
1,./instructions/inst_test/Slide57.png,right,15.774661389994435,0.11625732900574803,15.890918719000183,,,,,,,,,,,,,,,,,,,,,,,,,,,,,,1,,,,,,,,,,,,,,,,,,,,,,,,,,,,,,,,,,,,,,,,,,,,,,75,152824,21,Female,1,2024/02/22_11:37:40,YZ,None,
,,,,,,test,1,1,1,1250,1,Q,0,None,nan,0,1,,,,,,,,,,,,,,,,,,1,,,,,,,,,,,,,,,,,,,,,,,,,,,,,,,,,,,,,,,,,,,,,,75,152824,21,Female,1,2024/02/22_11:37:40,YZ,None,
,,,,,,test,1,1,1,1250,2,Q,1,left,0.7083861179999076,1,0,,,,,,,,,,,,,,,,,,1,,,,,,,,,,,,,,,,,,,,,,,,,,,,,,,,,,,,,,,,,,,,,,75,152824,21,Female,1,2024/02/22_11:37:40,YZ,None,
,,,,,,test,1,1,1,1250,3,C,0,left,0.685242809006013,0,0,,,,,,,,,,,,,,,,,,1,,,,,,,,,,,,,,,,,,,,,,,,,,,,,,,,,,,,,,,,,,,,,,75,152824,21,Female,1,2024/02/22_11:37:40,YZ,None,
,,,,,,test,1,1,1,1250,4,C,1,left,0.6893315890047234,1,0,,,,,,,,,,,,,,,,,,1,,,,,,,,,,,,,,,,,,,,,,,,,,,,,,,,,,,,,,,,,,,,,,75,152824,21,Female,1,2024/02/22_11:37:40,YZ,None,
,,,,,,test,1,1,1,1250,5,Q,0,left,0.7142890550021548,0,0,,,,,,,,,,,,,,,,,,1,,,,,,,,,,,,,,,,,,,,,,,,,,,,,,,,,,,,,,,,,,,,,,75,152824,21,Female,1,2024/02/22_11:37:40,YZ,None,
,,,,,,test,1,1,1,1250,6,C,0,left,0.4200679440109525,0,0,,,,,,,,,,,,,,,,,,1,,,,,,,,,,,,,,,,,,,,,,,,,,,,,,,,,,,,,,,,,,,,,,75,152824,21,Female,1,2024/02/22_11:37:40,YZ,None,
,,,,,,test,1,1,1,1250,7,X,0,right,0.6159260930144228,1,0,,,,,,,,,,,,,,,,,,1,,,,,,,,,,,,,,,,,,,,,,,,,,,,,,,,,,,,,,,,,,,,,,75,152824,21,Female,1,2024/02/22_11:37:40,YZ,None,
,,,,,,test,1,1,1,1250,8,F,0,right,0.624336268985644,1,0,,,,,,,,,,,,,,,,,,1,,,,,,,,,,,,,,,,,,,,,,,,,,,,,,,,,,,,,,,,,,,,,,75,152824,21,Female,1,2024/02/22_11:37:40,YZ,None,
,,,,,,test,1,1,1,1250,9,S,0,right,0.5291674239852,1,0,,,,,,,,,,,,,,,,,,1,,,,,,,,,,,,,,,,,,,,,,,,,,,,,,,,,,,,,,,,,,,,,,75,152824,21,Female,1,2024/02/22_11:37:40,YZ,None,
,,,,,,test,1,1,1,1250,10,S,1,right,0.41954161701141857,0,0,,,,,,,,,,,,,,,,,,1,,,,,,,,,,,,,,,,,,,,,,,,,,,,,,,,,,,,,,,,,,,,,,75,152824,21,Female,1,2024/02/22_11:37:40,YZ,None,
,,,,,,Test,1,1,1,1250,,,,,,,,0.6666666666666666,0.6666666666666666,0.42857142857142855,0.5,0.1,0.4714285714285714,0.6006987686689373,2,3,0,1,1,3,5,3,7,0,1,,,,,,,,,,,,,,,,,,,,,,,,,,,,,,,,,,,,,,,,,,,,,,75,152824,21,Female,1,2024/02/22_11:37:40,YZ,None,
,,,,,240222_113910,TEST,1,1,1,1250,,,,,,,,,,,,,,,,,,,,,,,,,1,1,1,1,cue1.png,easy,A,42,1.129598163999617,0,20.97630318600568,22.12761406300706,,,,,,,,,,,,,,,,,,,,,,,,,,,,,,,,,,,75,152824,21,Female,1,2024/02/22_11:37:40,YZ,None,
,,,,,,test,1,2,3,1250,1,V,0,right,0.9868604289949872,1,0,,,,,,,,,,,,,,,,,,1,,,,,,,,,,,,,,,,,,,,,,,,,,,,,,,,,,,,,,,,,,,,,,75,152824,21,Female,1,2024/02/22_11:37:40,YZ,None,
,,,,,,test,1,2,3,1250,2,C,0,right,0.31444829699466936,1,0,,,,,,,,,,,,,,,,,,1,,,,,,,,,,,,,,,,,,,,,,,,,,,,,,,,,,,,,,,,,,,,,,75,152824,21,Female,1,2024/02/22_11:37:40,YZ,None,
,,,,,,test,1,2,3,1250,3,S,0,right,0.32540480900206603,1,0,,,,,,,,,,,,,,,,,,1,,,,,,,,,,,,,,,,,,,,,,,,,,,,,,,,,,,,,,,,,,,,,,75,152824,21,Female,1,2024/02/22_11:37:40,YZ,None,
,,,,,,test,1,2,3,1250,4,S,0,right,0.4462870510178618,1,0,,,,,,,,,,,,,,,,,,1,,,,,,,,,,,,,,,,,,,,,,,,,,,,,,,,,,,,,,,,,,,,,,75,152824,21,Female,1,2024/02/22_11:37:40,YZ,None,
,,,,,,test,1,2,3,1250,5,C,1,right,0.7972919270105194,0,0,,,,,,,,,,,,,,,,,,1,,,,,,,,,,,,,,,,,,,,,,,,,,,,,,,,,,,,,,,,,,,,,,75,152824,21,Female,1,2024/02/22_11:37:40,YZ,None,
,,,,,,test,1,2,3,1250,6,F,0,right,0.44013166599324904,1,0,,,,,,,,,,,,,,,,,,1,,,,,,,,,,,,,,,,,,,,,,,,,,,,,,,,,,,,,,,,,,,,,,75,152824,21,Female,1,2024/02/22_11:37:40,YZ,None,
,,,,,,test,1,2,3,1250,7,V,0,left,0.6755875280068722,0,0,,,,,,,,,,,,,,,,,,1,,,,,,,,,,,,,,,,,,,,,,,,,,,,,,,,,,,,,,,,,,,,,,75,152824,21,Female,1,2024/02/22_11:37:40,YZ,None,
,,,,,,test,1,2,3,1250,8,C,1,left,0.5948686060146429,1,0,,,,,,,,,,,,,,,,,,1,,,,,,,,,,,,,,,,,,,,,,,,,,,,,,,,,,,,,,,,,,,,,,75,152824,21,Female,1,2024/02/22_11:37:40,YZ,None,
,,,,,,test,1,2,3,1250,9,F,1,left,0.40952062598080374,1,0,,,,,,,,,,,,,,,,,,1,,,,,,,,,,,,,,,,,,,,,,,,,,,,,,,,,,,,,,,,,,,,,,75,152824,21,Female,1,2024/02/22_11:37:40,YZ,None,
,,,,,,test,1,2,3,1250,10,S,0,right,0.3100524379988201,1,0,,,,,,,,,,,,,,,,,,1,,,,,,,,,,,,,,,,,,,,,,,,,,,,,,,,,,,,,,,,,,,,,,75,152824,21,Female,1,2024/02/22_11:37:40,YZ,None,
,,,,,,Test,1,2,3,1250,,,,,,,,0.8333333333333333,0.6666666666666666,0.14285714285714285,0.8571428571428571,0.0,0.8571428571428572,0.5300453377014491,2,1,0,0,0,6,8,3,7,0,1,,,,,,,,,,,,,,,,,,,,,,,,,,,,,,,,,,,,,,,,,,,,,,75,152824,21,Female,1,2024/02/22_11:37:40,YZ,None,
,,,,,240222_113931,TEST,1,2,3,1250,,,,,,,,,,,,,,,,,,,,,,,,,1,2,2,2,cue2.png,hard,A,40,0.8672853680036496,0,43.94238687900361,44.82630529202288,,,,,,,,,,,,,,,,,,,,,,,,,,,,,,,,,,,75,152824,21,Female,1,2024/02/22_11:37:40,YZ,None,
,,,,,,test,1,3,1,1250,1,F,0,None,nan,0,1,,,,,,,,,,,,,,,,,,1,,,,,,,,,,,,,,,,,,,,,,,,,,,,,,,,,,,,,,,,,,,,,,75,152824,21,Female,1,2024/02/22_11:37:40,YZ,None,
,,,,,,test,1,3,1,1250,2,X,0,right,1.7159583279863,1,0,,,,,,,,,,,,,,,,,,1,,,,,,,,,,,,,,,,,,,,,,,,,,,,,,,,,,,,,,,,,,,,,,75,152824,21,Female,1,2024/02/22_11:37:40,YZ,None,
,,,,,,test,1,3,1,1250,3,C,0,right,0.002253277023555711,1,0,,,,,,,,,,,,,,,,,,1,,,,,,,,,,,,,,,,,,,,,,,,,,,,,,,,,,,,,,,,,,,,,,75,152824,21,Female,1,2024/02/22_11:37:40,YZ,None,
,,,,,,test,1,3,1,1250,4,X,0,right,0.08022776700090617,1,0,,,,,,,,,,,,,,,,,,1,,,,,,,,,,,,,,,,,,,,,,,,,,,,,,,,,,,,,,,,,,,,,,75,152824,21,Female,1,2024/02/22_11:37:40,YZ,None,
,,,,,,test,1,3,1,1250,5,X,1,right,0.14943944901460782,0,0,,,,,,,,,,,,,,,,,,1,,,,,,,,,,,,,,,,,,,,,,,,,,,,,,,,,,,,,,,,,,,,,,75,152824,21,Female,1,2024/02/22_11:37:40,YZ,None,
,,,,,,test,1,3,1,1250,6,J,0,left,0.12224789400352165,0,0,,,,,,,,,,,,,,,,,,1,,,,,,,,,,,,,,,,,,,,,,,,,,,,,,,,,,,,,,,,,,,,,,75,152824,21,Female,1,2024/02/22_11:37:40,YZ,None,
,,,,,,test,1,3,1,1250,7,J,1,left,0.1004446950100828,1,0,,,,,,,,,,,,,,,,,,1,,,,,,,,,,,,,,,,,,,,,,,,,,,,,,,,,,,,,,,,,,,,,,75,152824,21,Female,1,2024/02/22_11:37:40,YZ,None,
,,,,,,test,1,3,1,1250,8,C,0,right,0.4483612769981846,1,0,,,,,,,,,,,,,,,,,,1,,,,,,,,,,,,,,,,,,,,,,,,,,,,,,,,,,,,,,,,,,,,,,75,152824,21,Female,1,2024/02/22_11:37:40,YZ,None,
,,,,,,test,1,3,1,1250,9,F,0,right,0.2924710219958797,1,0,,,,,,,,,,,,,,,,,,1,,,,,,,,,,,,,,,,,,,,,,,,,,,,,,,,,,,,,,,,,,,,,,75,152824,21,Female,1,2024/02/22_11:37:40,YZ,None,
,,,,,,test,1,3,1,1250,10,F,1,left,0.3404045959759969,1,0,,,,,,,,,,,,,,,,,,1,,,,,,,,,,,,,,,,,,,,,,,,,,,,,,,,,,,,,,,,,,,,,,75,152824,21,Female,1,2024/02/22_11:37:40,YZ,None,
,,,,,,Test,1,3,1,1250,,,,,,,,0.8333333333333333,0.6666666666666666,0.14285714285714285,0.8333333333333334,0.1,0.7571428571428572,0.3613120338898928,2,1,0,1,1,5,7,3,7,0,1,,,,,,,,,,,,,,,,,,,,,,,,,,,,,,,,,,,,,,,,,,,,,,75,152824,21,Female,1,2024/02/22_11:37:40,YZ,None,
,,,,,240222_113952,TEST,1,3,1,1250,,,,,,,,,,,,,,,,,,,,,,,,,1,3,3,3,cue1.png,easy,A,40,1.038648262998322,0,64.4903117690119,65.54875817600987,,,,,,,,,,,,,,,,,,,,,,,,,,,,,,,,,,,75,152824,21,Female,1,2024/02/22_11:37:40,YZ,None,
,,,,,,test,1,4,3,1250,1,C,0,right,0.9215001449920237,1,0,,,,,,,,,,,,,,,,,,1,,,,,,,,,,,,,,,,,,,,,,,,,,,,,,,,,,,,,,,,,,,,,,75,152824,21,Female,1,2024/02/22_11:37:40,YZ,None,
,,,,,,test,1,4,3,1250,2,N,0,right,0.3982923750008922,1,0,,,,,,,,,,,,,,,,,,1,,,,,,,,,,,,,,,,,,,,,,,,,,,,,,,,,,,,,,,,,,,,,,75,152824,21,Female,1,2024/02/22_11:37:40,YZ,None,
,,,,,,test,1,4,3,1250,3,N,0,right,0.36055551198660396,1,0,,,,,,,,,,,,,,,,,,1,,,,,,,,,,,,,,,,,,,,,,,,,,,,,,,,,,,,,,,,,,,,,,75,152824,21,Female,1,2024/02/22_11:37:40,YZ,None,
,,,,,,test,1,4,3,1250,4,J,0,right,0.5603523080062587,1,0,,,,,,,,,,,,,,,,,,1,,,,,,,,,,,,,,,,,,,,,,,,,,,,,,,,,,,,,,,,,,,,,,75,152824,21,Female,1,2024/02/22_11:37:40,YZ,None,
,,,,,,test,1,4,3,1250,5,V,0,right,0.4313831229810603,1,0,,,,,,,,,,,,,,,,,,1,,,,,,,,,,,,,,,,,,,,,,,,,,,,,,,,,,,,,,,,,,,,,,75,152824,21,Female,1,2024/02/22_11:37:40,YZ,None,
,,,,,,test,1,4,3,1250,6,N,1,left,0.5530574510048609,1,0,,,,,,,,,,,,,,,,,,1,,,,,,,,,,,,,,,,,,,,,,,,,,,,,,,,,,,,,,,,,,,,,,75,152824,21,Female,1,2024/02/22_11:37:40,YZ,None,
,,,,,,test,1,4,3,1250,7,F,0,left,0.4624130039883312,0,0,,,,,,,,,,,,,,,,,,1,,,,,,,,,,,,,,,,,,,,,,,,,,,,,,,,,,,,,,,,,,,,,,75,152824,21,Female,1,2024/02/22_11:37:40,YZ,None,
,,,,,,test,1,4,3,1250,8,V,1,right,0.36438177101081237,0,0,,,,,,,,,,,,,,,,,,1,,,,,,,,,,,,,,,,,,,,,,,,,,,,,,,,,,,,,,,,,,,,,,75,152824,21,Female,1,2024/02/22_11:37:40,YZ,None,
,,,,,,test,1,4,3,1250,9,X,0,right,0.30614584498107433,1,0,,,,,,,,,,,,,,,,,,1,,,,,,,,,,,,,,,,,,,,,,,,,,,,,,,,,,,,,,,,,,,,,,75,152824,21,Female,1,2024/02/22_11:37:40,YZ,None,
,,,,,,test,1,4,3,1250,10,F,1,right,0.3070272559998557,0,0,,,,,,,,,,,,,,,,,,1,,,,,,,,,,,,,,,,,,,,,,,,,,,,,,,,,,,,,,,,,,,,,,75,152824,21,Female,1,2024/02/22_11:37:40,YZ,None,
,,,,,,Test,1,4,3,1250,,,,,,,,0.6904761904761906,0.3333333333333333,0.14285714285714285,0.8571428571428571,0.0,0.8571428571428572,0.46651087899517735,1,1,0,0,0,6,7,3,7,0,1,,,,,,,,,,,,,,,,,,,,,,,,,,,,,,,,,,,,,,,,,,,,,,75,152824,21,Female,1,2024/02/22_11:37:40,YZ,None,
,,,,,240222_114011,TEST,1,4,3,1250,,,,,,,,,,,,,,,,,,,,,,,,,1,4,4,4,cue2.png,hard,A,45,0.46853768499568105,0,85.15514844100107,85.63883631699719,,,,,,,,,,,,,,,,,,,,,,,,,,,,,,,,,,,75,152824,21,Female,1,2024/02/22_11:37:40,YZ,None,
,,,,,,test,1,5,3,1250,1,V,0,right,1.3240800139901694,1,0,,,,,,,,,,,,,,,,,,1,,,,,,,,,,,,,,,,,,,,,,,,,,,,,,,,,,,,,,,,,,,,,,75,152824,21,Female,1,2024/02/22_11:37:40,YZ,None,
,,,,,,test,1,5,3,1250,2,V,0,right,0.3656470960122533,1,0,,,,,,,,,,,,,,,,,,1,,,,,,,,,,,,,,,,,,,,,,,,,,,,,,,,,,,,,,,,,,,,,,75,152824,21,Female,1,2024/02/22_11:37:40,YZ,None,
,,,,,,test,1,5,3,1250,3,Q,0,right,0.35784688298008405,1,0,,,,,,,,,,,,,,,,,,1,,,,,,,,,,,,,,,,,,,,,,,,,,,,,,,,,,,,,,,,,,,,,,75,152824,21,Female,1,2024/02/22_11:37:40,YZ,None,
,,,,,,test,1,5,3,1250,4,N,0,right,0.4606796189909801,1,0,,,,,,,,,,,,,,,,,,1,,,,,,,,,,,,,,,,,,,,,,,,,,,,,,,,,,,,,,,,,,,,,,75,152824,21,Female,1,2024/02/22_11:37:40,YZ,None,
,,,,,,test,1,5,3,1250,5,Q,0,right,0.6159447859972715,1,0,,,,,,,,,,,,,,,,,,1,,,,,,,,,,,,,,,,,,,,,,,,,,,,,,,,,,,,,,,,,,,,,,75,152824,21,Female,1,2024/02/22_11:37:40,YZ,None,
,,,,,,test,1,5,3,1250,6,Q,1,left,0.6080697709985543,1,0,,,,,,,,,,,,,,,,,,1,,,,,,,,,,,,,,,,,,,,,,,,,,,,,,,,,,,,,,,,,,,,,,75,152824,21,Female,1,2024/02/22_11:37:40,YZ,None,
,,,,,,test,1,5,3,1250,7,C,0,left,0.4862449550128076,0,0,,,,,,,,,,,,,,,,,,1,,,,,,,,,,,,,,,,,,,,,,,,,,,,,,,,,,,,,,,,,,,,,,75,152824,21,Female,1,2024/02/22_11:37:40,YZ,None,
,,,,,,test,1,5,3,1250,8,N,0,right,0.4074534999963362,1,0,,,,,,,,,,,,,,,,,,1,,,,,,,,,,,,,,,,,,,,,,,,,,,,,,,,,,,,,,,,,,,,,,75,152824,21,Female,1,2024/02/22_11:37:40,YZ,None,
,,,,,,test,1,5,3,1250,9,Q,1,left,0.5765912960050628,1,0,,,,,,,,,,,,,,,,,,1,,,,,,,,,,,,,,,,,,,,,,,,,,,,,,,,,,,,,,,,,,,,,,75,152824,21,Female,1,2024/02/22_11:37:40,YZ,None,
,,,,,,test,1,5,3,1250,10,C,1,right,0.35429513300186954,0,0,,,,,,,,,,,,,,,,,,1,,,,,,,,,,,,,,,,,,,,,,,,,,,,,,,,,,,,,,,,,,,,,,75,152824,21,Female,1,2024/02/22_11:37:40,YZ,None,
,,,,,,Test,1,5,3,1250,,,,,,,,0.8333333333333333,0.6666666666666666,0.14285714285714285,0.8571428571428571,0.0,0.8571428571428572,0.5556853052985389,2,1,0,0,0,6,8,3,7,0,1,,,,,,,,,,,,,,,,,,,,,,,,,,,,,,,,,,,,,,,,,,,,,,75,152824,21,Female,1,2024/02/22_11:37:40,YZ,None,
,,,,,240222_114032,TEST,1,5,3,1250,,,,,,,,,,,,,,,,,,,,,,,,,1,5,5,5,cue2.png,hard,A,48,0.6959823639772367,0,104.66289415501524,105.37012455699733,,,,,,,,,,,,,,,,,,,,,,,,,,,,,,,,,,,75,152824,21,Female,1,2024/02/22_11:37:40,YZ,None,
,,,,,,test,1,6,1,1250,1,S,0,None,nan,0,1,,,,,,,,,,,,,,,,,,1,,,,,,,,,,,,,,,,,,,,,,,,,,,,,,,,,,,,,,,,,,,,,,75,152824,21,Female,1,2024/02/22_11:37:40,YZ,None,
,,,,,,test,1,6,1,1250,2,Q,0,right,0.5921606979973149,1,0,,,,,,,,,,,,,,,,,,1,,,,,,,,,,,,,,,,,,,,,,,,,,,,,,,,,,,,,,,,,,,,,,75,152824,21,Female,1,2024/02/22_11:37:40,YZ,None,
,,,,,,test,1,6,1,1250,3,V,0,right,0.4726001230010297,1,0,,,,,,,,,,,,,,,,,,1,,,,,,,,,,,,,,,,,,,,,,,,,,,,,,,,,,,,,,,,,,,,,,75,152824,21,Female,1,2024/02/22_11:37:40,YZ,None,
,,,,,,test,1,6,1,1250,4,X,0,right,0.42519270701450296,1,0,,,,,,,,,,,,,,,,,,1,,,,,,,,,,,,,,,,,,,,,,,,,,,,,,,,,,,,,,,,,,,,,,75,152824,21,Female,1,2024/02/22_11:37:40,YZ,None,
,,,,,,test,1,6,1,1250,5,X,1,right,0.4501939229958225,0,0,,,,,,,,,,,,,,,,,,1,,,,,,,,,,,,,,,,,,,,,,,,,,,,,,,,,,,,,,,,,,,,,,75,152824,21,Female,1,2024/02/22_11:37:40,YZ,None,
,,,,,,test,1,6,1,1250,6,S,0,left,0.45754260302055627,0,0,,,,,,,,,,,,,,,,,,1,,,,,,,,,,,,,,,,,,,,,,,,,,,,,,,,,,,,,,,,,,,,,,75,152824,21,Female,1,2024/02/22_11:37:40,YZ,None,
,,,,,,test,1,6,1,1250,7,X,0,left,0.8139666409988422,0,0,,,,,,,,,,,,,,,,,,1,,,,,,,,,,,,,,,,,,,,,,,,,,,,,,,,,,,,,,,,,,,,,,75,152824,21,Female,1,2024/02/22_11:37:40,YZ,None,
,,,,,,test,1,6,1,1250,8,X,1,left,0.3781973779841792,1,0,,,,,,,,,,,,,,,,,,1,,,,,,,,,,,,,,,,,,,,,,,,,,,,,,,,,,,,,,,,,,,,,,75,152824,21,Female,1,2024/02/22_11:37:40,YZ,None,
,,,,,,test,1,6,1,1250,9,C,0,left,0.5191899180063047,0,0,,,,,,,,,,,,,,,,,,1,,,,,,,,,,,,,,,,,,,,,,,,,,,,,,,,,,,,,,,,,,,,,,75,152824,21,Female,1,2024/02/22_11:37:40,YZ,None,
,,,,,,test,1,6,1,1250,10,C,1,left,0.4775233779801056,1,0,,,,,,,,,,,,,,,,,,1,,,,,,,,,,,,,,,,,,,,,,,,,,,,,,,,,,,,,,,,,,,,,,75,152824,21,Female,1,2024/02/22_11:37:40,YZ,None,
,,,,,,Test,1,6,1,1250,,,,,,,,0.6666666666666666,0.6666666666666666,0.42857142857142855,0.5,0.1,0.4714285714285714,0.5096185965554064,2,3,0,1,1,3,5,3,7,0,1,,,,,,,,,,,,,,,,,,,,,,,,,,,,,,,,,,,,,,,,,,,,,,75,152824,21,Female,1,2024/02/22_11:37:40,YZ,None,
,,,,,240222_114053,TEST,1,6,1,1250,,,,,,,,,,,,,,,,,,,,,,,,,1,6,6,6,cue1.png,easy,A,45,0.54808004599181,0,125.28450750099728,125.85201902501285,,,,,,,,,,,,,,,,,,,,,,,,,,,,,,,,,,,75,152824,21,Female,1,2024/02/22_11:37:40,YZ,None,
,,,,,,test,1,7,3,1250,1,Q,0,None,nan,0,1,,,,,,,,,,,,,,,,,,1,,,,,,,,,,,,,,,,,,,,,,,,,,,,,,,,,,,,,,,,,,,,,,75,152824,21,Female,1,2024/02/22_11:37:40,YZ,None,
,,,,,,test,1,7,3,1250,2,J,0,right,0.2778094259847421,1,0,,,,,,,,,,,,,,,,,,1,,,,,,,,,,,,,,,,,,,,,,,,,,,,,,,,,,,,,,,,,,,,,,75,152824,21,Female,1,2024/02/22_11:37:40,YZ,None,
,,,,,,test,1,7,3,1250,3,J,0,left,0.5419738210039213,0,0,,,,,,,,,,,,,,,,,,1,,,,,,,,,,,,,,,,,,,,,,,,,,,,,,,,,,,,,,,,,,,,,,75,152824,21,Female,1,2024/02/22_11:37:40,YZ,None,
,,,,,,test,1,7,3,1250,4,Q,1,left,0.5407107220089529,1,0,,,,,,,,,,,,,,,,,,1,,,,,,,,,,,,,,,,,,,,,,,,,,,,,,,,,,,,,,,,,,,,,,75,152824,21,Female,1,2024/02/22_11:37:40,YZ,None,
,,,,,,test,1,7,3,1250,5,X,0,right,0.5694470780144911,1,0,,,,,,,,,,,,,,,,,,1,,,,,,,,,,,,,,,,,,,,,,,,,,,,,,,,,,,,,,,,,,,,,,75,152824,21,Female,1,2024/02/22_11:37:40,YZ,None,
,,,,,,test,1,7,3,1250,6,J,1,left,0.4358052939933259,1,0,,,,,,,,,,,,,,,,,,1,,,,,,,,,,,,,,,,,,,,,,,,,,,,,,,,,,,,,,,,,,,,,,75,152824,21,Female,1,2024/02/22_11:37:40,YZ,None,
,,,,,,test,1,7,3,1250,7,Q,1,left,0.5123360370052978,1,0,,,,,,,,,,,,,,,,,,1,,,,,,,,,,,,,,,,,,,,,,,,,,,,,,,,,,,,,,,,,,,,,,75,152824,21,Female,1,2024/02/22_11:37:40,YZ,None,
,,,,,,test,1,7,3,1250,8,Q,0,left,0.44125221998547204,0,0,,,,,,,,,,,,,,,,,,1,,,,,,,,,,,,,,,,,,,,,,,,,,,,,,,,,,,,,,,,,,,,,,75,152824,21,Female,1,2024/02/22_11:37:40,YZ,None,
,,,,,,test,1,7,3,1250,9,F,0,right,0.6266753160161898,1,0,,,,,,,,,,,,,,,,,,1,,,,,,,,,,,,,,,,,,,,,,,,,,,,,,,,,,,,,,,,,,,,,,75,152824,21,Female,1,2024/02/22_11:37:40,YZ,None,
,,,,,,test,1,7,3,1250,10,N,0,left,0.4791194100107532,0,0,,,,,,,,,,,,,,,,,,1,,,,,,,,,,,,,,,,,,,,,,,,,,,,,,,,,,,,,,,,,,,,,,75,152824,21,Female,1,2024/02/22_11:37:40,YZ,None,
,,,,,,Test,1,7,3,1250,,,,,,,,0.8928571428571428,1.0,0.42857142857142855,0.5,0.1,0.4714285714285714,0.4916810360025718,3,3,0,1,1,3,6,3,7,0,1,,,,,,,,,,,,,,,,,,,,,,,,,,,,,,,,,,,,,,,,,,,,,,75,152824,21,Female,1,2024/02/22_11:37:40,YZ,None,
,,,,,240222_114116,TEST,1,7,3,1250,,,,,,,,,,,,,,,,,,,,,,,,,1,7,7,7,cue2.png,hard,A,47,1.6962083709950093,0,146.78488731200923,148.50038619199768,,,,,,,,,,,,,,,,,,,,,,,,,,,,,,,,,,,75,152824,21,Female,1,2024/02/22_11:37:40,YZ,None,
,,,,,,test,1,8,3,1250,1,C,0,right,0.6277384090062696,1,0,,,,,,,,,,,,,,,,,,1,,,,,,,,,,,,,,,,,,,,,,,,,,,,,,,,,,,,,,,,,,,,,,75,152824,21,Female,1,2024/02/22_11:37:40,YZ,None,
,,,,,,test,1,8,3,1250,2,J,0,right,0.20291150800767355,1,0,,,,,,,,,,,,,,,,,,1,,,,,,,,,,,,,,,,,,,,,,,,,,,,,,,,,,,,,,,,,,,,,,75,152824,21,Female,1,2024/02/22_11:37:40,YZ,None,
,,,,,,test,1,8,3,1250,3,C,0,left,0.456202650006162,0,0,,,,,,,,,,,,,,,,,,1,,,,,,,,,,,,,,,,,,,,,,,,,,,,,,,,,,,,,,,,,,,,,,75,152824,21,Female,1,2024/02/22_11:37:40,YZ,None,
,,,,,,test,1,8,3,1250,4,J,0,left,0.4970866890216712,0,0,,,,,,,,,,,,,,,,,,1,,,,,,,,,,,,,,,,,,,,,,,,,,,,,,,,,,,,,,,,,,,,,,75,152824,21,Female,1,2024/02/22_11:37:40,YZ,None,
,,,,,,test,1,8,3,1250,5,J,1,left,0.34679355297703296,1,0,,,,,,,,,,,,,,,,,,1,,,,,,,,,,,,,,,,,,,,,,,,,,,,,,,,,,,,,,,,,,,,,,75,152824,21,Female,1,2024/02/22_11:37:40,YZ,None,
,,,,,,test,1,8,3,1250,6,C,1,left,0.49275080001098104,1,0,,,,,,,,,,,,,,,,,,1,,,,,,,,,,,,,,,,,,,,,,,,,,,,,,,,,,,,,,,,,,,,,,75,152824,21,Female,1,2024/02/22_11:37:40,YZ,None,
,,,,,,test,1,8,3,1250,7,V,0,left,0.38060386199504137,0,0,,,,,,,,,,,,,,,,,,1,,,,,,,,,,,,,,,,,,,,,,,,,,,,,,,,,,,,,,,,,,,,,,75,152824,21,Female,1,2024/02/22_11:37:40,YZ,None,
,,,,,,test,1,8,3,1250,8,C,0,right,0.3313274350075517,1,0,,,,,,,,,,,,,,,,,,1,,,,,,,,,,,,,,,,,,,,,,,,,,,,,,,,,,,,,,,,,,,,,,75,152824,21,Female,1,2024/02/22_11:37:40,YZ,None,
,,,,,,test,1,8,3,1250,9,S,0,right,0.7178199430054519,1,0,,,,,,,,,,,,,,,,,,1,,,,,,,,,,,,,,,,,,,,,,,,,,,,,,,,,,,,,,,,,,,,,,75,152824,21,Female,1,2024/02/22_11:37:40,YZ,None,
,,,,,,test,1,8,3,1250,10,V,1,right,0.49931603998993523,0,0,,,,,,,,,,,,,,,,,,1,,,,,,,,,,,,,,,,,,,,,,,,,,,,,,,,,,,,,,,,,,,,,,75,152824,21,Female,1,2024/02/22_11:37:40,YZ,None,
,,,,,,Test,1,8,3,1250,,,,,,,,0.6666666666666666,0.6666666666666666,0.42857142857142855,0.5714285714285714,0.0,0.5714285714285714,0.45525508890277705,2,3,0,0,0,4,6,3,7,0,1,,,,,,,,,,,,,,,,,,,,,,,,,,,,,,,,,,,,,,,,,,,,,,75,152824,21,Female,1,2024/02/22_11:37:40,YZ,None,
,,,,,240222_114135,TEST,1,8,3,1250,,,,,,,,,,,,,,,,,,,,,,,,,1,8,8,8,cue2.png,hard,A,43,0.8948264390055556,0,169.29368817902287,170.2005812730058,,,,,,,,,,,,,,,,,,,,,,,,,,,,,,,,,,,75,152824,21,Female,1,2024/02/22_11:37:40,YZ,None,
,,,,,,test,1,9,1,1250,1,J,0,None,nan,0,1,,,,,,,,,,,,,,,,,,1,,,,,,,,,,,,,,,,,,,,,,,,,,,,,,,,,,,,,,,,,,,,,,75,152824,21,Female,1,2024/02/22_11:37:40,YZ,None,
,,,,,,test,1,9,1,1250,2,J,1,right,0.24200690901488997,0,0,,,,,,,,,,,,,,,,,,1,,,,,,,,,,,,,,,,,,,,,,,,,,,,,,,,,,,,,,,,,,,,,,75,152824,21,Female,1,2024/02/22_11:37:40,YZ,None,
,,,,,,test,1,9,1,1250,3,F,0,right,0.47390572700533085,1,0,,,,,,,,,,,,,,,,,,1,,,,,,,,,,,,,,,,,,,,,,,,,,,,,,,,,,,,,,,,,,,,,,75,152824,21,Female,1,2024/02/22_11:37:40,YZ,None,
,,,,,,test,1,9,1,1250,4,F,1,right,0.3298882929957472,0,0,,,,,,,,,,,,,,,,,,1,,,,,,,,,,,,,,,,,,,,,,,,,,,,,,,,,,,,,,,,,,,,,,75,152824,21,Female,1,2024/02/22_11:37:40,YZ,None,
,,,,,,test,1,9,1,1250,5,N,0,right,0.3006839110166766,1,0,,,,,,,,,,,,,,,,,,1,,,,,,,,,,,,,,,,,,,,,,,,,,,,,,,,,,,,,,,,,,,,,,75,152824,21,Female,1,2024/02/22_11:37:40,YZ,None,
,,,,,,test,1,9,1,1250,6,F,0,right,0.2652494460053276,1,0,,,,,,,,,,,,,,,,,,1,,,,,,,,,,,,,,,,,,,,,,,,,,,,,,,,,,,,,,,,,,,,,,75,152824,21,Female,1,2024/02/22_11:37:40,YZ,None,
,,,,,,test,1,9,1,1250,7,J,0,right,0.3248940180055797,1,0,,,,,,,,,,,,,,,,,,1,,,,,,,,,,,,,,,,,,,,,,,,,,,,,,,,,,,,,,,,,,,,,,75,152824,21,Female,1,2024/02/22_11:37:40,YZ,None,
,,,,,,test,1,9,1,1250,8,J,1,right,0.1783948639931623,0,0,,,,,,,,,,,,,,,,,,1,,,,,,,,,,,,,,,,,,,,,,,,,,,,,,,,,,,,,,,,,,,,,,75,152824,21,Female,1,2024/02/22_11:37:40,YZ,None,
,,,,,,test,1,9,1,1250,9,F,0,left,0.31601548902108334,0,0,,,,,,,,,,,,,,,,,,1,,,,,,,,,,,,,,,,,,,,,,,,,,,,,,,,,,,,,,,,,,,,,,75,152824,21,Female,1,2024/02/22_11:37:40,YZ,None,
,,,,,,test,1,9,1,1250,10,Q,0,right,0.208740892005153,1,0,,,,,,,,,,,,,,,,,,1,,,,,,,,,,,,,,,,,,,,,,,,,,,,,,,,,,,,,,,,,,,,,,75,152824,21,Female,1,2024/02/22_11:37:40,YZ,None,
,,,,,,Test,1,9,1,1250,,,,,,,,0.2142857142857143,0.0,0.14285714285714285,0.8333333333333334,0.1,0.7571428571428572,0.29330883878477226,0,1,0,1,1,5,5,3,7,0,1,,,,,,,,,,,,,,,,,,,,,,,,,,,,,,,,,,,,,,,,,,,,,,75,152824,21,Female,1,2024/02/22_11:37:40,YZ,None,
,,,,,240222_114155,TEST,1,9,1,1250,,,,,,,,,,,,,,,,,,,,,,,,,1,9,9,9,cue1.png,easy,A,47,0.9515842650143895,0,189.1143160520005,190.08239532401785,,,,,,,,,,,,,,,,,,,,,,,,,,,,,,,,,,,75,152824,21,Female,1,2024/02/22_11:37:40,YZ,None,
,,,,,,test,1,10,1,1250,1,X,0,left,0.6430018050014041,0,0,,,,,,,,,,,,,,,,,,1,,,,,,,,,,,,,,,,,,,,,,,,,,,,,,,,,,,,,,,,,,,,,,75,152824,21,Female,1,2024/02/22_11:37:40,YZ,None,
,,,,,,test,1,10,1,1250,2,X,1,left,0.06388759901165031,1,0,,,,,,,,,,,,,,,,,,1,,,,,,,,,,,,,,,,,,,,,,,,,,,,,,,,,,,,,,,,,,,,,,75,152824,21,Female,1,2024/02/22_11:37:40,YZ,None,
,,,,,,test,1,10,1,1250,3,Q,0,left,0.19307903799926862,0,0,,,,,,,,,,,,,,,,,,1,,,,,,,,,,,,,,,,,,,,,,,,,,,,,,,,,,,,,,,,,,,,,,75,152824,21,Female,1,2024/02/22_11:37:40,YZ,None,
,,,,,,test,1,10,1,1250,4,J,0,left,0.3363235820143018,0,0,,,,,,,,,,,,,,,,,,1,,,,,,,,,,,,,,,,,,,,,,,,,,,,,,,,,,,,,,,,,,,,,,75,152824,21,Female,1,2024/02/22_11:37:40,YZ,None,
,,,,,,test,1,10,1,1250,5,J,1,left,0.2891271039843559,1,0,,,,,,,,,,,,,,,,,,1,,,,,,,,,,,,,,,,,,,,,,,,,,,,,,,,,,,,,,,,,,,,,,75,152824,21,Female,1,2024/02/22_11:37:40,YZ,None,
,,,,,,test,1,10,1,1250,6,F,0,left,0.3623188920028042,0,0,,,,,,,,,,,,,,,,,,1,,,,,,,,,,,,,,,,,,,,,,,,,,,,,,,,,,,,,,,,,,,,,,75,152824,21,Female,1,2024/02/22_11:37:40,YZ,None,
,,,,,,test,1,10,1,1250,7,X,0,right,0.03232927600038238,1,0,,,,,,,,,,,,,,,,,,1,,,,,,,,,,,,,,,,,,,,,,,,,,,,,,,,,,,,,,,,,,,,,,75,152824,21,Female,1,2024/02/22_11:37:40,YZ,None,
,,,,,,test,1,10,1,1250,8,X,1,right,0.27659718500217423,0,0,,,,,,,,,,,,,,,,,,1,,,,,,,,,,,,,,,,,,,,,,,,,,,,,,,,,,,,,,,,,,,,,,75,152824,21,Female,1,2024/02/22_11:37:40,YZ,None,
,,,,,,test,1,10,1,1250,9,J,0,right,0.11686582799302414,1,0,,,,,,,,,,,,,,,,,,1,,,,,,,,,,,,,,,,,,,,,,,,,,,,,,,,,,,,,,,,,,,,,,75,152824,21,Female,1,2024/02/22_11:37:40,YZ,None,
,,,,,,test,1,10,1,1250,10,F,0,right,0.0,1,0,,,,,,,,,,,,,,,,,,1,,,,,,,,,,,,,,,,,,,,,,,,,,,,,,,,,,,,,,,,,,,,,,75,152824,21,Female,1,2024/02/22_11:37:40,YZ,None,
,,,,,,Test,1,10,1,1250,,,,,,,,0.5793650793650793,0.6666666666666666,0.5714285714285714,0.42857142857142855,0.0,0.4285714285714286,0.23135303090093656,2,4,0,0,0,3,5,3,7,0,1,,,,,,,,,,,,,,,,,,,,,,,,,,,,,,,,,,,,,,,,,,,,,,75,152824,21,Female,1,2024/02/22_11:37:40,YZ,None,
,,,,,240222_114213,TEST,1,10,1,1250,,,,,,,,,,,,,,,,,,,,,,,,,1,10,10,10,cue1.png,easy,A,47,0.604404188983608,0,209.06232825902407,209.68719481502194,,,,,,,,,,,,,,,,,,,,,,,,,,,,,,,,,,,75,152824,21,Female,1,2024/02/22_11:37:40,YZ,None,
,,,,,,test,1,11,3,1250,1,N,0,right,0.4971352140128147,1,0,,,,,,,,,,,,,,,,,,1,,,,,,,,,,,,,,,,,,,,,,,,,,,,,,,,,,,,,,,,,,,,,,75,152824,21,Female,1,2024/02/22_11:37:40,YZ,None,
,,,,,,test,1,11,3,1250,2,V,0,right,0.24899079601163976,1,0,,,,,,,,,,,,,,,,,,1,,,,,,,,,,,,,,,,,,,,,,,,,,,,,,,,,,,,,,,,,,,,,,75,152824,21,Female,1,2024/02/22_11:37:40,YZ,None,
,,,,,,test,1,11,3,1250,3,X,0,right,0.1491698950121645,1,0,,,,,,,,,,,,,,,,,,1,,,,,,,,,,,,,,,,,,,,,,,,,,,,,,,,,,,,,,,,,,,,,,75,152824,21,Female,1,2024/02/22_11:37:40,YZ,None,
,,,,,,test,1,11,3,1250,4,N,1,left,0.2961766599910334,1,0,,,,,,,,,,,,,,,,,,1,,,,,,,,,,,,,,,,,,,,,,,,,,,,,,,,,,,,,,,,,,,,,,75,152824,21,Female,1,2024/02/22_11:37:40,YZ,None,
,,,,,,test,1,11,3,1250,5,V,1,right,0.10609058800037019,0,0,,,,,,,,,,,,,,,,,,1,,,,,,,,,,,,,,,,,,,,,,,,,,,,,,,,,,,,,,,,,,,,,,75,152824,21,Female,1,2024/02/22_11:37:40,YZ,None,
,,,,,,test,1,11,3,1250,6,Q,0,left,0.18631694902433082,0,0,,,,,,,,,,,,,,,,,,1,,,,,,,,,,,,,,,,,,,,,,,,,,,,,,,,,,,,,,,,,,,,,,75,152824,21,Female,1,2024/02/22_11:37:40,YZ,None,
,,,,,,test,1,11,3,1250,7,C,0,left,0.0,0,0,,,,,,,,,,,,,,,,,,1,,,,,,,,,,,,,,,,,,,,,,,,,,,,,,,,,,,,,,,,,,,,,,75,152824,21,Female,1,2024/02/22_11:37:40,YZ,None,
,,,,,,test,1,11,3,1250,8,J,0,right,0.0,1,0,,,,,,,,,,,,,,,,,,1,,,,,,,,,,,,,,,,,,,,,,,,,,,,,,,,,,,,,,,,,,,,,,75,152824,21,Female,1,2024/02/22_11:37:40,YZ,None,
,,,,,,test,1,11,3,1250,9,Q,1,left,0.0,1,0,,,,,,,,,,,,,,,,,,1,,,,,,,,,,,,,,,,,,,,,,,,,,,,,,,,,,,,,,,,,,,,,,75,152824,21,Female,1,2024/02/22_11:37:40,YZ,None,
,,,,,,test,1,11,3,1250,10,S,0,right,0.13893655699212104,1,0,,,,,,,,,,,,,,,,,,1,,,,,,,,,,,,,,,,,,,,,,,,,,,,,,,,,,,,,,,,,,,,,,75,152824,21,Female,1,2024/02/22_11:37:40,YZ,None,
,,,,,,Test,1,11,3,1250,,,,,,,,0.75,0.6666666666666666,0.2857142857142857,0.7142857142857143,0.0,0.7142857142857143,0.16228166590444743,2,2,0,0,0,5,7,3,7,0,1,,,,,,,,,,,,,,,,,,,,,,,,,,,,,,,,,,,,,,,,,,,,,,75,152824,21,Female,1,2024/02/22_11:37:40,YZ,None,
,,,,,240222_114230,TEST,1,11,3,1250,,,,,,,,,,,,,,,,,,,,,,,,,1,11,11,11,cue2.png,hard,A,47,1.6467742189997807,0,226.35231470500003,228.0100488550088,,,,,,,,,,,,,,,,,,,,,,,,,,,,,,,,,,,75,152824,21,Female,1,2024/02/22_11:37:40,YZ,None,
,,,,,,test,1,12,1,1250,1,J,0,right,0.9488134599814657,1,0,,,,,,,,,,,,,,,,,,1,,,,,,,,,,,,,,,,,,,,,,,,,,,,,,,,,,,,,,,,,,,,,,75,152824,21,Female,1,2024/02/22_11:37:40,YZ,None,
,,,,,,test,1,12,1,1250,2,V,0,right,0.13414505301625468,1,0,,,,,,,,,,,,,,,,,,1,,,,,,,,,,,,,,,,,,,,,,,,,,,,,,,,,,,,,,,,,,,,,,75,152824,21,Female,1,2024/02/22_11:37:40,YZ,None,
,,,,,,test,1,12,1,1250,3,V,1,right,0.39241023498470895,0,0,,,,,,,,,,,,,,,,,,1,,,,,,,,,,,,,,,,,,,,,,,,,,,,,,,,,,,,,,,,,,,,,,75,152824,21,Female,1,2024/02/22_11:37:40,YZ,None,
,,,,,,test,1,12,1,1250,4,Q,0,left,0.03271118097472936,0,0,,,,,,,,,,,,,,,,,,1,,,,,,,,,,,,,,,,,,,,,,,,,,,,,,,,,,,,,,,,,,,,,,75,152824,21,Female,1,2024/02/22_11:37:40,YZ,None,
,,,,,,test,1,12,1,1250,5,J,0,left,0.06870361600886099,0,0,,,,,,,,,,,,,,,,,,1,,,,,,,,,,,,,,,,,,,,,,,,,,,,,,,,,,,,,,,,,,,,,,75,152824,21,Female,1,2024/02/22_11:37:40,YZ,None,
,,,,,,test,1,12,1,1250,6,J,1,left,0.1685068560182117,1,0,,,,,,,,,,,,,,,,,,1,,,,,,,,,,,,,,,,,,,,,,,,,,,,,,,,,,,,,,,,,,,,,,75,152824,21,Female,1,2024/02/22_11:37:40,YZ,None,
,,,,,,test,1,12,1,1250,7,F,0,right,0.2887660650012549,1,0,,,,,,,,,,,,,,,,,,1,,,,,,,,,,,,,,,,,,,,,,,,,,,,,,,,,,,,,,,,,,,,,,75,152824,21,Female,1,2024/02/22_11:37:40,YZ,None,
,,,,,,test,1,12,1,1250,8,F,1,left,0.04888131099869497,1,0,,,,,,,,,,,,,,,,,,1,,,,,,,,,,,,,,,,,,,,,,,,,,,,,,,,,,,,,,,,,,,,,,75,152824,21,Female,1,2024/02/22_11:37:40,YZ,None,
,,,,,,test,1,12,1,1250,9,V,0,right,0.04175557498820126,1,0,,,,,,,,,,,,,,,,,,1,,,,,,,,,,,,,,,,,,,,,,,,,,,,,,,,,,,,,,,,,,,,,,75,152824,21,Female,1,2024/02/22_11:37:40,YZ,None,
,,,,,,test,1,12,1,1250,10,S,0,right,0.4206368500017561,1,0,,,,,,,,,,,,,,,,,,1,,,,,,,,,,,,,,,,,,,,,,,,,,,,,,,,,,,,,,,,,,,,,,75,152824,21,Female,1,2024/02/22_11:37:40,YZ,None,
,,,,,,Test,1,12,1,1250,,,,,,,,0.75,0.6666666666666666,0.2857142857142857,0.7142857142857143,0.0,0.7142857142857143,0.25453302019741386,2,2,0,0,0,5,7,3,7,0,1,,,,,,,,,,,,,,,,,,,,,,,,,,,,,,,,,,,,,,,,,,,,,,75,152824,21,Female,1,2024/02/22_11:37:40,YZ,None,
,,,,,240222_114249,TEST,1,12,1,1250,,,,,,,,,,,,,,,,,,,,,,,,,1,12,12,12,cue1.png,easy,A,46,1.8796291050093714,0,243.9546308820136,245.8554181890213,,,,,,,,,,,,,,,,,,,,,,,,,,,,,,,,,,,75,152824,21,Female,1,2024/02/22_11:37:40,YZ,None,
,,,,,,test,1,13,1,1250,1,N,0,right,0.831654289009748,1,0,,,,,,,,,,,,,,,,,,1,,,,,,,,,,,,,,,,,,,,,,,,,,,,,,,,,,,,,,,,,,,,,,75,152824,21,Female,1,2024/02/22_11:37:40,YZ,None,
,,,,,,test,1,13,1,1250,2,Q,0,right,0.32595592201687396,1,0,,,,,,,,,,,,,,,,,,1,,,,,,,,,,,,,,,,,,,,,,,,,,,,,,,,,,,,,,,,,,,,,,75,152824,21,Female,1,2024/02/22_11:37:40,YZ,None,
,,,,,,test,1,13,1,1250,3,Q,1,right,0.44469347497215495,0,0,,,,,,,,,,,,,,,,,,1,,,,,,,,,,,,,,,,,,,,,,,,,,,,,,,,,,,,,,,,,,,,,,75,152824,21,Female,1,2024/02/22_11:37:40,YZ,None,
,,,,,,test,1,13,1,1250,4,C,0,right,0.8175089139840566,1,0,,,,,,,,,,,,,,,,,,1,,,,,,,,,,,,,,,,,,,,,,,,,,,,,,,,,,,,,,,,,,,,,,75,152824,21,Female,1,2024/02/22_11:37:40,YZ,None,
,,,,,,test,1,13,1,1250,5,N,0,left,0.4289528689987492,0,0,,,,,,,,,,,,,,,,,,1,,,,,,,,,,,,,,,,,,,,,,,,,,,,,,,,,,,,,,,,,,,,,,75,152824,21,Female,1,2024/02/22_11:37:40,YZ,None,
,,,,,,test,1,13,1,1250,6,V,0,right,1.991446852014633,1,0,,,,,,,,,,,,,,,,,,1,,,,,,,,,,,,,,,,,,,,,,,,,,,,,,,,,,,,,,,,,,,,,,75,152824,21,Female,1,2024/02/22_11:37:40,YZ,None,
,,,,,,test,1,13,1,1250,7,V,1,right,0.48636993498075753,0,0,,,,,,,,,,,,,,,,,,1,,,,,,,,,,,,,,,,,,,,,,,,,,,,,,,,,,,,,,,,,,,,,,75,152824,21,Female,1,2024/02/22_11:37:40,YZ,None,
,,,,,,test,1,13,1,1250,8,X,0,right,0.666674473992316,1,0,,,,,,,,,,,,,,,,,,1,,,,,,,,,,,,,,,,,,,,,,,,,,,,,,,,,,,,,,,,,,,,,,75,152824,21,Female,1,2024/02/22_11:37:40,YZ,None,
,,,,,,test,1,13,1,1250,9,S,0,right,0.38146672799484804,1,0,,,,,,,,,,,,,,,,,,1,,,,,,,,,,,,,,,,,,,,,,,,,,,,,,,,,,,,,,,,,,,,,,75,152824,21,Female,1,2024/02/22_11:37:40,YZ,None,
,,,,,,test,1,13,1,1250,10,S,1,right,0.3458310659916606,0,0,,,,,,,,,,,,,,,,,,1,,,,,,,,,,,,,,,,,,,,,,,,,,,,,,,,,,,,,,,,,,,,,,75,152824,21,Female,1,2024/02/22_11:37:40,YZ,None,
,,,,,,Test,1,13,1,1250,,,,,,,,0.2142857142857143,0.0,0.14285714285714285,0.8571428571428571,0.0,0.8571428571428572,0.6720554523955797,0,1,0,0,0,6,6,3,7,0,1,,,,,,,,,,,,,,,,,,,,,,,,,,,,,,,,,,,,,,,,,,,,,,75,152824,21,Female,1,2024/02/22_11:37:40,YZ,None,
,,,,,240222_114312,TEST,1,13,1,1250,,,,,,,,,,,,,,,,,,,,,,,,,1,13,13,13,cue1.png,easy,A,47,1.8806419059983455,0,262.74524648700026,264.644124819024,,,,,,,,,,,,,,,,,,,,,,,,,,,,,,,,,,,75,152824,21,Female,1,2024/02/22_11:37:40,YZ,None,
,,,,,,test,1,14,1,1250,1,C,0,None,nan,0,1,,,,,,,,,,,,,,,,,,1,,,,,,,,,,,,,,,,,,,,,,,,,,,,,,,,,,,,,,,,,,,,,,75,152824,21,Female,1,2024/02/22_11:37:40,YZ,None,
,,,,,,test,1,14,1,1250,2,X,0,right,0.8582635950006079,1,0,,,,,,,,,,,,,,,,,,1,,,,,,,,,,,,,,,,,,,,,,,,,,,,,,,,,,,,,,,,,,,,,,75,152824,21,Female,1,2024/02/22_11:37:40,YZ,None,
,,,,,,test,1,14,1,1250,3,X,1,right,0.10066317100427113,0,0,,,,,,,,,,,,,,,,,,1,,,,,,,,,,,,,,,,,,,,,,,,,,,,,,,,,,,,,,,,,,,,,,75,152824,21,Female,1,2024/02/22_11:37:40,YZ,None,
,,,,,,test,1,14,1,1250,4,Q,0,right,0.16066865902394056,1,0,,,,,,,,,,,,,,,,,,1,,,,,,,,,,,,,,,,,,,,,,,,,,,,,,,,,,,,,,,,,,,,,,75,152824,21,Female,1,2024/02/22_11:37:40,YZ,None,
,,,,,,test,1,14,1,1250,5,N,0,right,0.37776702601695433,1,0,,,,,,,,,,,,,,,,,,1,,,,,,,,,,,,,,,,,,,,,,,,,,,,,,,,,,,,,,,,,,,,,,75,152824,21,Female,1,2024/02/22_11:37:40,YZ,None,
,,,,,,test,1,14,1,1250,6,N,1,left,0.3104182770184707,1,0,,,,,,,,,,,,,,,,,,1,,,,,,,,,,,,,,,,,,,,,,,,,,,,,,,,,,,,,,,,,,,,,,75,152824,21,Female,1,2024/02/22_11:37:40,YZ,None,
,,,,,,test,1,14,1,1250,7,S,0,left,0.12515935697592795,0,0,,,,,,,,,,,,,,,,,,1,,,,,,,,,,,,,,,,,,,,,,,,,,,,,,,,,,,,,,,,,,,,,,75,152824,21,Female,1,2024/02/22_11:37:40,YZ,None,
,,,,,,test,1,14,1,1250,8,C,0,right,0.28078238901798613,1,0,,,,,,,,,,,,,,,,,,1,,,,,,,,,,,,,,,,,,,,,,,,,,,,,,,,,,,,,,,,,,,,,,75,152824,21,Female,1,2024/02/22_11:37:40,YZ,None,
,,,,,,test,1,14,1,1250,9,C,1,right,0.13068390902481042,0,0,,,,,,,,,,,,,,,,,,1,,,,,,,,,,,,,,,,,,,,,,,,,,,,,,,,,,,,,,,,,,,,,,75,152824,21,Female,1,2024/02/22_11:37:40,YZ,None,
,,,,,,test,1,14,1,1250,10,N,0,right,0.41799390598316677,1,0,,,,,,,,,,,,,,,,,,1,,,,,,,,,,,,,,,,,,,,,,,,,,,,,,,,,,,,,,,,,,,,,,75,152824,21,Female,1,2024/02/22_11:37:40,YZ,None,
,,,,,,Test,1,14,1,1250,,,,,,,,0.6904761904761906,0.3333333333333333,0.14285714285714285,0.8333333333333334,0.1,0.7571428571428572,0.3069333654517929,1,1,0,1,1,5,6,3,7,0,1,,,,,,,,,,,,,,,,,,,,,,,,,,,,,,,,,,,,,,,,,,,,,,75,152824,21,Female,1,2024/02/22_11:37:40,YZ,None,
,,,,,240222_114332,TEST,1,14,1,1250,,,,,,,,,,,,,,,,,,,,,,,,,1,14,14,14,cue1.png,easy,A,46,1.29091208401951,0,285.72760974802077,287.03499030999956,,,,,,,,,,,,,,,,,,,,,,,,,,,,,,,,,,,75,152824,21,Female,1,2024/02/22_11:37:40,YZ,None,
,,,,,,test,1,15,3,1250,1,N,0,right,0.6822739370109048,1,0,,,,,,,,,,,,,,,,,,1,,,,,,,,,,,,,,,,,,,,,,,,,,,,,,,,,,,,,,,,,,,,,,75,152824,21,Female,1,2024/02/22_11:37:40,YZ,None,
,,,,,,test,1,15,3,1250,2,F,0,right,0.3152057249972131,1,0,,,,,,,,,,,,,,,,,,1,,,,,,,,,,,,,,,,,,,,,,,,,,,,,,,,,,,,,,,,,,,,,,75,152824,21,Female,1,2024/02/22_11:37:40,YZ,None,
,,,,,,test,1,15,3,1250,3,N,0,right,0.3616761509911157,1,0,,,,,,,,,,,,,,,,,,1,,,,,,,,,,,,,,,,,,,,,,,,,,,,,,,,,,,,,,,,,,,,,,75,152824,21,Female,1,2024/02/22_11:37:40,YZ,None,
,,,,,,test,1,15,3,1250,4,N,1,left,0.0,1,0,,,,,,,,,,,,,,,,,,1,,,,,,,,,,,,,,,,,,,,,,,,,,,,,,,,,,,,,,,,,,,,,,75,152824,21,Female,1,2024/02/22_11:37:40,YZ,None,
,,,,,,test,1,15,3,1250,5,F,1,left,0.02340240599005483,1,0,,,,,,,,,,,,,,,,,,1,,,,,,,,,,,,,,,,,,,,,,,,,,,,,,,,,,,,,,,,,,,,,,75,152824,21,Female,1,2024/02/22_11:37:40,YZ,None,
,,,,,,test,1,15,3,1250,6,C,0,right,0.4172415219945833,1,0,,,,,,,,,,,,,,,,,,1,,,,,,,,,,,,,,,,,,,,,,,,,,,,,,,,,,,,,,,,,,,,,,75,152824,21,Female,1,2024/02/22_11:37:40,YZ,None,
,,,,,,test,1,15,3,1250,7,S,0,right,0.4585665450140368,1,0,,,,,,,,,,,,,,,,,,1,,,,,,,,,,,,,,,,,,,,,,,,,,,,,,,,,,,,,,,,,,,,,,75,152824,21,Female,1,2024/02/22_11:37:40,YZ,None,
,,,,,,test,1,15,3,1250,8,F,1,right,0.6221542090061121,0,0,,,,,,,,,,,,,,,,,,1,,,,,,,,,,,,,,,,,,,,,,,,,,,,,,,,,,,,,,,,,,,,,,75,152824,21,Female,1,2024/02/22_11:37:40,YZ,None,
,,,,,,test,1,15,3,1250,9,Q,0,left,0.1633286800060887,0,0,,,,,,,,,,,,,,,,,,1,,,,,,,,,,,,,,,,,,,,,,,,,,,,,,,,,,,,,,,,,,,,,,75,152824,21,Female,1,2024/02/22_11:37:40,YZ,None,
,,,,,,test,1,15,3,1250,10,V,0,left,0.10073215200100094,0,0,,,,,,,,,,,,,,,,,,1,,,,,,,,,,,,,,,,,,,,,,,,,,,,,,,,,,,,,,,,,,,,,,75,152824,21,Female,1,2024/02/22_11:37:40,YZ,None,
,,,,,,Test,1,15,3,1250,,,,,,,,0.75,0.6666666666666666,0.2857142857142857,0.7142857142857143,0.0,0.7142857142857143,0.314458132701111,2,2,0,0,0,5,7,3,7,0,1,,,,,,,,,,,,,,,,,,,,,,,,,,,,,,,,,,,,,,,,,,,,,,75,152824,21,Female,1,2024/02/22_11:37:40,YZ,None,
,,,,,240222_114352,TEST,1,15,3,1250,,,,,,,,,,,,,,,,,,,,,,,,,1,15,15,15,cue2.png,hard,A,45,1.5723328839812893,0,306.1444877780159,307.7330250189989,,,,,,,,,,,,,,,,,,,,,,,,,,,,,,,,,,,75,152824,21,Female,1,2024/02/22_11:37:40,YZ,None,
,,,,,,test,1,16,1,1250,1,X,0,right,0.29901825098204426,1,0,,,,,,,,,,,,,,,,,,1,,,,,,,,,,,,,,,,,,,,,,,,,,,,,,,,,,,,,,,,,,,,,,75,152824,21,Female,1,2024/02/22_11:37:40,YZ,None,
,,,,,,test,1,16,1,1250,2,X,1,right,0.12211723101790994,0,0,,,,,,,,,,,,,,,,,,1,,,,,,,,,,,,,,,,,,,,,,,,,,,,,,,,,,,,,,,,,,,,,,75,152824,21,Female,1,2024/02/22_11:37:40,YZ,None,
,,,,,,test,1,16,1,1250,3,J,0,left,0.19319421201362275,0,0,,,,,,,,,,,,,,,,,,1,,,,,,,,,,,,,,,,,,,,,,,,,,,,,,,,,,,,,,,,,,,,,,75,152824,21,Female,1,2024/02/22_11:37:40,YZ,None,
,,,,,,test,1,16,1,1250,4,N,0,left,0.0,0,0,,,,,,,,,,,,,,,,,,1,,,,,,,,,,,,,,,,,,,,,,,,,,,,,,,,,,,,,,,,,,,,,,75,152824,21,Female,1,2024/02/22_11:37:40,YZ,None,
,,,,,,test,1,16,1,1250,5,F,0,right,0.050717167992843315,1,0,,,,,,,,,,,,,,,,,,1,,,,,,,,,,,,,,,,,,,,,,,,,,,,,,,,,,,,,,,,,,,,,,75,152824,21,Female,1,2024/02/22_11:37:40,YZ,None,
,,,,,,test,1,16,1,1250,6,S,0,left,0.19721320300595835,0,0,,,,,,,,,,,,,,,,,,1,,,,,,,,,,,,,,,,,,,,,,,,,,,,,,,,,,,,,,,,,,,,,,75,152824,21,Female,1,2024/02/22_11:37:40,YZ,None,
,,,,,,test,1,16,1,1250,7,S,1,left,0.0,1,0,,,,,,,,,,,,,,,,,,1,,,,,,,,,,,,,,,,,,,,,,,,,,,,,,,,,,,,,,,,,,,,,,75,152824,21,Female,1,2024/02/22_11:37:40,YZ,None,
,,,,,,test,1,16,1,1250,8,F,0,left,0.0,0,0,,,,,,,,,,,,,,,,,,1,,,,,,,,,,,,,,,,,,,,,,,,,,,,,,,,,,,,,,,,,,,,,,75,152824,21,Female,1,2024/02/22_11:37:40,YZ,None,
,,,,,,test,1,16,1,1250,9,F,1,right,0.14337771700229496,0,0,,,,,,,,,,,,,,,,,,1,,,,,,,,,,,,,,,,,,,,,,,,,,,,,,,,,,,,,,,,,,,,,,75,152824,21,Female,1,2024/02/22_11:37:40,YZ,None,
,,,,,,test,1,16,1,1250,10,N,0,right,0.3859690249955747,1,0,,,,,,,,,,,,,,,,,,1,,,,,,,,,,,,,,,,,,,,,,,,,,,,,,,,,,,,,,,,,,,,,,75,152824,21,Female,1,2024/02/22_11:37:40,YZ,None,
,,,,,,Test,1,16,1,1250,,,,,,,,0.047619047619047616,0.3333333333333333,0.5714285714285714,0.42857142857142855,0.0,0.4285714285714286,0.13916068070102483,1,4,0,0,0,3,4,3,7,0,1,,,,,,,,,,,,,,,,,,,,,,,,,,,,,,,,,,,,,,,,,,,,,,75,152824,21,Female,1,2024/02/22_11:37:40,YZ,None,
,,,,,240222_114408,TEST,1,16,1,1250,,,,,,,,,,,,,,,,,,,,,,,,,1,16,16,16,cue1.png,easy,A,43,0.9873307390080299,0,325.2296822820208,326.2324914060009,,,,,,,,,,,,,,,,,,,,,,,,,,,,,,,,,,,75,152824,21,Female,1,2024/02/22_11:37:40,YZ,None,
,,,,,,test,1,17,1,1250,1,V,0,right,0.4862309889867902,1,0,,,,,,,,,,,,,,,,,,1,,,,,,,,,,,,,,,,,,,,,,,,,,,,,,,,,,,,,,,,,,,,,,75,152824,21,Female,1,2024/02/22_11:37:40,YZ,None,
,,,,,,test,1,17,1,1250,2,V,1,right,0.3612532159895636,0,0,,,,,,,,,,,,,,,,,,1,,,,,,,,,,,,,,,,,,,,,,,,,,,,,,,,,,,,,,,,,,,,,,75,152824,21,Female,1,2024/02/22_11:37:40,YZ,None,
,,,,,,test,1,17,1,1250,3,F,0,left,0.564944349025609,0,0,,,,,,,,,,,,,,,,,,1,,,,,,,,,,,,,,,,,,,,,,,,,,,,,,,,,,,,,,,,,,,,,,75,152824,21,Female,1,2024/02/22_11:37:40,YZ,None,
,,,,,,test,1,17,1,1250,4,V,0,left,0.3729117460025009,0,0,,,,,,,,,,,,,,,,,,1,,,,,,,,,,,,,,,,,,,,,,,,,,,,,,,,,,,,,,,,,,,,,,75,152824,21,Female,1,2024/02/22_11:37:40,YZ,None,
,,,,,,test,1,17,1,1250,5,V,1,left,0.3534284509951249,1,0,,,,,,,,,,,,,,,,,,1,,,,,,,,,,,,,,,,,,,,,,,,,,,,,,,,,,,,,,,,,,,,,,75,152824,21,Female,1,2024/02/22_11:37:40,YZ,None,
,,,,,,test,1,17,1,1250,6,J,0,right,0.6360284449765459,1,0,,,,,,,,,,,,,,,,,,1,,,,,,,,,,,,,,,,,,,,,,,,,,,,,,,,,,,,,,,,,,,,,,75,152824,21,Female,1,2024/02/22_11:37:40,YZ,None,
,,,,,,test,1,17,1,1250,7,F,0,right,0.6409811489866115,1,0,,,,,,,,,,,,,,,,,,1,,,,,,,,,,,,,,,,,,,,,,,,,,,,,,,,,,,,,,,,,,,,,,75,152824,21,Female,1,2024/02/22_11:37:40,YZ,None,
,,,,,,test,1,17,1,1250,8,C,0,right,0.3708314950054046,1,0,,,,,,,,,,,,,,,,,,1,,,,,,,,,,,,,,,,,,,,,,,,,,,,,,,,,,,,,,,,,,,,,,75,152824,21,Female,1,2024/02/22_11:37:40,YZ,None,
,,,,,,test,1,17,1,1250,9,X,0,right,0.5754752759821713,1,0,,,,,,,,,,,,,,,,,,1,,,,,,,,,,,,,,,,,,,,,,,,,,,,,,,,,,,,,,,,,,,,,,75,152824,21,Female,1,2024/02/22_11:37:40,YZ,None,
,,,,,,test,1,17,1,1250,10,X,1,left,0.539166407979792,1,0,,,,,,,,,,,,,,,,,,1,,,,,,,,,,,,,,,,,,,,,,,,,,,,,,,,,,,,,,,,,,,,,,75,152824,21,Female,1,2024/02/22_11:37:40,YZ,None,
,,,,,,Test,1,17,1,1250,,,,,,,,0.75,0.6666666666666666,0.2857142857142857,0.7142857142857143,0.0,0.7142857142857143,0.49012515239301135,2,2,0,0,0,5,7,3,7,0,1,,,,,,,,,,,,,,,,,,,,,,,,,,,,,,,,,,,,,,,,,,,,,,75,152824,21,Female,1,2024/02/22_11:37:40,YZ,None,
,,,,,240222_114429,TEST,1,17,1,1250,,,,,,,,,,,,,,,,,,,,,,,,,1,17,17,17,cue1.png,easy,A,46,1.2711468570050783,0,341.9596822760068,343.25153560901526,,,,,,,,,,,,,,,,,,,,,,,,,,,,,,,,,,,75,152824,21,Female,1,2024/02/22_11:37:40,YZ,None,
,,,,,,test,1,18,3,1250,1,J,0,right,0.45892134399036877,1,0,,,,,,,,,,,,,,,,,,1,,,,,,,,,,,,,,,,,,,,,,,,,,,,,,,,,,,,,,,,,,,,,,75,152824,21,Female,1,2024/02/22_11:37:40,YZ,None,
,,,,,,test,1,18,3,1250,2,N,0,right,0.2896629310271237,1,0,,,,,,,,,,,,,,,,,,1,,,,,,,,,,,,,,,,,,,,,,,,,,,,,,,,,,,,,,,,,,,,,,75,152824,21,Female,1,2024/02/22_11:37:40,YZ,None,
,,,,,,test,1,18,3,1250,3,Q,0,right,0.3489627050003037,1,0,,,,,,,,,,,,,,,,,,1,,,,,,,,,,,,,,,,,,,,,,,,,,,,,,,,,,,,,,,,,,,,,,75,152824,21,Female,1,2024/02/22_11:37:40,YZ,None,
,,,,,,test,1,18,3,1250,4,N,0,right,0.12037077100831084,1,0,,,,,,,,,,,,,,,,,,1,,,,,,,,,,,,,,,,,,,,,,,,,,,,,,,,,,,,,,,,,,,,,,75,152824,21,Female,1,2024/02/22_11:37:40,YZ,None,
,,,,,,test,1,18,3,1250,5,N,1,right,0.07371855300152674,0,0,,,,,,,,,,,,,,,,,,1,,,,,,,,,,,,,,,,,,,,,,,,,,,,,,,,,,,,,,,,,,,,,,75,152824,21,Female,1,2024/02/22_11:37:40,YZ,None,
,,,,,,test,1,18,3,1250,6,C,0,left,0.06501431801007129,0,0,,,,,,,,,,,,,,,,,,1,,,,,,,,,,,,,,,,,,,,,,,,,,,,,,,,,,,,,,,,,,,,,,75,152824,21,Female,1,2024/02/22_11:37:40,YZ,None,
,,,,,,test,1,18,3,1250,7,S,0,left,0.0,0,0,,,,,,,,,,,,,,,,,,1,,,,,,,,,,,,,,,,,,,,,,,,,,,,,,,,,,,,,,,,,,,,,,75,152824,21,Female,1,2024/02/22_11:37:40,YZ,None,
,,,,,,test,1,18,3,1250,8,N,1,right,0.0,0,0,,,,,,,,,,,,,,,,,,1,,,,,,,,,,,,,,,,,,,,,,,,,,,,,,,,,,,,,,,,,,,,,,75,152824,21,Female,1,2024/02/22_11:37:40,YZ,None,
,,,,,,test,1,18,3,1250,9,Q,0,right,0.0,1,0,,,,,,,,,,,,,,,,,,1,,,,,,,,,,,,,,,,,,,,,,,,,,,,,,,,,,,,,,,,,,,,,,75,152824,21,Female,1,2024/02/22_11:37:40,YZ,None,
,,,,,,test,1,18,3,1250,10,S,1,left,0.07853741099825129,1,0,,,,,,,,,,,,,,,,,,1,,,,,,,,,,,,,,,,,,,,,,,,,,,,,,,,,,,,,,,,,,,,,,75,152824,21,Female,1,2024/02/22_11:37:40,YZ,None,
,,,,,,Test,1,18,3,1250,,,,,,,,0.5476190476190476,0.3333333333333333,0.2857142857142857,0.7142857142857143,0.0,0.7142857142857143,0.14351880330359562,1,2,0,0,0,5,6,3,7,0,1,,,,,,,,,,,,,,,,,,,,,,,,,,,,,,,,,,,,,,,,,,,,,,75,152824,21,Female,1,2024/02/22_11:37:40,YZ,None,
,,,,,240222_114446,TEST,1,18,3,1250,,,,,,,,,,,,,,,,,,,,,,,,,1,18,18,18,cue2.png,hard,A,47,1.080038613989018,0,362.5349741480022,363.6254395529977,,,,,,,,,,,,,,,,,,,,,,,,,,,,,,,,,,,75,152824,21,Female,1,2024/02/22_11:37:40,YZ,None,
,,,,,,test,1,19,3,1250,1,Q,0,right,0.9754489749902859,1,0,,,,,,,,,,,,,,,,,,1,,,,,,,,,,,,,,,,,,,,,,,,,,,,,,,,,,,,,,,,,,,,,,75,152824,21,Female,1,2024/02/22_11:37:40,YZ,None,
,,,,,,test,1,19,3,1250,2,F,0,right,0.3127675699943211,1,0,,,,,,,,,,,,,,,,,,1,,,,,,,,,,,,,,,,,,,,,,,,,,,,,,,,,,,,,,,,,,,,,,75,152824,21,Female,1,2024/02/22_11:37:40,YZ,None,
,,,,,,test,1,19,3,1250,3,J,0,left,0.0905335689894855,0,0,,,,,,,,,,,,,,,,,,1,,,,,,,,,,,,,,,,,,,,,,,,,,,,,,,,,,,,,,,,,,,,,,75,152824,21,Female,1,2024/02/22_11:37:40,YZ,None,
,,,,,,test,1,19,3,1250,4,S,0,right,0.00418925000121817,1,0,,,,,,,,,,,,,,,,,,1,,,,,,,,,,,,,,,,,,,,,,,,,,,,,,,,,,,,,,,,,,,,,,75,152824,21,Female,1,2024/02/22_11:37:40,YZ,None,
,,,,,,test,1,19,3,1250,5,F,1,left,0.3007985650037881,1,0,,,,,,,,,,,,,,,,,,1,,,,,,,,,,,,,,,,,,,,,,,,,,,,,,,,,,,,,,,,,,,,,,75,152824,21,Female,1,2024/02/22_11:37:40,YZ,None,
,,,,,,test,1,19,3,1250,6,J,1,left,0.0,1,0,,,,,,,,,,,,,,,,,,1,,,,,,,,,,,,,,,,,,,,,,,,,,,,,,,,,,,,,,,,,,,,,,75,152824,21,Female,1,2024/02/22_11:37:40,YZ,None,
,,,,,,test,1,19,3,1250,7,C,0,right,0.28773784899385646,1,0,,,,,,,,,,,,,,,,,,1,,,,,,,,,,,,,,,,,,,,,,,,,,,,,,,,,,,,,,,,,,,,,,75,152824,21,Female,1,2024/02/22_11:37:40,YZ,None,
,,,,,,test,1,19,3,1250,8,S,0,left,0.00041340000461786985,0,0,,,,,,,,,,,,,,,,,,1,,,,,,,,,,,,,,,,,,,,,,,,,,,,,,,,,,,,,,,,,,,,,,75,152824,21,Female,1,2024/02/22_11:37:40,YZ,None,
,,,,,,test,1,19,3,1250,9,J,1,left,0.11611357200308703,1,0,,,,,,,,,,,,,,,,,,1,,,,,,,,,,,,,,,,,,,,,,,,,,,,,,,,,,,,,,,,,,,,,,75,152824,21,Female,1,2024/02/22_11:37:40,YZ,None,
,,,,,,test,1,19,3,1250,10,V,0,right,0.37034819700056687,1,0,,,,,,,,,,,,,,,,,,1,,,,,,,,,,,,,,,,,,,,,,,,,,,,,,,,,,,,,,,,,,,,,,75,152824,21,Female,1,2024/02/22_11:37:40,YZ,None,
,,,,,,Test,1,19,3,1250,,,,,,,,0.9285714285714286,1.0,0.2857142857142857,0.7142857142857143,0.0,0.7142857142857143,0.2458350946981227,3,2,0,0,0,5,8,3,7,0,1,,,,,,,,,,,,,,,,,,,,,,,,,,,,,,,,,,,,,,,,,,,,,,75,152824,21,Female,1,2024/02/22_11:37:40,YZ,None,
,,,,,240222_114503,TEST,1,19,3,1250,,,,,,,,,,,,,,,,,,,,,,,,,1,19,19,19,cue2.png,hard,A,46,0.5649256379983854,0,379.3963029900042,379.97746560399537,,,,,,,,,,,,,,,,,,,,,,,,,,,,,,,,,,,75,152824,21,Female,1,2024/02/22_11:37:40,YZ,None,
,,,,,,test,1,20,3,1250,1,V,0,right,0.4422780270106159,1,0,,,,,,,,,,,,,,,,,,1,,,,,,,,,,,,,,,,,,,,,,,,,,,,,,,,,,,,,,,,,,,,,,75,152824,21,Female,1,2024/02/22_11:37:40,YZ,None,
,,,,,,test,1,20,3,1250,2,J,0,right,0.40541081901756115,1,0,,,,,,,,,,,,,,,,,,1,,,,,,,,,,,,,,,,,,,,,,,,,,,,,,,,,,,,,,,,,,,,,,75,152824,21,Female,1,2024/02/22_11:37:40,YZ,None,
,,,,,,test,1,20,3,1250,3,C,0,right,0.5122449600021355,1,0,,,,,,,,,,,,,,,,,,1,,,,,,,,,,,,,,,,,,,,,,,,,,,,,,,,,,,,,,,,,,,,,,75,152824,21,Female,1,2024/02/22_11:37:40,YZ,None,
,,,,,,test,1,20,3,1250,4,Q,0,right,0.41135835999739356,1,0,,,,,,,,,,,,,,,,,,1,,,,,,,,,,,,,,,,,,,,,,,,,,,,,,,,,,,,,,,,,,,,,,75,152824,21,Female,1,2024/02/22_11:37:40,YZ,None,
,,,,,,test,1,20,3,1250,5,J,1,left,0.5408847669896204,1,0,,,,,,,,,,,,,,,,,,1,,,,,,,,,,,,,,,,,,,,,,,,,,,,,,,,,,,,,,,,,,,,,,75,152824,21,Female,1,2024/02/22_11:37:40,YZ,None,
,,,,,,test,1,20,3,1250,6,J,0,left,0.3582086719979998,0,0,,,,,,,,,,,,,,,,,,1,,,,,,,,,,,,,,,,,,,,,,,,,,,,,,,,,,,,,,,,,,,,,,75,152824,21,Female,1,2024/02/22_11:37:40,YZ,None,
,,,,,,test,1,20,3,1250,7,Q,1,right,0.7090802699967753,0,0,,,,,,,,,,,,,,,,,,1,,,,,,,,,,,,,,,,,,,,,,,,,,,,,,,,,,,,,,,,,,,,,,75,152824,21,Female,1,2024/02/22_11:37:40,YZ,None,
,,,,,,test,1,20,3,1250,8,N,0,right,0.4860302610031795,1,0,,,,,,,,,,,,,,,,,,1,,,,,,,,,,,,,,,,,,,,,,,,,,,,,,,,,,,,,,,,,,,,,,75,152824,21,Female,1,2024/02/22_11:37:40,YZ,None,
,,,,,,test,1,20,3,1250,9,C,0,right,0.32859379798173904,1,0,,,,,,,,,,,,,,,,,,1,,,,,,,,,,,,,,,,,,,,,,,,,,,,,,,,,,,,,,,,,,,,,,75,152824,21,Female,1,2024/02/22_11:37:40,YZ,None,
,,,,,,test,1,20,3,1250,10,Q,1,left,0.2536852670018561,1,0,,,,,,,,,,,,,,,,,,1,,,,,,,,,,,,,,,,,,,,,,,,,,,,,,,,,,,,,,,,,,,,,,75,152824,21,Female,1,2024/02/22_11:37:40,YZ,None,
,,,,,,Test,1,20,3,1250,,,,,,,,0.8333333333333333,0.6666666666666666,0.14285714285714285,0.8571428571428571,0.0,0.8571428571428572,0.44477752009988764,2,1,0,0,0,6,8,3,7,0,1,,,,,,,,,,,,,,,,,,,,,,,,,,,,,,,,,,,,,,,,,,,,,,75,152824,21,Female,1,2024/02/22_11:37:40,YZ,None,
,,,,,240222_114523,TEST,1,20,3,1250,,,,,,,,,,,,,,,,,,,,,,,,,1,20,20,20,cue2.png,hard,A,48,1.4296988099813461,0,396.760427516012,398.2080537160218,,,,,,,,,,,,,,,,,,,,,,,,,,,,,,,,,,,75,152824,21,Female,1,2024/02/22_11:37:40,YZ,None,
,,,,,,test,1,21,1,1250,1,C,0,right,0.34231241402449086,1,0,,,,,,,,,,,,,,,,,,1,,,,,,,,,,,,,,,,,,,,,,,,,,,,,,,,,,,,,,,,,,,,,,75,152824,21,Female,1,2024/02/22_11:37:40,YZ,None,
,,,,,,test,1,21,1,1250,2,V,0,right,0.32217978200060315,1,0,,,,,,,,,,,,,,,,,,1,,,,,,,,,,,,,,,,,,,,,,,,,,,,,,,,,,,,,,,,,,,,,,75,152824,21,Female,1,2024/02/22_11:37:40,YZ,None,
,,,,,,test,1,21,1,1250,3,V,1,right,0.2402624939859379,0,0,,,,,,,,,,,,,,,,,,1,,,,,,,,,,,,,,,,,,,,,,,,,,,,,,,,,,,,,,,,,,,,,,75,152824,21,Female,1,2024/02/22_11:37:40,YZ,None,
,,,,,,test,1,21,1,1250,4,C,0,right,0.2968033100187313,1,0,,,,,,,,,,,,,,,,,,1,,,,,,,,,,,,,,,,,,,,,,,,,,,,,,,,,,,,,,,,,,,,,,75,152824,21,Female,1,2024/02/22_11:37:40,YZ,None,
,,,,,,test,1,21,1,1250,5,N,0,right,nan,0,1,,,,,,,,,,,,,,,,,,1,,,,,,,,,,,,,,,,,,,,,,,,,,,,,,,,,,,,,,,,,,,,,,75,152824,21,Female,1,2024/02/22_11:37:40,YZ,None,
,,,,,,test,1,21,1,1250,6,N,1,left,0.5307862560148351,1,0,,,,,,,,,,,,,,,,,,1,,,,,,,,,,,,,,,,,,,,,,,,,,,,,,,,,,,,,,,,,,,,,,75,152824,21,Female,1,2024/02/22_11:37:40,YZ,None,
,,,,,,test,1,21,1,1250,7,S,0,left,0.4291140839923173,0,0,,,,,,,,,,,,,,,,,,1,,,,,,,,,,,,,,,,,,,,,,,,,,,,,,,,,,,,,,,,,,,,,,75,152824,21,Female,1,2024/02/22_11:37:40,YZ,None,
,,,,,,test,1,21,1,1250,8,V,0,right,0.25312364200362936,1,0,,,,,,,,,,,,,,,,,,1,,,,,,,,,,,,,,,,,,,,,,,,,,,,,,,,,,,,,,,,,,,,,,75,152824,21,Female,1,2024/02/22_11:37:40,YZ,None,
,,,,,,test,1,21,1,1250,9,V,1,right,0.2801934680028353,0,0,,,,,,,,,,,,,,,,,,1,,,,,,,,,,,,,,,,,,,,,,,,,,,,,,,,,,,,,,,,,,,,,,75,152824,21,Female,1,2024/02/22_11:37:40,YZ,None,
,,,,,,test,1,21,1,1250,10,J,0,left,0.0,0,0,,,,,,,,,,,,,,,,,,1,,,,,,,,,,,,,,,,,,,,,,,,,,,,,,,,,,,,,,,,,,,,,,75,152824,21,Female,1,2024/02/22_11:37:40,YZ,None,
,,,,,,Test,1,21,1,1250,,,,,,,,0.5476190476190476,0.3333333333333333,0.2857142857142857,0.6666666666666666,0.1,0.6142857142857143,0.29941949444926447,1,2,0,1,1,4,5,3,7,0,1,,,,,,,,,,,,,,,,,,,,,,,,,,,,,,,,,,,,,,,,,,,,,,75,152824,21,Female,1,2024/02/22_11:37:40,YZ,None,
,,,,,240222_114543,TEST,1,21,1,1250,,,,,,,,,,,,,,,,,,,,,,,,,1,21,21,21,cue1.png,easy,A,45,0.5383229250146542,0,417.01446693300386,417.5729345639993,,,,,,,,,,,,,,,,,,,,,,,,,,,,,,,,,,,75,152824,21,Female,1,2024/02/22_11:37:40,YZ,None,
,,,,,,test,1,22,3,1250,1,Q,0,None,nan,0,1,,,,,,,,,,,,,,,,,,1,,,,,,,,,,,,,,,,,,,,,,,,,,,,,,,,,,,,,,,,,,,,,,75,152824,21,Female,1,2024/02/22_11:37:40,YZ,None,
,,,,,,test,1,22,3,1250,2,F,0,right,0.21054483597981744,1,0,,,,,,,,,,,,,,,,,,1,,,,,,,,,,,,,,,,,,,,,,,,,,,,,,,,,,,,,,,,,,,,,,75,152824,21,Female,1,2024/02/22_11:37:40,YZ,None,
,,,,,,test,1,22,3,1250,3,J,0,left,0.012678819010034204,0,0,,,,,,,,,,,,,,,,,,1,,,,,,,,,,,,,,,,,,,,,,,,,,,,,,,,,,,,,,,,,,,,,,75,152824,21,Female,1,2024/02/22_11:37:40,YZ,None,
,,,,,,test,1,22,3,1250,4,Q,1,left,0.17322607201640494,1,0,,,,,,,,,,,,,,,,,,1,,,,,,,,,,,,,,,,,,,,,,,,,,,,,,,,,,,,,,,,,,,,,,75,152824,21,Female,1,2024/02/22_11:37:40,YZ,None,
,,,,,,test,1,22,3,1250,5,F,1,left,0.04320632899180055,1,0,,,,,,,,,,,,,,,,,,1,,,,,,,,,,,,,,,,,,,,,,,,,,,,,,,,,,,,,,,,,,,,,,75,152824,21,Female,1,2024/02/22_11:37:40,YZ,None,
,,,,,,test,1,22,3,1250,6,Q,0,right,0.0,1,0,,,,,,,,,,,,,,,,,,1,,,,,,,,,,,,,,,,,,,,,,,,,,,,,,,,,,,,,,,,,,,,,,75,152824,21,Female,1,2024/02/22_11:37:40,YZ,None,
,,,,,,test,1,22,3,1250,7,J,0,left,0.007193010009359568,0,0,,,,,,,,,,,,,,,,,,1,,,,,,,,,,,,,,,,,,,,,,,,,,,,,,,,,,,,,,,,,,,,,,75,152824,21,Female,1,2024/02/22_11:37:40,YZ,None,
,,,,,,test,1,22,3,1250,8,J,0,left,0.09175935300299898,0,0,,,,,,,,,,,,,,,,,,1,,,,,,,,,,,,,,,,,,,,,,,,,,,,,,,,,,,,,,,,,,,,,,75,152824,21,Female,1,2024/02/22_11:37:40,YZ,None,
,,,,,,test,1,22,3,1250,9,S,0,right,0.0,1,0,,,,,,,,,,,,,,,,,,1,,,,,,,,,,,,,,,,,,,,,,,,,,,,,,,,,,,,,,,,,,,,,,75,152824,21,Female,1,2024/02/22_11:37:40,YZ,None,
,,,,,,test,1,22,3,1250,10,J,1,right,0.7203000909939874,0,0,,,,,,,,,,,,,,,,,,1,,,,,,,,,,,,,,,,,,,,,,,,,,,,,,,,,,,,,,,,,,,,,,75,152824,21,Female,1,2024/02/22_11:37:40,YZ,None,
,,,,,,Test,1,22,3,1250,,,,,,,,0.6666666666666666,0.6666666666666666,0.42857142857142855,0.5,0.1,0.4714285714285714,0.13987872333382256,2,3,0,1,1,3,5,3,7,0,1,,,,,,,,,,,,,,,,,,,,,,,,,,,,,,,,,,,,,,,,,,,,,,75,152824,21,Female,1,2024/02/22_11:37:40,YZ,None,
,,,,,240222_114601,TEST,1,22,3,1250,,,,,,,,,,,,,,,,,,,,,,,,,1,22,22,22,cue2.png,hard,A,46,0.8860479959985241,0,436.61222863200237,437.52052197101875,,,,,,,,,,,,,,,,,,,,,,,,,,,,,,,,,,,75,152824,21,Female,1,2024/02/22_11:37:40,YZ,None,
,,,,,,test,1,23,3,1250,1,J,0,left,0.6388544859946705,0,0,,,,,,,,,,,,,,,,,,1,,,,,,,,,,,,,,,,,,,,,,,,,,,,,,,,,,,,,,,,,,,,,,75,152824,21,Female,1,2024/02/22_11:37:40,YZ,None,
,,,,,,test,1,23,3,1250,2,J,0,right,0.0,1,0,,,,,,,,,,,,,,,,,,1,,,,,,,,,,,,,,,,,,,,,,,,,,,,,,,,,,,,,,,,,,,,,,75,152824,21,Female,1,2024/02/22_11:37:40,YZ,None,
,,,,,,test,1,23,3,1250,3,Q,0,right,0.02764302399009466,1,0,,,,,,,,,,,,,,,,,,1,,,,,,,,,,,,,,,,,,,,,,,,,,,,,,,,,,,,,,,,,,,,,,75,152824,21,Female,1,2024/02/22_11:37:40,YZ,None,
,,,,,,test,1,23,3,1250,4,X,0,left,0.08878479598206468,0,0,,,,,,,,,,,,,,,,,,1,,,,,,,,,,,,,,,,,,,,,,,,,,,,,,,,,,,,,,,,,,,,,,75,152824,21,Female,1,2024/02/22_11:37:40,YZ,None,
,,,,,,test,1,23,3,1250,5,C,0,left,0.024414476996753365,0,0,,,,,,,,,,,,,,,,,,1,,,,,,,,,,,,,,,,,,,,,,,,,,,,,,,,,,,,,,,,,,,,,,75,152824,21,Female,1,2024/02/22_11:37:40,YZ,None,
,,,,,,test,1,23,3,1250,6,Q,1,right,0.023823144001653418,0,0,,,,,,,,,,,,,,,,,,1,,,,,,,,,,,,,,,,,,,,,,,,,,,,,,,,,,,,,,,,,,,,,,75,152824,21,Female,1,2024/02/22_11:37:40,YZ,None,
,,,,,,test,1,23,3,1250,7,S,0,left,0.0,0,0,,,,,,,,,,,,,,,,,,1,,,,,,,,,,,,,,,,,,,,,,,,,,,,,,,,,,,,,,,,,,,,,,75,152824,21,Female,1,2024/02/22_11:37:40,YZ,None,
,,,,,,test,1,23,3,1250,8,F,0,left,0.0,0,0,,,,,,,,,,,,,,,,,,1,,,,,,,,,,,,,,,,,,,,,,,,,,,,,,,,,,,,,,,,,,,,,,75,152824,21,Female,1,2024/02/22_11:37:40,YZ,None,
,,,,,,test,1,23,3,1250,9,Q,1,right,0.3068042010127101,0,0,,,,,,,,,,,,,,,,,,1,,,,,,,,,,,,,,,,,,,,,,,,,,,,,,,,,,,,,,,,,,,,,,75,152824,21,Female,1,2024/02/22_11:37:40,YZ,None,
,,,,,,test,1,23,3,1250,10,S,1,left,0.3688597599975765,1,0,,,,,,,,,,,,,,,,,,1,,,,,,,,,,,,,,,,,,,,,,,,,,,,,,,,,,,,,,,,,,,,,,75,152824,21,Female,1,2024/02/22_11:37:40,YZ,None,
,,,,,,Test,1,23,3,1250,,,,,,,,0.059523809523809534,0.3333333333333333,0.7142857142857143,0.2857142857142857,0.0,0.2857142857142857,0.1479183887975523,1,5,0,0,0,2,3,3,7,0,1,,,,,,,,,,,,,,,,,,,,,,,,,,,,,,,,,,,,,,,,,,,,,,75,152824,21,Female,1,2024/02/22_11:37:40,YZ,None,
,,,,,240222_114618,TEST,1,23,3,1250,,,,,,,,,,,,,,,,,,,,,,,,,1,23,23,23,cue2.png,hard,A,44,0.5129492800042499,0,455.10105942800874,455.62467946400284,,,,,,,,,,,,,,,,,,,,,,,,,,,,,,,,,,,75,152824,21,Female,1,2024/02/22_11:37:40,YZ,None,
,,,,,,test,1,24,3,1250,1,S,0,right,0.3374512890004553,1,0,,,,,,,,,,,,,,,,,,1,,,,,,,,,,,,,,,,,,,,,,,,,,,,,,,,,,,,,,,,,,,,,,75,152824,21,Female,1,2024/02/22_11:37:40,YZ,None,
,,,,,,test,1,24,3,1250,2,C,0,left,0.16012550800223835,0,0,,,,,,,,,,,,,,,,,,1,,,,,,,,,,,,,,,,,,,,,,,,,,,,,,,,,,,,,,,,,,,,,,75,152824,21,Female,1,2024/02/22_11:37:40,YZ,None,
,,,,,,test,1,24,3,1250,3,J,0,left,0.0,0,0,,,,,,,,,,,,,,,,,,1,,,,,,,,,,,,,,,,,,,,,,,,,,,,,,,,,,,,,,,,,,,,,,75,152824,21,Female,1,2024/02/22_11:37:40,YZ,None,
,,,,,,test,1,24,3,1250,4,S,1,left,0.10884330098633654,1,0,,,,,,,,,,,,,,,,,,1,,,,,,,,,,,,,,,,,,,,,,,,,,,,,,,,,,,,,,,,,,,,,,75,152824,21,Female,1,2024/02/22_11:37:40,YZ,None,
,,,,,,test,1,24,3,1250,5,V,0,left,0.03683804301545024,0,0,,,,,,,,,,,,,,,,,,1,,,,,,,,,,,,,,,,,,,,,,,,,,,,,,,,,,,,,,,,,,,,,,75,152824,21,Female,1,2024/02/22_11:37:40,YZ,None,
,,,,,,test,1,24,3,1250,6,J,1,right,0.03218064599786885,0,0,,,,,,,,,,,,,,,,,,1,,,,,,,,,,,,,,,,,,,,,,,,,,,,,,,,,,,,,,,,,,,,,,75,152824,21,Female,1,2024/02/22_11:37:40,YZ,None,
,,,,,,test,1,24,3,1250,7,S,1,right,0.06964453600812703,0,0,,,,,,,,,,,,,,,,,,1,,,,,,,,,,,,,,,,,,,,,,,,,,,,,,,,,,,,,,,,,,,,,,75,152824,21,Female,1,2024/02/22_11:37:40,YZ,None,
,,,,,,test,1,24,3,1250,8,F,0,right,0.0,1,0,,,,,,,,,,,,,,,,,,1,,,,,,,,,,,,,,,,,,,,,,,,,,,,,,,,,,,,,,,,,,,,,,75,152824,21,Female,1,2024/02/22_11:37:40,YZ,None,
,,,,,,test,1,24,3,1250,9,Q,0,right,0.35277662001317367,1,0,,,,,,,,,,,,,,,,,,1,,,,,,,,,,,,,,,,,,,,,,,,,,,,,,,,,,,,,,,,,,,,,,75,152824,21,Female,1,2024/02/22_11:37:40,YZ,None,
,,,,,,test,1,24,3,1250,10,Q,0,right,0.021405198000138626,1,0,,,,,,,,,,,,,,,,,,1,,,,,,,,,,,,,,,,,,,,,,,,,,,,,,,,,,,,,,,,,,,,,,75,152824,21,Female,1,2024/02/22_11:37:40,YZ,None,
,,,,,,Test,1,24,3,1250,,,,,,,,0.031746031746031744,0.3333333333333333,0.42857142857142855,0.5714285714285714,0.0,0.5714285714285714,0.11192651410237886,1,3,0,0,0,4,5,3,7,0,1,,,,,,,,,,,,,,,,,,,,,,,,,,,,,,,,,,,,,,,,,,,,,,75,152824,21,Female,1,2024/02/22_11:37:40,YZ,None,
,,,,,240222_114642,TEST,1,24,3,1250,,,,,,,,,,,,,,,,,,,,,,,,,1,24,25,24,cue2.png,hard,A,46,0.44839183197473176,0,479.5190235050104,479.98346443401533,,,,,,,,,,,,,,,,,,,,,,,,,,,,,,,,,,,75,152824,21,Female,1,2024/02/22_11:37:40,YZ,None,
,,,,,,test,1,25,1,1250,1,V,0,right,0.362849978992017,1,0,,,,,,,,,,,,,,,,,,1,,,,,,,,,,,,,,,,,,,,,,,,,,,,,,,,,,,,,,,,,,,,,,75,152824,21,Female,1,2024/02/22_11:37:40,YZ,None,
,,,,,,test,1,25,1,1250,2,S,0,left,0.01832204998936504,0,0,,,,,,,,,,,,,,,,,,1,,,,,,,,,,,,,,,,,,,,,,,,,,,,,,,,,,,,,,,,,,,,,,75,152824,21,Female,1,2024/02/22_11:37:40,YZ,None,
,,,,,,test,1,25,1,1250,3,C,0,right,0.0,1,0,,,,,,,,,,,,,,,,,,1,,,,,,,,,,,,,,,,,,,,,,,,,,,,,,,,,,,,,,,,,,,,,,75,152824,21,Female,1,2024/02/22_11:37:40,YZ,None,
,,,,,,test,1,25,1,1250,4,X,0,left,0.0,0,0,,,,,,,,,,,,,,,,,,1,,,,,,,,,,,,,,,,,,,,,,,,,,,,,,,,,,,,,,,,,,,,,,75,152824,21,Female,1,2024/02/22_11:37:40,YZ,None,
,,,,,,test,1,25,1,1250,5,X,1,left,0.0007540310034528375,1,0,,,,,,,,,,,,,,,,,,1,,,,,,,,,,,,,,,,,,,,,,,,,,,,,,,,,,,,,,,,,,,,,,75,152824,21,Female,1,2024/02/22_11:37:40,YZ,None,
,,,,,,test,1,25,1,1250,6,N,0,right,0.12872318900190294,1,0,,,,,,,,,,,,,,,,,,1,,,,,,,,,,,,,,,,,,,,,,,,,,,,,,,,,,,,,,,,,,,,,,75,152824,21,Female,1,2024/02/22_11:37:40,YZ,None,
,,,,,,test,1,25,1,1250,7,N,1,left,0.1945290970033966,1,0,,,,,,,,,,,,,,,,,,1,,,,,,,,,,,,,,,,,,,,,,,,,,,,,,,,,,,,,,,,,,,,,,75,152824,21,Female,1,2024/02/22_11:37:40,YZ,None,
,,,,,,test,1,25,1,1250,8,C,0,right,0.0,1,0,,,,,,,,,,,,,,,,,,1,,,,,,,,,,,,,,,,,,,,,,,,,,,,,,,,,,,,,,,,,,,,,,75,152824,21,Female,1,2024/02/22_11:37:40,YZ,None,
,,,,,,test,1,25,1,1250,9,V,0,right,0.0,1,0,,,,,,,,,,,,,,,,,,1,,,,,,,,,,,,,,,,,,,,,,,,,,,,,,,,,,,,,,,,,,,,,,75,152824,21,Female,1,2024/02/22_11:37:40,YZ,None,
,,,,,,test,1,25,1,1250,10,V,1,right,0.09376813398557715,0,0,,,,,,,,,,,,,,,,,,1,,,,,,,,,,,,,,,,,,,,,,,,,,,,,,,,,,,,,,,,,,,,,,75,152824,21,Female,1,2024/02/22_11:37:40,YZ,None,
,,,,,,Test,1,25,1,1250,,,,,,,,0.75,0.6666666666666666,0.2857142857142857,0.7142857142857143,0.0,0.7142857142857143,0.07989464799757115,2,2,0,0,0,5,7,3,7,0,1,,,,,,,,,,,,,,,,,,,,,,,,,,,,,,,,,,,,,,,,,,,,,,75,152824,21,Female,1,2024/02/22_11:37:40,YZ,None,
,,,,,240222_114657,TEST,1,25,1,1250,,,,,,,,,,,,,,,,,,,,,,,,,1,25,26,25,cue1.png,easy,A,47,0.5706591449852567,0,495.43654165099724,496.02261368499603,,,,,,,,,,,,,,,,,,,,,,,,,,,,,,,,,,,75,152824,21,Female,1,2024/02/22_11:37:40,YZ,None,
,,,,,,test,1,26,1,1250,1,J,0,None,nan,0,1,,,,,,,,,,,,,,,,,,1,,,,,,,,,,,,,,,,,,,,,,,,,,,,,,,,,,,,,,,,,,,,,,75,152824,21,Female,1,2024/02/22_11:37:40,YZ,None,
,,,,,,test,1,26,1,1250,2,F,0,right,0.053578952996758744,1,0,,,,,,,,,,,,,,,,,,1,,,,,,,,,,,,,,,,,,,,,,,,,,,,,,,,,,,,,,,,,,,,,,75,152824,21,Female,1,2024/02/22_11:37:40,YZ,None,
,,,,,,test,1,26,1,1250,3,F,1,left,0.06511547000263818,1,0,,,,,,,,,,,,,,,,,,1,,,,,,,,,,,,,,,,,,,,,,,,,,,,,,,,,,,,,,,,,,,,,,75,152824,21,Female,1,2024/02/22_11:37:40,YZ,None,
,,,,,,test,1,26,1,1250,4,V,0,left,0.4371029500034638,0,0,,,,,,,,,,,,,,,,,,1,,,,,,,,,,,,,,,,,,,,,,,,,,,,,,,,,,,,,,,,,,,,,,75,152824,21,Female,1,2024/02/22_11:37:40,YZ,None,
,,,,,,test,1,26,1,1250,5,N,0,left,0.31363695301115513,0,0,,,,,,,,,,,,,,,,,,1,,,,,,,,,,,,,,,,,,,,,,,,,,,,,,,,,,,,,,,,,,,,,,75,152824,21,Female,1,2024/02/22_11:37:40,YZ,None,
,,,,,,test,1,26,1,1250,6,N,1,right,0.45609818000230007,0,0,,,,,,,,,,,,,,,,,,1,,,,,,,,,,,,,,,,,,,,,,,,,,,,,,,,,,,,,,,,,,,,,,75,152824,21,Female,1,2024/02/22_11:37:40,YZ,None,
,,,,,,test,1,26,1,1250,7,S,0,right,0.2480821979988832,1,0,,,,,,,,,,,,,,,,,,1,,,,,,,,,,,,,,,,,,,,,,,,,,,,,,,,,,,,,,,,,,,,,,75,152824,21,Female,1,2024/02/22_11:37:40,YZ,None,
,,,,,,test,1,26,1,1250,8,J,0,right,0.37318150702049024,1,0,,,,,,,,,,,,,,,,,,1,,,,,,,,,,,,,,,,,,,,,,,,,,,,,,,,,,,,,,,,,,,,,,75,152824,21,Female,1,2024/02/22_11:37:40,YZ,None,
,,,,,,test,1,26,1,1250,9,J,1,right,0.31288217898691073,0,0,,,,,,,,,,,,,,,,,,1,,,,,,,,,,,,,,,,,,,,,,,,,,,,,,,,,,,,,,,,,,,,,,75,152824,21,Female,1,2024/02/22_11:37:40,YZ,None,
,,,,,,test,1,26,1,1250,10,Q,0,right,0.3088664009992499,1,0,,,,,,,,,,,,,,,,,,1,,,,,,,,,,,,,,,,,,,,,,,,,,,,,,,,,,,,,,,,,,,,,,75,152824,21,Female,1,2024/02/22_11:37:40,YZ,None,
,,,,,,Test,1,26,1,1250,,,,,,,,0.5476190476190476,0.3333333333333333,0.2857142857142857,0.6666666666666666,0.1,0.6142857142857143,0.2853938656690944,1,2,0,1,1,4,5,3,7,0,1,,,,,,,,,,,,,,,,,,,,,,,,,,,,,,,,,,,,,,,,,,,,,,75,152824,21,Female,1,2024/02/22_11:37:40,YZ,None,
,,,,,240222_114717,TEST,1,26,1,1250,,,,,,,,,,,,,,,,,,,,,,,,,1,26,27,26,cue1.png,easy,A,46,0.6028209550131578,0,511.143859866017,511.7651637950039,,,,,,,,,,,,,,,,,,,,,,,,,,,,,,,,,,,75,152824,21,Female,1,2024/02/22_11:37:40,YZ,None,
,,,,,,test,1,27,3,1250,1,F,0,left,0.6402905499853659,0,0,,,,,,,,,,,,,,,,,,1,,,,,,,,,,,,,,,,,,,,,,,,,,,,,,,,,,,,,,,,,,,,,,75,152824,21,Female,1,2024/02/22_11:37:40,YZ,None,
,,,,,,test,1,27,3,1250,2,Q,0,left,0.07060813999851234,0,0,,,,,,,,,,,,,,,,,,1,,,,,,,,,,,,,,,,,,,,,,,,,,,,,,,,,,,,,,,,,,,,,,75,152824,21,Female,1,2024/02/22_11:37:40,YZ,None,
,,,,,,test,1,27,3,1250,3,Q,0,right,0.30381533098989166,1,0,,,,,,,,,,,,,,,,,,1,,,,,,,,,,,,,,,,,,,,,,,,,,,,,,,,,,,,,,,,,,,,,,75,152824,21,Female,1,2024/02/22_11:37:40,YZ,None,
,,,,,,test,1,27,3,1250,4,N,0,left,0.0005762220243923366,0,0,,,,,,,,,,,,,,,,,,1,,,,,,,,,,,,,,,,,,,,,,,,,,,,,,,,,,,,,,,,,,,,,,75,152824,21,Female,1,2024/02/22_11:37:40,YZ,None,
,,,,,,test,1,27,3,1250,5,N,0,right,0.07829658000264317,1,0,,,,,,,,,,,,,,,,,,1,,,,,,,,,,,,,,,,,,,,,,,,,,,,,,,,,,,,,,,,,,,,,,75,152824,21,Female,1,2024/02/22_11:37:40,YZ,None,
,,,,,,test,1,27,3,1250,6,Q,1,right,0.0,0,0,,,,,,,,,,,,,,,,,,1,,,,,,,,,,,,,,,,,,,,,,,,,,,,,,,,,,,,,,,,,,,,,,75,152824,21,Female,1,2024/02/22_11:37:40,YZ,None,
,,,,,,test,1,27,3,1250,7,J,0,left,0.0,0,0,,,,,,,,,,,,,,,,,,1,,,,,,,,,,,,,,,,,,,,,,,,,,,,,,,,,,,,,,,,,,,,,,75,152824,21,Female,1,2024/02/22_11:37:40,YZ,None,
,,,,,,test,1,27,3,1250,8,N,1,left,0.12401614701957442,1,0,,,,,,,,,,,,,,,,,,1,,,,,,,,,,,,,,,,,,,,,,,,,,,,,,,,,,,,,,,,,,,,,,75,152824,21,Female,1,2024/02/22_11:37:40,YZ,None,
,,,,,,test,1,27,3,1250,9,X,0,right,0.0,1,0,,,,,,,,,,,,,,,,,,1,,,,,,,,,,,,,,,,,,,,,,,,,,,,,,,,,,,,,,,,,,,,,,75,152824,21,Female,1,2024/02/22_11:37:40,YZ,None,
,,,,,,test,1,27,3,1250,10,J,1,right,0.18249766100780107,0,0,,,,,,,,,,,,,,,,,,1,,,,,,,,,,,,,,,,,,,,,,,,,,,,,,,,,,,,,,,,,,,,,,75,152824,21,Female,1,2024/02/22_11:37:40,YZ,None,
,,,,,,Test,1,27,3,1250,,,,,,,,0.047619047619047616,0.3333333333333333,0.5714285714285714,0.42857142857142855,0.0,0.4285714285714286,0.1400100631028181,1,4,0,0,0,3,4,3,7,0,1,,,,,,,,,,,,,,,,,,,,,,,,,,,,,,,,,,,,,,,,,,,,,,75,152824,21,Female,1,2024/02/22_11:37:40,YZ,None,
,,,,,240222_114734,TEST,1,27,3,1250,,,,,,,,,,,,,,,,,,,,,,,,,1,27,28,27,cue2.png,hard,A,46,0.8871547210146673,0,530.6627792920044,531.5652761039964,,,,,,,,,,,,,,,,,,,,,,,,,,,,,,,,,,,75,152824,21,Female,1,2024/02/22_11:37:40,YZ,None,
,,,,,,test,1,28,1,1250,1,V,0,None,nan,0,1,,,,,,,,,,,,,,,,,,1,,,,,,,,,,,,,,,,,,,,,,,,,,,,,,,,,,,,,,,,,,,,,,75,152824,21,Female,1,2024/02/22_11:37:40,YZ,None,
,,,,,,test,1,28,1,1250,2,X,0,right,0.3417831379920244,1,0,,,,,,,,,,,,,,,,,,1,,,,,,,,,,,,,,,,,,,,,,,,,,,,,,,,,,,,,,,,,,,,,,75,152824,21,Female,1,2024/02/22_11:37:40,YZ,None,
,,,,,,test,1,28,1,1250,3,Q,0,right,0.08460695800022222,1,0,,,,,,,,,,,,,,,,,,1,,,,,,,,,,,,,,,,,,,,,,,,,,,,,,,,,,,,,,,,,,,,,,75,152824,21,Female,1,2024/02/22_11:37:40,YZ,None,
,,,,,,test,1,28,1,1250,4,V,0,left,0.0,0,0,,,,,,,,,,,,,,,,,,1,,,,,,,,,,,,,,,,,,,,,,,,,,,,,,,,,,,,,,,,,,,,,,75,152824,21,Female,1,2024/02/22_11:37:40,YZ,None,
,,,,,,test,1,28,1,1250,5,V,1,left,0.0,1,0,,,,,,,,,,,,,,,,,,1,,,,,,,,,,,,,,,,,,,,,,,,,,,,,,,,,,,,,,,,,,,,,,75,152824,21,Female,1,2024/02/22_11:37:40,YZ,None,
,,,,,,test,1,28,1,1250,6,J,0,right,0.5303793610073626,1,0,,,,,,,,,,,,,,,,,,1,,,,,,,,,,,,,,,,,,,,,,,,,,,,,,,,,,,,,,,,,,,,,,75,152824,21,Female,1,2024/02/22_11:37:40,YZ,None,
,,,,,,test,1,28,1,1250,7,J,1,right,0.08712304299115203,0,0,,,,,,,,,,,,,,,,,,1,,,,,,,,,,,,,,,,,,,,,,,,,,,,,,,,,,,,,,,,,,,,,,75,152824,21,Female,1,2024/02/22_11:37:40,YZ,None,
,,,,,,test,1,28,1,1250,8,N,0,right,0.45685481900000013,1,0,,,,,,,,,,,,,,,,,,1,,,,,,,,,,,,,,,,,,,,,,,,,,,,,,,,,,,,,,,,,,,,,,75,152824,21,Female,1,2024/02/22_11:37:40,YZ,None,
,,,,,,test,1,28,1,1250,9,X,0,left,0.4640498170047067,0,0,,,,,,,,,,,,,,,,,,1,,,,,,,,,,,,,,,,,,,,,,,,,,,,,,,,,,,,,,,,,,,,,,75,152824,21,Female,1,2024/02/22_11:37:40,YZ,None,
,,,,,,test,1,28,1,1250,10,X,1,left,0.35652204300276935,1,0,,,,,,,,,,,,,,,,,,1,,,,,,,,,,,,,,,,,,,,,,,,,,,,,,,,,,,,,,,,,,,,,,75,152824,21,Female,1,2024/02/22_11:37:40,YZ,None,
,,,,,,Test,1,28,1,1250,,,,,,,,0.75,0.6666666666666666,0.2857142857142857,0.6666666666666666,0.1,0.6142857142857143,0.2579243532220264,2,2,0,1,1,4,6,3,7,0,1,,,,,,,,,,,,,,,,,,,,,,,,,,,,,,,,,,,,,,,,,,,,,,75,152824,21,Female,1,2024/02/22_11:37:40,YZ,None,
,,,,,240222_114753,TEST,1,28,1,1250,,,,,,,,,,,,,,,,,,,,,,,,,1,28,29,28,cue1.png,easy,A,44,0.5723486930073705,0,547.3030030509981,547.8911875610065,,,,,,,,,,,,,,,,,,,,,,,,,,,,,,,,,,,75,152824,21,Female,1,2024/02/22_11:37:40,YZ,None,
,,,,,,test,1,29,1,1250,1,X,0,right,0.7249047179939225,1,0,,,,,,,,,,,,,,,,,,1,,,,,,,,,,,,,,,,,,,,,,,,,,,,,,,,,,,,,,,,,,,,,,75,152824,21,Female,1,2024/02/22_11:37:40,YZ,None,
,,,,,,test,1,29,1,1250,2,X,1,right,0.20801019601640292,0,0,,,,,,,,,,,,,,,,,,1,,,,,,,,,,,,,,,,,,,,,,,,,,,,,,,,,,,,,,,,,,,,,,75,152824,21,Female,1,2024/02/22_11:37:40,YZ,None,
,,,,,,test,1,29,1,1250,3,N,0,left,0.42080754099879414,0,0,,,,,,,,,,,,,,,,,,1,,,,,,,,,,,,,,,,,,,,,,,,,,,,,,,,,,,,,,,,,,,,,,75,152824,21,Female,1,2024/02/22_11:37:40,YZ,None,
,,,,,,test,1,29,1,1250,4,N,1,left,0.32937356299953535,1,0,,,,,,,,,,,,,,,,,,1,,,,,,,,,,,,,,,,,,,,,,,,,,,,,,,,,,,,,,,,,,,,,,75,152824,21,Female,1,2024/02/22_11:37:40,YZ,None,
,,,,,,test,1,29,1,1250,5,F,0,right,0.5238460769760422,1,0,,,,,,,,,,,,,,,,,,1,,,,,,,,,,,,,,,,,,,,,,,,,,,,,,,,,,,,,,,,,,,,,,75,152824,21,Female,1,2024/02/22_11:37:40,YZ,None,
,,,,,,test,1,29,1,1250,6,S,0,left,0.48705869299010374,0,0,,,,,,,,,,,,,,,,,,1,,,,,,,,,,,,,,,,,,,,,,,,,,,,,,,,,,,,,,,,,,,,,,75,152824,21,Female,1,2024/02/22_11:37:40,YZ,None,
,,,,,,test,1,29,1,1250,7,X,0,right,0.4803288480034098,1,0,,,,,,,,,,,,,,,,,,1,,,,,,,,,,,,,,,,,,,,,,,,,,,,,,,,,,,,,,,,,,,,,,75,152824,21,Female,1,2024/02/22_11:37:40,YZ,None,
,,,,,,test,1,29,1,1250,8,C,0,left,0.07697651497437619,0,0,,,,,,,,,,,,,,,,,,1,,,,,,,,,,,,,,,,,,,,,,,,,,,,,,,,,,,,,,,,,,,,,,75,152824,21,Female,1,2024/02/22_11:37:40,YZ,None,
,,,,,,test,1,29,1,1250,9,F,0,right,0.36484515899792314,1,0,,,,,,,,,,,,,,,,,,1,,,,,,,,,,,,,,,,,,,,,,,,,,,,,,,,,,,,,,,,,,,,,,75,152824,21,Female,1,2024/02/22_11:37:40,YZ,None,
,,,,,,test,1,29,1,1250,10,F,1,right,0.0902113109768834,0,0,,,,,,,,,,,,,,,,,,1,,,,,,,,,,,,,,,,,,,,,,,,,,,,,,,,,,,,,,,,,,,,,,75,152824,21,Female,1,2024/02/22_11:37:40,YZ,None,
,,,,,,Test,1,29,1,1250,,,,,,,,0.031746031746031744,0.3333333333333333,0.42857142857142855,0.5714285714285714,0.0,0.5714285714285714,0.37063626209273937,1,3,0,0,0,4,5,3,7,0,1,,,,,,,,,,,,,,,,,,,,,,,,,,,,,,,,,,,,,,,,,,,,,,75,152824,21,Female,1,2024/02/22_11:37:40,YZ,None,
,,,,,240222_114811,TEST,1,29,1,1250,,,,,,,,,,,,,,,,,,,,,,,,,1,29,30,29,cue1.png,easy,A,45,0.4294996990065556,0,566.5401295580086,566.9986170080083,,,,,,,,,,,,,,,,,,,,,,,,,,,,,,,,,,,75,152824,21,Female,1,2024/02/22_11:37:40,YZ,None,
,,,,,,test,1,30,3,1250,1,C,0,None,nan,0,1,,,,,,,,,,,,,,,,,,1,,,,,,,,,,,,,,,,,,,,,,,,,,,,,,,,,,,,,,,,,,,,,,75,152824,21,Female,1,2024/02/22_11:37:40,YZ,None,
,,,,,,test,1,30,3,1250,2,N,0,None,nan,0,1,,,,,,,,,,,,,,,,,,1,,,,,,,,,,,,,,,,,,,,,,,,,,,,,,,,,,,,,,,,,,,,,,75,152824,21,Female,1,2024/02/22_11:37:40,YZ,None,
,,,,,,test,1,30,3,1250,3,N,0,right,1.4249999250168912,1,0,,,,,,,,,,,,,,,,,,1,,,,,,,,,,,,,,,,,,,,,,,,,,,,,,,,,,,,,,,,,,,,,,75,152824,21,Female,1,2024/02/22_11:37:40,YZ,None,
,,,,,,test,1,30,3,1250,4,C,1,right,0.009686271019745618,0,0,,,,,,,,,,,,,,,,,,1,,,,,,,,,,,,,,,,,,,,,,,,,,,,,,,,,,,,,,,,,,,,,,75,152824,21,Female,1,2024/02/22_11:37:40,YZ,None,
,,,,,,test,1,30,3,1250,5,N,1,right,0.11803609400521964,0,0,,,,,,,,,,,,,,,,,,1,,,,,,,,,,,,,,,,,,,,,,,,,,,,,,,,,,,,,,,,,,,,,,75,152824,21,Female,1,2024/02/22_11:37:40,YZ,None,
,,,,,,test,1,30,3,1250,6,J,0,right,0.12954572899616323,1,0,,,,,,,,,,,,,,,,,,1,,,,,,,,,,,,,,,,,,,,,,,,,,,,,,,,,,,,,,,,,,,,,,75,152824,21,Female,1,2024/02/22_11:37:40,YZ,None,
,,,,,,test,1,30,3,1250,7,V,0,left,0.1447282709996216,0,0,,,,,,,,,,,,,,,,,,1,,,,,,,,,,,,,,,,,,,,,,,,,,,,,,,,,,,,,,,,,,,,,,75,152824,21,Female,1,2024/02/22_11:37:40,YZ,None,
,,,,,,test,1,30,3,1250,8,N,1,left,0.09320069898967631,1,0,,,,,,,,,,,,,,,,,,1,,,,,,,,,,,,,,,,,,,,,,,,,,,,,,,,,,,,,,,,,,,,,,75,152824,21,Female,1,2024/02/22_11:37:40,YZ,None,
,,,,,,test,1,30,3,1250,9,C,0,left,0.29808053400483914,0,0,,,,,,,,,,,,,,,,,,1,,,,,,,,,,,,,,,,,,,,,,,,,,,,,,,,,,,,,,,,,,,,,,75,152824,21,Female,1,2024/02/22_11:37:40,YZ,None,
,,,,,,test,1,30,3,1250,10,J,0,right,0.2996591060073115,1,0,,,,,,,,,,,,,,,,,,1,,,,,,,,,,,,,,,,,,,,,,,,,,,,,,,,,,,,,,,,,,,,,,75,152824,21,Female,1,2024/02/22_11:37:40,YZ,None,
,,,,,,Test,1,30,3,1250,,,,,,,,0.5476190476190476,0.3333333333333333,0.2857142857142857,0.6,0.2,0.5142857142857142,0.31474207862993353,1,2,0,2,2,3,4,3,7,0,1,,,,,,,,,,,,,,,,,,,,,,,,,,,,,,,,,,,,,,,,,,,,,,75,152824,21,Female,1,2024/02/22_11:37:40,YZ,None,
,,,,,240222_114833,TEST,1,30,3,1250,,,,,,,,,,,,,,,,,,,,,,,,,1,30,31,30,cue2.png,hard,A,46,0.738473276986042,0,585.0456762130198,585.8005534709955,,,,,,,,,,,,,,,,,,,,,,,,,,,,,,,,,,,75,152824,21,Female,1,2024/02/22_11:37:40,YZ,None,
,,,,,,test,1,31,3,1250,1,S,0,right,1.0330078269762453,1,0,,,,,,,,,,,,,,,,,,1,,,,,,,,,,,,,,,,,,,,,,,,,,,,,,,,,,,,,,,,,,,,,,75,152824,21,Female,1,2024/02/22_11:37:40,YZ,None,
,,,,,,test,1,31,3,1250,2,X,0,right,0.07757893900270574,1,0,,,,,,,,,,,,,,,,,,1,,,,,,,,,,,,,,,,,,,,,,,,,,,,,,,,,,,,,,,,,,,,,,75,152824,21,Female,1,2024/02/22_11:37:40,YZ,None,
,,,,,,test,1,31,3,1250,3,S,0,right,0.0004731279914267361,1,0,,,,,,,,,,,,,,,,,,1,,,,,,,,,,,,,,,,,,,,,,,,,,,,,,,,,,,,,,,,,,,,,,75,152824,21,Female,1,2024/02/22_11:37:40,YZ,None,
,,,,,,test,1,31,3,1250,4,S,1,right,0.031114075012737885,0,0,,,,,,,,,,,,,,,,,,1,,,,,,,,,,,,,,,,,,,,,,,,,,,,,,,,,,,,,,,,,,,,,,75,152824,21,Female,1,2024/02/22_11:37:40,YZ,None,
,,,,,,test,1,31,3,1250,5,J,0,left,0.0,0,0,,,,,,,,,,,,,,,,,,1,,,,,,,,,,,,,,,,,,,,,,,,,,,,,,,,,,,,,,,,,,,,,,75,152824,21,Female,1,2024/02/22_11:37:40,YZ,None,
,,,,,,test,1,31,3,1250,6,S,1,left,0.0,1,0,,,,,,,,,,,,,,,,,,1,,,,,,,,,,,,,,,,,,,,,,,,,,,,,,,,,,,,,,,,,,,,,,75,152824,21,Female,1,2024/02/22_11:37:40,YZ,None,
,,,,,,test,1,31,3,1250,7,F,0,right,0.0,1,0,,,,,,,,,,,,,,,,,,1,,,,,,,,,,,,,,,,,,,,,,,,,,,,,,,,,,,,,,,,,,,,,,75,152824,21,Female,1,2024/02/22_11:37:40,YZ,None,
,,,,,,test,1,31,3,1250,8,Q,0,right,0.49610671200207435,1,0,,,,,,,,,,,,,,,,,,1,,,,,,,,,,,,,,,,,,,,,,,,,,,,,,,,,,,,,,,,,,,,,,75,152824,21,Female,1,2024/02/22_11:37:40,YZ,None,
,,,,,,test,1,31,3,1250,9,V,0,left,0.1162220939877443,0,0,,,,,,,,,,,,,,,,,,1,,,,,,,,,,,,,,,,,,,,,,,,,,,,,,,,,,,,,,,,,,,,,,75,152824,21,Female,1,2024/02/22_11:37:40,YZ,None,
,,,,,,test,1,31,3,1250,10,F,1,left,0.04834300800575875,1,0,,,,,,,,,,,,,,,,,,1,,,,,,,,,,,,,,,,,,,,,,,,,,,,,,,,,,,,,,,,,,,,,,75,152824,21,Female,1,2024/02/22_11:37:40,YZ,None,
,,,,,,Test,1,31,3,1250,,,,,,,,0.75,0.6666666666666666,0.2857142857142857,0.7142857142857143,0.0,0.7142857142857143,0.1802845782978693,2,2,0,0,0,5,7,3,7,0,1,,,,,,,,,,,,,,,,,,,,,,,,,,,,,,,,,,,,,,,,,,,,,,75,152824,21,Female,1,2024/02/22_11:37:40,YZ,None,
,,,,,240222_114850,TEST,1,31,3,1250,,,,,,,,,,,,,,,,,,,,,,,,,1,31,32,31,cue2.png,hard,A,48,1.1684775920002721,0,606.669054618018,607.8608268859971,,,,,,,,,,,,,,,,,,,,,,,,,,,,,,,,,,,75,152824,21,Female,1,2024/02/22_11:37:40,YZ,None,
,,,,,,test,1,32,1,1250,1,C,0,right,1.0828159530065022,1,0,,,,,,,,,,,,,,,,,,1,,,,,,,,,,,,,,,,,,,,,,,,,,,,,,,,,,,,,,,,,,,,,,75,152824,21,Female,1,2024/02/22_11:37:40,YZ,None,
,,,,,,test,1,32,1,1250,2,C,1,right,0.19960529802483507,0,0,,,,,,,,,,,,,,,,,,1,,,,,,,,,,,,,,,,,,,,,,,,,,,,,,,,,,,,,,,,,,,,,,75,152824,21,Female,1,2024/02/22_11:37:40,YZ,None,
,,,,,,test,1,32,1,1250,3,J,0,right,0.32135418299003504,1,0,,,,,,,,,,,,,,,,,,1,,,,,,,,,,,,,,,,,,,,,,,,,,,,,,,,,,,,,,,,,,,,,,75,152824,21,Female,1,2024/02/22_11:37:40,YZ,None,
,,,,,,test,1,32,1,1250,4,S,0,right,0.3333716230117716,1,0,,,,,,,,,,,,,,,,,,1,,,,,,,,,,,,,,,,,,,,,,,,,,,,,,,,,,,,,,,,,,,,,,75,152824,21,Female,1,2024/02/22_11:37:40,YZ,None,
,,,,,,test,1,32,1,1250,5,X,0,right,0.2723415109794587,1,0,,,,,,,,,,,,,,,,,,1,,,,,,,,,,,,,,,,,,,,,,,,,,,,,,,,,,,,,,,,,,,,,,75,152824,21,Female,1,2024/02/22_11:37:40,YZ,None,
,,,,,,test,1,32,1,1250,6,J,0,left,0.39999351097503677,0,0,,,,,,,,,,,,,,,,,,1,,,,,,,,,,,,,,,,,,,,,,,,,,,,,,,,,,,,,,,,,,,,,,75,152824,21,Female,1,2024/02/22_11:37:40,YZ,None,
,,,,,,test,1,32,1,1250,7,J,1,left,0.18081088698818348,1,0,,,,,,,,,,,,,,,,,,1,,,,,,,,,,,,,,,,,,,,,,,,,,,,,,,,,,,,,,,,,,,,,,75,152824,21,Female,1,2024/02/22_11:37:40,YZ,None,
,,,,,,test,1,32,1,1250,8,S,0,left,0.33064175499021076,0,0,,,,,,,,,,,,,,,,,,1,,,,,,,,,,,,,,,,,,,,,,,,,,,,,,,,,,,,,,,,,,,,,,75,152824,21,Female,1,2024/02/22_11:37:40,YZ,None,
,,,,,,test,1,32,1,1250,9,F,0,right,0.4800561640004162,1,0,,,,,,,,,,,,,,,,,,1,,,,,,,,,,,,,,,,,,,,,,,,,,,,,,,,,,,,,,,,,,,,,,75,152824,21,Female,1,2024/02/22_11:37:40,YZ,None,
,,,,,,test,1,32,1,1250,10,F,1,left,0.30134109902428463,1,0,,,,,,,,,,,,,,,,,,1,,,,,,,,,,,,,,,,,,,,,,,,,,,,,,,,,,,,,,,,,,,,,,75,152824,21,Female,1,2024/02/22_11:37:40,YZ,None,
,,,,,,Test,1,32,1,1250,,,,,,,,0.75,0.6666666666666666,0.2857142857142857,0.7142857142857143,0.0,0.7142857142857143,0.39023319839907344,2,2,0,0,0,5,7,3,7,0,1,,,,,,,,,,,,,,,,,,,,,,,,,,,,,,,,,,,,,,,,,,,,,,75,152824,21,Female,1,2024/02/22_11:37:40,YZ,None,
,,,,,240222_114910,TEST,1,32,1,1250,,,,,,,,,,,,,,,,,,,,,,,,,1,32,33,32,cue1.png,easy,A,47,1.4564606540079694,0,623.9805654619995,625.4571806240128,,,,,,,,,,,,,,,,,,,,,,,,,,,,,,,,,,,75,152824,21,Female,1,2024/02/22_11:37:40,YZ,None,
,,,,,,test,1,33,1,1250,1,C,0,left,0.6253218530036975,0,0,,,,,,,,,,,,,,,,,,1,,,,,,,,,,,,,,,,,,,,,,,,,,,,,,,,,,,,,,,,,,,,,,75,152824,21,Female,1,2024/02/22_11:37:40,YZ,None,
,,,,,,test,1,33,1,1250,2,N,0,left,0.01936835699598305,0,0,,,,,,,,,,,,,,,,,,1,,,,,,,,,,,,,,,,,,,,,,,,,,,,,,,,,,,,,,,,,,,,,,75,152824,21,Female,1,2024/02/22_11:37:40,YZ,None,
,,,,,,test,1,33,1,1250,3,Q,0,right,0.04053558301529847,1,0,,,,,,,,,,,,,,,,,,1,,,,,,,,,,,,,,,,,,,,,,,,,,,,,,,,,,,,,,,,,,,,,,75,152824,21,Female,1,2024/02/22_11:37:40,YZ,None,
,,,,,,test,1,33,1,1250,4,Q,1,right,0.3055641000100877,0,0,,,,,,,,,,,,,,,,,,1,,,,,,,,,,,,,,,,,,,,,,,,,,,,,,,,,,,,,,,,,,,,,,75,152824,21,Female,1,2024/02/22_11:37:40,YZ,None,
,,,,,,test,1,33,1,1250,5,S,0,left,0.13636732098530047,0,0,,,,,,,,,,,,,,,,,,1,,,,,,,,,,,,,,,,,,,,,,,,,,,,,,,,,,,,,,,,,,,,,,75,152824,21,Female,1,2024/02/22_11:37:40,YZ,None,
,,,,,,test,1,33,1,1250,6,S,1,left,0.16954067201004364,1,0,,,,,,,,,,,,,,,,,,1,,,,,,,,,,,,,,,,,,,,,,,,,,,,,,,,,,,,,,,,,,,,,,75,152824,21,Female,1,2024/02/22_11:37:40,YZ,None,
,,,,,,test,1,33,1,1250,7,J,0,right,0.32515322099789046,1,0,,,,,,,,,,,,,,,,,,1,,,,,,,,,,,,,,,,,,,,,,,,,,,,,,,,,,,,,,,,,,,,,,75,152824,21,Female,1,2024/02/22_11:37:40,YZ,None,
,,,,,,test,1,33,1,1250,8,V,0,left,0.1102059340046253,0,0,,,,,,,,,,,,,,,,,,1,,,,,,,,,,,,,,,,,,,,,,,,,,,,,,,,,,,,,,,,,,,,,,75,152824,21,Female,1,2024/02/22_11:37:40,YZ,None,
,,,,,,test,1,33,1,1250,9,S,0,left,0.1086010989965871,0,0,,,,,,,,,,,,,,,,,,1,,,,,,,,,,,,,,,,,,,,,,,,,,,,,,,,,,,,,,,,,,,,,,75,152824,21,Female,1,2024/02/22_11:37:40,YZ,None,
,,,,,,test,1,33,1,1250,10,S,1,right,0.3051871939969715,0,0,,,,,,,,,,,,,,,,,,1,,,,,,,,,,,,,,,,,,,,,,,,,,,,,,,,,,,,,,,,,,,,,,75,152824,21,Female,1,2024/02/22_11:37:40,YZ,None,
,,,,,,Test,1,33,1,1250,,,,,,,,0.059523809523809534,0.3333333333333333,0.7142857142857143,0.2857142857142857,0.0,0.2857142857142857,0.21458453340164851,1,5,0,0,0,2,3,3,7,0,1,,,,,,,,,,,,,,,,,,,,,,,,,,,,,,,,,,,,,,,,,,,,,,75,152824,21,Female,1,2024/02/22_11:37:40,YZ,None,
,,,,,240222_114927,TEST,1,33,1,1250,,,,,,,,,,,,,,,,,,,,,,,,,1,33,34,33,cue1.png,easy,A,46,0.9235971620073542,0,643.705574859021,644.6446706140123,,,,,,,,,,,,,,,,,,,,,,,,,,,,,,,,,,,75,152824,21,Female,1,2024/02/22_11:37:40,YZ,None,
,,,,,,test,1,34,1,1250,1,V,0,None,nan,0,1,,,,,,,,,,,,,,,,,,1,,,,,,,,,,,,,,,,,,,,,,,,,,,,,,,,,,,,,,,,,,,,,,75,152824,21,Female,1,2024/02/22_11:37:40,YZ,None,
,,,,,,test,1,34,1,1250,2,V,1,right,0.16386202900321223,0,0,,,,,,,,,,,,,,,,,,1,,,,,,,,,,,,,,,,,,,,,,,,,,,,,,,,,,,,,,,,,,,,,,75,152824,21,Female,1,2024/02/22_11:37:40,YZ,None,
,,,,,,test,1,34,1,1250,3,Q,0,right,nan,0,1,,,,,,,,,,,,,,,,,,1,,,,,,,,,,,,,,,,,,,,,,,,,,,,,,,,,,,,,,,,,,,,,,75,152824,21,Female,1,2024/02/22_11:37:40,YZ,None,
,,,,,,test,1,34,1,1250,4,X,0,right,0.009052426990820095,1,0,,,,,,,,,,,,,,,,,,1,,,,,,,,,,,,,,,,,,,,,,,,,,,,,,,,,,,,,,,,,,,,,,75,152824,21,Female,1,2024/02/22_11:37:40,YZ,None,
,,,,,,test,1,34,1,1250,5,X,1,left,0.0,1,0,,,,,,,,,,,,,,,,,,1,,,,,,,,,,,,,,,,,,,,,,,,,,,,,,,,,,,,,,,,,,,,,,75,152824,21,Female,1,2024/02/22_11:37:40,YZ,None,
,,,,,,test,1,34,1,1250,6,V,0,left,0.7378390330122784,0,0,,,,,,,,,,,,,,,,,,1,,,,,,,,,,,,,,,,,,,,,,,,,,,,,,,,,,,,,,,,,,,,,,75,152824,21,Female,1,2024/02/22_11:37:40,YZ,None,
,,,,,,test,1,34,1,1250,7,S,0,left,nan,0,1,,,,,,,,,,,,,,,,,,1,,,,,,,,,,,,,,,,,,,,,,,,,,,,,,,,,,,,,,,,,,,,,,75,152824,21,Female,1,2024/02/22_11:37:40,YZ,None,
,,,,,,test,1,34,1,1250,8,F,0,left,nan,0,1,,,,,,,,,,,,,,,,,,1,,,,,,,,,,,,,,,,,,,,,,,,,,,,,,,,,,,,,,,,,,,,,,75,152824,21,Female,1,2024/02/22_11:37:40,YZ,None,
,,,,,,test,1,34,1,1250,9,F,1,left,nan,0,1,,,,,,,,,,,,,,,,,,1,,,,,,,,,,,,,,,,,,,,,,,,,,,,,,,,,,,,,,,,,,,,,,75,152824,21,Female,1,2024/02/22_11:37:40,YZ,None,
,,,,,,test,1,34,1,1250,10,X,0,right,0.547002261999296,1,0,,,,,,,,,,,,,,,,,,1,,,,,,,,,,,,,,,,,,,,,,,,,,,,,,,,,,,,,,,,,,,,,,75,152824,21,Female,1,2024/02/22_11:37:40,YZ,None,
,,,,,,Test,1,34,1,1250,,,,,,,,0.6904761904761906,0.3333333333333333,0.14285714285714285,0.6666666666666666,0.5,0.3571428571428572,0.2915511502011213,1,1,1,4,5,2,3,3,7,0,1,,,,,,,,,,,,,,,,,,,,,,,,,,,,,,,,,,,,,,,,,,,,,,75,152824,21,Female,1,2024/02/22_11:37:40,YZ,None,
,,,,,240222_114955,TEST,1,34,1,1250,,,,,,,,,,,,,,,,,,,,,,,,,1,34,35,34,cue1.png,easy,A,47,1.23018365399912,0,661.1192697689985,662.3747403580055,,,,,,,,,,,,,,,,,,,,,,,,,,,,,,,,,,,75,152824,21,Female,1,2024/02/22_11:37:40,YZ,None,
,,,,,,test,1,35,3,1250,1,C,0,None,nan,0,1,,,,,,,,,,,,,,,,,,1,,,,,,,,,,,,,,,,,,,,,,,,,,,,,,,,,,,,,,,,,,,,,,75,152824,21,Female,1,2024/02/22_11:37:40,YZ,None,
,,,,,,test,1,35,3,1250,2,V,0,left,0.6414385469979607,0,0,,,,,,,,,,,,,,,,,,1,,,,,,,,,,,,,,,,,,,,,,,,,,,,,,,,,,,,,,,,,,,,,,75,152824,21,Female,1,2024/02/22_11:37:40,YZ,None,
,,,,,,test,1,35,3,1250,3,Q,0,right,0.40038613497745246,1,0,,,,,,,,,,,,,,,,,,1,,,,,,,,,,,,,,,,,,,,,,,,,,,,,,,,,,,,,,,,,,,,,,75,152824,21,Female,1,2024/02/22_11:37:40,YZ,None,
,,,,,,test,1,35,3,1250,4,C,1,right,0.3925890010141302,0,0,,,,,,,,,,,,,,,,,,1,,,,,,,,,,,,,,,,,,,,,,,,,,,,,,,,,,,,,,,,,,,,,,75,152824,21,Female,1,2024/02/22_11:37:40,YZ,None,
,,,,,,test,1,35,3,1250,5,J,0,right,0.44133405401953496,1,0,,,,,,,,,,,,,,,,,,1,,,,,,,,,,,,,,,,,,,,,,,,,,,,,,,,,,,,,,,,,,,,,,75,152824,21,Female,1,2024/02/22_11:37:40,YZ,None,
,,,,,,test,1,35,3,1250,6,Q,1,right,0.3613579000229947,0,0,,,,,,,,,,,,,,,,,,1,,,,,,,,,,,,,,,,,,,,,,,,,,,,,,,,,,,,,,,,,,,,,,75,152824,21,Female,1,2024/02/22_11:37:40,YZ,None,
,,,,,,test,1,35,3,1250,7,J,0,right,0.31721294298768044,1,0,,,,,,,,,,,,,,,,,,1,,,,,,,,,,,,,,,,,,,,,,,,,,,,,,,,,,,,,,,,,,,,,,75,152824,21,Female,1,2024/02/22_11:37:40,YZ,None,
,,,,,,test,1,35,3,1250,8,S,0,right,0.2744841189996805,1,0,,,,,,,,,,,,,,,,,,1,,,,,,,,,,,,,,,,,,,,,,,,,,,,,,,,,,,,,,,,,,,,,,75,152824,21,Female,1,2024/02/22_11:37:40,YZ,None,
,,,,,,test,1,35,3,1250,9,S,0,left,0.0,0,0,,,,,,,,,,,,,,,,,,1,,,,,,,,,,,,,,,,,,,,,,,,,,,,,,,,,,,,,,,,,,,,,,75,152824,21,Female,1,2024/02/22_11:37:40,YZ,None,
,,,,,,test,1,35,3,1250,10,J,1,left,nan,0,1,,,,,,,,,,,,,,,,,,1,,,,,,,,,,,,,,,,,,,,,,,,,,,,,,,,,,,,,,,,,,,,,,75,152824,21,Female,1,2024/02/22_11:37:40,YZ,None,
,,,,,,Test,1,35,3,1250,,,,,,,,0.17857142857142858,0.0,0.2857142857142857,0.6666666666666666,0.2,0.5142857142857142,0.35360033737742924,0,2,1,1,2,4,4,3,7,0,1,,,,,,,,,,,,,,,,,,,,,,,,,,,,,,,,,,,,,,,,,,,,,,75,152824,21,Female,1,2024/02/22_11:37:40,YZ,None,
,,,,,240222_115017,TEST,1,35,3,1250,,,,,,,,,,,,,,,,,,,,,,,,,1,35,36,35,cue2.png,hard,A,45,0.9048192540067248,0,688.2114529850078,689.1357393100043,,,,,,,,,,,,,,,,,,,,,,,,,,,,,,,,,,,75,152824,21,Female,1,2024/02/22_11:37:40,YZ,None,
,,,,,,test,1,36,3,1250,1,F,0,None,nan,0,1,,,,,,,,,,,,,,,,,,1,,,,,,,,,,,,,,,,,,,,,,,,,,,,,,,,,,,,,,,,,,,,,,75,152824,21,Female,1,2024/02/22_11:37:40,YZ,None,
,,,,,,test,1,36,3,1250,2,J,0,right,0.2929173209995497,1,0,,,,,,,,,,,,,,,,,,1,,,,,,,,,,,,,,,,,,,,,,,,,,,,,,,,,,,,,,,,,,,,,,75,152824,21,Female,1,2024/02/22_11:37:40,YZ,None,
,,,,,,test,1,36,3,1250,3,J,0,right,0.0,1,0,,,,,,,,,,,,,,,,,,1,,,,,,,,,,,,,,,,,,,,,,,,,,,,,,,,,,,,,,,,,,,,,,75,152824,21,Female,1,2024/02/22_11:37:40,YZ,None,
,,,,,,test,1,36,3,1250,4,V,0,left,0.2991248139878735,0,0,,,,,,,,,,,,,,,,,,1,,,,,,,,,,,,,,,,,,,,,,,,,,,,,,,,,,,,,,,,,,,,,,75,152824,21,Female,1,2024/02/22_11:37:40,YZ,None,
,,,,,,test,1,36,3,1250,5,J,1,left,0.01355084401438944,1,0,,,,,,,,,,,,,,,,,,1,,,,,,,,,,,,,,,,,,,,,,,,,,,,,,,,,,,,,,,,,,,,,,75,152824,21,Female,1,2024/02/22_11:37:40,YZ,None,
,,,,,,test,1,36,3,1250,6,Q,0,left,0.0,0,0,,,,,,,,,,,,,,,,,,1,,,,,,,,,,,,,,,,,,,,,,,,,,,,,,,,,,,,,,,,,,,,,,75,152824,21,Female,1,2024/02/22_11:37:40,YZ,None,
,,,,,,test,1,36,3,1250,7,C,0,right,0.0,1,0,,,,,,,,,,,,,,,,,,1,,,,,,,,,,,,,,,,,,,,,,,,,,,,,,,,,,,,,,,,,,,,,,75,152824,21,Female,1,2024/02/22_11:37:40,YZ,None,
,,,,,,test,1,36,3,1250,8,S,0,right,0.0,1,0,,,,,,,,,,,,,,,,,,1,,,,,,,,,,,,,,,,,,,,,,,,,,,,,,,,,,,,,,,,,,,,,,75,152824,21,Female,1,2024/02/22_11:37:40,YZ,None,
,,,,,,test,1,36,3,1250,9,Q,1,right,0.12987619297928177,0,0,,,,,,,,,,,,,,,,,,1,,,,,,,,,,,,,,,,,,,,,,,,,,,,,,,,,,,,,,,,,,,,,,75,152824,21,Female,1,2024/02/22_11:37:40,YZ,None,
,,,,,,test,1,36,3,1250,10,C,1,left,0.0,1,0,,,,,,,,,,,,,,,,,,1,,,,,,,,,,,,,,,,,,,,,,,,,,,,,,,,,,,,,,,,,,,,,,75,152824,21,Female,1,2024/02/22_11:37:40,YZ,None,
,,,,,,Test,1,36,3,1250,,,,,,,,0.75,0.6666666666666666,0.2857142857142857,0.6666666666666666,0.1,0.6142857142857143,0.08171879688678826,2,2,0,1,1,4,6,3,7,0,1,,,,,,,,,,,,,,,,,,,,,,,,,,,,,,,,,,,,,,,,,,,,,,75,152824,21,Female,1,2024/02/22_11:37:40,YZ,None,
,,,,,240222_115035,TEST,1,36,3,1250,,,,,,,,,,,,,,,,,,,,,,,,,1,36,37,36,cue2.png,hard,A,43,1.5308548059838358,0,710.3098306480097,711.8706114680099,,,,,,,,,,,,,,,,,,,,,,,,,,,,,,,,,,,75,152824,21,Female,1,2024/02/22_11:37:40,YZ,None,
,,,,,,test,1,37,1,1250,1,C,0,right,1.3585642729885876,1,0,,,,,,,,,,,,,,,,,,1,,,,,,,,,,,,,,,,,,,,,,,,,,,,,,,,,,,,,,,,,,,,,,75,152824,21,Female,1,2024/02/22_11:37:40,YZ,None,
,,,,,,test,1,37,1,1250,2,X,0,right,0.19160996298887767,1,0,,,,,,,,,,,,,,,,,,1,,,,,,,,,,,,,,,,,,,,,,,,,,,,,,,,,,,,,,,,,,,,,,75,152824,21,Female,1,2024/02/22_11:37:40,YZ,None,
,,,,,,test,1,37,1,1250,3,X,1,right,0.3729179679939989,0,0,,,,,,,,,,,,,,,,,,1,,,,,,,,,,,,,,,,,,,,,,,,,,,,,,,,,,,,,,,,,,,,,,75,152824,21,Female,1,2024/02/22_11:37:40,YZ,None,
,,,,,,test,1,37,1,1250,4,S,0,left,0.4174518049985636,0,0,,,,,,,,,,,,,,,,,,1,,,,,,,,,,,,,,,,,,,,,,,,,,,,,,,,,,,,,,,,,,,,,,75,152824,21,Female,1,2024/02/22_11:37:40,YZ,None,
,,,,,,test,1,37,1,1250,5,V,0,left,0.2732750859868247,0,0,,,,,,,,,,,,,,,,,,1,,,,,,,,,,,,,,,,,,,,,,,,,,,,,,,,,,,,,,,,,,,,,,75,152824,21,Female,1,2024/02/22_11:37:40,YZ,None,
,,,,,,test,1,37,1,1250,6,Q,0,right,0.41000756100402214,1,0,,,,,,,,,,,,,,,,,,1,,,,,,,,,,,,,,,,,,,,,,,,,,,,,,,,,,,,,,,,,,,,,,75,152824,21,Female,1,2024/02/22_11:37:40,YZ,None,
,,,,,,test,1,37,1,1250,7,Q,1,right,0.39236992597579956,0,0,,,,,,,,,,,,,,,,,,1,,,,,,,,,,,,,,,,,,,,,,,,,,,,,,,,,,,,,,,,,,,,,,75,152824,21,Female,1,2024/02/22_11:37:40,YZ,None,
,,,,,,test,1,37,1,1250,8,J,0,right,nan,0,1,,,,,,,,,,,,,,,,,,1,,,,,,,,,,,,,,,,,,,,,,,,,,,,,,,,,,,,,,,,,,,,,,75,152824,21,Female,1,2024/02/22_11:37:40,YZ,None,
,,,,,,test,1,37,1,1250,9,J,1,right,nan,0,1,,,,,,,,,,,,,,,,,,1,,,,,,,,,,,,,,,,,,,,,,,,,,,,,,,,,,,,,,,,,,,,,,75,152824,21,Female,1,2024/02/22_11:37:40,YZ,None,
,,,,,,test,1,37,1,1250,10,Q,0,right,0.675425641995389,1,0,,,,,,,,,,,,,,,,,,1,,,,,,,,,,,,,,,,,,,,,,,,,,,,,,,,,,,,,,,,,,,,,,75,152824,21,Female,1,2024/02/22_11:37:40,YZ,None,
,,,,,,Test,1,37,1,1250,,,,,,,,0.17857142857142858,0.0,0.2857142857142857,0.6666666666666666,0.2,0.5142857142857142,0.5114527779915079,0,2,1,1,2,4,4,3,7,0,1,,,,,,,,,,,,,,,,,,,,,,,,,,,,,,,,,,,,,,,,,,,,,,75,152824,21,Female,1,2024/02/22_11:37:40,YZ,None,
,,,,,240222_115059,TEST,1,37,1,1250,,,,,,,,,,,,,,,,,,,,,,,,,1,37,38,37,cue1.png,easy,A,47,0.938300387992058,0,728.9507492100238,729.9061784200021,,,,,,,,,,,,,,,,,,,,,,,,,,,,,,,,,,,75,152824,21,Female,1,2024/02/22_11:37:40,YZ,None,
,,,,,,test,1,38,3,1250,1,Q,0,None,nan,0,1,,,,,,,,,,,,,,,,,,1,,,,,,,,,,,,,,,,,,,,,,,,,,,,,,,,,,,,,,,,,,,,,,75,152824,21,Female,1,2024/02/22_11:37:40,YZ,None,
,,,,,,test,1,38,3,1250,2,C,0,right,0.4246761860267725,1,0,,,,,,,,,,,,,,,,,,1,,,,,,,,,,,,,,,,,,,,,,,,,,,,,,,,,,,,,,,,,,,,,,75,152824,21,Female,1,2024/02/22_11:37:40,YZ,None,
,,,,,,test,1,38,3,1250,3,N,0,right,0.5409667549829464,1,0,,,,,,,,,,,,,,,,,,1,,,,,,,,,,,,,,,,,,,,,,,,,,,,,,,,,,,,,,,,,,,,,,75,152824,21,Female,1,2024/02/22_11:37:40,YZ,None,
,,,,,,test,1,38,3,1250,4,S,0,right,0.6554423590132501,1,0,,,,,,,,,,,,,,,,,,1,,,,,,,,,,,,,,,,,,,,,,,,,,,,,,,,,,,,,,,,,,,,,,75,152824,21,Female,1,2024/02/22_11:37:40,YZ,None,
,,,,,,test,1,38,3,1250,5,C,1,left,0.7237714340153616,1,0,,,,,,,,,,,,,,,,,,1,,,,,,,,,,,,,,,,,,,,,,,,,,,,,,,,,,,,,,,,,,,,,,75,152824,21,Female,1,2024/02/22_11:37:40,YZ,None,
,,,,,,test,1,38,3,1250,6,N,1,right,0.6980176210054196,0,0,,,,,,,,,,,,,,,,,,1,,,,,,,,,,,,,,,,,,,,,,,,,,,,,,,,,,,,,,,,,,,,,,75,152824,21,Female,1,2024/02/22_11:37:40,YZ,None,
,,,,,,test,1,38,3,1250,7,N,0,right,0.5412531009933446,1,0,,,,,,,,,,,,,,,,,,1,,,,,,,,,,,,,,,,,,,,,,,,,,,,,,,,,,,,,,,,,,,,,,75,152824,21,Female,1,2024/02/22_11:37:40,YZ,None,
,,,,,,test,1,38,3,1250,8,J,0,right,1.290411044989014,1,0,,,,,,,,,,,,,,,,,,1,,,,,,,,,,,,,,,,,,,,,,,,,,,,,,,,,,,,,,,,,,,,,,75,152824,21,Female,1,2024/02/22_11:37:40,YZ,None,
,,,,,,test,1,38,3,1250,9,N,1,left,0.8865158389962744,1,0,,,,,,,,,,,,,,,,,,1,,,,,,,,,,,,,,,,,,,,,,,,,,,,,,,,,,,,,,,,,,,,,,75,152824,21,Female,1,2024/02/22_11:37:40,YZ,None,
,,,,,,test,1,38,3,1250,10,V,0,right,0.4879413860035129,1,0,,,,,,,,,,,,,,,,,,1,,,,,,,,,,,,,,,,,,,,,,,,,,,,,,,,,,,,,,,,,,,,,,75,152824,21,Female,1,2024/02/22_11:37:40,YZ,None,
,,,,,,Test,1,38,3,1250,,,,,,,,0.9166666666666666,0.6666666666666666,0.0,1.0,0.1,0.9,0.6943328584473218,2,0,0,1,1,6,8,3,7,0,1,,,,,,,,,,,,,,,,,,,,,,,,,,,,,,,,,,,,,,,,,,,,,,75,152824,21,Female,1,2024/02/22_11:37:40,YZ,None,
,,,,,240222_115122,TEST,1,38,3,1250,,,,,,,,,,,,,,,,,,,,,,,,,1,38,39,38,cue2.png,hard,A,48,1.0354929640016053,0,752.3412554420065,753.3929841009958,,,,,,,,,,,,,,,,,,,,,,,,,,,,,,,,,,,75,152824,21,Female,1,2024/02/22_11:37:40,YZ,None,
,,,,,,test,1,39,3,1250,1,C,0,right,0.5425027809978928,1,0,,,,,,,,,,,,,,,,,,1,,,,,,,,,,,,,,,,,,,,,,,,,,,,,,,,,,,,,,,,,,,,,,75,152824,21,Female,1,2024/02/22_11:37:40,YZ,None,
,,,,,,test,1,39,3,1250,2,C,0,right,0.1500105659943074,1,0,,,,,,,,,,,,,,,,,,1,,,,,,,,,,,,,,,,,,,,,,,,,,,,,,,,,,,,,,,,,,,,,,75,152824,21,Female,1,2024/02/22_11:37:40,YZ,None,
,,,,,,test,1,39,3,1250,3,Q,0,right,0.30429070300306194,1,0,,,,,,,,,,,,,,,,,,1,,,,,,,,,,,,,,,,,,,,,,,,,,,,,,,,,,,,,,,,,,,,,,75,152824,21,Female,1,2024/02/22_11:37:40,YZ,None,
,,,,,,test,1,39,3,1250,4,C,1,left,0.6159643919963855,1,0,,,,,,,,,,,,,,,,,,1,,,,,,,,,,,,,,,,,,,,,,,,,,,,,,,,,,,,,,,,,,,,,,75,152824,21,Female,1,2024/02/22_11:37:40,YZ,None,
,,,,,,test,1,39,3,1250,5,N,0,left,0.6620282390213106,0,0,,,,,,,,,,,,,,,,,,1,,,,,,,,,,,,,,,,,,,,,,,,,,,,,,,,,,,,,,,,,,,,,,75,152824,21,Female,1,2024/02/22_11:37:40,YZ,None,
,,,,,,test,1,39,3,1250,6,C,0,left,0.4507015169947408,0,0,,,,,,,,,,,,,,,,,,1,,,,,,,,,,,,,,,,,,,,,,,,,,,,,,,,,,,,,,,,,,,,,,75,152824,21,Female,1,2024/02/22_11:37:40,YZ,None,
,,,,,,test,1,39,3,1250,7,N,0,right,0.6858326030196622,1,0,,,,,,,,,,,,,,,,,,1,,,,,,,,,,,,,,,,,,,,,,,,,,,,,,,,,,,,,,,,,,,,,,75,152824,21,Female,1,2024/02/22_11:37:40,YZ,None,
,,,,,,test,1,39,3,1250,8,Q,0,right,0.6426539969979785,1,0,,,,,,,,,,,,,,,,,,1,,,,,,,,,,,,,,,,,,,,,,,,,,,,,,,,,,,,,,,,,,,,,,75,152824,21,Female,1,2024/02/22_11:37:40,YZ,None,
,,,,,,test,1,39,3,1250,9,C,1,right,0.3347790990083013,0,0,,,,,,,,,,,,,,,,,,1,,,,,,,,,,,,,,,,,,,,,,,,,,,,,,,,,,,,,,,,,,,,,,75,152824,21,Female,1,2024/02/22_11:37:40,YZ,None,
,,,,,,test,1,39,3,1250,10,N,1,right,0.31266387802315876,0,0,,,,,,,,,,,,,,,,,,1,,,,,,,,,,,,,,,,,,,,,,,,,,,,,,,,,,,,,,,,,,,,,,75,152824,21,Female,1,2024/02/22_11:37:40,YZ,None,
,,,,,,Test,1,39,3,1250,,,,,,,,0.5476190476190476,0.3333333333333333,0.2857142857142857,0.7142857142857143,0.0,0.7142857142857143,0.47014277750568,1,2,0,0,0,5,6,3,7,0,1,,,,,,,,,,,,,,,,,,,,,,,,,,,,,,,,,,,,,,,,,,,,,,75,152824,21,Female,1,2024/02/22_11:37:40,YZ,None,
,,,,,240222_115143,TEST,1,39,3,1250,,,,,,,,,,,,,,,,,,,,,,,,,1,39,40,39,cue2.png,hard,A,48,1.1471208200091496,0,776.0074525050004,777.1744021380146,,,,,,,,,,,,,,,,,,,,,,,,,,,,,,,,,,,75,152824,21,Female,1,2024/02/22_11:37:40,YZ,None,
,,,,,,test,1,40,3,1250,1,S,0,None,nan,0,1,,,,,,,,,,,,,,,,,,1,,,,,,,,,,,,,,,,,,,,,,,,,,,,,,,,,,,,,,,,,,,,,,75,152824,21,Female,1,2024/02/22_11:37:40,YZ,None,
,,,,,,test,1,40,3,1250,2,V,0,right,0.5912893890053965,1,0,,,,,,,,,,,,,,,,,,1,,,,,,,,,,,,,,,,,,,,,,,,,,,,,,,,,,,,,,,,,,,,,,75,152824,21,Female,1,2024/02/22_11:37:40,YZ,None,
,,,,,,test,1,40,3,1250,3,F,0,right,0.34694610198494047,1,0,,,,,,,,,,,,,,,,,,1,,,,,,,,,,,,,,,,,,,,,,,,,,,,,,,,,,,,,,,,,,,,,,75,152824,21,Female,1,2024/02/22_11:37:40,YZ,None,
,,,,,,test,1,40,3,1250,4,S,1,right,0.36127939101425,0,0,,,,,,,,,,,,,,,,,,1,,,,,,,,,,,,,,,,,,,,,,,,,,,,,,,,,,,,,,,,,,,,,,75,152824,21,Female,1,2024/02/22_11:37:40,YZ,None,
,,,,,,test,1,40,3,1250,5,J,0,left,0.4412974239967298,0,0,,,,,,,,,,,,,,,,,,1,,,,,,,,,,,,,,,,,,,,,,,,,,,,,,,,,,,,,,,,,,,,,,75,152824,21,Female,1,2024/02/22_11:37:40,YZ,None,
,,,,,,test,1,40,3,1250,6,F,1,right,0.3983372680086177,0,0,,,,,,,,,,,,,,,,,,1,,,,,,,,,,,,,,,,,,,,,,,,,,,,,,,,,,,,,,,,,,,,,,75,152824,21,Female,1,2024/02/22_11:37:40,YZ,None,
,,,,,,test,1,40,3,1250,7,V,0,right,0.3545330210181419,1,0,,,,,,,,,,,,,,,,,,1,,,,,,,,,,,,,,,,,,,,,,,,,,,,,,,,,,,,,,,,,,,,,,75,152824,21,Female,1,2024/02/22_11:37:40,YZ,None,
,,,,,,test,1,40,3,1250,8,N,0,right,0.9074293340090662,1,0,,,,,,,,,,,,,,,,,,1,,,,,,,,,,,,,,,,,,,,,,,,,,,,,,,,,,,,,,,,,,,,,,75,152824,21,Female,1,2024/02/22_11:37:40,YZ,None,
,,,,,,test,1,40,3,1250,9,F,1,left,0.5896223179879598,1,0,,,,,,,,,,,,,,,,,,1,,,,,,,,,,,,,,,,,,,,,,,,,,,,,,,,,,,,,,,,,,,,,,75,152824,21,Female,1,2024/02/22_11:37:40,YZ,None,
,,,,,,test,1,40,3,1250,10,S,0,left,0.49260345599032007,0,0,,,,,,,,,,,,,,,,,,1,,,,,,,,,,,,,,,,,,,,,,,,,,,,,,,,,,,,,,,,,,,,,,75,152824,21,Female,1,2024/02/22_11:37:40,YZ,None,
,,,,,,Test,1,40,3,1250,,,,,,,,0.5476190476190476,0.3333333333333333,0.2857142857142857,0.6666666666666666,0.1,0.6142857142857143,0.49814863366838025,1,2,0,1,1,4,5,3,7,0,1,,,,,,,,,,,,,,,,,,,,,,,,,,,,,,,,,,,,,,,,,,,,,,75,152824,21,Female,1,2024/02/22_11:37:40,YZ,None,
,,,,,240222_115206,TEST,1,40,3,1250,,,,,,,,,,,,,,,,,,,,,,,,,1,40,41,40,cue2.png,hard,A,46,2.1793996180058457,0,796.2343606040231,798.4250423880003,,,,,,,,,,,,,,,,,,,,,,,,,,,,,,,,,,,75,152824,21,Female,1,2024/02/22_11:37:40,YZ,None,
,,,,,,test,1,41,1,1250,1,X,0,None,nan,0,1,,,,,,,,,,,,,,,,,,1,,,,,,,,,,,,,,,,,,,,,,,,,,,,,,,,,,,,,,,,,,,,,,75,152824,21,Female,1,2024/02/22_11:37:40,YZ,None,
,,,,,,test,1,41,1,1250,2,J,0,None,nan,0,1,,,,,,,,,,,,,,,,,,1,,,,,,,,,,,,,,,,,,,,,,,,,,,,,,,,,,,,,,,,,,,,,,75,152824,21,Female,1,2024/02/22_11:37:40,YZ,None,
,,,,,,test,1,41,1,1250,3,J,1,right,0.10819636299856938,0,0,,,,,,,,,,,,,,,,,,1,,,,,,,,,,,,,,,,,,,,,,,,,,,,,,,,,,,,,,,,,,,,,,75,152824,21,Female,1,2024/02/22_11:37:40,YZ,None,
,,,,,,test,1,41,1,1250,4,C,0,right,0.9578813689877279,1,0,,,,,,,,,,,,,,,,,,1,,,,,,,,,,,,,,,,,,,,,,,,,,,,,,,,,,,,,,,,,,,,,,75,152824,21,Female,1,2024/02/22_11:37:40,YZ,None,
,,,,,,test,1,41,1,1250,5,J,0,left,0.4833443219831679,0,0,,,,,,,,,,,,,,,,,,1,,,,,,,,,,,,,,,,,,,,,,,,,,,,,,,,,,,,,,,,,,,,,,75,152824,21,Female,1,2024/02/22_11:37:40,YZ,None,
,,,,,,test,1,41,1,1250,6,Q,0,left,nan,0,1,,,,,,,,,,,,,,,,,,1,,,,,,,,,,,,,,,,,,,,,,,,,,,,,,,,,,,,,,,,,,,,,,75,152824,21,Female,1,2024/02/22_11:37:40,YZ,None,
,,,,,,test,1,41,1,1250,7,Q,1,left,0.12397791698458605,1,0,,,,,,,,,,,,,,,,,,1,,,,,,,,,,,,,,,,,,,,,,,,,,,,,,,,,,,,,,,,,,,,,,75,152824,21,Female,1,2024/02/22_11:37:40,YZ,None,
,,,,,,test,1,41,1,1250,8,F,0,right,0.6088007829966955,1,0,,,,,,,,,,,,,,,,,,1,,,,,,,,,,,,,,,,,,,,,,,,,,,,,,,,,,,,,,,,,,,,,,75,152824,21,Female,1,2024/02/22_11:37:40,YZ,None,
,,,,,,test,1,41,1,1250,9,Q,0,left,0.46858338100719266,0,0,,,,,,,,,,,,,,,,,,1,,,,,,,,,,,,,,,,,,,,,,,,,,,,,,,,,,,,,,,,,,,,,,75,152824,21,Female,1,2024/02/22_11:37:40,YZ,None,
,,,,,,test,1,41,1,1250,10,Q,1,left,0.4637297919834964,1,0,,,,,,,,,,,,,,,,,,1,,,,,,,,,,,,,,,,,,,,,,,,,,,,,,,,,,,,,,,,,,,,,,75,152824,21,Female,1,2024/02/22_11:37:40,YZ,None,
,,,,,,Test,1,41,1,1250,,,,,,,,0.75,0.6666666666666666,0.2857142857142857,0.5,0.3,0.4142857142857143,0.459216275277348,2,2,0,3,3,2,4,3,7,0,1,,,,,,,,,,,,,,,,,,,,,,,,,,,,,,,,,,,,,,,,,,,,,,75,152824,21,Female,1,2024/02/22_11:37:40,YZ,None,
,,,,,240222_115231,TEST,1,41,1,1250,,,,,,,,,,,,,,,,,,,,,,,,,1,41,42,41,cue1.png,easy,A,47,1.538464576995466,0,819.2564649090054,820.8145469610172,,,,,,,,,,,,,,,,,,,,,,,,,,,,,,,,,,,75,152824,21,Female,1,2024/02/22_11:37:40,YZ,None,
,,,,,,test,1,42,3,1250,1,V,0,None,nan,0,1,,,,,,,,,,,,,,,,,,1,,,,,,,,,,,,,,,,,,,,,,,,,,,,,,,,,,,,,,,,,,,,,,75,152824,21,Female,1,2024/02/22_11:37:40,YZ,None,
,,,,,,test,1,42,3,1250,2,V,0,right,0.1557912929856684,1,0,,,,,,,,,,,,,,,,,,1,,,,,,,,,,,,,,,,,,,,,,,,,,,,,,,,,,,,,,,,,,,,,,75,152824,21,Female,1,2024/02/22_11:37:40,YZ,None,
,,,,,,test,1,42,3,1250,3,Q,0,right,0.5249878379981965,1,0,,,,,,,,,,,,,,,,,,1,,,,,,,,,,,,,,,,,,,,,,,,,,,,,,,,,,,,,,,,,,,,,,75,152824,21,Female,1,2024/02/22_11:37:40,YZ,None,
,,,,,,test,1,42,3,1250,4,V,1,right,0.3486917629779782,0,0,,,,,,,,,,,,,,,,,,1,,,,,,,,,,,,,,,,,,,,,,,,,,,,,,,,,,,,,,,,,,,,,,75,152824,21,Female,1,2024/02/22_11:37:40,YZ,None,
,,,,,,test,1,42,3,1250,5,N,0,right,0.824533261009492,1,0,,,,,,,,,,,,,,,,,,1,,,,,,,,,,,,,,,,,,,,,,,,,,,,,,,,,,,,,,,,,,,,,,75,152824,21,Female,1,2024/02/22_11:37:40,YZ,None,
,,,,,,test,1,42,3,1250,6,Q,1,right,nan,0,1,,,,,,,,,,,,,,,,,,1,,,,,,,,,,,,,,,,,,,,,,,,,,,,,,,,,,,,,,,,,,,,,,75,152824,21,Female,1,2024/02/22_11:37:40,YZ,None,
,,,,,,test,1,42,3,1250,7,C,0,left,0.3235489070066251,0,0,,,,,,,,,,,,,,,,,,1,,,,,,,,,,,,,,,,,,,,,,,,,,,,,,,,,,,,,,,,,,,,,,75,152824,21,Female,1,2024/02/22_11:37:40,YZ,None,
,,,,,,test,1,42,3,1250,8,J,0,right,0.3526069179933984,1,0,,,,,,,,,,,,,,,,,,1,,,,,,,,,,,,,,,,,,,,,,,,,,,,,,,,,,,,,,,,,,,,,,75,152824,21,Female,1,2024/02/22_11:37:40,YZ,None,
,,,,,,test,1,42,3,1250,9,Q,1,right,0.14391342300223187,0,0,,,,,,,,,,,,,,,,,,1,,,,,,,,,,,,,,,,,,,,,,,,,,,,,,,,,,,,,,,,,,,,,,75,152824,21,Female,1,2024/02/22_11:37:40,YZ,None,
,,,,,,test,1,42,3,1250,10,N,0,right,0.17691808097879402,1,0,,,,,,,,,,,,,,,,,,1,,,,,,,,,,,,,,,,,,,,,,,,,,,,,,,,,,,,,,,,,,,,,,75,152824,21,Female,1,2024/02/22_11:37:40,YZ,None,
,,,,,,Test,1,42,3,1250,,,,,,,,0.2142857142857143,0.0,0.14285714285714285,0.8333333333333334,0.2,0.6571428571428573,0.35637393549404806,0,1,1,1,2,5,5,3,7,0,1,,,,,,,,,,,,,,,,,,,,,,,,,,,,,,,,,,,,,,,,,,,,,,75,152824,21,Female,1,2024/02/22_11:37:40,YZ,None,
,,,,,240222_115253,TEST,1,42,3,1250,,,,,,,,,,,,,,,,,,,,,,,,,1,42,43,42,cue2.png,hard,A,44,0.9683549179753754,0,844.3908836030168,845.3901905250095,,,,,,,,,,,,,,,,,,,,,,,,,,,,,,,,,,,75,152824,21,Female,1,2024/02/22_11:37:40,YZ,None,
,,,,,,test,1,43,3,1250,1,V,0,None,nan,0,1,,,,,,,,,,,,,,,,,,1,,,,,,,,,,,,,,,,,,,,,,,,,,,,,,,,,,,,,,,,,,,,,,75,152824,21,Female,1,2024/02/22_11:37:40,YZ,None,
,,,,,,test,1,43,3,1250,2,S,0,right,0.25384287198539823,1,0,,,,,,,,,,,,,,,,,,1,,,,,,,,,,,,,,,,,,,,,,,,,,,,,,,,,,,,,,,,,,,,,,75,152824,21,Female,1,2024/02/22_11:37:40,YZ,None,
,,,,,,test,1,43,3,1250,3,N,0,left,0.2721862069738563,0,0,,,,,,,,,,,,,,,,,,1,,,,,,,,,,,,,,,,,,,,,,,,,,,,,,,,,,,,,,,,,,,,,,75,152824,21,Female,1,2024/02/22_11:37:40,YZ,None,
,,,,,,test,1,43,3,1250,4,J,0,right,0.0,1,0,,,,,,,,,,,,,,,,,,1,,,,,,,,,,,,,,,,,,,,,,,,,,,,,,,,,,,,,,,,,,,,,,75,152824,21,Female,1,2024/02/22_11:37:40,YZ,None,
,,,,,,test,1,43,3,1250,5,S,1,right,0.31832254500477575,0,0,,,,,,,,,,,,,,,,,,1,,,,,,,,,,,,,,,,,,,,,,,,,,,,,,,,,,,,,,,,,,,,,,75,152824,21,Female,1,2024/02/22_11:37:40,YZ,None,
,,,,,,test,1,43,3,1250,6,N,1,right,0.33599557701381855,0,0,,,,,,,,,,,,,,,,,,1,,,,,,,,,,,,,,,,,,,,,,,,,,,,,,,,,,,,,,,,,,,,,,75,152824,21,Female,1,2024/02/22_11:37:40,YZ,None,
,,,,,,test,1,43,3,1250,7,Q,0,right,0.0,1,0,,,,,,,,,,,,,,,,,,1,,,,,,,,,,,,,,,,,,,,,,,,,,,,,,,,,,,,,,,,,,,,,,75,152824,21,Female,1,2024/02/22_11:37:40,YZ,None,
,,,,,,test,1,43,3,1250,8,X,0,left,0.0,0,0,,,,,,,,,,,,,,,,,,1,,,,,,,,,,,,,,,,,,,,,,,,,,,,,,,,,,,,,,,,,,,,,,75,152824,21,Female,1,2024/02/22_11:37:40,YZ,None,
,,,,,,test,1,43,3,1250,9,N,1,right,0.0,0,0,,,,,,,,,,,,,,,,,,1,,,,,,,,,,,,,,,,,,,,,,,,,,,,,,,,,,,,,,,,,,,,,,75,152824,21,Female,1,2024/02/22_11:37:40,YZ,None,
,,,,,,test,1,43,3,1250,10,V,0,right,0.0,1,0,,,,,,,,,,,,,,,,,,1,,,,,,,,,,,,,,,,,,,,,,,,,,,,,,,,,,,,,,,,,,,,,,75,152824,21,Female,1,2024/02/22_11:37:40,YZ,None,
,,,,,,Test,1,43,3,1250,,,,,,,,0.17857142857142858,0.0,0.2857142857142857,0.6666666666666666,0.1,0.6142857142857143,0.13114968899753876,0,2,0,1,1,4,4,3,7,0,1,,,,,,,,,,,,,,,,,,,,,,,,,,,,,,,,,,,,,,,,,,,,,,75,152824,21,Female,1,2024/02/22_11:37:40,YZ,None,
,,,,,240222_115311,TEST,1,43,3,1250,,,,,,,,,,,,,,,,,,,,,,,,,1,43,44,43,cue2.png,hard,A,47,0.717368343990529,0,866.608420900011,867.3420286900073,,,,,,,,,,,,,,,,,,,,,,,,,,,,,,,,,,,75,152824,21,Female,1,2024/02/22_11:37:40,YZ,None,
,,,,,,test,1,44,1,1250,1,J,0,None,nan,0,1,,,,,,,,,,,,,,,,,,1,,,,,,,,,,,,,,,,,,,,,,,,,,,,,,,,,,,,,,,,,,,,,,75,152824,21,Female,1,2024/02/22_11:37:40,YZ,None,
,,,,,,test,1,44,1,1250,2,J,1,None,nan,0,1,,,,,,,,,,,,,,,,,,1,,,,,,,,,,,,,,,,,,,,,,,,,,,,,,,,,,,,,,,,,,,,,,75,152824,21,Female,1,2024/02/22_11:37:40,YZ,None,
,,,,,,test,1,44,1,1250,3,S,0,right,0.9751186539942864,1,0,,,,,,,,,,,,,,,,,,1,,,,,,,,,,,,,,,,,,,,,,,,,,,,,,,,,,,,,,,,,,,,,,75,152824,21,Female,1,2024/02/22_11:37:40,YZ,None,
,,,,,,test,1,44,1,1250,4,C,0,right,0.34890025499043986,1,0,,,,,,,,,,,,,,,,,,1,,,,,,,,,,,,,,,,,,,,,,,,,,,,,,,,,,,,,,,,,,,,,,75,152824,21,Female,1,2024/02/22_11:37:40,YZ,None,
,,,,,,test,1,44,1,1250,5,S,0,left,0.530424647993641,0,0,,,,,,,,,,,,,,,,,,1,,,,,,,,,,,,,,,,,,,,,,,,,,,,,,,,,,,,,,,,,,,,,,75,152824,21,Female,1,2024/02/22_11:37:40,YZ,None,
,,,,,,test,1,44,1,1250,6,V,0,right,0.6235714459908195,1,0,,,,,,,,,,,,,,,,,,1,,,,,,,,,,,,,,,,,,,,,,,,,,,,,,,,,,,,,,,,,,,,,,75,152824,21,Female,1,2024/02/22_11:37:40,YZ,None,
,,,,,,test,1,44,1,1250,7,V,1,left,0.4712236510240473,1,0,,,,,,,,,,,,,,,,,,1,,,,,,,,,,,,,,,,,,,,,,,,,,,,,,,,,,,,,,,,,,,,,,75,152824,21,Female,1,2024/02/22_11:37:40,YZ,None,
,,,,,,test,1,44,1,1250,8,C,0,left,0.6823968219978269,0,0,,,,,,,,,,,,,,,,,,1,,,,,,,,,,,,,,,,,,,,,,,,,,,,,,,,,,,,,,,,,,,,,,75,152824,21,Female,1,2024/02/22_11:37:40,YZ,None,
,,,,,,test,1,44,1,1250,9,C,1,left,0.7078660090046469,1,0,,,,,,,,,,,,,,,,,,1,,,,,,,,,,,,,,,,,,,,,,,,,,,,,,,,,,,,,,,,,,,,,,75,152824,21,Female,1,2024/02/22_11:37:40,YZ,None,
,,,,,,test,1,44,1,1250,10,J,0,right,0.6739085100125521,1,0,,,,,,,,,,,,,,,,,,1,,,,,,,,,,,,,,,,,,,,,,,,,,,,,,,,,,,,,,,,,,,,,,75,152824,21,Female,1,2024/02/22_11:37:40,YZ,None,
,,,,,,Test,1,44,1,1250,,,,,,,,0.75,0.6666666666666666,0.2857142857142857,0.6666666666666666,0.2,0.5142857142857142,0.6266762493760325,2,2,1,1,2,4,6,3,7,0,1,,,,,,,,,,,,,,,,,,,,,,,,,,,,,,,,,,,,,,,,,,,,,,75,152824,21,Female,1,2024/02/22_11:37:40,YZ,None,
,,,,,240222_115335,TEST,1,44,1,1250,,,,,,,,,,,,,,,,,,,,,,,,,1,44,45,44,cue1.png,easy,A,46,0.8287687769916374,0,884.8642101029982,885.7044395420235,,,,,,,,,,,,,,,,,,,,,,,,,,,,,,,,,,,75,152824,21,Female,1,2024/02/22_11:37:40,YZ,None,
,,,,,,test,1,45,1,1250,1,Q,0,right,0.2759461580135394,1,0,,,,,,,,,,,,,,,,,,1,,,,,,,,,,,,,,,,,,,,,,,,,,,,,,,,,,,,,,,,,,,,,,75,152824,21,Female,1,2024/02/22_11:37:40,YZ,None,
,,,,,,test,1,45,1,1250,2,Q,1,right,0.42652872699545696,0,0,,,,,,,,,,,,,,,,,,1,,,,,,,,,,,,,,,,,,,,,,,,,,,,,,,,,,,,,,,,,,,,,,75,152824,21,Female,1,2024/02/22_11:37:40,YZ,None,
,,,,,,test,1,45,1,1250,3,V,0,right,0.3446120959997643,1,0,,,,,,,,,,,,,,,,,,1,,,,,,,,,,,,,,,,,,,,,,,,,,,,,,,,,,,,,,,,,,,,,,75,152824,21,Female,1,2024/02/22_11:37:40,YZ,None,
,,,,,,test,1,45,1,1250,4,N,0,left,0.2800088860094547,0,0,,,,,,,,,,,,,,,,,,1,,,,,,,,,,,,,,,,,,,,,,,,,,,,,,,,,,,,,,,,,,,,,,75,152824,21,Female,1,2024/02/22_11:37:40,YZ,None,
,,,,,,test,1,45,1,1250,5,N,1,left,0.3254267489828635,1,0,,,,,,,,,,,,,,,,,,1,,,,,,,,,,,,,,,,,,,,,,,,,,,,,,,,,,,,,,,,,,,,,,75,152824,21,Female,1,2024/02/22_11:37:40,YZ,None,
,,,,,,test,1,45,1,1250,6,J,0,left,0.5479727749770973,0,0,,,,,,,,,,,,,,,,,,1,,,,,,,,,,,,,,,,,,,,,,,,,,,,,,,,,,,,,,,,,,,,,,75,152824,21,Female,1,2024/02/22_11:37:40,YZ,None,
,,,,,,test,1,45,1,1250,7,V,0,right,0.0712233450030908,1,0,,,,,,,,,,,,,,,,,,1,,,,,,,,,,,,,,,,,,,,,,,,,,,,,,,,,,,,,,,,,,,,,,75,152824,21,Female,1,2024/02/22_11:37:40,YZ,None,
,,,,,,test,1,45,1,1250,8,V,1,right,0.04110098601086065,0,0,,,,,,,,,,,,,,,,,,1,,,,,,,,,,,,,,,,,,,,,,,,,,,,,,,,,,,,,,,,,,,,,,75,152824,21,Female,1,2024/02/22_11:37:40,YZ,None,
,,,,,,test,1,45,1,1250,9,J,0,left,0.10563947400078177,0,0,,,,,,,,,,,,,,,,,,1,,,,,,,,,,,,,,,,,,,,,,,,,,,,,,,,,,,,,,,,,,,,,,75,152824,21,Female,1,2024/02/22_11:37:40,YZ,None,
,,,,,,test,1,45,1,1250,10,C,0,right,0.0,1,0,,,,,,,,,,,,,,,,,,1,,,,,,,,,,,,,,,,,,,,,,,,,,,,,,,,,,,,,,,,,,,,,,75,152824,21,Female,1,2024/02/22_11:37:40,YZ,None,
,,,,,,Test,1,45,1,1250,,,,,,,,0.031746031746031744,0.3333333333333333,0.42857142857142855,0.5714285714285714,0.0,0.5714285714285714,0.24184591959929094,1,3,0,0,0,4,5,3,7,0,1,,,,,,,,,,,,,,,,,,,,,,,,,,,,,,,,,,,,,,,,,,,,,,75,152824,21,Female,1,2024/02/22_11:37:40,YZ,None,
,,,,,240222_115354,TEST,1,45,1,1250,,,,,,,,,,,,,,,,,,,,,,,,,1,45,46,45,cue1.png,easy,A,48,1.362581213004887,0,909.0985282699985,910.4724406280147,,,,,,,,,,,,,,,,,,,,,,,,,,,,,,,,,,,75,152824,21,Female,1,2024/02/22_11:37:40,YZ,None,
