Instruction,Stimulus,Key,RT,START,END,Phase,Block,TrialN,NbackLevel,ISI,LetterN,Letter,Letter_isSame,Letter_Resp,Letter_RT,Letter_Accuracy,Letter_Timeout,Trial_A_measure,Trial_HR,Trial_FAR,Trial_CDR,Trial_MSR,Trial_ACC,Trial_RT,Trial_HitsCount,Trial_FAsCount,Trial_SameNoRespCount,Trial_DiffNoRespCount,Trial_NoRespCount,Trial_CDsCount,Trial_CorrectRespCount,Trial_SameLetterCount,Trial_DiffLetterCount,Trial_InvalidLetterCount,TrialCountCali,CaliEnd_A_measure,ISI_calibrated,Run,TrialIndex,TrialNumber_total,TrialNumber_valid,CueLearning,TrialDemandLearning,CueMapping,OnlineRating,OnlineRatingRT,OnlineRatingTimeOut,CueSTART,RatingSTART,OfflineRatingTimePoint,OfflineRatingQuesIndex,CueFigure,TrialDemand,OfflineRating,OfflineRatingRT,CueStart,OfflineRatingStart,PhaseType,CueLeft,CueDemandLeft,CueRight,CueDemandRight,Choice,ChoiceDemand,TaskDemand,ChoiceRT,ChoiceTimeOut,ChoiceSTART,CueCheck,CueDemandCheck,CorrectAnswer,Answer,AnswerDemand,AnswerRT,AnswerACC,AnswerTimeOut,CheckSTART,DemandRatingQuesIndex,QuesTLX,DemandLevel,DemandRating,DemandRatingRT,QuesStart,PID,SONA,Age,Gender,Run,TIME,EXPERIMENTER,frameRate,
1,./instructions/inst_begin/Slide2.png,right,19.738455482000063,0.2640775879999637,20.002533070000027,,,,,,,,,,,,,,,,,,,,,,,,,,,,,,,,,1,,,,,,,,,,,,,,,,,,,,,,,,,,,,,,,,,,,,,,,,,,,,,,123,151969,20,Female,1,2024/03/26_08:52:21,YZ,None,
2,./instructions/inst_begin/Slide3.png,right,12.107533882000098,20.039036523999926,32.14657040600002,,,,,,,,,,,,,,,,,,,,,,,,,,,,,,,,,1,,,,,,,,,,,,,,,,,,,,,,,,,,,,,,,,,,,,,,,,,,,,,,123,151969,20,Female,1,2024/03/26_08:52:21,YZ,None,
3,./instructions/inst_begin/Slide4.png,right,10.846242513999982,32.20399993199999,43.05024244599997,,,,,,,,,,,,,,,,,,,,,,,,,,,,,,,,,1,,,,,,,,,,,,,,,,,,,,,,,,,,,,,,,,,,,,,,,,,,,,,,123,151969,20,Female,1,2024/03/26_08:52:21,YZ,None,
1,./instructions/inst_prac_2/Slide6.png,right,13.572168806000036,43.102569776999985,56.67473858300002,,,,,,,,,,,,,,,,,,,,,,,,,,,,,,,,,1,,,,,,,,,,,,,,,,,,,,,,,,,,,,,,,,,,,,,,,,,,,,,,123,151969,20,Female,1,2024/03/26_08:52:21,YZ,None,
2,./instructions/inst_prac_2/Slide7.png,right,17.407392850000065,56.72313495599997,74.13052780600003,,,,,,,,,,,,,,,,,,,,,,,,,,,,,,,,,1,,,,,,,,,,,,,,,,,,,,,,,,,,,,,,,,,,,,,,,,,,,,,,123,151969,20,Female,1,2024/03/26_08:52:21,YZ,None,
3,./instructions/inst_prac_2/Slide8.png,right,16.07299483600002,74.17752834199996,90.25052317799998,,,,,,,,,,,,,,,,,,,,,,,,,,,,,,,,,1,,,,,,,,,,,,,,,,,,,,,,,,,,,,,,,,,,,,,,,,,,,,,,123,151969,20,Female,1,2024/03/26_08:52:21,YZ,None,
4,./instructions/inst_prac_2/Slide9.png,right,4.152283233999924,90.31411288100003,94.46639611499995,,,,,,,,,,,,,,,,,,,,,,,,,,,,,,,,,1,,,,,,,,,,,,,,,,,,,,,,,,,,,,,,,,,,,,,,,,,,,,,,123,151969,20,Female,1,2024/03/26_08:52:21,YZ,None,
5,./instructions/inst_prac_2/Slide10.png,right,1.9523116909999771,94.521933537,96.47424522799997,,,,,,,,,,,,,,,,,,,,,,,,,,,,,,,,,1,,,,,,,,,,,,,,,,,,,,,,,,,,,,,,,,,,,,,,,,,,,,,,123,151969,20,Female,1,2024/03/26_08:52:21,YZ,None,
6,./instructions/inst_prac_2/Slide11.png,right,3.0114857579999352,96.54282527700002,99.55431103499996,,,,,,,,,,,,,,,,,,,,,,,,,,,,,,,,,1,,,,,,,,,,,,,,,,,,,,,,,,,,,,,,,,,,,,,,,,,,,,,,123,151969,20,Female,1,2024/03/26_08:52:21,YZ,None,
7,./instructions/inst_prac_2/Slide12.png,right,3.5379654239999354,99.60036552899999,103.13833095299992,,,,,,,,,,,,,,,,,,,,,,,,,,,,,,,,,1,,,,,,,,,,,,,,,,,,,,,,,,,,,,,,,,,,,,,,,,,,,,,,123,151969,20,Female,1,2024/03/26_08:52:21,YZ,None,
8,./instructions/inst_prac_2/Slide13.png,right,1.604525738999996,103.189846418,104.794372157,,,,,,,,,,,,,,,,,,,,,,,,,,,,,,,,,1,,,,,,,,,,,,,,,,,,,,,,,,,,,,,,,,,,,,,,,,,,,,,,123,151969,20,Female,1,2024/03/26_08:52:21,YZ,None,
9,./instructions/inst_prac_2/Slide14.png,right,10.346142439999994,104.83239990200002,115.17854234200001,,,,,,,,,,,,,,,,,,,,,,,,,,,,,,,,,1,,,,,,,,,,,,,,,,,,,,,,,,,,,,,,,,,,,,,,,,,,,,,,123,151969,20,Female,1,2024/03/26_08:52:21,YZ,None,
10,./instructions/inst_prac_2/Slide15.png,right,16.34069575600006,115.21382764199996,131.55452339800001,,,,,,,,,,,,,,,,,,,,,,,,,,,,,,,,,1,,,,,,,,,,,,,,,,,,,,,,,,,,,,,,,,,,,,,,,,,,,,,,123,151969,20,Female,1,2024/03/26_08:52:21,YZ,None,
,,,,,,practice,0,25,2,2583,1,F,0,right,3.629144702000076,1,0,,,,,,,,,,,,,,,,,,,,,1,,,,,,,,,,,,,,,,,,,,,,,,,,,,,,,,,,,,,,,,,,,,,,123,151969,20,Female,1,2024/03/26_08:52:21,YZ,None,
,,,,,,practice,0,25,2,2583,2,C,0,right,1.6910949859999391,1,0,,,,,,,,,,,,,,,,,,,,,1,,,,,,,,,,,,,,,,,,,,,,,,,,,,,,,,,,,,,,,,,,,,,,123,151969,20,Female,1,2024/03/26_08:52:21,YZ,None,
,,,,,,practice,0,25,2,2583,3,N,1,right,1.1231655760000194,0,0,,,,,,,,,,,,,,,,,,,,,1,,,,,,,,,,,,,,,,,,,,,,,,,,,,,,,,,,,,,,,,,,,,,,123,151969,20,Female,1,2024/03/26_08:52:21,YZ,None,
,,,,,,practice,0,25,2,2583,4,S,0,right,2.9138483549999137,1,0,,,,,,,,,,,,,,,,,,,,,1,,,,,,,,,,,,,,,,,,,,,,,,,,,,,,,,,,,,,,,,,,,,,,123,151969,20,Female,1,2024/03/26_08:52:21,YZ,None,
,,,,,,practice,0,25,2,2583,5,N,1,left,1.4438465219999443,1,0,,,,,,,,,,,,,,,,,,,,,1,,,,,,,,,,,,,,,,,,,,,,,,,,,,,,,,,,,,,,,,,,,,,,123,151969,20,Female,1,2024/03/26_08:52:21,YZ,None,
,,,,,,practice,0,25,2,2583,6,S,0,left,1.841436026999986,0,0,,,,,,,,,,,,,,,,,,,,,1,,,,,,,,,,,,,,,,,,,,,,,,,,,,,,,,,,,,,,,,,,,,,,123,151969,20,Female,1,2024/03/26_08:52:21,YZ,None,
,,,,,,practice,0,25,2,2583,,,,,,,,0.6875,0.5,0.25,0.75,0.0,0.75,2.1070893613333133,1,1,0,0,0,3,4,2,4,0,,,,1,,,,,,,,,,,,,,,,,,,,,,,,,,,,,,,,,,,,,,,,,,,,,,123,151969,20,Female,1,2024/03/26_08:52:21,YZ,None,
1,./instructions/inst_redo_2/Slide18.png,right,16.218407737999996,151.632017195,167.850424933,,,,,,,,,,,,,,,,,,,,,,,,,,,,,,,,,1,,,,,,,,,,,,,,,,,,,,,,,,,,,,,,,,,,,,,,,,,,,,,,123,151969,20,Female,1,2024/03/26_08:52:21,YZ,None,
,,,,,,practice,0,32,2,2583,1,X,0,right,1.4547756109999455,1,0,,,,,,,,,,,,,,,,,,,,,1,,,,,,,,,,,,,,,,,,,,,,,,,,,,,,,,,,,,,,,,,,,,,,123,151969,20,Female,1,2024/03/26_08:52:21,YZ,None,
,,,,,,practice,0,32,2,2583,2,J,0,right,1.010882099000014,1,0,,,,,,,,,,,,,,,,,,,,,1,,,,,,,,,,,,,,,,,,,,,,,,,,,,,,,,,,,,,,,,,,,,,,123,151969,20,Female,1,2024/03/26_08:52:21,YZ,None,
,,,,,,practice,0,32,2,2583,3,V,0,right,1.386967213000048,1,0,,,,,,,,,,,,,,,,,,,,,1,,,,,,,,,,,,,,,,,,,,,,,,,,,,,,,,,,,,,,,,,,,,,,123,151969,20,Female,1,2024/03/26_08:52:21,YZ,None,
,,,,,,practice,0,32,2,2583,4,J,1,left,1.13943137199999,1,0,,,,,,,,,,,,,,,,,,,,,1,,,,,,,,,,,,,,,,,,,,,,,,,,,,,,,,,,,,,,,,,,,,,,123,151969,20,Female,1,2024/03/26_08:52:21,YZ,None,
,,,,,,practice,0,32,2,2583,5,Q,0,right,1.3806492889999618,1,0,,,,,,,,,,,,,,,,,,,,,1,,,,,,,,,,,,,,,,,,,,,,,,,,,,,,,,,,,,,,,,,,,,,,123,151969,20,Female,1,2024/03/26_08:52:21,YZ,None,
,,,,,,practice,0,32,2,2583,6,J,1,left,1.1824052590000065,1,0,,,,,,,,,,,,,,,,,,,,,1,,,,,,,,,,,,,,,,,,,,,,,,,,,,,,,,,,,,,,,,,,,,,,123,151969,20,Female,1,2024/03/26_08:52:21,YZ,None,
,,,,,,practice,0,32,2,2583,,,,,,,,1.0,1.0,0.0,1.0,0.0,1.0,1.2591851404999943,2,0,0,0,0,4,6,2,4,0,,,,1,,,,,,,,,,,,,,,,,,,,,,,,,,,,,,,,,,,,,,,,,,,,,,123,151969,20,Female,1,2024/03/26_08:52:21,YZ,None,
1,./instructions/inst_to_cali/Slide20.png,right,5.957740392000005,182.79669738099994,188.75443777299995,,,,,,,,,,,,,,,,,,,,,,,,,,,,,,,,,1,,,,,,,,,,,,,,,,,,,,,,,,,,,,,,,,,,,,,,,,,,,,,,123,151969,20,Female,1,2024/03/26_08:52:21,YZ,None,
1,./instructions/inst_cali/Slide22.png,right,13.210332189000042,188.80807983499994,202.01841202399999,,,,,,,,,,,,,,,,,,,,,,,,,,,,,,,,,1,,,,,,,,,,,,,,,,,,,,,,,,,,,,,,,,,,,,,,,,,,,,,,123,151969,20,Female,1,2024/03/26_08:52:21,YZ,None,
,,,,,,calibration,0,32,2,583,1,V,0,None,nan,0,1,,,,,,,,,,,,,,,,,,,,,1,,,,,,,,,,,,,,,,,,,,,,,,,,,,,,,,,,,,,,,,,,,,,,123,151969,20,Female,1,2024/03/26_08:52:21,YZ,None,
,,,,,,calibration,0,32,2,583,2,X,0,right,1.4085120740001003,1,0,,,,,,,,,,,,,,,,,,,,,1,,,,,,,,,,,,,,,,,,,,,,,,,,,,,,,,,,,,,,,,,,,,,,123,151969,20,Female,1,2024/03/26_08:52:21,YZ,None,
,,,,,,calibration,0,32,2,583,3,V,1,left,0.43938590100003694,1,0,,,,,,,,,,,,,,,,,,,,,1,,,,,,,,,,,,,,,,,,,,,,,,,,,,,,,,,,,,,,,,,,,,,,123,151969,20,Female,1,2024/03/26_08:52:21,YZ,None,
,,,,,,calibration,0,32,2,583,4,J,0,right,0.721838555999966,1,0,,,,,,,,,,,,,,,,,,,,,1,,,,,,,,,,,,,,,,,,,,,,,,,,,,,,,,,,,,,,,,,,,,,,123,151969,20,Female,1,2024/03/26_08:52:21,YZ,None,
,,,,,,calibration,0,32,2,583,5,S,0,left,0.8028728520000641,0,0,,,,,,,,,,,,,,,,,,,,,1,,,,,,,,,,,,,,,,,,,,,,,,,,,,,,,,,,,,,,,,,,,,,,123,151969,20,Female,1,2024/03/26_08:52:21,YZ,None,
,,,,,,calibration,0,32,2,583,6,J,1,left,0.7594821469999715,1,0,,,,,,,,,,,,,,,,,,,,,1,,,,,,,,,,,,,,,,,,,,,,,,,,,,,,,,,,,,,,,,,,,,,,123,151969,20,Female,1,2024/03/26_08:52:21,YZ,None,
,,,,,,calibration,0,32,2,583,7,F,0,right,0.48122667099994487,1,0,,,,,,,,,,,,,,,,,,,,,1,,,,,,,,,,,,,,,,,,,,,,,,,,,,,,,,,,,,,,,,,,,,,,123,151969,20,Female,1,2024/03/26_08:52:21,YZ,None,
,,,,,,calibration,0,32,2,583,8,S,0,left,0.7429134840000415,0,0,,,,,,,,,,,,,,,,,,,,,1,,,,,,,,,,,,,,,,,,,,,,,,,,,,,,,,,,,,,,,,,,,,,,123,151969,20,Female,1,2024/03/26_08:52:21,YZ,None,
,,,,,,calibration,0,32,2,583,9,Q,0,right,0.5313926919999403,1,0,,,,,,,,,,,,,,,,,,,,,1,,,,,,,,,,,,,,,,,,,,,,,,,,,,,,,,,,,,,,,,,,,,,,123,151969,20,Female,1,2024/03/26_08:52:21,YZ,None,
,,,,,,calibration,0,32,2,583,10,V,0,right,0.5507223249999242,1,0,,,,,,,,,,,,,,,,,,,,,1,,,,,,,,,,,,,,,,,,,,,,,,,,,,,,,,,,,,,,,,,,,,,,123,151969,20,Female,1,2024/03/26_08:52:21,YZ,None,
,,,,,,calibration,0,32,2,583,11,Q,1,right,0.6343072380000194,0,0,,,,,,,,,,,,,,,,,,,,,1,,,,,,,,,,,,,,,,,,,,,,,,,,,,,,,,,,,,,,,,,,,,,,123,151969,20,Female,1,2024/03/26_08:52:21,YZ,None,
,,,,,,calibration,0,32,2,583,12,S,0,right,0.845902787,1,0,,,,,,,,,,,,,,,,,,,,,1,,,,,,,,,,,,,,,,,,,,,,,,,,,,,,,,,,,,,,,,,,,,,,123,151969,20,Female,1,2024/03/26_08:52:21,YZ,None,
,,,,,,calibration,0,32,2,583,13,V,0,left,0.6420307209999692,0,0,,,,,,,,,,,,,,,,,,,,,1,,,,,,,,,,,,,,,,,,,,,,,,,,,,,,,,,,,,,,,,,,,,,,123,151969,20,Female,1,2024/03/26_08:52:21,YZ,None,
,,,,,,calibration,0,32,2,583,14,N,0,right,0.7179851039999221,1,0,,,,,,,,,,,,,,,,,,,,,1,,,,,,,,,,,,,,,,,,,,,,,,,,,,,,,,,,,,,,,,,,,,,,123,151969,20,Female,1,2024/03/26_08:52:21,YZ,None,
,,,,,,calibration,0,32,2,583,15,V,1,left,0.6084321220000675,1,0,,,,,,,,,,,,,,,,,,,,,1,,,,,,,,,,,,,,,,,,,,,,,,,,,,,,,,,,,,,,,,,,,,,,123,151969,20,Female,1,2024/03/26_08:52:21,YZ,None,
,,,,,,calibration,0,32,2,583,,,,,,,,0.8011363636363638,0.75,0.2727272727272727,0.7,0.06666666666666667,0.6606060606060606,0.7062146195714263,3,3,0,1,1,7,10,4,11,0,,,,1,,,,,,,,,,,,,,,,,,,,,,,,,,,,,,,,,,,,,,,,,,,,,,123,151969,20,Female,1,2024/03/26_08:52:21,YZ,None,
,,,,,,Calibration,0,,2,583,,,,,,,,,,,,,,,,,,,,,,,,,1,,,1,,,,,,,,,,,,,,,,,,,,,,,,,,,,,,,,,,,,,,,,,,,,,,123,151969,20,Female,1,2024/03/26_08:52:21,YZ,None,
,,,,,,calibration,0,14,2,583,1,X,0,right,1.4970963560000428,1,0,,,,,,,,,,,,,,,,,,,,,1,,,,,,,,,,,,,,,,,,,,,,,,,,,,,,,,,,,,,,,,,,,,,,123,151969,20,Female,1,2024/03/26_08:52:21,YZ,None,
,,,,,,calibration,0,14,2,583,2,Q,0,right,0.5421597150000252,1,0,,,,,,,,,,,,,,,,,,,,,1,,,,,,,,,,,,,,,,,,,,,,,,,,,,,,,,,,,,,,,,,,,,,,123,151969,20,Female,1,2024/03/26_08:52:21,YZ,None,
,,,,,,calibration,0,14,2,583,3,S,0,right,0.6239258900000095,1,0,,,,,,,,,,,,,,,,,,,,,1,,,,,,,,,,,,,,,,,,,,,,,,,,,,,,,,,,,,,,,,,,,,,,123,151969,20,Female,1,2024/03/26_08:52:21,YZ,None,
,,,,,,calibration,0,14,2,583,4,Q,1,left,0.7463038139999298,1,0,,,,,,,,,,,,,,,,,,,,,1,,,,,,,,,,,,,,,,,,,,,,,,,,,,,,,,,,,,,,,,,,,,,,123,151969,20,Female,1,2024/03/26_08:52:21,YZ,None,
,,,,,,calibration,0,14,2,583,5,V,0,right,0.7077043250000088,1,0,,,,,,,,,,,,,,,,,,,,,1,,,,,,,,,,,,,,,,,,,,,,,,,,,,,,,,,,,,,,,,,,,,,,123,151969,20,Female,1,2024/03/26_08:52:21,YZ,None,
,,,,,,calibration,0,14,2,583,6,Q,1,left,0.6013707409999824,1,0,,,,,,,,,,,,,,,,,,,,,1,,,,,,,,,,,,,,,,,,,,,,,,,,,,,,,,,,,,,,,,,,,,,,123,151969,20,Female,1,2024/03/26_08:52:21,YZ,None,
,,,,,,calibration,0,14,2,583,7,C,0,right,0.5530083099999956,1,0,,,,,,,,,,,,,,,,,,,,,1,,,,,,,,,,,,,,,,,,,,,,,,,,,,,,,,,,,,,,,,,,,,,,123,151969,20,Female,1,2024/03/26_08:52:21,YZ,None,
,,,,,,calibration,0,14,2,583,8,Q,1,left,0.7210682510000197,1,0,,,,,,,,,,,,,,,,,,,,,1,,,,,,,,,,,,,,,,,,,,,,,,,,,,,,,,,,,,,,,,,,,,,,123,151969,20,Female,1,2024/03/26_08:52:21,YZ,None,
,,,,,,calibration,0,14,2,583,9,V,0,right,0.45203501499997856,1,0,,,,,,,,,,,,,,,,,,,,,1,,,,,,,,,,,,,,,,,,,,,,,,,,,,,,,,,,,,,,,,,,,,,,123,151969,20,Female,1,2024/03/26_08:52:21,YZ,None,
,,,,,,calibration,0,14,2,583,10,Q,1,left,0.4980020740000555,1,0,,,,,,,,,,,,,,,,,,,,,1,,,,,,,,,,,,,,,,,,,,,,,,,,,,,,,,,,,,,,,,,,,,,,123,151969,20,Female,1,2024/03/26_08:52:21,YZ,None,
,,,,,,calibration,0,14,2,583,11,V,1,right,0.6228524919999927,0,0,,,,,,,,,,,,,,,,,,,,,1,,,,,,,,,,,,,,,,,,,,,,,,,,,,,,,,,,,,,,,,,,,,,,123,151969,20,Female,1,2024/03/26_08:52:21,YZ,None,
,,,,,,calibration,0,14,2,583,12,S,0,right,0.6735264149999693,1,0,,,,,,,,,,,,,,,,,,,,,1,,,,,,,,,,,,,,,,,,,,,,,,,,,,,,,,,,,,,,,,,,,,,,123,151969,20,Female,1,2024/03/26_08:52:21,YZ,None,
,,,,,,calibration,0,14,2,583,13,Q,0,right,0.7922733709999648,1,0,,,,,,,,,,,,,,,,,,,,,1,,,,,,,,,,,,,,,,,,,,,,,,,,,,,,,,,,,,,,,,,,,,,,123,151969,20,Female,1,2024/03/26_08:52:21,YZ,None,
,,,,,,calibration,0,14,2,583,14,J,0,right,0.6813797649999742,1,0,,,,,,,,,,,,,,,,,,,,,1,,,,,,,,,,,,,,,,,,,,,,,,,,,,,,,,,,,,,,,,,,,,,,123,151969,20,Female,1,2024/03/26_08:52:21,YZ,None,
,,,,,,calibration,0,14,2,583,15,V,0,left,0.6514615180000192,0,0,,,,,,,,,,,,,,,,,,,,,1,,,,,,,,,,,,,,,,,,,,,,,,,,,,,,,,,,,,,,,,,,,,,,123,151969,20,Female,1,2024/03/26_08:52:21,YZ,None,
,,,,,,calibration,0,14,2,583,,,,,,,,0.905,0.8,0.1,0.9,0.0,0.9,0.6909445367999979,4,1,0,0,0,9,13,5,10,0,,,,1,,,,,,,,,,,,,,,,,,,,,,,,,,,,,,,,,,,,,,,,,,,,,,123,151969,20,Female,1,2024/03/26_08:52:21,YZ,None,
,,,,,,Calibration,0,,2,583,,,,,,,,,,,,,,,,,,,,,,,,,2,,,1,,,,,,,,,,,,,,,,,,,,,,,,,,,,,,,,,,,,,,,,,,,,,,123,151969,20,Female,1,2024/03/26_08:52:21,YZ,None,
,,,,,,calibration,0,22,2,500,1,X,0,None,nan,0,1,,,,,,,,,,,,,,,,,,,,,1,,,,,,,,,,,,,,,,,,,,,,,,,,,,,,,,,,,,,,,,,,,,,,123,151969,20,Female,1,2024/03/26_08:52:21,YZ,None,
,,,,,,calibration,0,22,2,500,2,N,0,right,0.0,1,0,,,,,,,,,,,,,,,,,,,,,1,,,,,,,,,,,,,,,,,,,,,,,,,,,,,,,,,,,,,,,,,,,,,,123,151969,20,Female,1,2024/03/26_08:52:21,YZ,None,
,,,,,,calibration,0,22,2,500,3,X,1,right,nan,0,1,,,,,,,,,,,,,,,,,,,,,1,,,,,,,,,,,,,,,,,,,,,,,,,,,,,,,,,,,,,,,,,,,,,,123,151969,20,Female,1,2024/03/26_08:52:21,YZ,None,
,,,,,,calibration,0,22,2,500,4,N,1,right,0.6116721109999617,0,0,,,,,,,,,,,,,,,,,,,,,1,,,,,,,,,,,,,,,,,,,,,,,,,,,,,,,,,,,,,,,,,,,,,,123,151969,20,Female,1,2024/03/26_08:52:21,YZ,None,
,,,,,,calibration,0,22,2,500,5,C,0,right,0.5309729200000675,1,0,,,,,,,,,,,,,,,,,,,,,1,,,,,,,,,,,,,,,,,,,,,,,,,,,,,,,,,,,,,,,,,,,,,,123,151969,20,Female,1,2024/03/26_08:52:21,YZ,None,
,,,,,,calibration,0,22,2,500,6,S,0,right,0.46847824500002844,1,0,,,,,,,,,,,,,,,,,,,,,1,,,,,,,,,,,,,,,,,,,,,,,,,,,,,,,,,,,,,,,,,,,,,,123,151969,20,Female,1,2024/03/26_08:52:21,YZ,None,
,,,,,,calibration,0,22,2,500,7,J,0,right,0.9183232719999523,1,0,,,,,,,,,,,,,,,,,,,,,1,,,,,,,,,,,,,,,,,,,,,,,,,,,,,,,,,,,,,,,,,,,,,,123,151969,20,Female,1,2024/03/26_08:52:21,YZ,None,
,,,,,,calibration,0,22,2,500,8,S,1,right,0.6587134489999471,0,0,,,,,,,,,,,,,,,,,,,,,1,,,,,,,,,,,,,,,,,,,,,,,,,,,,,,,,,,,,,,,,,,,,,,123,151969,20,Female,1,2024/03/26_08:52:21,YZ,None,
,,,,,,calibration,0,22,2,500,9,Q,0,right,0.7849611530000402,1,0,,,,,,,,,,,,,,,,,,,,,1,,,,,,,,,,,,,,,,,,,,,,,,,,,,,,,,,,,,,,,,,,,,,,123,151969,20,Female,1,2024/03/26_08:52:21,YZ,None,
,,,,,,calibration,0,22,2,500,10,F,0,right,0.6686740769999915,1,0,,,,,,,,,,,,,,,,,,,,,1,,,,,,,,,,,,,,,,,,,,,,,,,,,,,,,,,,,,,,,,,,,,,,123,151969,20,Female,1,2024/03/26_08:52:21,YZ,None,
,,,,,,calibration,0,22,2,500,11,S,0,right,0.8377664619999905,1,0,,,,,,,,,,,,,,,,,,,,,1,,,,,,,,,,,,,,,,,,,,,,,,,,,,,,,,,,,,,,,,,,,,,,123,151969,20,Female,1,2024/03/26_08:52:21,YZ,None,
,,,,,,calibration,0,22,2,500,12,C,0,right,0.5948065349999752,1,0,,,,,,,,,,,,,,,,,,,,,1,,,,,,,,,,,,,,,,,,,,,,,,,,,,,,,,,,,,,,,,,,,,,,123,151969,20,Female,1,2024/03/26_08:52:21,YZ,None,
,,,,,,calibration,0,22,2,500,13,N,0,right,0.958212678000109,1,0,,,,,,,,,,,,,,,,,,,,,1,,,,,,,,,,,,,,,,,,,,,,,,,,,,,,,,,,,,,,,,,,,,,,123,151969,20,Female,1,2024/03/26_08:52:21,YZ,None,
,,,,,,calibration,0,22,2,500,14,C,1,left,0.735091615999977,1,0,,,,,,,,,,,,,,,,,,,,,1,,,,,,,,,,,,,,,,,,,,,,,,,,,,,,,,,,,,,,,,,,,,,,123,151969,20,Female,1,2024/03/26_08:52:21,YZ,None,
,,,,,,calibration,0,22,2,500,15,Q,0,right,0.5372140419999596,1,0,,,,,,,,,,,,,,,,,,,,,1,,,,,,,,,,,,,,,,,,,,,,,,,,,,,,,,,,,,,,,,,,,,,,123,151969,20,Female,1,2024/03/26_08:52:21,YZ,None,
,,,,,,calibration,0,22,2,500,16,F,0,right,0.6561750729999858,1,0,,,,,,,,,,,,,,,,,,,,,1,,,,,,,,,,,,,,,,,,,,,,,,,,,,,,,,,,,,,,,,,,,,,,123,151969,20,Female,1,2024/03/26_08:52:21,YZ,None,
,,,,,,calibration,0,22,2,500,,,,,,,,0.8125,0.25,0.0,1.0,0.125,0.875,0.6400758309285705,1,0,1,1,2,11,12,4,12,0,,,,1,,,,,,,,,,,,,,,,,,,,,,,,,,,,,,,,,,,,,,,,,,,,,,123,151969,20,Female,1,2024/03/26_08:52:21,YZ,None,
,,,,,,Calibration,0,,2,500,,,,,,,,,,,,,,,,,,,,,,,,,3,,,1,,,,,,,,,,,,,,,,,,,,,,,,,,,,,,,,,,,,,,,,,,,,,,123,151969,20,Female,1,2024/03/26_08:52:21,YZ,None,
,,,,,,calibration,0,31,2,500,1,V,0,None,nan,0,1,,,,,,,,,,,,,,,,,,,,,1,,,,,,,,,,,,,,,,,,,,,,,,,,,,,,,,,,,,,,,,,,,,,,123,151969,20,Female,1,2024/03/26_08:52:21,YZ,None,
,,,,,,calibration,0,31,2,500,2,N,0,None,nan,0,1,,,,,,,,,,,,,,,,,,,,,1,,,,,,,,,,,,,,,,,,,,,,,,,,,,,,,,,,,,,,,,,,,,,,123,151969,20,Female,1,2024/03/26_08:52:21,YZ,None,
,,,,,,calibration,0,31,2,500,3,F,0,right,0.5411007630000313,1,0,,,,,,,,,,,,,,,,,,,,,1,,,,,,,,,,,,,,,,,,,,,,,,,,,,,,,,,,,,,,,,,,,,,,123,151969,20,Female,1,2024/03/26_08:52:21,YZ,None,
,,,,,,calibration,0,31,2,500,4,N,1,right,0.5268633079999745,0,0,,,,,,,,,,,,,,,,,,,,,1,,,,,,,,,,,,,,,,,,,,,,,,,,,,,,,,,,,,,,,,,,,,,,123,151969,20,Female,1,2024/03/26_08:52:21,YZ,None,
,,,,,,calibration,0,31,2,500,5,S,0,right,0.6674515439999595,1,0,,,,,,,,,,,,,,,,,,,,,1,,,,,,,,,,,,,,,,,,,,,,,,,,,,,,,,,,,,,,,,,,,,,,123,151969,20,Female,1,2024/03/26_08:52:21,YZ,None,
,,,,,,calibration,0,31,2,500,6,Q,0,right,0.5620327750000342,1,0,,,,,,,,,,,,,,,,,,,,,1,,,,,,,,,,,,,,,,,,,,,,,,,,,,,,,,,,,,,,,,,,,,,,123,151969,20,Female,1,2024/03/26_08:52:21,YZ,None,
,,,,,,calibration,0,31,2,500,7,N,0,left,0.5646548419999817,0,0,,,,,,,,,,,,,,,,,,,,,1,,,,,,,,,,,,,,,,,,,,,,,,,,,,,,,,,,,,,,,,,,,,,,123,151969,20,Female,1,2024/03/26_08:52:21,YZ,None,
,,,,,,calibration,0,31,2,500,8,Q,1,right,0.46711495299996386,0,0,,,,,,,,,,,,,,,,,,,,,1,,,,,,,,,,,,,,,,,,,,,,,,,,,,,,,,,,,,,,,,,,,,,,123,151969,20,Female,1,2024/03/26_08:52:21,YZ,None,
,,,,,,calibration,0,31,2,500,9,J,0,right,0.7200485660000595,1,0,,,,,,,,,,,,,,,,,,,,,1,,,,,,,,,,,,,,,,,,,,,,,,,,,,,,,,,,,,,,,,,,,,,,123,151969,20,Female,1,2024/03/26_08:52:21,YZ,None,
,,,,,,calibration,0,31,2,500,10,Q,1,left,0.6554395069999828,1,0,,,,,,,,,,,,,,,,,,,,,1,,,,,,,,,,,,,,,,,,,,,,,,,,,,,,,,,,,,,,,,,,,,,,123,151969,20,Female,1,2024/03/26_08:52:21,YZ,None,
,,,,,,calibration,0,31,2,500,11,J,1,right,0.7338954330000433,0,0,,,,,,,,,,,,,,,,,,,,,1,,,,,,,,,,,,,,,,,,,,,,,,,,,,,,,,,,,,,,,,,,,,,,123,151969,20,Female,1,2024/03/26_08:52:21,YZ,None,
,,,,,,calibration,0,31,2,500,12,X,0,right,0.5184775490001812,1,0,,,,,,,,,,,,,,,,,,,,,1,,,,,,,,,,,,,,,,,,,,,,,,,,,,,,,,,,,,,,,,,,,,,,123,151969,20,Female,1,2024/03/26_08:52:21,YZ,None,
,,,,,,calibration,0,31,2,500,13,S,0,right,0.8384478539999236,1,0,,,,,,,,,,,,,,,,,,,,,1,,,,,,,,,,,,,,,,,,,,,,,,,,,,,,,,,,,,,,,,,,,,,,123,151969,20,Female,1,2024/03/26_08:52:21,YZ,None,
,,,,,,calibration,0,31,2,500,14,Q,0,right,nan,0,1,,,,,,,,,,,,,,,,,,,,,1,,,,,,,,,,,,,,,,,,,,,,,,,,,,,,,,,,,,,,,,,,,,,,123,151969,20,Female,1,2024/03/26_08:52:21,YZ,None,
,,,,,,calibration,0,31,2,500,15,S,1,right,0.7744921620001151,0,0,,,,,,,,,,,,,,,,,,,,,1,,,,,,,,,,,,,,,,,,,,,,,,,,,,,,,,,,,,,,,,,,,,,,123,151969,20,Female,1,2024/03/26_08:52:21,YZ,None,
,,,,,,calibration,0,31,2,500,16,J,0,right,0.7682659910001348,1,0,,,,,,,,,,,,,,,,,,,,,1,,,,,,,,,,,,,,,,,,,,,,,,,,,,,,,,,,,,,,,,,,,,,,123,151969,20,Female,1,2024/03/26_08:52:21,YZ,None,
,,,,,,calibration,0,31,2,500,,,,,,,,0.6636363636363636,0.2,0.09090909090909091,0.875,0.1875,0.7215909090909091,0.6414065574615682,1,1,0,3,3,7,8,5,11,0,,,,1,,,,,,,,,,,,,,,,,,,,,,,,,,,,,,,,,,,,,,,,,,,,,,123,151969,20,Female,1,2024/03/26_08:52:21,YZ,None,
,,,,,,Calibration,0,,2,500,,,,,,,,,,,,,,,,,,,,,,,,,4,,,1,,,,,,,,,,,,,,,,,,,,,,,,,,,,,,,,,,,,,,,,,,,,,,123,151969,20,Female,1,2024/03/26_08:52:21,YZ,None,
,,,,,,calibration,0,1,2,583,1,Q,0,right,0.5988040449999517,1,0,,,,,,,,,,,,,,,,,,,,,1,,,,,,,,,,,,,,,,,,,,,,,,,,,,,,,,,,,,,,,,,,,,,,123,151969,20,Female,1,2024/03/26_08:52:21,YZ,None,
,,,,,,calibration,0,1,2,583,2,V,0,right,0.6485187709999991,1,0,,,,,,,,,,,,,,,,,,,,,1,,,,,,,,,,,,,,,,,,,,,,,,,,,,,,,,,,,,,,,,,,,,,,123,151969,20,Female,1,2024/03/26_08:52:21,YZ,None,
,,,,,,calibration,0,1,2,583,3,Q,1,left,0.664337684999964,1,0,,,,,,,,,,,,,,,,,,,,,1,,,,,,,,,,,,,,,,,,,,,,,,,,,,,,,,,,,,,,,,,,,,,,123,151969,20,Female,1,2024/03/26_08:52:21,YZ,None,
,,,,,,calibration,0,1,2,583,4,N,0,right,0.6490627370001221,1,0,,,,,,,,,,,,,,,,,,,,,1,,,,,,,,,,,,,,,,,,,,,,,,,,,,,,,,,,,,,,,,,,,,,,123,151969,20,Female,1,2024/03/26_08:52:21,YZ,None,
,,,,,,calibration,0,1,2,583,5,J,0,right,0.6746377570000277,1,0,,,,,,,,,,,,,,,,,,,,,1,,,,,,,,,,,,,,,,,,,,,,,,,,,,,,,,,,,,,,,,,,,,,,123,151969,20,Female,1,2024/03/26_08:52:21,YZ,None,
,,,,,,calibration,0,1,2,583,6,S,0,right,0.6522390679999717,1,0,,,,,,,,,,,,,,,,,,,,,1,,,,,,,,,,,,,,,,,,,,,,,,,,,,,,,,,,,,,,,,,,,,,,123,151969,20,Female,1,2024/03/26_08:52:21,YZ,None,
,,,,,,calibration,0,1,2,583,7,N,0,left,0.5420058130000598,0,0,,,,,,,,,,,,,,,,,,,,,1,,,,,,,,,,,,,,,,,,,,,,,,,,,,,,,,,,,,,,,,,,,,,,123,151969,20,Female,1,2024/03/26_08:52:21,YZ,None,
,,,,,,calibration,0,1,2,583,8,F,0,right,0.49327759700008755,1,0,,,,,,,,,,,,,,,,,,,,,1,,,,,,,,,,,,,,,,,,,,,,,,,,,,,,,,,,,,,,,,,,,,,,123,151969,20,Female,1,2024/03/26_08:52:21,YZ,None,
,,,,,,calibration,0,1,2,583,9,N,1,left,0.6655172539999512,1,0,,,,,,,,,,,,,,,,,,,,,1,,,,,,,,,,,,,,,,,,,,,,,,,,,,,,,,,,,,,,,,,,,,,,123,151969,20,Female,1,2024/03/26_08:52:21,YZ,None,
,,,,,,calibration,0,1,2,583,10,C,0,right,0.6157775039998796,1,0,,,,,,,,,,,,,,,,,,,,,1,,,,,,,,,,,,,,,,,,,,,,,,,,,,,,,,,,,,,,,,,,,,,,123,151969,20,Female,1,2024/03/26_08:52:21,YZ,None,
,,,,,,calibration,0,1,2,583,11,N,1,left,0.5002890210000714,1,0,,,,,,,,,,,,,,,,,,,,,1,,,,,,,,,,,,,,,,,,,,,,,,,,,,,,,,,,,,,,,,,,,,,,123,151969,20,Female,1,2024/03/26_08:52:21,YZ,None,
,,,,,,calibration,0,1,2,583,12,C,1,right,0.5117861889998494,0,0,,,,,,,,,,,,,,,,,,,,,1,,,,,,,,,,,,,,,,,,,,,,,,,,,,,,,,,,,,,,,,,,,,,,123,151969,20,Female,1,2024/03/26_08:52:21,YZ,None,
,,,,,,calibration,0,1,2,583,13,V,0,right,0.6125855089999277,1,0,,,,,,,,,,,,,,,,,,,,,1,,,,,,,,,,,,,,,,,,,,,,,,,,,,,,,,,,,,,,,,,,,,,,123,151969,20,Female,1,2024/03/26_08:52:21,YZ,None,
,,,,,,calibration,0,1,2,583,14,N,0,right,0.5734287810000751,1,0,,,,,,,,,,,,,,,,,,,,,1,,,,,,,,,,,,,,,,,,,,,,,,,,,,,,,,,,,,,,,,,,,,,,123,151969,20,Female,1,2024/03/26_08:52:21,YZ,None,
,,,,,,calibration,0,1,2,583,15,F,0,right,0.664596500000016,1,0,,,,,,,,,,,,,,,,,,,,,1,,,,,,,,,,,,,,,,,,,,,,,,,,,,,,,,,,,,,,,,,,,,,,123,151969,20,Female,1,2024/03/26_08:52:21,YZ,None,
,,,,,,calibration,0,1,2,583,,,,,,,,0.8920454545454546,0.75,0.09090909090909091,0.9090909090909091,0.0,0.9090909090909091,0.604457615399997,3,1,0,0,0,10,13,4,11,0,,,,1,,,,,,,,,,,,,,,,,,,,,,,,,,,,,,,,,,,,,,,,,,,,,,123,151969,20,Female,1,2024/03/26_08:52:21,YZ,None,
,,,,,,Calibration,0,,2,583,,,,,,,,,,,,,,,,,,,,,,,,,5,,,1,,,,,,,,,,,,,,,,,,,,,,,,,,,,,,,,,,,,,,,,,,,,,,123,151969,20,Female,1,2024/03/26_08:52:21,YZ,None,
,,,,,,calibration,0,10,2,500,1,N,0,None,nan,0,1,,,,,,,,,,,,,,,,,,,,,1,,,,,,,,,,,,,,,,,,,,,,,,,,,,,,,,,,,,,,,,,,,,,,123,151969,20,Female,1,2024/03/26_08:52:21,YZ,None,
,,,,,,calibration,0,10,2,500,2,C,0,None,nan,0,1,,,,,,,,,,,,,,,,,,,,,1,,,,,,,,,,,,,,,,,,,,,,,,,,,,,,,,,,,,,,,,,,,,,,123,151969,20,Female,1,2024/03/26_08:52:21,YZ,None,
,,,,,,calibration,0,10,2,500,3,S,0,right,0.5240125979998993,1,0,,,,,,,,,,,,,,,,,,,,,1,,,,,,,,,,,,,,,,,,,,,,,,,,,,,,,,,,,,,,,,,,,,,,123,151969,20,Female,1,2024/03/26_08:52:21,YZ,None,
,,,,,,calibration,0,10,2,500,4,C,1,right,0.5123205830000188,0,0,,,,,,,,,,,,,,,,,,,,,1,,,,,,,,,,,,,,,,,,,,,,,,,,,,,,,,,,,,,,,,,,,,,,123,151969,20,Female,1,2024/03/26_08:52:21,YZ,None,
,,,,,,calibration,0,10,2,500,5,N,0,right,0.7324118080000517,1,0,,,,,,,,,,,,,,,,,,,,,1,,,,,,,,,,,,,,,,,,,,,,,,,,,,,,,,,,,,,,,,,,,,,,123,151969,20,Female,1,2024/03/26_08:52:21,YZ,None,
,,,,,,calibration,0,10,2,500,6,V,0,right,0.5125757450000492,1,0,,,,,,,,,,,,,,,,,,,,,1,,,,,,,,,,,,,,,,,,,,,,,,,,,,,,,,,,,,,,,,,,,,,,123,151969,20,Female,1,2024/03/26_08:52:21,YZ,None,
,,,,,,calibration,0,10,2,500,7,Q,0,right,0.7741907910001373,1,0,,,,,,,,,,,,,,,,,,,,,1,,,,,,,,,,,,,,,,,,,,,,,,,,,,,,,,,,,,,,,,,,,,,,123,151969,20,Female,1,2024/03/26_08:52:21,YZ,None,
,,,,,,calibration,0,10,2,500,8,N,0,right,0.6538938610001424,1,0,,,,,,,,,,,,,,,,,,,,,1,,,,,,,,,,,,,,,,,,,,,,,,,,,,,,,,,,,,,,,,,,,,,,123,151969,20,Female,1,2024/03/26_08:52:21,YZ,None,
,,,,,,calibration,0,10,2,500,9,J,0,right,0.7415828449998116,1,0,,,,,,,,,,,,,,,,,,,,,1,,,,,,,,,,,,,,,,,,,,,,,,,,,,,,,,,,,,,,,,,,,,,,123,151969,20,Female,1,2024/03/26_08:52:21,YZ,None,
,,,,,,calibration,0,10,2,500,10,N,1,right,0.7983689510001568,0,0,,,,,,,,,,,,,,,,,,,,,1,,,,,,,,,,,,,,,,,,,,,,,,,,,,,,,,,,,,,,,,,,,,,,123,151969,20,Female,1,2024/03/26_08:52:21,YZ,None,
,,,,,,calibration,0,10,2,500,11,V,0,right,0.5810609440000007,1,0,,,,,,,,,,,,,,,,,,,,,1,,,,,,,,,,,,,,,,,,,,,,,,,,,,,,,,,,,,,,,,,,,,,,123,151969,20,Female,1,2024/03/26_08:52:21,YZ,None,
,,,,,,calibration,0,10,2,500,12,C,0,right,0.6823891230001209,1,0,,,,,,,,,,,,,,,,,,,,,1,,,,,,,,,,,,,,,,,,,,,,,,,,,,,,,,,,,,,,,,,,,,,,123,151969,20,Female,1,2024/03/26_08:52:21,YZ,None,
,,,,,,calibration,0,10,2,500,13,F,0,right,0.5310953099999551,1,0,,,,,,,,,,,,,,,,,,,,,1,,,,,,,,,,,,,,,,,,,,,,,,,,,,,,,,,,,,,,,,,,,,,,123,151969,20,Female,1,2024/03/26_08:52:21,YZ,None,
,,,,,,calibration,0,10,2,500,14,C,1,right,0.8816827069999817,0,0,,,,,,,,,,,,,,,,,,,,,1,,,,,,,,,,,,,,,,,,,,,,,,,,,,,,,,,,,,,,,,,,,,,,123,151969,20,Female,1,2024/03/26_08:52:21,YZ,None,
,,,,,,calibration,0,10,2,500,15,F,1,right,0.9410784219999186,0,0,,,,,,,,,,,,,,,,,,,,,1,,,,,,,,,,,,,,,,,,,,,,,,,,,,,,,,,,,,,,,,,,,,,,123,151969,20,Female,1,2024/03/26_08:52:21,YZ,None,
,,,,,,calibration,0,10,2,500,16,J,0,right,0.6618410420001055,1,0,,,,,,,,,,,,,,,,,,,,,1,,,,,,,,,,,,,,,,,,,,,,,,,,,,,,,,,,,,,,,,,,,,,,123,151969,20,Female,1,2024/03/26_08:52:21,YZ,None,
,,,,,,calibration,0,10,2,500,,,,,,,,0.5,0.0,0.0,1.0,0.125,0.875,0.6806074807143107,0,0,0,2,2,10,10,4,12,0,,,,1,,,,,,,,,,,,,,,,,,,,,,,,,,,,,,,,,,,,,,,,,,,,,,123,151969,20,Female,1,2024/03/26_08:52:21,YZ,None,
,,,,,,Calibration,0,,2,500,,,,,,,,,,,,,,,,,,,,,,,,,6,,,1,,,,,,,,,,,,,,,,,,,,,,,,,,,,,,,,,,,,,,,,,,,,,,123,151969,20,Female,1,2024/03/26_08:52:21,YZ,None,
,,,,,,calibration,0,9,2,583,1,S,0,right,1.2871229200000016,1,0,,,,,,,,,,,,,,,,,,,,,1,,,,,,,,,,,,,,,,,,,,,,,,,,,,,,,,,,,,,,,,,,,,,,123,151969,20,Female,1,2024/03/26_08:52:21,YZ,None,
,,,,,,calibration,0,9,2,583,2,F,0,right,0.798888566999949,1,0,,,,,,,,,,,,,,,,,,,,,1,,,,,,,,,,,,,,,,,,,,,,,,,,,,,,,,,,,,,,,,,,,,,,123,151969,20,Female,1,2024/03/26_08:52:21,YZ,None,
,,,,,,calibration,0,9,2,583,3,V,0,right,0.5820149060000404,1,0,,,,,,,,,,,,,,,,,,,,,1,,,,,,,,,,,,,,,,,,,,,,,,,,,,,,,,,,,,,,,,,,,,,,123,151969,20,Female,1,2024/03/26_08:52:21,YZ,None,
,,,,,,calibration,0,9,2,583,4,X,0,right,0.5126070559999789,1,0,,,,,,,,,,,,,,,,,,,,,1,,,,,,,,,,,,,,,,,,,,,,,,,,,,,,,,,,,,,,,,,,,,,,123,151969,20,Female,1,2024/03/26_08:52:21,YZ,None,
,,,,,,calibration,0,9,2,583,5,N,0,right,0.5739630699999907,1,0,,,,,,,,,,,,,,,,,,,,,1,,,,,,,,,,,,,,,,,,,,,,,,,,,,,,,,,,,,,,,,,,,,,,123,151969,20,Female,1,2024/03/26_08:52:21,YZ,None,
,,,,,,calibration,0,9,2,583,6,J,0,right,0.5887855360001595,1,0,,,,,,,,,,,,,,,,,,,,,1,,,,,,,,,,,,,,,,,,,,,,,,,,,,,,,,,,,,,,,,,,,,,,123,151969,20,Female,1,2024/03/26_08:52:21,YZ,None,
,,,,,,calibration,0,9,2,583,7,F,0,right,0.8504109999998946,1,0,,,,,,,,,,,,,,,,,,,,,1,,,,,,,,,,,,,,,,,,,,,,,,,,,,,,,,,,,,,,,,,,,,,,123,151969,20,Female,1,2024/03/26_08:52:21,YZ,None,
,,,,,,calibration,0,9,2,583,8,N,0,right,0.6088910060000217,1,0,,,,,,,,,,,,,,,,,,,,,1,,,,,,,,,,,,,,,,,,,,,,,,,,,,,,,,,,,,,,,,,,,,,,123,151969,20,Female,1,2024/03/26_08:52:21,YZ,None,
,,,,,,calibration,0,9,2,583,9,S,0,right,0.8143353200000547,1,0,,,,,,,,,,,,,,,,,,,,,1,,,,,,,,,,,,,,,,,,,,,,,,,,,,,,,,,,,,,,,,,,,,,,123,151969,20,Female,1,2024/03/26_08:52:21,YZ,None,
,,,,,,calibration,0,9,2,583,10,J,0,right,0.5920221359999687,1,0,,,,,,,,,,,,,,,,,,,,,1,,,,,,,,,,,,,,,,,,,,,,,,,,,,,,,,,,,,,,,,,,,,,,123,151969,20,Female,1,2024/03/26_08:52:21,YZ,None,
,,,,,,calibration,0,9,2,583,11,S,1,left,0.8180326399999558,1,0,,,,,,,,,,,,,,,,,,,,,1,,,,,,,,,,,,,,,,,,,,,,,,,,,,,,,,,,,,,,,,,,,,,,123,151969,20,Female,1,2024/03/26_08:52:21,YZ,None,
,,,,,,calibration,0,9,2,583,12,J,1,left,0.8523238750001383,1,0,,,,,,,,,,,,,,,,,,,,,1,,,,,,,,,,,,,,,,,,,,,,,,,,,,,,,,,,,,,,,,,,,,,,123,151969,20,Female,1,2024/03/26_08:52:21,YZ,None,
,,,,,,calibration,0,9,2,583,13,V,0,right,0.6367052499999772,1,0,,,,,,,,,,,,,,,,,,,,,1,,,,,,,,,,,,,,,,,,,,,,,,,,,,,,,,,,,,,,,,,,,,,,123,151969,20,Female,1,2024/03/26_08:52:21,YZ,None,
,,,,,,calibration,0,9,2,583,14,J,1,left,0.5565309030000662,1,0,,,,,,,,,,,,,,,,,,,,,1,,,,,,,,,,,,,,,,,,,,,,,,,,,,,,,,,,,,,,,,,,,,,,123,151969,20,Female,1,2024/03/26_08:52:21,YZ,None,
,,,,,,calibration,0,9,2,583,15,V,1,right,0.9482667830000082,0,0,,,,,,,,,,,,,,,,,,,,,1,,,,,,,,,,,,,,,,,,,,,,,,,,,,,,,,,,,,,,,,,,,,,,123,151969,20,Female,1,2024/03/26_08:52:21,YZ,None,
,,,,,,calibration,0,9,2,583,,,,,,,,0.9375,0.75,0.0,1.0,0.0,1.0,0.7347267312000137,3,0,0,0,0,11,14,4,11,0,,,,1,,,,,,,,,,,,,,,,,,,,,,,,,,,,,,,,,,,,,,,,,,,,,,123,151969,20,Female,1,2024/03/26_08:52:21,YZ,None,
,,,,,,Calibration,0,,2,583,,,,,,,,,,,,,,,,,,,,,,,,,7,,,1,,,,,,,,,,,,,,,,,,,,,,,,,,,,,,,,,,,,,,,,,,,,,,123,151969,20,Female,1,2024/03/26_08:52:21,YZ,None,
,,,,,,calibration,0,22,2,500,1,X,0,None,nan,0,1,,,,,,,,,,,,,,,,,,,,,1,,,,,,,,,,,,,,,,,,,,,,,,,,,,,,,,,,,,,,,,,,,,,,123,151969,20,Female,1,2024/03/26_08:52:21,YZ,None,
,,,,,,calibration,0,22,2,500,2,N,0,right,0.6739054780000515,1,0,,,,,,,,,,,,,,,,,,,,,1,,,,,,,,,,,,,,,,,,,,,,,,,,,,,,,,,,,,,,,,,,,,,,123,151969,20,Female,1,2024/03/26_08:52:21,YZ,None,
,,,,,,calibration,0,22,2,500,3,X,1,left,0.5573866209999778,1,0,,,,,,,,,,,,,,,,,,,,,1,,,,,,,,,,,,,,,,,,,,,,,,,,,,,,,,,,,,,,,,,,,,,,123,151969,20,Female,1,2024/03/26_08:52:21,YZ,None,
,,,,,,calibration,0,22,2,500,4,N,1,left,0.6266704880001726,1,0,,,,,,,,,,,,,,,,,,,,,1,,,,,,,,,,,,,,,,,,,,,,,,,,,,,,,,,,,,,,,,,,,,,,123,151969,20,Female,1,2024/03/26_08:52:21,YZ,None,
,,,,,,calibration,0,22,2,500,5,C,0,right,0.5496637789999568,1,0,,,,,,,,,,,,,,,,,,,,,1,,,,,,,,,,,,,,,,,,,,,,,,,,,,,,,,,,,,,,,,,,,,,,123,151969,20,Female,1,2024/03/26_08:52:21,YZ,None,
,,,,,,calibration,0,22,2,500,6,S,0,right,0.658071136999979,1,0,,,,,,,,,,,,,,,,,,,,,1,,,,,,,,,,,,,,,,,,,,,,,,,,,,,,,,,,,,,,,,,,,,,,123,151969,20,Female,1,2024/03/26_08:52:21,YZ,None,
,,,,,,calibration,0,22,2,500,7,J,0,right,0.6357391910000842,1,0,,,,,,,,,,,,,,,,,,,,,1,,,,,,,,,,,,,,,,,,,,,,,,,,,,,,,,,,,,,,,,,,,,,,123,151969,20,Female,1,2024/03/26_08:52:21,YZ,None,
,,,,,,calibration,0,22,2,500,8,S,1,right,0.7583770610001466,0,0,,,,,,,,,,,,,,,,,,,,,1,,,,,,,,,,,,,,,,,,,,,,,,,,,,,,,,,,,,,,,,,,,,,,123,151969,20,Female,1,2024/03/26_08:52:21,YZ,None,
,,,,,,calibration,0,22,2,500,9,Q,0,right,0.8590990650000094,1,0,,,,,,,,,,,,,,,,,,,,,1,,,,,,,,,,,,,,,,,,,,,,,,,,,,,,,,,,,,,,,,,,,,,,123,151969,20,Female,1,2024/03/26_08:52:21,YZ,None,
,,,,,,calibration,0,22,2,500,10,F,0,right,0.6237926839999091,1,0,,,,,,,,,,,,,,,,,,,,,1,,,,,,,,,,,,,,,,,,,,,,,,,,,,,,,,,,,,,,,,,,,,,,123,151969,20,Female,1,2024/03/26_08:52:21,YZ,None,
,,,,,,calibration,0,22,2,500,11,S,0,right,0.7817136920000394,1,0,,,,,,,,,,,,,,,,,,,,,1,,,,,,,,,,,,,,,,,,,,,,,,,,,,,,,,,,,,,,,,,,,,,,123,151969,20,Female,1,2024/03/26_08:52:21,YZ,None,
,,,,,,calibration,0,22,2,500,12,C,0,right,nan,0,1,,,,,,,,,,,,,,,,,,,,,1,,,,,,,,,,,,,,,,,,,,,,,,,,,,,,,,,,,,,,,,,,,,,,123,151969,20,Female,1,2024/03/26_08:52:21,YZ,None,
,,,,,,calibration,0,22,2,500,13,N,0,right,0.7169779369999105,1,0,,,,,,,,,,,,,,,,,,,,,1,,,,,,,,,,,,,,,,,,,,,,,,,,,,,,,,,,,,,,,,,,,,,,123,151969,20,Female,1,2024/03/26_08:52:21,YZ,None,
,,,,,,calibration,0,22,2,500,14,C,1,left,0.5410610649998944,1,0,,,,,,,,,,,,,,,,,,,,,1,,,,,,,,,,,,,,,,,,,,,,,,,,,,,,,,,,,,,,,,,,,,,,123,151969,20,Female,1,2024/03/26_08:52:21,YZ,None,
,,,,,,calibration,0,22,2,500,15,Q,0,right,0.60837486000014,1,0,,,,,,,,,,,,,,,,,,,,,1,,,,,,,,,,,,,,,,,,,,,,,,,,,,,,,,,,,,,,,,,,,,,,123,151969,20,Female,1,2024/03/26_08:52:21,YZ,None,
,,,,,,calibration,0,22,2,500,16,F,0,right,0.6401716860000306,1,0,,,,,,,,,,,,,,,,,,,,,1,,,,,,,,,,,,,,,,,,,,,,,,,,,,,,,,,,,,,,,,,,,,,,123,151969,20,Female,1,2024/03/26_08:52:21,YZ,None,
,,,,,,calibration,0,22,2,500,,,,,,,,0.9375,0.75,0.0,1.0,0.125,0.875,0.6593574817143073,3,0,0,2,2,10,13,4,12,0,,,,1,,,,,,,,,,,,,,,,,,,,,,,,,,,,,,,,,,,,,,,,,,,,,,123,151969,20,Female,1,2024/03/26_08:52:21,YZ,None,
,,,,,,Calibration,0,,2,500,,,,,,,,,,,,,,,,,,,,,,,,,8,,,1,,,,,,,,,,,,,,,,,,,,,,,,,,,,,,,,,,,,,,,,,,,,,,123,151969,20,Female,1,2024/03/26_08:52:21,YZ,None,
,,,,,,calibration,0,31,2,426,1,V,0,right,0.876620161999881,1,0,,,,,,,,,,,,,,,,,,,,,1,,,,,,,,,,,,,,,,,,,,,,,,,,,,,,,,,,,,,,,,,,,,,,123,151969,20,Female,1,2024/03/26_08:52:21,YZ,None,
,,,,,,calibration,0,31,2,426,2,J,0,right,0.7512406069999997,1,0,,,,,,,,,,,,,,,,,,,,,1,,,,,,,,,,,,,,,,,,,,,,,,,,,,,,,,,,,,,,,,,,,,,,123,151969,20,Female,1,2024/03/26_08:52:21,YZ,None,
,,,,,,calibration,0,31,2,426,3,V,1,right,0.6629151690001436,0,0,,,,,,,,,,,,,,,,,,,,,1,,,,,,,,,,,,,,,,,,,,,,,,,,,,,,,,,,,,,,,,,,,,,,123,151969,20,Female,1,2024/03/26_08:52:21,YZ,None,
,,,,,,calibration,0,31,2,426,4,J,1,left,0.46063001200013787,1,0,,,,,,,,,,,,,,,,,,,,,1,,,,,,,,,,,,,,,,,,,,,,,,,,,,,,,,,,,,,,,,,,,,,,123,151969,20,Female,1,2024/03/26_08:52:21,YZ,None,
,,,,,,calibration,0,31,2,426,5,C,0,right,0.564094680999915,1,0,,,,,,,,,,,,,,,,,,,,,1,,,,,,,,,,,,,,,,,,,,,,,,,,,,,,,,,,,,,,,,,,,,,,123,151969,20,Female,1,2024/03/26_08:52:21,YZ,None,
,,,,,,calibration,0,31,2,426,6,S,0,right,0.6481156889999511,1,0,,,,,,,,,,,,,,,,,,,,,1,,,,,,,,,,,,,,,,,,,,,,,,,,,,,,,,,,,,,,,,,,,,,,123,151969,20,Female,1,2024/03/26_08:52:21,YZ,None,
,,,,,,calibration,0,31,2,426,7,Q,0,right,0.6203273090000039,1,0,,,,,,,,,,,,,,,,,,,,,1,,,,,,,,,,,,,,,,,,,,,,,,,,,,,,,,,,,,,,,,,,,,,,123,151969,20,Female,1,2024/03/26_08:52:21,YZ,None,
,,,,,,calibration,0,31,2,426,8,F,0,right,0.611378367000043,1,0,,,,,,,,,,,,,,,,,,,,,1,,,,,,,,,,,,,,,,,,,,,,,,,,,,,,,,,,,,,,,,,,,,,,123,151969,20,Female,1,2024/03/26_08:52:21,YZ,None,
,,,,,,calibration,0,31,2,426,9,Q,1,right,0.8583791419998761,0,0,,,,,,,,,,,,,,,,,,,,,1,,,,,,,,,,,,,,,,,,,,,,,,,,,,,,,,,,,,,,,,,,,,,,123,151969,20,Female,1,2024/03/26_08:52:21,YZ,None,
,,,,,,calibration,0,31,2,426,10,V,0,right,0.8195637370001805,1,0,,,,,,,,,,,,,,,,,,,,,1,,,,,,,,,,,,,,,,,,,,,,,,,,,,,,,,,,,,,,,,,,,,,,123,151969,20,Female,1,2024/03/26_08:52:21,YZ,None,
,,,,,,calibration,0,31,2,426,11,C,0,right,0.7386504090000017,1,0,,,,,,,,,,,,,,,,,,,,,1,,,,,,,,,,,,,,,,,,,,,,,,,,,,,,,,,,,,,,,,,,,,,,123,151969,20,Female,1,2024/03/26_08:52:21,YZ,None,
,,,,,,calibration,0,31,2,426,12,S,0,right,0.7677503449999676,1,0,,,,,,,,,,,,,,,,,,,,,1,,,,,,,,,,,,,,,,,,,,,,,,,,,,,,,,,,,,,,,,,,,,,,123,151969,20,Female,1,2024/03/26_08:52:21,YZ,None,
,,,,,,calibration,0,31,2,426,13,J,0,right,0.4413762610001868,1,0,,,,,,,,,,,,,,,,,,,,,1,,,,,,,,,,,,,,,,,,,,,,,,,,,,,,,,,,,,,,,,,,,,,,123,151969,20,Female,1,2024/03/26_08:52:21,YZ,None,
,,,,,,calibration,0,31,2,426,14,S,1,right,nan,0,1,,,,,,,,,,,,,,,,,,,,,1,,,,,,,,,,,,,,,,,,,,,,,,,,,,,,,,,,,,,,,,,,,,,,123,151969,20,Female,1,2024/03/26_08:52:21,YZ,None,
,,,,,,calibration,0,31,2,426,15,X,0,right,0.6755786280000393,1,0,,,,,,,,,,,,,,,,,,,,,1,,,,,,,,,,,,,,,,,,,,,,,,,,,,,,,,,,,,,,,,,,,,,,123,151969,20,Female,1,2024/03/26_08:52:21,YZ,None,
,,,,,,calibration,0,31,2,426,16,V,0,right,0.9344209319999663,1,0,,,,,,,,,,,,,,,,,,,,,1,,,,,,,,,,,,,,,,,,,,,,,,,,,,,,,,,,,,,,,,,,,,,,123,151969,20,Female,1,2024/03/26_08:52:21,YZ,None,
,,,,,,calibration,0,31,2,426,17,X,1,left,0.8185958469998695,1,0,,,,,,,,,,,,,,,,,,,,,1,,,,,,,,,,,,,,,,,,,,,,,,,,,,,,,,,,,,,,,,,,,,,,123,151969,20,Female,1,2024/03/26_08:52:21,YZ,None,
,,,,,,calibration,0,31,2,426,,,,,,,,0.85,0.4,0.0,1.0,0.058823529411764705,0.9411764705882353,0.7031023310625102,2,0,1,0,1,12,14,5,12,0,,,,1,,,,,,,,,,,,,,,,,,,,,,,,,,,,,,,,,,,,,,,,,,,,,,123,151969,20,Female,1,2024/03/26_08:52:21,YZ,None,
,,,,,,Calibration,0,,2,426,,,,,,,,,,,,,,,,,,,,,,,,,9,,,1,,,,,,,,,,,,,,,,,,,,,,,,,,,,,,,,,,,,,,,,,,,,,,123,151969,20,Female,1,2024/03/26_08:52:21,YZ,None,
,,,,,,calibration,0,28,2,426,1,C,0,right,0.8487311970000064,1,0,,,,,,,,,,,,,,,,,,,,,1,,,,,,,,,,,,,,,,,,,,,,,,,,,,,,,,,,,,,,,,,,,,,,123,151969,20,Female,1,2024/03/26_08:52:21,YZ,None,
,,,,,,calibration,0,28,2,426,2,S,0,right,0.7239408929999627,1,0,,,,,,,,,,,,,,,,,,,,,1,,,,,,,,,,,,,,,,,,,,,,,,,,,,,,,,,,,,,,,,,,,,,,123,151969,20,Female,1,2024/03/26_08:52:21,YZ,None,
,,,,,,calibration,0,28,2,426,3,F,0,right,0.5242091640000126,1,0,,,,,,,,,,,,,,,,,,,,,1,,,,,,,,,,,,,,,,,,,,,,,,,,,,,,,,,,,,,,,,,,,,,,123,151969,20,Female,1,2024/03/26_08:52:21,YZ,None,
,,,,,,calibration,0,28,2,426,4,N,0,right,0.6535371369998302,1,0,,,,,,,,,,,,,,,,,,,,,1,,,,,,,,,,,,,,,,,,,,,,,,,,,,,,,,,,,,,,,,,,,,,,123,151969,20,Female,1,2024/03/26_08:52:21,YZ,None,
,,,,,,calibration,0,28,2,426,5,F,1,left,0.7851559620000899,1,0,,,,,,,,,,,,,,,,,,,,,1,,,,,,,,,,,,,,,,,,,,,,,,,,,,,,,,,,,,,,,,,,,,,,123,151969,20,Female,1,2024/03/26_08:52:21,YZ,None,
,,,,,,calibration,0,28,2,426,6,N,1,left,nan,0,1,,,,,,,,,,,,,,,,,,,,,1,,,,,,,,,,,,,,,,,,,,,,,,,,,,,,,,,,,,,,,,,,,,,,123,151969,20,Female,1,2024/03/26_08:52:21,YZ,None,
,,,,,,calibration,0,28,2,426,7,C,0,right,0.7573342830000911,1,0,,,,,,,,,,,,,,,,,,,,,1,,,,,,,,,,,,,,,,,,,,,,,,,,,,,,,,,,,,,,,,,,,,,,123,151969,20,Female,1,2024/03/26_08:52:21,YZ,None,
,,,,,,calibration,0,28,2,426,8,V,0,right,0.638479770999993,1,0,,,,,,,,,,,,,,,,,,,,,1,,,,,,,,,,,,,,,,,,,,,,,,,,,,,,,,,,,,,,,,,,,,,,123,151969,20,Female,1,2024/03/26_08:52:21,YZ,None,
,,,,,,calibration,0,28,2,426,9,J,0,right,0.9190817359999528,1,0,,,,,,,,,,,,,,,,,,,,,1,,,,,,,,,,,,,,,,,,,,,,,,,,,,,,,,,,,,,,,,,,,,,,123,151969,20,Female,1,2024/03/26_08:52:21,YZ,None,
,,,,,,calibration,0,28,2,426,10,V,1,right,0.6019100219998563,0,0,,,,,,,,,,,,,,,,,,,,,1,,,,,,,,,,,,,,,,,,,,,,,,,,,,,,,,,,,,,,,,,,,,,,123,151969,20,Female,1,2024/03/26_08:52:21,YZ,None,
,,,,,,calibration,0,28,2,426,11,S,0,right,0.7420872469999722,1,0,,,,,,,,,,,,,,,,,,,,,1,,,,,,,,,,,,,,,,,,,,,,,,,,,,,,,,,,,,,,,,,,,,,,123,151969,20,Female,1,2024/03/26_08:52:21,YZ,None,
,,,,,,calibration,0,28,2,426,12,X,0,right,0.5668398200000411,1,0,,,,,,,,,,,,,,,,,,,,,1,,,,,,,,,,,,,,,,,,,,,,,,,,,,,,,,,,,,,,,,,,,,,,123,151969,20,Female,1,2024/03/26_08:52:21,YZ,None,
,,,,,,calibration,0,28,2,426,13,F,0,right,0.4956493899999259,1,0,,,,,,,,,,,,,,,,,,,,,1,,,,,,,,,,,,,,,,,,,,,,,,,,,,,,,,,,,,,,,,,,,,,,123,151969,20,Female,1,2024/03/26_08:52:21,YZ,None,
,,,,,,calibration,0,28,2,426,14,X,1,right,0.4522674179997921,0,0,,,,,,,,,,,,,,,,,,,,,1,,,,,,,,,,,,,,,,,,,,,,,,,,,,,,,,,,,,,,,,,,,,,,123,151969,20,Female,1,2024/03/26_08:52:21,YZ,None,
,,,,,,calibration,0,28,2,426,15,F,1,right,0.6494023000000197,0,0,,,,,,,,,,,,,,,,,,,,,1,,,,,,,,,,,,,,,,,,,,,,,,,,,,,,,,,,,,,,,,,,,,,,123,151969,20,Female,1,2024/03/26_08:52:21,YZ,None,
,,,,,,calibration,0,28,2,426,16,S,0,right,0.7092852499999935,1,0,,,,,,,,,,,,,,,,,,,,,1,,,,,,,,,,,,,,,,,,,,,,,,,,,,,,,,,,,,,,,,,,,,,,123,151969,20,Female,1,2024/03/26_08:52:21,YZ,None,
,,,,,,calibration,0,28,2,426,17,J,0,right,0.5900443390000873,1,0,,,,,,,,,,,,,,,,,,,,,1,,,,,,,,,,,,,,,,,,,,,,,,,,,,,,,,,,,,,,,,,,,,,,123,151969,20,Female,1,2024/03/26_08:52:21,YZ,None,
,,,,,,calibration,0,28,2,426,,,,,,,,0.8,0.2,0.0,1.0,0.058823529411764705,0.9411764705882353,0.6661222455624767,1,0,1,0,1,12,13,5,12,0,,,,1,,,,,,,,,,,,,,,,,,,,,,,,,,,,,,,,,,,,,,,,,,,,,,123,151969,20,Female,1,2024/03/26_08:52:21,YZ,None,
,,,,,,Calibration,0,,2,426,,,,,,,,,,,,,,,,,,,,,,,,,10,,,1,,,,,,,,,,,,,,,,,,,,,,,,,,,,,,,,,,,,,,,,,,,,,,123,151969,20,Female,1,2024/03/26_08:52:21,YZ,None,
,,,,,,calibration,0,8,2,426,1,X,0,right,0.6121965059999184,1,0,,,,,,,,,,,,,,,,,,,,,1,,,,,,,,,,,,,,,,,,,,,,,,,,,,,,,,,,,,,,,,,,,,,,123,151969,20,Female,1,2024/03/26_08:52:21,YZ,None,
,,,,,,calibration,0,8,2,426,2,F,0,right,0.5901396770000247,1,0,,,,,,,,,,,,,,,,,,,,,1,,,,,,,,,,,,,,,,,,,,,,,,,,,,,,,,,,,,,,,,,,,,,,123,151969,20,Female,1,2024/03/26_08:52:21,YZ,None,
,,,,,,calibration,0,8,2,426,3,V,0,right,0.8417450360000203,1,0,,,,,,,,,,,,,,,,,,,,,1,,,,,,,,,,,,,,,,,,,,,,,,,,,,,,,,,,,,,,,,,,,,,,123,151969,20,Female,1,2024/03/26_08:52:21,YZ,None,
,,,,,,calibration,0,8,2,426,4,Q,0,right,0.5905312720001348,1,0,,,,,,,,,,,,,,,,,,,,,1,,,,,,,,,,,,,,,,,,,,,,,,,,,,,,,,,,,,,,,,,,,,,,123,151969,20,Female,1,2024/03/26_08:52:21,YZ,None,
,,,,,,calibration,0,8,2,426,5,C,0,right,0.5854603390000648,1,0,,,,,,,,,,,,,,,,,,,,,1,,,,,,,,,,,,,,,,,,,,,,,,,,,,,,,,,,,,,,,,,,,,,,123,151969,20,Female,1,2024/03/26_08:52:21,YZ,None,
,,,,,,calibration,0,8,2,426,6,V,0,left,0.7458573540000089,0,0,,,,,,,,,,,,,,,,,,,,,1,,,,,,,,,,,,,,,,,,,,,,,,,,,,,,,,,,,,,,,,,,,,,,123,151969,20,Female,1,2024/03/26_08:52:21,YZ,None,
,,,,,,calibration,0,8,2,426,7,C,1,right,0.624902751000036,0,0,,,,,,,,,,,,,,,,,,,,,1,,,,,,,,,,,,,,,,,,,,,,,,,,,,,,,,,,,,,,,,,,,,,,123,151969,20,Female,1,2024/03/26_08:52:21,YZ,None,
,,,,,,calibration,0,8,2,426,8,N,0,right,0.7380188700001327,1,0,,,,,,,,,,,,,,,,,,,,,1,,,,,,,,,,,,,,,,,,,,,,,,,,,,,,,,,,,,,,,,,,,,,,123,151969,20,Female,1,2024/03/26_08:52:21,YZ,None,
,,,,,,calibration,0,8,2,426,9,C,1,left,0.571658958999933,1,0,,,,,,,,,,,,,,,,,,,,,1,,,,,,,,,,,,,,,,,,,,,,,,,,,,,,,,,,,,,,,,,,,,,,123,151969,20,Female,1,2024/03/26_08:52:21,YZ,None,
,,,,,,calibration,0,8,2,426,10,Q,0,right,0.7060573189999104,1,0,,,,,,,,,,,,,,,,,,,,,1,,,,,,,,,,,,,,,,,,,,,,,,,,,,,,,,,,,,,,,,,,,,,,123,151969,20,Female,1,2024/03/26_08:52:21,YZ,None,
,,,,,,calibration,0,8,2,426,11,C,1,right,0.8034966870000062,0,0,,,,,,,,,,,,,,,,,,,,,1,,,,,,,,,,,,,,,,,,,,,,,,,,,,,,,,,,,,,,,,,,,,,,123,151969,20,Female,1,2024/03/26_08:52:21,YZ,None,
,,,,,,calibration,0,8,2,426,12,F,0,right,nan,0,1,,,,,,,,,,,,,,,,,,,,,1,,,,,,,,,,,,,,,,,,,,,,,,,,,,,,,,,,,,,,,,,,,,,,123,151969,20,Female,1,2024/03/26_08:52:21,YZ,None,
,,,,,,calibration,0,8,2,426,13,C,1,right,0.0,0,0,,,,,,,,,,,,,,,,,,,,,1,,,,,,,,,,,,,,,,,,,,,,,,,,,,,,,,,,,,,,,,,,,,,,123,151969,20,Female,1,2024/03/26_08:52:21,YZ,None,
,,,,,,calibration,0,8,2,426,14,F,1,right,nan,0,1,,,,,,,,,,,,,,,,,,,,,1,,,,,,,,,,,,,,,,,,,,,,,,,,,,,,,,,,,,,,,,,,,,,,123,151969,20,Female,1,2024/03/26_08:52:21,YZ,None,
,,,,,,calibration,0,8,2,426,15,X,0,left,0.47481275700010883,0,0,,,,,,,,,,,,,,,,,,,,,1,,,,,,,,,,,,,,,,,,,,,,,,,,,,,,,,,,,,,,,,,,,,,,123,151969,20,Female,1,2024/03/26_08:52:21,YZ,None,
,,,,,,calibration,0,8,2,426,16,J,0,right,0.6332876540000143,1,0,,,,,,,,,,,,,,,,,,,,,1,,,,,,,,,,,,,,,,,,,,,,,,,,,,,,,,,,,,,,,,,,,,,,123,151969,20,Female,1,2024/03/26_08:52:21,YZ,None,
,,,,,,calibration,0,8,2,426,17,N,0,right,0.5751463579999836,1,0,,,,,,,,,,,,,,,,,,,,,1,,,,,,,,,,,,,,,,,,,,,,,,,,,,,,,,,,,,,,,,,,,,,,123,151969,20,Female,1,2024/03/26_08:52:21,YZ,None,
,,,,,,calibration,0,8,2,426,,,,,,,,0.55,0.2,0.16666666666666666,0.8181818181818182,0.11764705882352941,0.7156862745098039,0.6062207692666864,1,2,1,1,2,9,10,5,12,0,,,,1,,,,,,,,,,,,,,,,,,,,,,,,,,,,,,,,,,,,,,,,,,,,,,123,151969,20,Female,1,2024/03/26_08:52:21,YZ,None,
,,,,,,Calibration,0,,2,426,,,,,,,,,,,,,,,,,,,,,,,,,11,,,1,,,,,,,,,,,,,,,,,,,,,,,,,,,,,,,,,,,,,,,,,,,,,,123,151969,20,Female,1,2024/03/26_08:52:21,YZ,None,
,,,,,,calibration,0,11,2,500,1,J,0,None,nan,0,1,,,,,,,,,,,,,,,,,,,,,1,,,,,,,,,,,,,,,,,,,,,,,,,,,,,,,,,,,,,,,,,,,,,,123,151969,20,Female,1,2024/03/26_08:52:21,YZ,None,
,,,,,,calibration,0,11,2,500,2,S,0,right,0.8261469270000816,1,0,,,,,,,,,,,,,,,,,,,,,1,,,,,,,,,,,,,,,,,,,,,,,,,,,,,,,,,,,,,,,,,,,,,,123,151969,20,Female,1,2024/03/26_08:52:21,YZ,None,
,,,,,,calibration,0,11,2,500,3,J,1,left,0.9900147409998681,1,0,,,,,,,,,,,,,,,,,,,,,1,,,,,,,,,,,,,,,,,,,,,,,,,,,,,,,,,,,,,,,,,,,,,,123,151969,20,Female,1,2024/03/26_08:52:21,YZ,None,
,,,,,,calibration,0,11,2,500,4,C,0,right,0.5758738289998746,1,0,,,,,,,,,,,,,,,,,,,,,1,,,,,,,,,,,,,,,,,,,,,,,,,,,,,,,,,,,,,,,,,,,,,,123,151969,20,Female,1,2024/03/26_08:52:21,YZ,None,
,,,,,,calibration,0,11,2,500,5,S,0,left,0.6408392579999145,0,0,,,,,,,,,,,,,,,,,,,,,1,,,,,,,,,,,,,,,,,,,,,,,,,,,,,,,,,,,,,,,,,,,,,,123,151969,20,Female,1,2024/03/26_08:52:21,YZ,None,
,,,,,,calibration,0,11,2,500,6,C,1,right,0.5517562820000421,0,0,,,,,,,,,,,,,,,,,,,,,1,,,,,,,,,,,,,,,,,,,,,,,,,,,,,,,,,,,,,,,,,,,,,,123,151969,20,Female,1,2024/03/26_08:52:21,YZ,None,
,,,,,,calibration,0,11,2,500,7,J,0,left,0.763297927999929,0,0,,,,,,,,,,,,,,,,,,,,,1,,,,,,,,,,,,,,,,,,,,,,,,,,,,,,,,,,,,,,,,,,,,,,123,151969,20,Female,1,2024/03/26_08:52:21,YZ,None,
,,,,,,calibration,0,11,2,500,8,N,0,right,0.9651778040001773,1,0,,,,,,,,,,,,,,,,,,,,,1,,,,,,,,,,,,,,,,,,,,,,,,,,,,,,,,,,,,,,,,,,,,,,123,151969,20,Female,1,2024/03/26_08:52:21,YZ,None,
,,,,,,calibration,0,11,2,500,9,V,0,right,0.9411265179999191,1,0,,,,,,,,,,,,,,,,,,,,,1,,,,,,,,,,,,,,,,,,,,,,,,,,,,,,,,,,,,,,,,,,,,,,123,151969,20,Female,1,2024/03/26_08:52:21,YZ,None,
,,,,,,calibration,0,11,2,500,10,N,1,left,0.41420874900018134,1,0,,,,,,,,,,,,,,,,,,,,,1,,,,,,,,,,,,,,,,,,,,,,,,,,,,,,,,,,,,,,,,,,,,,,123,151969,20,Female,1,2024/03/26_08:52:21,YZ,None,
,,,,,,calibration,0,11,2,500,11,C,0,left,nan,0,1,,,,,,,,,,,,,,,,,,,,,1,,,,,,,,,,,,,,,,,,,,,,,,,,,,,,,,,,,,,,,,,,,,,,123,151969,20,Female,1,2024/03/26_08:52:21,YZ,None,
,,,,,,calibration,0,11,2,500,12,S,0,right,0.700750577000008,1,0,,,,,,,,,,,,,,,,,,,,,1,,,,,,,,,,,,,,,,,,,,,,,,,,,,,,,,,,,,,,,,,,,,,,123,151969,20,Female,1,2024/03/26_08:52:21,YZ,None,
,,,,,,calibration,0,11,2,500,13,C,1,left,0.8926160839998829,1,0,,,,,,,,,,,,,,,,,,,,,1,,,,,,,,,,,,,,,,,,,,,,,,,,,,,,,,,,,,,,,,,,,,,,123,151969,20,Female,1,2024/03/26_08:52:21,YZ,None,
,,,,,,calibration,0,11,2,500,14,J,0,right,0.6312353250000342,1,0,,,,,,,,,,,,,,,,,,,,,1,,,,,,,,,,,,,,,,,,,,,,,,,,,,,,,,,,,,,,,,,,,,,,123,151969,20,Female,1,2024/03/26_08:52:21,YZ,None,
,,,,,,calibration,0,11,2,500,15,X,0,right,0.49018061399988255,1,0,,,,,,,,,,,,,,,,,,,,,1,,,,,,,,,,,,,,,,,,,,,,,,,,,,,,,,,,,,,,,,,,,,,,123,151969,20,Female,1,2024/03/26_08:52:21,YZ,None,
,,,,,,calibration,0,11,2,500,16,Q,0,right,0.44048564699983217,1,0,,,,,,,,,,,,,,,,,,,,,1,,,,,,,,,,,,,,,,,,,,,,,,,,,,,,,,,,,,,,,,,,,,,,123,151969,20,Female,1,2024/03/26_08:52:21,YZ,None,
,,,,,,calibration,0,11,2,500,,,,,,,,0.8541666666666667,0.75,0.16666666666666666,0.8,0.125,0.7083333333333334,0.7016935916428305,3,2,0,2,2,8,11,4,12,0,,,,1,,,,,,,,,,,,,,,,,,,,,,,,,,,,,,,,,,,,,,,,,,,,,,123,151969,20,Female,1,2024/03/26_08:52:21,YZ,None,
,,,,,,Calibration,0,,2,500,,,,,,,,,,,,,,,,,,,,,,,,,12,,,1,,,,,,,,,,,,,,,,,,,,,,,,,,,,,,,,,,,,,,,,,,,,,,123,151969,20,Female,1,2024/03/26_08:52:21,YZ,None,
,,,,,,calibration,0,7,2,426,1,N,0,right,0.9475827870001012,1,0,,,,,,,,,,,,,,,,,,,,,1,,,,,,,,,,,,,,,,,,,,,,,,,,,,,,,,,,,,,,,,,,,,,,123,151969,20,Female,1,2024/03/26_08:52:21,YZ,None,
,,,,,,calibration,0,7,2,426,2,S,0,right,0.6842450629999348,1,0,,,,,,,,,,,,,,,,,,,,,1,,,,,,,,,,,,,,,,,,,,,,,,,,,,,,,,,,,,,,,,,,,,,,123,151969,20,Female,1,2024/03/26_08:52:21,YZ,None,
,,,,,,calibration,0,7,2,426,3,Q,0,right,0.75155827399999,1,0,,,,,,,,,,,,,,,,,,,,,1,,,,,,,,,,,,,,,,,,,,,,,,,,,,,,,,,,,,,,,,,,,,,,123,151969,20,Female,1,2024/03/26_08:52:21,YZ,None,
,,,,,,calibration,0,7,2,426,4,C,0,right,0.4909574989999328,1,0,,,,,,,,,,,,,,,,,,,,,1,,,,,,,,,,,,,,,,,,,,,,,,,,,,,,,,,,,,,,,,,,,,,,123,151969,20,Female,1,2024/03/26_08:52:21,YZ,None,
,,,,,,calibration,0,7,2,426,5,Q,1,left,0.6637283420000131,1,0,,,,,,,,,,,,,,,,,,,,,1,,,,,,,,,,,,,,,,,,,,,,,,,,,,,,,,,,,,,,,,,,,,,,123,151969,20,Female,1,2024/03/26_08:52:21,YZ,None,
,,,,,,calibration,0,7,2,426,6,X,0,right,0.47781790199996976,1,0,,,,,,,,,,,,,,,,,,,,,1,,,,,,,,,,,,,,,,,,,,,,,,,,,,,,,,,,,,,,,,,,,,,,123,151969,20,Female,1,2024/03/26_08:52:21,YZ,None,
,,,,,,calibration,0,7,2,426,7,N,0,right,0.7569528129999981,1,0,,,,,,,,,,,,,,,,,,,,,1,,,,,,,,,,,,,,,,,,,,,,,,,,,,,,,,,,,,,,,,,,,,,,123,151969,20,Female,1,2024/03/26_08:52:21,YZ,None,
,,,,,,calibration,0,7,2,426,8,Q,0,right,0.8290046530000836,1,0,,,,,,,,,,,,,,,,,,,,,1,,,,,,,,,,,,,,,,,,,,,,,,,,,,,,,,,,,,,,,,,,,,,,123,151969,20,Female,1,2024/03/26_08:52:21,YZ,None,
,,,,,,calibration,0,7,2,426,9,N,1,left,0.6423213129999112,1,0,,,,,,,,,,,,,,,,,,,,,1,,,,,,,,,,,,,,,,,,,,,,,,,,,,,,,,,,,,,,,,,,,,,,123,151969,20,Female,1,2024/03/26_08:52:21,YZ,None,
,,,,,,calibration,0,7,2,426,10,Q,1,left,0.850909953999917,1,0,,,,,,,,,,,,,,,,,,,,,1,,,,,,,,,,,,,,,,,,,,,,,,,,,,,,,,,,,,,,,,,,,,,,123,151969,20,Female,1,2024/03/26_08:52:21,YZ,None,
,,,,,,calibration,0,7,2,426,11,X,0,right,0.652561556999899,1,0,,,,,,,,,,,,,,,,,,,,,1,,,,,,,,,,,,,,,,,,,,,,,,,,,,,,,,,,,,,,,,,,,,,,123,151969,20,Female,1,2024/03/26_08:52:21,YZ,None,
,,,,,,calibration,0,7,2,426,12,C,0,right,0.5127127060000021,1,0,,,,,,,,,,,,,,,,,,,,,1,,,,,,,,,,,,,,,,,,,,,,,,,,,,,,,,,,,,,,,,,,,,,,123,151969,20,Female,1,2024/03/26_08:52:21,YZ,None,
,,,,,,calibration,0,7,2,426,13,Q,0,right,0.4984031410001535,1,0,,,,,,,,,,,,,,,,,,,,,1,,,,,,,,,,,,,,,,,,,,,,,,,,,,,,,,,,,,,,,,,,,,,,123,151969,20,Female,1,2024/03/26_08:52:21,YZ,None,
,,,,,,calibration,0,7,2,426,14,S,0,right,0.6479717740000979,1,0,,,,,,,,,,,,,,,,,,,,,1,,,,,,,,,,,,,,,,,,,,,,,,,,,,,,,,,,,,,,,,,,,,,,123,151969,20,Female,1,2024/03/26_08:52:21,YZ,None,
,,,,,,calibration,0,7,2,426,15,Q,1,left,0.6485019889998966,1,0,,,,,,,,,,,,,,,,,,,,,1,,,,,,,,,,,,,,,,,,,,,,,,,,,,,,,,,,,,,,,,,,,,,,123,151969,20,Female,1,2024/03/26_08:52:21,YZ,None,
,,,,,,calibration,0,7,2,426,16,S,1,right,0.5578741729998455,0,0,,,,,,,,,,,,,,,,,,,,,1,,,,,,,,,,,,,,,,,,,,,,,,,,,,,,,,,,,,,,,,,,,,,,123,151969,20,Female,1,2024/03/26_08:52:21,YZ,None,
,,,,,,calibration,0,7,2,426,17,X,0,right,0.6181663859999844,1,0,,,,,,,,,,,,,,,,,,,,,1,,,,,,,,,,,,,,,,,,,,,,,,,,,,,,,,,,,,,,,,,,,,,,123,151969,20,Female,1,2024/03/26_08:52:21,YZ,None,
,,,,,,calibration,0,7,2,426,,,,,,,,0.95,0.8,0.0,1.0,0.0,1.0,0.6606629603529254,4,0,0,0,0,12,16,5,12,0,,,,1,,,,,,,,,,,,,,,,,,,,,,,,,,,,,,,,,,,,,,,,,,,,,,123,151969,20,Female,1,2024/03/26_08:52:21,YZ,None,
,,,,,,Calibration,0,,2,426,,,,,,,,,,,,,,,,,,,,,,,,,13,,,1,,,,,,,,,,,,,,,,,,,,,,,,,,,,,,,,,,,,,,,,,,,,,,123,151969,20,Female,1,2024/03/26_08:52:21,YZ,None,
,,,,,,calibration,0,5,2,361,1,N,0,right,0.6167926880000323,1,0,,,,,,,,,,,,,,,,,,,,,1,,,,,,,,,,,,,,,,,,,,,,,,,,,,,,,,,,,,,,,,,,,,,,123,151969,20,Female,1,2024/03/26_08:52:21,YZ,None,
,,,,,,calibration,0,5,2,361,2,Q,0,right,0.6908363170000484,1,0,,,,,,,,,,,,,,,,,,,,,1,,,,,,,,,,,,,,,,,,,,,,,,,,,,,,,,,,,,,,,,,,,,,,123,151969,20,Female,1,2024/03/26_08:52:21,YZ,None,
,,,,,,calibration,0,5,2,361,3,N,1,left,0.4002262220001285,1,0,,,,,,,,,,,,,,,,,,,,,1,,,,,,,,,,,,,,,,,,,,,,,,,,,,,,,,,,,,,,,,,,,,,,123,151969,20,Female,1,2024/03/26_08:52:21,YZ,None,
,,,,,,calibration,0,5,2,361,4,X,0,right,0.4879861479998908,1,0,,,,,,,,,,,,,,,,,,,,,1,,,,,,,,,,,,,,,,,,,,,,,,,,,,,,,,,,,,,,,,,,,,,,123,151969,20,Female,1,2024/03/26_08:52:21,YZ,None,
,,,,,,calibration,0,5,2,361,5,N,1,left,0.5637289720000354,1,0,,,,,,,,,,,,,,,,,,,,,1,,,,,,,,,,,,,,,,,,,,,,,,,,,,,,,,,,,,,,,,,,,,,,123,151969,20,Female,1,2024/03/26_08:52:21,YZ,None,
,,,,,,calibration,0,5,2,361,6,J,0,right,0.5414899089998926,1,0,,,,,,,,,,,,,,,,,,,,,1,,,,,,,,,,,,,,,,,,,,,,,,,,,,,,,,,,,,,,,,,,,,,,123,151969,20,Female,1,2024/03/26_08:52:21,YZ,None,
,,,,,,calibration,0,5,2,361,7,N,1,left,0.490728794000006,1,0,,,,,,,,,,,,,,,,,,,,,1,,,,,,,,,,,,,,,,,,,,,,,,,,,,,,,,,,,,,,,,,,,,,,123,151969,20,Female,1,2024/03/26_08:52:21,YZ,None,
,,,,,,calibration,0,5,2,361,8,J,1,right,0.548903092000046,0,0,,,,,,,,,,,,,,,,,,,,,1,,,,,,,,,,,,,,,,,,,,,,,,,,,,,,,,,,,,,,,,,,,,,,123,151969,20,Female,1,2024/03/26_08:52:21,YZ,None,
,,,,,,calibration,0,5,2,361,9,Q,0,right,nan,0,1,,,,,,,,,,,,,,,,,,,,,1,,,,,,,,,,,,,,,,,,,,,,,,,,,,,,,,,,,,,,,,,,,,,,123,151969,20,Female,1,2024/03/26_08:52:21,YZ,None,
,,,,,,calibration,0,5,2,361,10,S,0,right,0.5642581450001671,1,0,,,,,,,,,,,,,,,,,,,,,1,,,,,,,,,,,,,,,,,,,,,,,,,,,,,,,,,,,,,,,,,,,,,,123,151969,20,Female,1,2024/03/26_08:52:21,YZ,None,
,,,,,,calibration,0,5,2,361,11,V,0,right,0.449600491999945,1,0,,,,,,,,,,,,,,,,,,,,,1,,,,,,,,,,,,,,,,,,,,,,,,,,,,,,,,,,,,,,,,,,,,,,123,151969,20,Female,1,2024/03/26_08:52:21,YZ,None,
,,,,,,calibration,0,5,2,361,12,Q,0,left,0.5983761889999641,0,0,,,,,,,,,,,,,,,,,,,,,1,,,,,,,,,,,,,,,,,,,,,,,,,,,,,,,,,,,,,,,,,,,,,,123,151969,20,Female,1,2024/03/26_08:52:21,YZ,None,
,,,,,,calibration,0,5,2,361,13,X,0,right,0.9762635079998745,1,0,,,,,,,,,,,,,,,,,,,,,1,,,,,,,,,,,,,,,,,,,,,,,,,,,,,,,,,,,,,,,,,,,,,,123,151969,20,Female,1,2024/03/26_08:52:21,YZ,None,
,,,,,,calibration,0,5,2,361,14,J,0,right,0.5746274640000593,1,0,,,,,,,,,,,,,,,,,,,,,1,,,,,,,,,,,,,,,,,,,,,,,,,,,,,,,,,,,,,,,,,,,,,,123,151969,20,Female,1,2024/03/26_08:52:21,YZ,None,
,,,,,,calibration,0,5,2,361,15,X,1,left,0.6574944829999367,1,0,,,,,,,,,,,,,,,,,,,,,1,,,,,,,,,,,,,,,,,,,,,,,,,,,,,,,,,,,,,,,,,,,,,,123,151969,20,Female,1,2024/03/26_08:52:21,YZ,None,
,,,,,,calibration,0,5,2,361,16,V,0,right,0.6391950519998773,1,0,,,,,,,,,,,,,,,,,,,,,1,,,,,,,,,,,,,,,,,,,,,,,,,,,,,,,,,,,,,,,,,,,,,,123,151969,20,Female,1,2024/03/26_08:52:21,YZ,None,
,,,,,,calibration,0,5,2,361,17,F,0,right,0.5196521410000514,1,0,,,,,,,,,,,,,,,,,,,,,1,,,,,,,,,,,,,,,,,,,,,,,,,,,,,,,,,,,,,,,,,,,,,,123,151969,20,Female,1,2024/03/26_08:52:21,YZ,None,
,,,,,,calibration,0,5,2,361,18,S,0,right,0.4214258049998989,1,0,,,,,,,,,,,,,,,,,,,,,1,,,,,,,,,,,,,,,,,,,,,,,,,,,,,,,,,,,,,,,,,,,,,,123,151969,20,Female,1,2024/03/26_08:52:21,YZ,None,
,,,,,,calibration,0,5,2,361,,,,,,,,0.9153846153846155,0.8,0.07692307692307693,0.9166666666666666,0.05555555555555555,0.8675213675213675,0.5730344365294032,4,1,0,1,1,11,15,5,13,0,,,,1,,,,,,,,,,,,,,,,,,,,,,,,,,,,,,,,,,,,,,,,,,,,,,123,151969,20,Female,1,2024/03/26_08:52:21,YZ,None,
,,,,,,Calibration,0,,2,361,,,,,,,,,,,,,,,,,,,,,,,,,14,,,1,,,,,,,,,,,,,,,,,,,,,,,,,,,,,,,,,,,,,,,,,,,,,,123,151969,20,Female,1,2024/03/26_08:52:21,YZ,None,
,,,,,,calibration,0,16,2,303,1,Q,0,right,0.6302912900000592,1,0,,,,,,,,,,,,,,,,,,,,,1,,,,,,,,,,,,,,,,,,,,,,,,,,,,,,,,,,,,,,,,,,,,,,123,151969,20,Female,1,2024/03/26_08:52:21,YZ,None,
,,,,,,calibration,0,16,2,303,2,J,0,right,0.3382285810000667,1,0,,,,,,,,,,,,,,,,,,,,,1,,,,,,,,,,,,,,,,,,,,,,,,,,,,,,,,,,,,,,,,,,,,,,123,151969,20,Female,1,2024/03/26_08:52:21,YZ,None,
,,,,,,calibration,0,16,2,303,3,F,0,right,0.4287653470000805,1,0,,,,,,,,,,,,,,,,,,,,,1,,,,,,,,,,,,,,,,,,,,,,,,,,,,,,,,,,,,,,,,,,,,,,123,151969,20,Female,1,2024/03/26_08:52:21,YZ,None,
,,,,,,calibration,0,16,2,303,4,J,1,left,0.6051109939999151,1,0,,,,,,,,,,,,,,,,,,,,,1,,,,,,,,,,,,,,,,,,,,,,,,,,,,,,,,,,,,,,,,,,,,,,123,151969,20,Female,1,2024/03/26_08:52:21,YZ,None,
,,,,,,calibration,0,16,2,303,5,N,0,right,0.4924426029999722,1,0,,,,,,,,,,,,,,,,,,,,,1,,,,,,,,,,,,,,,,,,,,,,,,,,,,,,,,,,,,,,,,,,,,,,123,151969,20,Female,1,2024/03/26_08:52:21,YZ,None,
,,,,,,calibration,0,16,2,303,6,J,1,left,0.5701869859999533,1,0,,,,,,,,,,,,,,,,,,,,,1,,,,,,,,,,,,,,,,,,,,,,,,,,,,,,,,,,,,,,,,,,,,,,123,151969,20,Female,1,2024/03/26_08:52:21,YZ,None,
,,,,,,calibration,0,16,2,303,7,C,0,right,0.4282539959999667,1,0,,,,,,,,,,,,,,,,,,,,,1,,,,,,,,,,,,,,,,,,,,,,,,,,,,,,,,,,,,,,,,,,,,,,123,151969,20,Female,1,2024/03/26_08:52:21,YZ,None,
,,,,,,calibration,0,16,2,303,8,N,0,right,0.7280249679999997,1,0,,,,,,,,,,,,,,,,,,,,,1,,,,,,,,,,,,,,,,,,,,,,,,,,,,,,,,,,,,,,,,,,,,,,123,151969,20,Female,1,2024/03/26_08:52:21,YZ,None,
,,,,,,calibration,0,16,2,303,9,F,0,right,0.4846775040000466,1,0,,,,,,,,,,,,,,,,,,,,,1,,,,,,,,,,,,,,,,,,,,,,,,,,,,,,,,,,,,,,,,,,,,,,123,151969,20,Female,1,2024/03/26_08:52:21,YZ,None,
,,,,,,calibration,0,16,2,303,10,X,0,right,0.591935383999953,1,0,,,,,,,,,,,,,,,,,,,,,1,,,,,,,,,,,,,,,,,,,,,,,,,,,,,,,,,,,,,,,,,,,,,,123,151969,20,Female,1,2024/03/26_08:52:21,YZ,None,
,,,,,,calibration,0,16,2,303,11,N,0,right,0.584753130000081,1,0,,,,,,,,,,,,,,,,,,,,,1,,,,,,,,,,,,,,,,,,,,,,,,,,,,,,,,,,,,,,,,,,,,,,123,151969,20,Female,1,2024/03/26_08:52:21,YZ,None,
,,,,,,calibration,0,16,2,303,12,Q,0,right,0.7519387639999877,1,0,,,,,,,,,,,,,,,,,,,,,1,,,,,,,,,,,,,,,,,,,,,,,,,,,,,,,,,,,,,,,,,,,,,,123,151969,20,Female,1,2024/03/26_08:52:21,YZ,None,
,,,,,,calibration,0,16,2,303,13,X,0,right,nan,0,1,,,,,,,,,,,,,,,,,,,,,1,,,,,,,,,,,,,,,,,,,,,,,,,,,,,,,,,,,,,,,,,,,,,,123,151969,20,Female,1,2024/03/26_08:52:21,YZ,None,
,,,,,,calibration,0,16,2,303,14,C,0,right,0.4098107910001545,1,0,,,,,,,,,,,,,,,,,,,,,1,,,,,,,,,,,,,,,,,,,,,,,,,,,,,,,,,,,,,,,,,,,,,,123,151969,20,Female,1,2024/03/26_08:52:21,YZ,None,
,,,,,,calibration,0,16,2,303,15,X,1,left,0.5244159379999473,1,0,,,,,,,,,,,,,,,,,,,,,1,,,,,,,,,,,,,,,,,,,,,,,,,,,,,,,,,,,,,,,,,,,,,,123,151969,20,Female,1,2024/03/26_08:52:21,YZ,None,
,,,,,,calibration,0,16,2,303,16,C,1,left,0.705611633999979,1,0,,,,,,,,,,,,,,,,,,,,,1,,,,,,,,,,,,,,,,,,,,,,,,,,,,,,,,,,,,,,,,,,,,,,123,151969,20,Female,1,2024/03/26_08:52:21,YZ,None,
,,,,,,calibration,0,16,2,303,17,V,0,right,0.605699149999964,1,0,,,,,,,,,,,,,,,,,,,,,1,,,,,,,,,,,,,,,,,,,,,,,,,,,,,,,,,,,,,,,,,,,,,,123,151969,20,Female,1,2024/03/26_08:52:21,YZ,None,
,,,,,,calibration,0,16,2,303,18,C,1,left,0.5594263279999723,1,0,,,,,,,,,,,,,,,,,,,,,1,,,,,,,,,,,,,,,,,,,,,,,,,,,,,,,,,,,,,,,,,,,,,,123,151969,20,Female,1,2024/03/26_08:52:21,YZ,None,
,,,,,,calibration,0,16,2,303,19,F,0,right,0.4353705369999261,1,0,,,,,,,,,,,,,,,,,,,,,1,,,,,,,,,,,,,,,,,,,,,,,,,,,,,,,,,,,,,,,,,,,,,,123,151969,20,Female,1,2024/03/26_08:52:21,YZ,None,
,,,,,,calibration,0,16,2,303,,,,,,,,1.0,1.0,0.0,1.0,0.05263157894736842,0.9473684210526316,0.5486079958333347,5,0,0,1,1,13,18,5,14,0,,,,1,,,,,,,,,,,,,,,,,,,,,,,,,,,,,,,,,,,,,,,,,,,,,,123,151969,20,Female,1,2024/03/26_08:52:21,YZ,None,
,,,,,,Calibration,0,,2,303,,,,,,,,,,,,,,,,,,,,,,,,,15,,,1,,,,,,,,,,,,,,,,,,,,,,,,,,,,,,,,,,,,,,,,,,,,,,123,151969,20,Female,1,2024/03/26_08:52:21,YZ,None,
,,,,,,CALIBRATION,0,,,,,,,,,,,,,,,,,,,,,,,,,,,,15,1.0,303,1,,,,,,,,,,,,,,,,,,,,,,,,,,,,,,,,,,,,,,,,,,,,,,123,151969,20,Female,1,2024/03/26_08:52:21,YZ,None,
1,./instructions/inst_prac_1/Slide24.png,right,12.974361041000066,539.5719551159999,552.546316157,,,,,,,,,,,,,,,,,,,,,,,,,,,,,,,,,1,,,,,,,,,,,,,,,,,,,,,,,,,,,,,,,,,,,,,,,,,,,,,,123,151969,20,Female,1,2024/03/26_08:52:21,YZ,None,
2,./instructions/inst_prac_1/Slide25.png,right,4.04973972699986,552.5926571890001,556.6423969159999,,,,,,,,,,,,,,,,,,,,,,,,,,,,,,,,,1,,,,,,,,,,,,,,,,,,,,,,,,,,,,,,,,,,,,,,,,,,,,,,123,151969,20,Female,1,2024/03/26_08:52:21,YZ,None,
3,./instructions/inst_prac_1/Slide26.png,right,1.3388278200000059,556.67951921,558.01834703,,,,,,,,,,,,,,,,,,,,,,,,,,,,,,,,,1,,,,,,,,,,,,,,,,,,,,,,,,,,,,,,,,,,,,,,,,,,,,,,123,151969,20,Female,1,2024/03/26_08:52:21,YZ,None,
4,./instructions/inst_prac_1/Slide27.png,right,0.9164285829999699,558.061951047,558.97837963,,,,,,,,,,,,,,,,,,,,,,,,,,,,,,,,,1,,,,,,,,,,,,,,,,,,,,,,,,,,,,,,,,,,,,,,,,,,,,,,123,151969,20,Female,1,2024/03/26_08:52:21,YZ,None,
5,./instructions/inst_prac_1/Slide28.png,right,0.8911286009999912,559.0152208379999,559.9063494389999,,,,,,,,,,,,,,,,,,,,,,,,,,,,,,,,,1,,,,,,,,,,,,,,,,,,,,,,,,,,,,,,,,,,,,,,,,,,,,,,123,151969,20,Female,1,2024/03/26_08:52:21,YZ,None,
6,./instructions/inst_prac_1/Slide29.png,right,5.1815590719998,559.9488453580001,565.1304044299999,,,,,,,,,,,,,,,,,,,,,,,,,,,,,,,,,1,,,,,,,,,,,,,,,,,,,,,,,,,,,,,,,,,,,,,,,,,,,,,,123,151969,20,Female,1,2024/03/26_08:52:21,YZ,None,
7,./instructions/inst_prac_1/Slide30.png,right,2.1789465639999435,565.17547579,567.3544223539999,,,,,,,,,,,,,,,,,,,,,,,,,,,,,,,,,1,,,,,,,,,,,,,,,,,,,,,,,,,,,,,,,,,,,,,,,,,,,,,,123,151969,20,Female,1,2024/03/26_08:52:21,YZ,None,
,,,,,,practice,0,14,1,1250,1,N,0,right,4.4847140599999875,1,0,,,,,,,,,,,,,,,,,,,,,1,,,,,,,,,,,,,,,,,,,,,,,,,,,,,,,,,,,,,,,,,,,,,,123,151969,20,Female,1,2024/03/26_08:52:21,YZ,None,
,,,,,,practice,0,14,1,1250,2,F,0,right,1.3085382330000357,1,0,,,,,,,,,,,,,,,,,,,,,1,,,,,,,,,,,,,,,,,,,,,,,,,,,,,,,,,,,,,,,,,,,,,,123,151969,20,Female,1,2024/03/26_08:52:21,YZ,None,
,,,,,,practice,0,14,1,1250,3,Q,0,right,0.5645486399998845,1,0,,,,,,,,,,,,,,,,,,,,,1,,,,,,,,,,,,,,,,,,,,,,,,,,,,,,,,,,,,,,,,,,,,,,123,151969,20,Female,1,2024/03/26_08:52:21,YZ,None,
,,,,,,practice,0,14,1,1250,4,Q,1,left,0.6905601070000102,1,0,,,,,,,,,,,,,,,,,,,,,1,,,,,,,,,,,,,,,,,,,,,,,,,,,,,,,,,,,,,,,,,,,,,,123,151969,20,Female,1,2024/03/26_08:52:21,YZ,None,
,,,,,,practice,0,14,1,1250,5,C,0,right,0.7668607670000256,1,0,,,,,,,,,,,,,,,,,,,,,1,,,,,,,,,,,,,,,,,,,,,,,,,,,,,,,,,,,,,,,,,,,,,,123,151969,20,Female,1,2024/03/26_08:52:21,YZ,None,
,,,,,,practice,0,14,1,1250,6,N,0,right,0.7053794159999143,1,0,,,,,,,,,,,,,,,,,,,,,1,,,,,,,,,,,,,,,,,,,,,,,,,,,,,,,,,,,,,,,,,,,,,,123,151969,20,Female,1,2024/03/26_08:52:21,YZ,None,
,,,,,,practice,0,14,1,1250,7,J,0,right,0.6747059099998296,1,0,,,,,,,,,,,,,,,,,,,,,1,,,,,,,,,,,,,,,,,,,,,,,,,,,,,,,,,,,,,,,,,,,,,,123,151969,20,Female,1,2024/03/26_08:52:21,YZ,None,
,,,,,,practice,0,14,1,1250,8,J,1,left,0.6681353930000569,1,0,,,,,,,,,,,,,,,,,,,,,1,,,,,,,,,,,,,,,,,,,,,,,,,,,,,,,,,,,,,,,,,,,,,,123,151969,20,Female,1,2024/03/26_08:52:21,YZ,None,
,,,,,,practice,0,14,1,1250,9,C,0,right,0.7346637030000238,1,0,,,,,,,,,,,,,,,,,,,,,1,,,,,,,,,,,,,,,,,,,,,,,,,,,,,,,,,,,,,,,,,,,,,,123,151969,20,Female,1,2024/03/26_08:52:21,YZ,None,
,,,,,,practice,0,14,1,1250,10,C,1,left,0.5295977539999512,1,0,,,,,,,,,,,,,,,,,,,,,1,,,,,,,,,,,,,,,,,,,,,,,,,,,,,,,,,,,,,,,,,,,,,,123,151969,20,Female,1,2024/03/26_08:52:21,YZ,None,
,,,,,,practice,0,14,1,1250,,,,,,,,1.0,1.0,0.0,1.0,0.0,1.0,1.112770398299972,3,0,0,0,0,7,10,3,7,0,,,,1,,,,,,,,,,,,,,,,,,,,,,,,,,,,,,,,,,,,,,,,,,,,,,123,151969,20,Female,1,2024/03/26_08:52:21,YZ,None,
1,./instructions/inst_prac_1_next/Slide35.png,right,3.6069284979998884,589.011425454,592.6183539519999,,,,,,,,,,,,,,,,,,,,,,,,,,,,,,,,,1,,,,,,,,,,,,,,,,,,,,,,,,,,,,,,,,,,,,,,,,,,,,,,123,151969,20,Female,1,2024/03/26_08:52:21,YZ,None,
,,,,,,practice,0,25,1,303,1,S,0,right,1.6738428080000176,1,0,,,,,,,,,,,,,,,,,,,,,1,,,,,,,,,,,,,,,,,,,,,,,,,,,,,,,,,,,,,,,,,,,,,,123,151969,20,Female,1,2024/03/26_08:52:21,YZ,None,
,,,,,,practice,0,25,1,303,2,V,0,right,0.9925665099999605,1,0,,,,,,,,,,,,,,,,,,,,,1,,,,,,,,,,,,,,,,,,,,,,,,,,,,,,,,,,,,,,,,,,,,,,123,151969,20,Female,1,2024/03/26_08:52:21,YZ,None,
,,,,,,practice,0,25,1,303,3,V,1,left,0.4957579500000975,1,0,,,,,,,,,,,,,,,,,,,,,1,,,,,,,,,,,,,,,,,,,,,,,,,,,,,,,,,,,,,,,,,,,,,,123,151969,20,Female,1,2024/03/26_08:52:21,YZ,None,
,,,,,,practice,0,25,1,303,4,X,0,right,0.6391977410000891,1,0,,,,,,,,,,,,,,,,,,,,,1,,,,,,,,,,,,,,,,,,,,,,,,,,,,,,,,,,,,,,,,,,,,,,123,151969,20,Female,1,2024/03/26_08:52:21,YZ,None,
,,,,,,practice,0,25,1,303,5,C,0,right,0.6925102099999094,1,0,,,,,,,,,,,,,,,,,,,,,1,,,,,,,,,,,,,,,,,,,,,,,,,,,,,,,,,,,,,,,,,,,,,,123,151969,20,Female,1,2024/03/26_08:52:21,YZ,None,
,,,,,,practice,0,25,1,303,6,X,0,right,0.9662027419999504,1,0,,,,,,,,,,,,,,,,,,,,,1,,,,,,,,,,,,,,,,,,,,,,,,,,,,,,,,,,,,,,,,,,,,,,123,151969,20,Female,1,2024/03/26_08:52:21,YZ,None,
,,,,,,practice,0,25,1,303,7,X,1,left,0.677112434000037,1,0,,,,,,,,,,,,,,,,,,,,,1,,,,,,,,,,,,,,,,,,,,,,,,,,,,,,,,,,,,,,,,,,,,,,123,151969,20,Female,1,2024/03/26_08:52:21,YZ,None,
,,,,,,practice,0,25,1,303,8,F,0,right,0.5763588689999324,1,0,,,,,,,,,,,,,,,,,,,,,1,,,,,,,,,,,,,,,,,,,,,,,,,,,,,,,,,,,,,,,,,,,,,,123,151969,20,Female,1,2024/03/26_08:52:21,YZ,None,
,,,,,,practice,0,25,1,303,9,V,0,right,0.6443928120002056,1,0,,,,,,,,,,,,,,,,,,,,,1,,,,,,,,,,,,,,,,,,,,,,,,,,,,,,,,,,,,,,,,,,,,,,123,151969,20,Female,1,2024/03/26_08:52:21,YZ,None,
,,,,,,practice,0,25,1,303,10,V,1,left,0.6448009519999687,1,0,,,,,,,,,,,,,,,,,,,,,1,,,,,,,,,,,,,,,,,,,,,,,,,,,,,,,,,,,,,,,,,,,,,,123,151969,20,Female,1,2024/03/26_08:52:21,YZ,None,
,,,,,,practice,0,25,1,303,11,J,0,right,0.7013238600000022,1,0,,,,,,,,,,,,,,,,,,,,,1,,,,,,,,,,,,,,,,,,,,,,,,,,,,,,,,,,,,,,,,,,,,,,123,151969,20,Female,1,2024/03/26_08:52:21,YZ,None,
,,,,,,practice,0,25,1,303,12,C,0,right,0.7888708390000829,1,0,,,,,,,,,,,,,,,,,,,,,1,,,,,,,,,,,,,,,,,,,,,,,,,,,,,,,,,,,,,,,,,,,,,,123,151969,20,Female,1,2024/03/26_08:52:21,YZ,None,
,,,,,,practice,0,25,1,303,13,J,0,right,0.8009561750000103,1,0,,,,,,,,,,,,,,,,,,,,,1,,,,,,,,,,,,,,,,,,,,,,,,,,,,,,,,,,,,,,,,,,,,,,123,151969,20,Female,1,2024/03/26_08:52:21,YZ,None,
,,,,,,practice,0,25,1,303,14,J,1,left,0.5839062550001017,1,0,,,,,,,,,,,,,,,,,,,,,1,,,,,,,,,,,,,,,,,,,,,,,,,,,,,,,,,,,,,,,,,,,,,,123,151969,20,Female,1,2024/03/26_08:52:21,YZ,None,
,,,,,,practice,0,25,1,303,15,S,0,right,0.793642632000001,1,0,,,,,,,,,,,,,,,,,,,,,1,,,,,,,,,,,,,,,,,,,,,,,,,,,,,,,,,,,,,,,,,,,,,,123,151969,20,Female,1,2024/03/26_08:52:21,YZ,None,
,,,,,,practice,0,25,1,303,16,S,1,left,0.560528745000056,1,0,,,,,,,,,,,,,,,,,,,,,1,,,,,,,,,,,,,,,,,,,,,,,,,,,,,,,,,,,,,,,,,,,,,,123,151969,20,Female,1,2024/03/26_08:52:21,YZ,None,
,,,,,,practice,0,25,1,303,17,V,0,right,0.609590512000068,1,0,,,,,,,,,,,,,,,,,,,,,1,,,,,,,,,,,,,,,,,,,,,,,,,,,,,,,,,,,,,,,,,,,,,,123,151969,20,Female,1,2024/03/26_08:52:21,YZ,None,
,,,,,,practice,0,25,1,303,18,X,0,right,0.843727465000029,1,0,,,,,,,,,,,,,,,,,,,,,1,,,,,,,,,,,,,,,,,,,,,,,,,,,,,,,,,,,,,,,,,,,,,,123,151969,20,Female,1,2024/03/26_08:52:21,YZ,None,
,,,,,,practice,0,25,1,303,19,N,0,right,0.583646243999965,1,0,,,,,,,,,,,,,,,,,,,,,1,,,,,,,,,,,,,,,,,,,,,,,,,,,,,,,,,,,,,,,,,,,,,,123,151969,20,Female,1,2024/03/26_08:52:21,YZ,None,
,,,,,,practice,0,25,1,303,,,,,,,,1.0,1.0,0.0,1.0,0.0,1.0,0.7509966186842361,5,0,0,0,0,14,19,5,14,0,,,,1,,,,,,,,,,,,,,,,,,,,,,,,,,,,,,,,,,,,,,,,,,,,,,123,151969,20,Female,1,2024/03/26_08:52:21,YZ,None,
,,,,,,practice,0,30,1,303,1,J,0,right,1.7752370339999288,1,0,,,,,,,,,,,,,,,,,,,,,1,,,,,,,,,,,,,,,,,,,,,,,,,,,,,,,,,,,,,,,,,,,,,,123,151969,20,Female,1,2024/03/26_08:52:21,YZ,None,
,,,,,,practice,0,30,1,303,2,C,0,right,0.7643076740000652,1,0,,,,,,,,,,,,,,,,,,,,,1,,,,,,,,,,,,,,,,,,,,,,,,,,,,,,,,,,,,,,,,,,,,,,123,151969,20,Female,1,2024/03/26_08:52:21,YZ,None,
,,,,,,practice,0,30,1,303,3,C,1,left,0.6170339109999077,1,0,,,,,,,,,,,,,,,,,,,,,1,,,,,,,,,,,,,,,,,,,,,,,,,,,,,,,,,,,,,,,,,,,,,,123,151969,20,Female,1,2024/03/26_08:52:21,YZ,None,
,,,,,,practice,0,30,1,303,4,Q,0,right,0.5803459530000055,1,0,,,,,,,,,,,,,,,,,,,,,1,,,,,,,,,,,,,,,,,,,,,,,,,,,,,,,,,,,,,,,,,,,,,,123,151969,20,Female,1,2024/03/26_08:52:21,YZ,None,
,,,,,,practice,0,30,1,303,5,X,0,right,0.6117681379998885,1,0,,,,,,,,,,,,,,,,,,,,,1,,,,,,,,,,,,,,,,,,,,,,,,,,,,,,,,,,,,,,,,,,,,,,123,151969,20,Female,1,2024/03/26_08:52:21,YZ,None,
,,,,,,practice,0,30,1,303,6,X,1,left,0.5486639870000545,1,0,,,,,,,,,,,,,,,,,,,,,1,,,,,,,,,,,,,,,,,,,,,,,,,,,,,,,,,,,,,,,,,,,,,,123,151969,20,Female,1,2024/03/26_08:52:21,YZ,None,
,,,,,,practice,0,30,1,303,7,F,0,right,0.5002292070000749,1,0,,,,,,,,,,,,,,,,,,,,,1,,,,,,,,,,,,,,,,,,,,,,,,,,,,,,,,,,,,,,,,,,,,,,123,151969,20,Female,1,2024/03/26_08:52:21,YZ,None,
,,,,,,practice,0,30,1,303,8,Q,0,right,0.9673618279998664,1,0,,,,,,,,,,,,,,,,,,,,,1,,,,,,,,,,,,,,,,,,,,,,,,,,,,,,,,,,,,,,,,,,,,,,123,151969,20,Female,1,2024/03/26_08:52:21,YZ,None,
,,,,,,practice,0,30,1,303,9,F,0,right,0.8642180830001962,1,0,,,,,,,,,,,,,,,,,,,,,1,,,,,,,,,,,,,,,,,,,,,,,,,,,,,,,,,,,,,,,,,,,,,,123,151969,20,Female,1,2024/03/26_08:52:21,YZ,None,
,,,,,,practice,0,30,1,303,10,V,0,right,0.5880800390000331,1,0,,,,,,,,,,,,,,,,,,,,,1,,,,,,,,,,,,,,,,,,,,,,,,,,,,,,,,,,,,,,,,,,,,,,123,151969,20,Female,1,2024/03/26_08:52:21,YZ,None,
,,,,,,practice,0,30,1,303,11,Q,0,right,0.5735484239999096,1,0,,,,,,,,,,,,,,,,,,,,,1,,,,,,,,,,,,,,,,,,,,,,,,,,,,,,,,,,,,,,,,,,,,,,123,151969,20,Female,1,2024/03/26_08:52:21,YZ,None,
,,,,,,practice,0,30,1,303,12,Q,1,left,0.4761508940000567,1,0,,,,,,,,,,,,,,,,,,,,,1,,,,,,,,,,,,,,,,,,,,,,,,,,,,,,,,,,,,,,,,,,,,,,123,151969,20,Female,1,2024/03/26_08:52:21,YZ,None,
,,,,,,practice,0,30,1,303,13,J,0,right,0.569170473999975,1,0,,,,,,,,,,,,,,,,,,,,,1,,,,,,,,,,,,,,,,,,,,,,,,,,,,,,,,,,,,,,,,,,,,,,123,151969,20,Female,1,2024/03/26_08:52:21,YZ,None,
,,,,,,practice,0,30,1,303,14,C,0,right,0.7892197129999659,1,0,,,,,,,,,,,,,,,,,,,,,1,,,,,,,,,,,,,,,,,,,,,,,,,,,,,,,,,,,,,,,,,,,,,,123,151969,20,Female,1,2024/03/26_08:52:21,YZ,None,
,,,,,,practice,0,30,1,303,15,Q,0,right,0.685488272999919,1,0,,,,,,,,,,,,,,,,,,,,,1,,,,,,,,,,,,,,,,,,,,,,,,,,,,,,,,,,,,,,,,,,,,,,123,151969,20,Female,1,2024/03/26_08:52:21,YZ,None,
,,,,,,practice,0,30,1,303,16,Q,1,left,0.5658703200001582,1,0,,,,,,,,,,,,,,,,,,,,,1,,,,,,,,,,,,,,,,,,,,,,,,,,,,,,,,,,,,,,,,,,,,,,123,151969,20,Female,1,2024/03/26_08:52:21,YZ,None,
,,,,,,practice,0,30,1,303,17,V,0,right,0.555651805000025,1,0,,,,,,,,,,,,,,,,,,,,,1,,,,,,,,,,,,,,,,,,,,,,,,,,,,,,,,,,,,,,,,,,,,,,123,151969,20,Female,1,2024/03/26_08:52:21,YZ,None,
,,,,,,practice,0,30,1,303,18,N,0,right,0.7252223010000307,1,0,,,,,,,,,,,,,,,,,,,,,1,,,,,,,,,,,,,,,,,,,,,,,,,,,,,,,,,,,,,,,,,,,,,,123,151969,20,Female,1,2024/03/26_08:52:21,YZ,None,
,,,,,,practice,0,30,1,303,19,N,1,left,0.44555847099991297,1,0,,,,,,,,,,,,,,,,,,,,,1,,,,,,,,,,,,,,,,,,,,,,,,,,,,,,,,,,,,,,,,,,,,,,123,151969,20,Female,1,2024/03/26_08:52:21,YZ,None,
,,,,,,practice,0,30,1,303,,,,,,,,1.0,1.0,0.0,1.0,0.0,1.0,0.6949013962631565,5,0,0,0,0,14,19,5,14,0,,,,1,,,,,,,,,,,,,,,,,,,,,,,,,,,,,,,,,,,,,,,,,,,,,,123,151969,20,Female,1,2024/03/26_08:52:21,YZ,None,
1,./instructions/inst_prac_3/Slide37.png,right,10.309240403999866,644.093144409,654.4023848129999,,,,,,,,,,,,,,,,,,,,,,,,,,,,,,,,,1,,,,,,,,,,,,,,,,,,,,,,,,,,,,,,,,,,,,,,,,,,,,,,123,151969,20,Female,1,2024/03/26_08:52:21,YZ,None,
2,./instructions/inst_prac_3/Slide38.png,right,6.272375034999868,654.4499845920001,660.722359627,,,,,,,,,,,,,,,,,,,,,,,,,,,,,,,,,1,,,,,,,,,,,,,,,,,,,,,,,,,,,,,,,,,,,,,,,,,,,,,,123,151969,20,Female,1,2024/03/26_08:52:21,YZ,None,
3,./instructions/inst_prac_3/Slide39.png,right,0.9363390850000997,660.7620480679999,661.698387153,,,,,,,,,,,,,,,,,,,,,,,,,,,,,,,,,1,,,,,,,,,,,,,,,,,,,,,,,,,,,,,,,,,,,,,,,,,,,,,,123,151969,20,Female,1,2024/03/26_08:52:21,YZ,None,
4,./instructions/inst_prac_3/Slide40.png,right,1.071659752999949,661.738653297,662.81031305,,,,,,,,,,,,,,,,,,,,,,,,,,,,,,,,,1,,,,,,,,,,,,,,,,,,,,,,,,,,,,,,,,,,,,,,,,,,,,,,123,151969,20,Female,1,2024/03/26_08:52:21,YZ,None,
5,./instructions/inst_prac_3/Slide41.png,right,3.3109034090000478,662.8514634459999,666.162366855,,,,,,,,,,,,,,,,,,,,,,,,,,,,,,,,,1,,,,,,,,,,,,,,,,,,,,,,,,,,,,,,,,,,,,,,,,,,,,,,123,151969,20,Female,1,2024/03/26_08:52:21,YZ,None,
6,./instructions/inst_prac_3/Slide42.png,right,1.2188025760001437,666.2075450209999,667.426347597,,,,,,,,,,,,,,,,,,,,,,,,,,,,,,,,,1,,,,,,,,,,,,,,,,,,,,,,,,,,,,,,,,,,,,,,,,,,,,,,123,151969,20,Female,1,2024/03/26_08:52:21,YZ,None,
7,./instructions/inst_prac_3/Slide43.png,right,2.079610806999881,667.474733873,669.5543446799999,,,,,,,,,,,,,,,,,,,,,,,,,,,,,,,,,1,,,,,,,,,,,,,,,,,,,,,,,,,,,,,,,,,,,,,,,,,,,,,,123,151969,20,Female,1,2024/03/26_08:52:21,YZ,None,
8,./instructions/inst_prac_3/Slide44.png,right,1.4474218729999393,669.594995411,671.042417284,,,,,,,,,,,,,,,,,,,,,,,,,,,,,,,,,1,,,,,,,,,,,,,,,,,,,,,,,,,,,,,,,,,,,,,,,,,,,,,,123,151969,20,Female,1,2024/03/26_08:52:21,YZ,None,
,,,,,,practice,0,15,3,788,1,S,0,right,2.1220372410000437,1,0,,,,,,,,,,,,,,,,,,,,,1,,,,,,,,,,,,,,,,,,,,,,,,,,,,,,,,,,,,,,,,,,,,,,123,151969,20,Female,1,2024/03/26_08:52:21,YZ,None,
,,,,,,practice,0,15,3,788,2,F,0,right,0.8081276339999022,1,0,,,,,,,,,,,,,,,,,,,,,1,,,,,,,,,,,,,,,,,,,,,,,,,,,,,,,,,,,,,,,,,,,,,,123,151969,20,Female,1,2024/03/26_08:52:21,YZ,None,
,,,,,,practice,0,15,3,788,3,Q,0,right,0.5405383649999749,1,0,,,,,,,,,,,,,,,,,,,,,1,,,,,,,,,,,,,,,,,,,,,,,,,,,,,,,,,,,,,,,,,,,,,,123,151969,20,Female,1,2024/03/26_08:52:21,YZ,None,
,,,,,,practice,0,15,3,788,4,S,1,left,0.7773920219999582,1,0,,,,,,,,,,,,,,,,,,,,,1,,,,,,,,,,,,,,,,,,,,,,,,,,,,,,,,,,,,,,,,,,,,,,123,151969,20,Female,1,2024/03/26_08:52:21,YZ,None,
,,,,,,practice,0,15,3,788,5,Q,0,right,1.398674488000097,1,0,,,,,,,,,,,,,,,,,,,,,1,,,,,,,,,,,,,,,,,,,,,,,,,,,,,,,,,,,,,,,,,,,,,,123,151969,20,Female,1,2024/03/26_08:52:21,YZ,None,
,,,,,,practice,0,15,3,788,6,J,0,right,1.1099211329999434,1,0,,,,,,,,,,,,,,,,,,,,,1,,,,,,,,,,,,,,,,,,,,,,,,,,,,,,,,,,,,,,,,,,,,,,123,151969,20,Female,1,2024/03/26_08:52:21,YZ,None,
,,,,,,practice,0,15,3,788,7,X,0,right,0.6198884160000944,1,0,,,,,,,,,,,,,,,,,,,,,1,,,,,,,,,,,,,,,,,,,,,,,,,,,,,,,,,,,,,,,,,,,,,,123,151969,20,Female,1,2024/03/26_08:52:21,YZ,None,
,,,,,,practice,0,15,3,788,8,S,0,right,0.8254865500000506,1,0,,,,,,,,,,,,,,,,,,,,,1,,,,,,,,,,,,,,,,,,,,,,,,,,,,,,,,,,,,,,,,,,,,,,123,151969,20,Female,1,2024/03/26_08:52:21,YZ,None,
,,,,,,practice,0,15,3,788,9,J,1,left,0.7179287299998123,1,0,,,,,,,,,,,,,,,,,,,,,1,,,,,,,,,,,,,,,,,,,,,,,,,,,,,,,,,,,,,,,,,,,,,,123,151969,20,Female,1,2024/03/26_08:52:21,YZ,None,
,,,,,,practice,0,15,3,788,10,C,0,right,0.9979805789998863,1,0,,,,,,,,,,,,,,,,,,,,,1,,,,,,,,,,,,,,,,,,,,,,,,,,,,,,,,,,,,,,,,,,,,,,123,151969,20,Female,1,2024/03/26_08:52:21,YZ,None,
,,,,,,practice,0,15,3,788,11,S,1,left,0.7952843470000062,1,0,,,,,,,,,,,,,,,,,,,,,1,,,,,,,,,,,,,,,,,,,,,,,,,,,,,,,,,,,,,,,,,,,,,,123,151969,20,Female,1,2024/03/26_08:52:21,YZ,None,
,,,,,,practice,0,15,3,788,12,J,1,left,1.0120123350000085,1,0,,,,,,,,,,,,,,,,,,,,,1,,,,,,,,,,,,,,,,,,,,,,,,,,,,,,,,,,,,,,,,,,,,,,123,151969,20,Female,1,2024/03/26_08:52:21,YZ,None,
,,,,,,practice,0,15,3,788,13,J,0,right,1.0380487480001648,1,0,,,,,,,,,,,,,,,,,,,,,1,,,,,,,,,,,,,,,,,,,,,,,,,,,,,,,,,,,,,,,,,,,,,,123,151969,20,Female,1,2024/03/26_08:52:21,YZ,None,
,,,,,,practice,0,15,3,788,,,,,,,,1.0,1.0,0.0,1.0,0.0,1.0,0.9817938913846109,4,0,0,0,0,9,13,4,9,0,,,,1,,,,,,,,,,,,,,,,,,,,,,,,,,,,,,,,,,,,,,,,,,,,,,123,151969,20,Female,1,2024/03/26_08:52:21,YZ,None,
1,./instructions/inst_prac_3_next/Slide49.png,right,3.311832523000021,697.498438947,700.81027147,,,,,,,,,,,,,,,,,,,,,,,,,,,,,,,,,1,,,,,,,,,,,,,,,,,,,,,,,,,,,,,,,,,,,,,,,,,,,,,,123,151969,20,Female,1,2024/03/26_08:52:21,YZ,None,
,,,,,,practice,0,3,3,303,1,X,0,right,1.6706453280000915,1,0,,,,,,,,,,,,,,,,,,,,,1,,,,,,,,,,,,,,,,,,,,,,,,,,,,,,,,,,,,,,,,,,,,,,123,151969,20,Female,1,2024/03/26_08:52:21,YZ,None,
,,,,,,practice,0,3,3,303,2,F,0,right,1.111911788000043,1,0,,,,,,,,,,,,,,,,,,,,,1,,,,,,,,,,,,,,,,,,,,,,,,,,,,,,,,,,,,,,,,,,,,,,123,151969,20,Female,1,2024/03/26_08:52:21,YZ,None,
,,,,,,practice,0,3,3,303,3,F,0,right,0.8597555270000612,1,0,,,,,,,,,,,,,,,,,,,,,1,,,,,,,,,,,,,,,,,,,,,,,,,,,,,,,,,,,,,,,,,,,,,,123,151969,20,Female,1,2024/03/26_08:52:21,YZ,None,
,,,,,,practice,0,3,3,303,4,N,0,right,1.6844503429999804,1,0,,,,,,,,,,,,,,,,,,,,,1,,,,,,,,,,,,,,,,,,,,,,,,,,,,,,,,,,,,,,,,,,,,,,123,151969,20,Female,1,2024/03/26_08:52:21,YZ,None,
,,,,,,practice,0,3,3,303,5,F,1,left,1.2169018940001024,1,0,,,,,,,,,,,,,,,,,,,,,1,,,,,,,,,,,,,,,,,,,,,,,,,,,,,,,,,,,,,,,,,,,,,,123,151969,20,Female,1,2024/03/26_08:52:21,YZ,None,
,,,,,,practice,0,3,3,303,6,V,0,right,2.6361552119999487,1,0,,,,,,,,,,,,,,,,,,,,,1,,,,,,,,,,,,,,,,,,,,,,,,,,,,,,,,,,,,,,,,,,,,,,123,151969,20,Female,1,2024/03/26_08:52:21,YZ,None,
,,,,,,practice,0,3,3,303,7,N,1,left,2.3444406940000135,1,0,,,,,,,,,,,,,,,,,,,,,1,,,,,,,,,,,,,,,,,,,,,,,,,,,,,,,,,,,,,,,,,,,,,,123,151969,20,Female,1,2024/03/26_08:52:21,YZ,None,
,,,,,,practice,0,3,3,303,8,V,0,right,1.135232897999913,1,0,,,,,,,,,,,,,,,,,,,,,1,,,,,,,,,,,,,,,,,,,,,,,,,,,,,,,,,,,,,,,,,,,,,,123,151969,20,Female,1,2024/03/26_08:52:21,YZ,None,
,,,,,,practice,0,3,3,303,9,V,1,left,0.8335496369998054,1,0,,,,,,,,,,,,,,,,,,,,,1,,,,,,,,,,,,,,,,,,,,,,,,,,,,,,,,,,,,,,,,,,,,,,123,151969,20,Female,1,2024/03/26_08:52:21,YZ,None,
,,,,,,practice,0,3,3,303,10,J,0,right,1.0340671559999919,1,0,,,,,,,,,,,,,,,,,,,,,1,,,,,,,,,,,,,,,,,,,,,,,,,,,,,,,,,,,,,,,,,,,,,,123,151969,20,Female,1,2024/03/26_08:52:21,YZ,None,
,,,,,,practice,0,3,3,303,11,J,0,right,0.8080582829998093,1,0,,,,,,,,,,,,,,,,,,,,,1,,,,,,,,,,,,,,,,,,,,,,,,,,,,,,,,,,,,,,,,,,,,,,123,151969,20,Female,1,2024/03/26_08:52:21,YZ,None,
,,,,,,practice,0,3,3,303,12,F,0,left,1.4078247009999814,0,0,,,,,,,,,,,,,,,,,,,,,1,,,,,,,,,,,,,,,,,,,,,,,,,,,,,,,,,,,,,,,,,,,,,,123,151969,20,Female,1,2024/03/26_08:52:21,YZ,None,
,,,,,,practice,0,3,3,303,13,V,0,left,3.4951389809998545,0,0,,,,,,,,,,,,,,,,,,,,,1,,,,,,,,,,,,,,,,,,,,,,,,,,,,,,,,,,,,,,,,,,,,,,123,151969,20,Female,1,2024/03/26_08:52:21,YZ,None,
,,,,,,practice,0,3,3,303,14,C,0,right,1.8333014869999715,1,0,,,,,,,,,,,,,,,,,,,,,1,,,,,,,,,,,,,,,,,,,,,,,,,,,,,,,,,,,,,,,,,,,,,,123,151969,20,Female,1,2024/03/26_08:52:21,YZ,None,
,,,,,,practice,0,3,3,303,15,V,0,right,0.9529999649998899,1,0,,,,,,,,,,,,,,,,,,,,,1,,,,,,,,,,,,,,,,,,,,,,,,,,,,,,,,,,,,,,,,,,,,,,123,151969,20,Female,1,2024/03/26_08:52:21,YZ,None,
,,,,,,practice,0,3,3,303,16,V,1,left,0.7483101589998569,1,0,,,,,,,,,,,,,,,,,,,,,1,,,,,,,,,,,,,,,,,,,,,,,,,,,,,,,,,,,,,,,,,,,,,,123,151969,20,Female,1,2024/03/26_08:52:21,YZ,None,
,,,,,,practice,0,3,3,303,17,X,0,right,1.3441849630000888,1,0,,,,,,,,,,,,,,,,,,,,,1,,,,,,,,,,,,,,,,,,,,,,,,,,,,,,,,,,,,,,,,,,,,,,123,151969,20,Female,1,2024/03/26_08:52:21,YZ,None,
,,,,,,practice,0,3,3,303,18,V,1,left,1.2471734259997902,1,0,,,,,,,,,,,,,,,,,,,,,1,,,,,,,,,,,,,,,,,,,,,,,,,,,,,,,,,,,,,,,,,,,,,,123,151969,20,Female,1,2024/03/26_08:52:21,YZ,None,
,,,,,,practice,0,3,3,303,19,V,1,left,0.7162777959999858,1,0,,,,,,,,,,,,,,,,,,,,,1,,,,,,,,,,,,,,,,,,,,,,,,,,,,,,,,,,,,,,,,,,,,,,123,151969,20,Female,1,2024/03/26_08:52:21,YZ,None,
,,,,,,practice,0,3,3,303,,,,,,,,0.9615384615384616,1.0,0.15384615384615385,0.8461538461538461,0.0,0.8461538461538461,1.4252831704210094,6,2,0,0,0,11,17,6,13,0,,,,1,,,,,,,,,,,,,,,,,,,,,,,,,,,,,,,,,,,,,,,,,,,,,,123,151969,20,Female,1,2024/03/26_08:52:21,YZ,None,
,,,,,,practice,0,15,3,303,1,Q,0,right,1.7245987240000886,1,0,,,,,,,,,,,,,,,,,,,,,1,,,,,,,,,,,,,,,,,,,,,,,,,,,,,,,,,,,,,,,,,,,,,,123,151969,20,Female,1,2024/03/26_08:52:21,YZ,None,
,,,,,,practice,0,15,3,303,2,S,0,right,2.105518340999879,1,0,,,,,,,,,,,,,,,,,,,,,1,,,,,,,,,,,,,,,,,,,,,,,,,,,,,,,,,,,,,,,,,,,,,,123,151969,20,Female,1,2024/03/26_08:52:21,YZ,None,
,,,,,,practice,0,15,3,303,3,S,0,right,1.4847603500002151,1,0,,,,,,,,,,,,,,,,,,,,,1,,,,,,,,,,,,,,,,,,,,,,,,,,,,,,,,,,,,,,,,,,,,,,123,151969,20,Female,1,2024/03/26_08:52:21,YZ,None,
,,,,,,practice,0,15,3,303,4,X,0,right,1.0637456760000532,1,0,,,,,,,,,,,,,,,,,,,,,1,,,,,,,,,,,,,,,,,,,,,,,,,,,,,,,,,,,,,,,,,,,,,,123,151969,20,Female,1,2024/03/26_08:52:21,YZ,None,
,,,,,,practice,0,15,3,303,5,V,0,right,1.9646745830000327,1,0,,,,,,,,,,,,,,,,,,,,,1,,,,,,,,,,,,,,,,,,,,,,,,,,,,,,,,,,,,,,,,,,,,,,123,151969,20,Female,1,2024/03/26_08:52:21,YZ,None,
,,,,,,practice,0,15,3,303,6,N,0,right,1.7475007590001042,1,0,,,,,,,,,,,,,,,,,,,,,1,,,,,,,,,,,,,,,,,,,,,,,,,,,,,,,,,,,,,,,,,,,,,,123,151969,20,Female,1,2024/03/26_08:52:21,YZ,None,
,,,,,,practice,0,15,3,303,7,J,0,right,1.432362989000012,1,0,,,,,,,,,,,,,,,,,,,,,1,,,,,,,,,,,,,,,,,,,,,,,,,,,,,,,,,,,,,,,,,,,,,,123,151969,20,Female,1,2024/03/26_08:52:21,YZ,None,
,,,,,,practice,0,15,3,303,8,N,0,left,4.314294174999986,0,0,,,,,,,,,,,,,,,,,,,,,1,,,,,,,,,,,,,,,,,,,,,,,,,,,,,,,,,,,,,,,,,,,,,,123,151969,20,Female,1,2024/03/26_08:52:21,YZ,None,
,,,,,,practice,0,15,3,303,9,F,0,right,2.0694036719999076,1,0,,,,,,,,,,,,,,,,,,,,,1,,,,,,,,,,,,,,,,,,,,,,,,,,,,,,,,,,,,,,,,,,,,,,123,151969,20,Female,1,2024/03/26_08:52:21,YZ,None,
,,,,,,practice,0,15,3,303,10,J,1,left,1.2151397719999295,1,0,,,,,,,,,,,,,,,,,,,,,1,,,,,,,,,,,,,,,,,,,,,,,,,,,,,,,,,,,,,,,,,,,,,,123,151969,20,Female,1,2024/03/26_08:52:21,YZ,None,
,,,,,,practice,0,15,3,303,11,N,1,left,1.2923052709998046,1,0,,,,,,,,,,,,,,,,,,,,,1,,,,,,,,,,,,,,,,,,,,,,,,,,,,,,,,,,,,,,,,,,,,,,123,151969,20,Female,1,2024/03/26_08:52:21,YZ,None,
,,,,,,practice,0,15,3,303,12,N,0,right,0.8739892449998479,1,0,,,,,,,,,,,,,,,,,,,,,1,,,,,,,,,,,,,,,,,,,,,,,,,,,,,,,,,,,,,,,,,,,,,,123,151969,20,Female,1,2024/03/26_08:52:21,YZ,None,
,,,,,,practice,0,15,3,303,13,J,1,left,0.993636314000014,1,0,,,,,,,,,,,,,,,,,,,,,1,,,,,,,,,,,,,,,,,,,,,,,,,,,,,,,,,,,,,,,,,,,,,,123,151969,20,Female,1,2024/03/26_08:52:21,YZ,None,
,,,,,,practice,0,15,3,303,14,N,1,left,0.9729435540000395,1,0,,,,,,,,,,,,,,,,,,,,,1,,,,,,,,,,,,,,,,,,,,,,,,,,,,,,,,,,,,,,,,,,,,,,123,151969,20,Female,1,2024/03/26_08:52:21,YZ,None,
,,,,,,practice,0,15,3,303,15,V,0,right,1.6446190100000422,1,0,,,,,,,,,,,,,,,,,,,,,1,,,,,,,,,,,,,,,,,,,,,,,,,,,,,,,,,,,,,,,,,,,,,,123,151969,20,Female,1,2024/03/26_08:52:21,YZ,None,
,,,,,,practice,0,15,3,303,16,X,0,right,0.6706871220001176,1,0,,,,,,,,,,,,,,,,,,,,,1,,,,,,,,,,,,,,,,,,,,,,,,,,,,,,,,,,,,,,,,,,,,,,123,151969,20,Female,1,2024/03/26_08:52:21,YZ,None,
,,,,,,practice,0,15,3,303,17,C,0,right,0.7731582739997975,1,0,,,,,,,,,,,,,,,,,,,,,1,,,,,,,,,,,,,,,,,,,,,,,,,,,,,,,,,,,,,,,,,,,,,,123,151969,20,Female,1,2024/03/26_08:52:21,YZ,None,
,,,,,,practice,0,15,3,303,18,V,1,left,0.7921907079999073,1,0,,,,,,,,,,,,,,,,,,,,,1,,,,,,,,,,,,,,,,,,,,,,,,,,,,,,,,,,,,,,,,,,,,,,123,151969,20,Female,1,2024/03/26_08:52:21,YZ,None,
,,,,,,practice,0,15,3,303,19,X,1,left,1.0874921370000266,1,0,,,,,,,,,,,,,,,,,,,,,1,,,,,,,,,,,,,,,,,,,,,,,,,,,,,,,,,,,,,,,,,,,,,,123,151969,20,Female,1,2024/03/26_08:52:21,YZ,None,
,,,,,,practice,0,15,3,303,,,,,,,,0.9807692307692308,1.0,0.07692307692307693,0.9230769230769231,0.0,0.9230769230769231,1.4854221408420951,6,1,0,0,0,12,18,6,13,0,,,,1,,,,,,,,,,,,,,,,,,,,,,,,,,,,,,,,,,,,,,,,,,,,,,123,151969,20,Female,1,2024/03/26_08:52:21,YZ,None,
1,./instructions/inst_prac_main/Slide51.png,right,2.389389584000128,780.2208872759999,782.61027686,,,,,,,,,,,,,,,,,,,,,,,,,,,,,,,,,1,,,,,,,,,,,,,,,,,,,,,,,,,,,,,,,,,,,,,,,,,,,,,,123,151969,20,Female,1,2024/03/26_08:52:21,YZ,None,
2,./instructions/inst_prac_main/Slide52.png,right,9.741423691000136,782.6449539849999,792.386377676,,,,,,,,,,,,,,,,,,,,,,,,,,,,,,,,,1,,,,,,,,,,,,,,,,,,,,,,,,,,,,,,,,,,,,,,,,,,,,,,123,151969,20,Female,1,2024/03/26_08:52:21,YZ,None,
3,./instructions/inst_prac_main/Slide53.png,right,8.655580597999915,792.426735574,801.0823161719999,,,,,,,,,,,,,,,,,,,,,,,,,,,,,,,,,1,,,,,,,,,,,,,,,,,,,,,,,,,,,,,,,,,,,,,,,,,,,,,,123,151969,20,Female,1,2024/03/26_08:52:21,YZ,None,
4,./instructions/inst_prac_main/Slide54.png,right,9.933858399999963,801.124704379,811.058562779,,,,,,,,,,,,,,,,,,,,,,,,,,,,,,,,,1,,,,,,,,,,,,,,,,,,,,,,,,,,,,,,,,,,,,,,,,,,,,,,123,151969,20,Female,1,2024/03/26_08:52:21,YZ,None,
,,,,,,practice_main,0,1,3,303,1,F,0,None,nan,0,1,,,,,,,,,,,,,,,,,,,,,1,,,,,,,,,,,,,,,,,,,,,,,,,,,,,,,,,,,,,,,,,,,,,,123,151969,20,Female,1,2024/03/26_08:52:21,YZ,None,
,,,,,,practice_main,0,1,3,303,2,N,0,right,0.23141035000003285,1,0,,,,,,,,,,,,,,,,,,,,,1,,,,,,,,,,,,,,,,,,,,,,,,,,,,,,,,,,,,,,,,,,,,,,123,151969,20,Female,1,2024/03/26_08:52:21,YZ,None,
,,,,,,practice_main,0,1,3,303,3,S,0,right,0.20855945499988593,1,0,,,,,,,,,,,,,,,,,,,,,1,,,,,,,,,,,,,,,,,,,,,,,,,,,,,,,,,,,,,,,,,,,,,,123,151969,20,Female,1,2024/03/26_08:52:21,YZ,None,
,,,,,,practice_main,0,1,3,303,4,N,0,right,0.0004298500000459171,1,0,,,,,,,,,,,,,,,,,,,,,1,,,,,,,,,,,,,,,,,,,,,,,,,,,,,,,,,,,,,,,,,,,,,,123,151969,20,Female,1,2024/03/26_08:52:21,YZ,None,
,,,,,,practice_main,0,1,3,303,5,X,0,right,0.0,1,0,,,,,,,,,,,,,,,,,,,,,1,,,,,,,,,,,,,,,,,,,,,,,,,,,,,,,,,,,,,,,,,,,,,,123,151969,20,Female,1,2024/03/26_08:52:21,YZ,None,
,,,,,,practice_main,0,1,3,303,6,S,1,right,0.5096072030000869,0,0,,,,,,,,,,,,,,,,,,,,,1,,,,,,,,,,,,,,,,,,,,,,,,,,,,,,,,,,,,,,,,,,,,,,123,151969,20,Female,1,2024/03/26_08:52:21,YZ,None,
,,,,,,practice_main,0,1,3,303,7,N,1,left,0.6119714719998228,1,0,,,,,,,,,,,,,,,,,,,,,1,,,,,,,,,,,,,,,,,,,,,,,,,,,,,,,,,,,,,,,,,,,,,,123,151969,20,Female,1,2024/03/26_08:52:21,YZ,None,
,,,,,,practice_main,0,1,3,303,8,N,0,left,0.7939798729998984,0,0,,,,,,,,,,,,,,,,,,,,,1,,,,,,,,,,,,,,,,,,,,,,,,,,,,,,,,,,,,,,,,,,,,,,123,151969,20,Female,1,2024/03/26_08:52:21,YZ,None,
,,,,,,practice_main,0,1,3,303,9,J,0,right,0.47327344199993604,1,0,,,,,,,,,,,,,,,,,,,,,1,,,,,,,,,,,,,,,,,,,,,,,,,,,,,,,,,,,,,,,,,,,,,,123,151969,20,Female,1,2024/03/26_08:52:21,YZ,None,
,,,,,,practice_main,0,1,3,303,10,J,0,right,0.7653514369999357,1,0,,,,,,,,,,,,,,,,,,,,,1,,,,,,,,,,,,,,,,,,,,,,,,,,,,,,,,,,,,,,,,,,,,,,123,151969,20,Female,1,2024/03/26_08:52:21,YZ,None,
,,,,,,practice_main,0,1,3,303,11,X,0,right,0.4752660740000465,1,0,,,,,,,,,,,,,,,,,,,,,1,,,,,,,,,,,,,,,,,,,,,,,,,,,,,,,,,,,,,,,,,,,,,,123,151969,20,Female,1,2024/03/26_08:52:21,YZ,None,
,,,,,,practice_main,0,1,3,303,12,N,0,right,0.4420086089999131,1,0,,,,,,,,,,,,,,,,,,,,,1,,,,,,,,,,,,,,,,,,,,,,,,,,,,,,,,,,,,,,,,,,,,,,123,151969,20,Female,1,2024/03/26_08:52:21,YZ,None,
,,,,,,practice_main,0,1,3,303,13,V,0,right,0.5245778579999296,1,0,,,,,,,,,,,,,,,,,,,,,1,,,,,,,,,,,,,,,,,,,,,,,,,,,,,,,,,,,,,,,,,,,,,,123,151969,20,Female,1,2024/03/26_08:52:21,YZ,None,
,,,,,,practice_main,0,1,3,303,14,F,0,right,0.5122327220001353,1,0,,,,,,,,,,,,,,,,,,,,,1,,,,,,,,,,,,,,,,,,,,,,,,,,,,,,,,,,,,,,,,,,,,,,123,151969,20,Female,1,2024/03/26_08:52:21,YZ,None,
,,,,,,practice_main,0,1,3,303,15,F,0,right,0.6299480430000131,1,0,,,,,,,,,,,,,,,,,,,,,1,,,,,,,,,,,,,,,,,,,,,,,,,,,,,,,,,,,,,,,,,,,,,,123,151969,20,Female,1,2024/03/26_08:52:21,YZ,None,
,,,,,,practice_main,0,1,3,303,16,V,1,left,0.7313371459999871,1,0,,,,,,,,,,,,,,,,,,,,,1,,,,,,,,,,,,,,,,,,,,,,,,,,,,,,,,,,,,,,,,,,,,,,123,151969,20,Female,1,2024/03/26_08:52:21,YZ,None,
,,,,,,practice_main,0,1,3,303,17,F,1,right,0.5809871320000184,0,0,,,,,,,,,,,,,,,,,,,,,1,,,,,,,,,,,,,,,,,,,,,,,,,,,,,,,,,,,,,,,,,,,,,,123,151969,20,Female,1,2024/03/26_08:52:21,YZ,None,
,,,,,,practice_main,0,1,3,303,18,Q,0,right,nan,0,1,,,,,,,,,,,,,,,,,,,,,1,,,,,,,,,,,,,,,,,,,,,,,,,,,,,,,,,,,,,,,,,,,,,,123,151969,20,Female,1,2024/03/26_08:52:21,YZ,None,
,,,,,,practice_main,0,1,3,303,19,V,1,right,0.5241803149999669,0,0,,,,,,,,,,,,,,,,,,,,,1,,,,,,,,,,,,,,,,,,,,,,,,,,,,,,,,,,,,,,,,,,,,,,123,151969,20,Female,1,2024/03/26_08:52:21,YZ,None,
,,,,,,practice_main,0,1,3,303,,,,,,,,0.7875000000000001,0.4,0.07142857142857142,0.9166666666666666,0.10526315789473684,0.8233082706766918,0.47147770476468553,2,1,0,2,2,11,13,5,14,0,,,,1,,,,,,,,,,,,,,,,,,,,,,,,,,,,,,,,,,,,,,,,,,,,,,123,151969,20,Female,1,2024/03/26_08:52:21,YZ,None,
,,,,,240326_091438,PRACTICE,0,1,3,303,,,,,,,,,,,,,,,,,,,,,,,,,,,,1,34,1,1,cue2.png,hard,A,19,1.9117948590001106,0,814.2868083699999,816.226224976,,,,,,,,,,,,,,,,,,,,,,,,,,,,,,,,,,,123,151969,20,Female,1,2024/03/26_08:52:21,YZ,None,
,,,,,,practice_main,0,2,1,303,1,F,0,right,0.9576399990000937,1,0,,,,,,,,,,,,,,,,,,,,,1,,,,,,,,,,,,,,,,,,,,,,,,,,,,,,,,,,,,,,,,,,,,,,123,151969,20,Female,1,2024/03/26_08:52:21,YZ,None,
,,,,,,practice_main,0,2,1,303,2,C,0,right,0.4601581899999019,1,0,,,,,,,,,,,,,,,,,,,,,1,,,,,,,,,,,,,,,,,,,,,,,,,,,,,,,,,,,,,,,,,,,,,,123,151969,20,Female,1,2024/03/26_08:52:21,YZ,None,
,,,,,,practice_main,0,2,1,303,3,J,0,right,0.5925906769998619,1,0,,,,,,,,,,,,,,,,,,,,,1,,,,,,,,,,,,,,,,,,,,,,,,,,,,,,,,,,,,,,,,,,,,,,123,151969,20,Female,1,2024/03/26_08:52:21,YZ,None,
,,,,,,practice_main,0,2,1,303,4,Q,0,right,0.5486244589999387,1,0,,,,,,,,,,,,,,,,,,,,,1,,,,,,,,,,,,,,,,,,,,,,,,,,,,,,,,,,,,,,,,,,,,,,123,151969,20,Female,1,2024/03/26_08:52:21,YZ,None,
,,,,,,practice_main,0,2,1,303,5,Q,1,left,0.3587673720001021,1,0,,,,,,,,,,,,,,,,,,,,,1,,,,,,,,,,,,,,,,,,,,,,,,,,,,,,,,,,,,,,,,,,,,,,123,151969,20,Female,1,2024/03/26_08:52:21,YZ,None,
,,,,,,practice_main,0,2,1,303,6,F,0,right,0.4819736740000735,1,0,,,,,,,,,,,,,,,,,,,,,1,,,,,,,,,,,,,,,,,,,,,,,,,,,,,,,,,,,,,,,,,,,,,,123,151969,20,Female,1,2024/03/26_08:52:21,YZ,None,
,,,,,,practice_main,0,2,1,303,7,N,0,right,0.4421416609998232,1,0,,,,,,,,,,,,,,,,,,,,,1,,,,,,,,,,,,,,,,,,,,,,,,,,,,,,,,,,,,,,,,,,,,,,123,151969,20,Female,1,2024/03/26_08:52:21,YZ,None,
,,,,,,practice_main,0,2,1,303,8,N,1,left,0.3375002289999429,1,0,,,,,,,,,,,,,,,,,,,,,1,,,,,,,,,,,,,,,,,,,,,,,,,,,,,,,,,,,,,,,,,,,,,,123,151969,20,Female,1,2024/03/26_08:52:21,YZ,None,
,,,,,,practice_main,0,2,1,303,9,F,0,right,0.42007229000000734,1,0,,,,,,,,,,,,,,,,,,,,,1,,,,,,,,,,,,,,,,,,,,,,,,,,,,,,,,,,,,,,,,,,,,,,123,151969,20,Female,1,2024/03/26_08:52:21,YZ,None,
,,,,,,practice_main,0,2,1,303,10,N,0,right,0.5756205370000771,1,0,,,,,,,,,,,,,,,,,,,,,1,,,,,,,,,,,,,,,,,,,,,,,,,,,,,,,,,,,,,,,,,,,,,,123,151969,20,Female,1,2024/03/26_08:52:21,YZ,None,
,,,,,,practice_main,0,2,1,303,11,C,0,right,0.4146809859998939,1,0,,,,,,,,,,,,,,,,,,,,,1,,,,,,,,,,,,,,,,,,,,,,,,,,,,,,,,,,,,,,,,,,,,,,123,151969,20,Female,1,2024/03/26_08:52:21,YZ,None,
,,,,,,practice_main,0,2,1,303,12,J,0,right,0.5959105029999137,1,0,,,,,,,,,,,,,,,,,,,,,1,,,,,,,,,,,,,,,,,,,,,,,,,,,,,,,,,,,,,,,,,,,,,,123,151969,20,Female,1,2024/03/26_08:52:21,YZ,None,
,,,,,,practice_main,0,2,1,303,13,J,1,right,0.8849661780000133,0,0,,,,,,,,,,,,,,,,,,,,,1,,,,,,,,,,,,,,,,,,,,,,,,,,,,,,,,,,,,,,,,,,,,,,123,151969,20,Female,1,2024/03/26_08:52:21,YZ,None,
,,,,,,practice_main,0,2,1,303,14,S,0,right,0.5123718119998557,1,0,,,,,,,,,,,,,,,,,,,,,1,,,,,,,,,,,,,,,,,,,,,,,,,,,,,,,,,,,,,,,,,,,,,,123,151969,20,Female,1,2024/03/26_08:52:21,YZ,None,
,,,,,,practice_main,0,2,1,303,15,F,0,right,0.4664525460000277,1,0,,,,,,,,,,,,,,,,,,,,,1,,,,,,,,,,,,,,,,,,,,,,,,,,,,,,,,,,,,,,,,,,,,,,123,151969,20,Female,1,2024/03/26_08:52:21,YZ,None,
,,,,,,practice_main,0,2,1,303,16,J,0,right,0.538645329000019,1,0,,,,,,,,,,,,,,,,,,,,,1,,,,,,,,,,,,,,,,,,,,,,,,,,,,,,,,,,,,,,,,,,,,,,123,151969,20,Female,1,2024/03/26_08:52:21,YZ,None,
,,,,,,practice_main,0,2,1,303,17,J,1,right,0.5752834949998942,0,0,,,,,,,,,,,,,,,,,,,,,1,,,,,,,,,,,,,,,,,,,,,,,,,,,,,,,,,,,,,,,,,,,,,,123,151969,20,Female,1,2024/03/26_08:52:21,YZ,None,
,,,,,,practice_main,0,2,1,303,18,F,0,right,0.5520580780000728,1,0,,,,,,,,,,,,,,,,,,,,,1,,,,,,,,,,,,,,,,,,,,,,,,,,,,,,,,,,,,,,,,,,,,,,123,151969,20,Female,1,2024/03/26_08:52:21,YZ,None,
,,,,,,practice_main,0,2,1,303,19,F,1,left,0.3515600140001425,1,0,,,,,,,,,,,,,,,,,,,,,1,,,,,,,,,,,,,,,,,,,,,,,,,,,,,,,,,,,,,,,,,,,,,,123,151969,20,Female,1,2024/03/26_08:52:21,YZ,None,
,,,,,,practice_main,0,2,1,303,,,,,,,,0.9,0.6,0.0,1.0,0.0,1.0,0.5298430541578766,3,0,0,0,0,14,17,5,14,0,,,,1,,,,,,,,,,,,,,,,,,,,,,,,,,,,,,,,,,,,,,,,,,,,,,123,151969,20,Female,1,2024/03/26_08:52:21,YZ,None,
,,,,,240326_091509,PRACTICE,0,2,1,303,,,,,,,,,,,,,,,,,,,,,,,,,,,,1,19,2,2,cue1.png,easy,A,41,1.882008259000031,0,845.4162156429999,847.3172982489999,,,,,,,,,,,,,,,,,,,,,,,,,,,,,,,,,,,123,151969,20,Female,1,2024/03/26_08:52:21,YZ,None,
,,,,,,practice_main,0,3,1,303,1,V,0,right,0.7410455039998851,1,0,,,,,,,,,,,,,,,,,,,,,1,,,,,,,,,,,,,,,,,,,,,,,,,,,,,,,,,,,,,,,,,,,,,,123,151969,20,Female,1,2024/03/26_08:52:21,YZ,None,
,,,,,,practice_main,0,3,1,303,2,N,0,right,0.46268817600002876,1,0,,,,,,,,,,,,,,,,,,,,,1,,,,,,,,,,,,,,,,,,,,,,,,,,,,,,,,,,,,,,,,,,,,,,123,151969,20,Female,1,2024/03/26_08:52:21,YZ,None,
,,,,,,practice_main,0,3,1,303,3,N,1,left,0.4183180570000786,1,0,,,,,,,,,,,,,,,,,,,,,1,,,,,,,,,,,,,,,,,,,,,,,,,,,,,,,,,,,,,,,,,,,,,,123,151969,20,Female,1,2024/03/26_08:52:21,YZ,None,
,,,,,,practice_main,0,3,1,303,4,X,0,right,0.4415282610000304,1,0,,,,,,,,,,,,,,,,,,,,,1,,,,,,,,,,,,,,,,,,,,,,,,,,,,,,,,,,,,,,,,,,,,,,123,151969,20,Female,1,2024/03/26_08:52:21,YZ,None,
,,,,,,practice_main,0,3,1,303,5,J,0,right,0.47430969000015466,1,0,,,,,,,,,,,,,,,,,,,,,1,,,,,,,,,,,,,,,,,,,,,,,,,,,,,,,,,,,,,,,,,,,,,,123,151969,20,Female,1,2024/03/26_08:52:21,YZ,None,
,,,,,,practice_main,0,3,1,303,6,J,1,left,0.409590309999885,1,0,,,,,,,,,,,,,,,,,,,,,1,,,,,,,,,,,,,,,,,,,,,,,,,,,,,,,,,,,,,,,,,,,,,,123,151969,20,Female,1,2024/03/26_08:52:21,YZ,None,
,,,,,,practice_main,0,3,1,303,7,C,0,right,0.40436656999986553,1,0,,,,,,,,,,,,,,,,,,,,,1,,,,,,,,,,,,,,,,,,,,,,,,,,,,,,,,,,,,,,,,,,,,,,123,151969,20,Female,1,2024/03/26_08:52:21,YZ,None,
,,,,,,practice_main,0,3,1,303,8,Q,0,right,0.6266234009999607,1,0,,,,,,,,,,,,,,,,,,,,,1,,,,,,,,,,,,,,,,,,,,,,,,,,,,,,,,,,,,,,,,,,,,,,123,151969,20,Female,1,2024/03/26_08:52:21,YZ,None,
,,,,,,practice_main,0,3,1,303,9,V,0,right,0.4365300020001541,1,0,,,,,,,,,,,,,,,,,,,,,1,,,,,,,,,,,,,,,,,,,,,,,,,,,,,,,,,,,,,,,,,,,,,,123,151969,20,Female,1,2024/03/26_08:52:21,YZ,None,
,,,,,,practice_main,0,3,1,303,10,Q,0,right,0.5994010969998271,1,0,,,,,,,,,,,,,,,,,,,,,1,,,,,,,,,,,,,,,,,,,,,,,,,,,,,,,,,,,,,,,,,,,,,,123,151969,20,Female,1,2024/03/26_08:52:21,YZ,None,
,,,,,,practice_main,0,3,1,303,11,Q,1,left,0.3697606059999998,1,0,,,,,,,,,,,,,,,,,,,,,1,,,,,,,,,,,,,,,,,,,,,,,,,,,,,,,,,,,,,,,,,,,,,,123,151969,20,Female,1,2024/03/26_08:52:21,YZ,None,
,,,,,,practice_main,0,3,1,303,12,J,0,right,0.488475593999965,1,0,,,,,,,,,,,,,,,,,,,,,1,,,,,,,,,,,,,,,,,,,,,,,,,,,,,,,,,,,,,,,,,,,,,,123,151969,20,Female,1,2024/03/26_08:52:21,YZ,None,
,,,,,,practice_main,0,3,1,303,13,J,1,left,0.43305345300018416,1,0,,,,,,,,,,,,,,,,,,,,,1,,,,,,,,,,,,,,,,,,,,,,,,,,,,,,,,,,,,,,,,,,,,,,123,151969,20,Female,1,2024/03/26_08:52:21,YZ,None,
,,,,,,practice_main,0,3,1,303,14,Q,0,right,0.3322450600001048,1,0,,,,,,,,,,,,,,,,,,,,,1,,,,,,,,,,,,,,,,,,,,,,,,,,,,,,,,,,,,,,,,,,,,,,123,151969,20,Female,1,2024/03/26_08:52:21,YZ,None,
,,,,,,practice_main,0,3,1,303,15,Q,1,left,0.4322310770000968,1,0,,,,,,,,,,,,,,,,,,,,,1,,,,,,,,,,,,,,,,,,,,,,,,,,,,,,,,,,,,,,,,,,,,,,123,151969,20,Female,1,2024/03/26_08:52:21,YZ,None,
,,,,,,practice_main,0,3,1,303,16,J,0,right,0.548957542999915,1,0,,,,,,,,,,,,,,,,,,,,,1,,,,,,,,,,,,,,,,,,,,,,,,,,,,,,,,,,,,,,,,,,,,,,123,151969,20,Female,1,2024/03/26_08:52:21,YZ,None,
,,,,,,practice_main,0,3,1,303,17,X,0,right,0.512229004999881,1,0,,,,,,,,,,,,,,,,,,,,,1,,,,,,,,,,,,,,,,,,,,,,,,,,,,,,,,,,,,,,,,,,,,,,123,151969,20,Female,1,2024/03/26_08:52:21,YZ,None,
,,,,,,practice_main,0,3,1,303,18,F,0,right,0.34793043500008025,1,0,,,,,,,,,,,,,,,,,,,,,1,,,,,,,,,,,,,,,,,,,,,,,,,,,,,,,,,,,,,,,,,,,,,,123,151969,20,Female,1,2024/03/26_08:52:21,YZ,None,
,,,,,,practice_main,0,3,1,303,19,S,0,right,0.4018004470001415,1,0,,,,,,,,,,,,,,,,,,,,,1,,,,,,,,,,,,,,,,,,,,,,,,,,,,,,,,,,,,,,,,,,,,,,123,151969,20,Female,1,2024/03/26_08:52:21,YZ,None,
,,,,,,practice_main,0,3,1,303,,,,,,,,1.0,1.0,0.0,1.0,0.0,1.0,0.4674254888421178,5,0,0,0,0,14,19,5,14,0,,,,1,,,,,,,,,,,,,,,,,,,,,,,,,,,,,,,,,,,,,,,,,,,,,,123,151969,20,Female,1,2024/03/26_08:52:21,YZ,None,
,,,,,240326_091538,PRACTICE,0,3,1,303,,,,,,,,,,,,,,,,,,,,,,,,,,,,1,42,3,3,cue1.png,easy,A,43,1.247387721999985,0,876.5168173870001,877.781873884,,,,,,,,,,,,,,,,,,,,,,,,,,,,,,,,,,,123,151969,20,Female,1,2024/03/26_08:52:21,YZ,None,
1,./instructions/inst_prac_end/Slide56.png,right,18.817634840999972,904.3129413769999,923.1305762179999,,,,,,,,,,,,,,,,,,,,,,,,,,,,,,,,,1,,,,,,,,,,,,,,,,,,,,,,,,,,,,,,,,,,,,,,,,,,,,,,123,151969,20,Female,1,2024/03/26_08:52:21,YZ,None,
1,./instructions/inst_test/Slide57.png,right,61.52542450300007,923.1811274579999,984.706551961,,,,,,,,,,,,,,,,,,,,,,,,,,,,,,,,,1,,,,,,,,,,,,,,,,,,,,,,,,,,,,,,,,,,,,,,,,,,,,,,123,151969,20,Female,1,2024/03/26_08:52:21,YZ,None,
,,,,,,test,1,1,1,303,1,J,0,right,0.6060682939998969,1,0,,,,,,,,,,,,,,,,,,,,,1,,,,,,,,,,,,,,,,,,,,,,,,,,,,,,,,,,,,,,,,,,,,,,123,151969,20,Female,1,2024/03/26_08:52:21,YZ,None,
,,,,,,test,1,1,1,303,2,N,0,right,0.3172219650000443,1,0,,,,,,,,,,,,,,,,,,,,,1,,,,,,,,,,,,,,,,,,,,,,,,,,,,,,,,,,,,,,,,,,,,,,123,151969,20,Female,1,2024/03/26_08:52:21,YZ,None,
,,,,,,test,1,1,1,303,3,N,1,left,0.3610922269999719,1,0,,,,,,,,,,,,,,,,,,,,,1,,,,,,,,,,,,,,,,,,,,,,,,,,,,,,,,,,,,,,,,,,,,,,123,151969,20,Female,1,2024/03/26_08:52:21,YZ,None,
,,,,,,test,1,1,1,303,4,C,0,right,0.3156967180000265,1,0,,,,,,,,,,,,,,,,,,,,,1,,,,,,,,,,,,,,,,,,,,,,,,,,,,,,,,,,,,,,,,,,,,,,123,151969,20,Female,1,2024/03/26_08:52:21,YZ,None,
,,,,,,test,1,1,1,303,5,C,1,left,0.36811882400002105,1,0,,,,,,,,,,,,,,,,,,,,,1,,,,,,,,,,,,,,,,,,,,,,,,,,,,,,,,,,,,,,,,,,,,,,123,151969,20,Female,1,2024/03/26_08:52:21,YZ,None,
,,,,,,test,1,1,1,303,6,S,0,right,0.3063456809998115,1,0,,,,,,,,,,,,,,,,,,,,,1,,,,,,,,,,,,,,,,,,,,,,,,,,,,,,,,,,,,,,,,,,,,,,123,151969,20,Female,1,2024/03/26_08:52:21,YZ,None,
,,,,,,test,1,1,1,303,7,J,0,right,0.44470050399991123,1,0,,,,,,,,,,,,,,,,,,,,,1,,,,,,,,,,,,,,,,,,,,,,,,,,,,,,,,,,,,,,,,,,,,,,123,151969,20,Female,1,2024/03/26_08:52:21,YZ,None,
,,,,,,test,1,1,1,303,8,X,0,right,0.4758428190000359,1,0,,,,,,,,,,,,,,,,,,,,,1,,,,,,,,,,,,,,,,,,,,,,,,,,,,,,,,,,,,,,,,,,,,,,123,151969,20,Female,1,2024/03/26_08:52:21,YZ,None,
,,,,,,test,1,1,1,303,9,X,1,right,0.38070062899987533,0,0,,,,,,,,,,,,,,,,,,,,,1,,,,,,,,,,,,,,,,,,,,,,,,,,,,,,,,,,,,,,,,,,,,,,123,151969,20,Female,1,2024/03/26_08:52:21,YZ,None,
,,,,,,test,1,1,1,303,10,V,0,right,0.5851660220000667,1,0,,,,,,,,,,,,,,,,,,,,,1,,,,,,,,,,,,,,,,,,,,,,,,,,,,,,,,,,,,,,,,,,,,,,123,151969,20,Female,1,2024/03/26_08:52:21,YZ,None,
,,,,,,test,1,1,1,303,11,V,1,left,0.3959966939999049,1,0,,,,,,,,,,,,,,,,,,,,,1,,,,,,,,,,,,,,,,,,,,,,,,,,,,,,,,,,,,,,,,,,,,,,123,151969,20,Female,1,2024/03/26_08:52:21,YZ,None,
,,,,,,test,1,1,1,303,12,X,0,right,0.447163627000009,1,0,,,,,,,,,,,,,,,,,,,,,1,,,,,,,,,,,,,,,,,,,,,,,,,,,,,,,,,,,,,,,,,,,,,,123,151969,20,Female,1,2024/03/26_08:52:21,YZ,None,
,,,,,,test,1,1,1,303,13,X,1,left,0.3324001590001444,1,0,,,,,,,,,,,,,,,,,,,,,1,,,,,,,,,,,,,,,,,,,,,,,,,,,,,,,,,,,,,,,,,,,,,,123,151969,20,Female,1,2024/03/26_08:52:21,YZ,None,
,,,,,,test,1,1,1,303,14,S,0,right,0.31236340400005247,1,0,,,,,,,,,,,,,,,,,,,,,1,,,,,,,,,,,,,,,,,,,,,,,,,,,,,,,,,,,,,,,,,,,,,,123,151969,20,Female,1,2024/03/26_08:52:21,YZ,None,
,,,,,,test,1,1,1,303,15,F,0,right,0.39210234500001206,1,0,,,,,,,,,,,,,,,,,,,,,1,,,,,,,,,,,,,,,,,,,,,,,,,,,,,,,,,,,,,,,,,,,,,,123,151969,20,Female,1,2024/03/26_08:52:21,YZ,None,
,,,,,,test,1,1,1,303,16,V,0,right,0.49813631100005296,1,0,,,,,,,,,,,,,,,,,,,,,1,,,,,,,,,,,,,,,,,,,,,,,,,,,,,,,,,,,,,,,,,,,,,,123,151969,20,Female,1,2024/03/26_08:52:21,YZ,None,
,,,,,,test,1,1,1,303,17,V,1,left,0.5123974129999169,1,0,,,,,,,,,,,,,,,,,,,,,1,,,,,,,,,,,,,,,,,,,,,,,,,,,,,,,,,,,,,,,,,,,,,,123,151969,20,Female,1,2024/03/26_08:52:21,YZ,None,
,,,,,,test,1,1,1,303,18,N,0,right,0.7122179820000838,1,0,,,,,,,,,,,,,,,,,,,,,1,,,,,,,,,,,,,,,,,,,,,,,,,,,,,,,,,,,,,,,,,,,,,,123,151969,20,Female,1,2024/03/26_08:52:21,YZ,None,
,,,,,,test,1,1,1,303,19,J,0,right,0.45646067099983156,1,0,,,,,,,,,,,,,,,,,,,,,1,,,,,,,,,,,,,,,,,,,,,,,,,,,,,,,,,,,,,,,,,,,,,,123,151969,20,Female,1,2024/03/26_08:52:21,YZ,None,
,,,,,,Test,1,1,1,303,,,,,,,,0.9583333333333334,0.8333333333333334,0.0,1.0,0.0,1.0,0.43264169942103525,5,0,0,0,0,13,18,6,13,0,,,,1,,,,,,,,,,,,,,,,,,,,,,,,,,,,,,,,,,,,,,,,,,,,,,123,151969,20,Female,1,2024/03/26_08:52:21,YZ,None,
,,,,,240326_091730,TEST,1,1,1,303,,,,,,,,,,,,,,,,,,,,,,,,,,,,1,1,1,1,cue1.png,easy,A,62,0.853819059999978,0,989.798220325,990.669968364,,,,,,,,,,,,,,,,,,,,,,,,,,,,,,,,,,,123,151969,20,Female,1,2024/03/26_08:52:21,YZ,None,
,,,,,,test,1,2,3,303,1,C,0,right,0.5424941710000439,1,0,,,,,,,,,,,,,,,,,,,,,1,,,,,,,,,,,,,,,,,,,,,,,,,,,,,,,,,,,,,,,,,,,,,,123,151969,20,Female,1,2024/03/26_08:52:21,YZ,None,
,,,,,,test,1,2,3,303,2,V,0,right,0.28916857000012897,1,0,,,,,,,,,,,,,,,,,,,,,1,,,,,,,,,,,,,,,,,,,,,,,,,,,,,,,,,,,,,,,,,,,,,,123,151969,20,Female,1,2024/03/26_08:52:21,YZ,None,
,,,,,,test,1,2,3,303,3,X,0,right,0.34050652899986744,1,0,,,,,,,,,,,,,,,,,,,,,1,,,,,,,,,,,,,,,,,,,,,,,,,,,,,,,,,,,,,,,,,,,,,,123,151969,20,Female,1,2024/03/26_08:52:21,YZ,None,
,,,,,,test,1,2,3,303,4,C,1,left,0.36410101399997075,1,0,,,,,,,,,,,,,,,,,,,,,1,,,,,,,,,,,,,,,,,,,,,,,,,,,,,,,,,,,,,,,,,,,,,,123,151969,20,Female,1,2024/03/26_08:52:21,YZ,None,
,,,,,,test,1,2,3,303,5,V,1,right,0.48306744000001345,0,0,,,,,,,,,,,,,,,,,,,,,1,,,,,,,,,,,,,,,,,,,,,,,,,,,,,,,,,,,,,,,,,,,,,,123,151969,20,Female,1,2024/03/26_08:52:21,YZ,None,
,,,,,,test,1,2,3,303,6,J,0,right,0.883980013999917,1,0,,,,,,,,,,,,,,,,,,,,,1,,,,,,,,,,,,,,,,,,,,,,,,,,,,,,,,,,,,,,,,,,,,,,123,151969,20,Female,1,2024/03/26_08:52:21,YZ,None,
,,,,,,test,1,2,3,303,7,J,0,right,0.6080849349998516,1,0,,,,,,,,,,,,,,,,,,,,,1,,,,,,,,,,,,,,,,,,,,,,,,,,,,,,,,,,,,,,,,,,,,,,123,151969,20,Female,1,2024/03/26_08:52:21,YZ,None,
,,,,,,test,1,2,3,303,8,F,0,left,0.5581741450000663,0,0,,,,,,,,,,,,,,,,,,,,,1,,,,,,,,,,,,,,,,,,,,,,,,,,,,,,,,,,,,,,,,,,,,,,123,151969,20,Female,1,2024/03/26_08:52:21,YZ,None,
,,,,,,test,1,2,3,303,9,J,1,left,0.6573305970000547,1,0,,,,,,,,,,,,,,,,,,,,,1,,,,,,,,,,,,,,,,,,,,,,,,,,,,,,,,,,,,,,,,,,,,,,123,151969,20,Female,1,2024/03/26_08:52:21,YZ,None,
,,,,,,test,1,2,3,303,10,F,0,right,0.9372672330000569,1,0,,,,,,,,,,,,,,,,,,,,,1,,,,,,,,,,,,,,,,,,,,,,,,,,,,,,,,,,,,,,,,,,,,,,123,151969,20,Female,1,2024/03/26_08:52:21,YZ,None,
,,,,,,test,1,2,3,303,11,J,0,left,0.6591733900002055,0,0,,,,,,,,,,,,,,,,,,,,,1,,,,,,,,,,,,,,,,,,,,,,,,,,,,,,,,,,,,,,,,,,,,,,123,151969,20,Female,1,2024/03/26_08:52:21,YZ,None,
