Instruction,Stimulus,Key,RT,START,END,Phase,Block,TrialN,NbackLevel,ISI,LetterN,Letter,Letter_isSame,Letter_Resp,Letter_RT,Letter_Accuracy,Letter_Timeout,Trial_A_measure,Trial_HR,Trial_FAR,Trial_CDR,Trial_MSR,Trial_ACC,Trial_RT,Trial_HitsCount,Trial_FAsCount,Trial_SameNoRespCount,Trial_DiffNoRespCount,Trial_NoRespCount,Trial_CDsCount,Trial_CorrectRespCount,Trial_SameLetterCount,Trial_DiffLetterCount,Trial_InvalidLetterCount,TrialCountCali,CaliEnd_A_measure,ISI_calibrated,Run,TrialIndex,TrialNumber_total,TrialNumber_valid,CueLearning,TrialDemandLearning,CueMapping,OnlineRating,OnlineRatingRT,OnlineRatingTimeOut,CueSTART,RatingSTART,OfflineRatingTimePoint,OfflineRatingQuesIndex,CueFigure,TrialDemand,OfflineRating,OfflineRatingRT,CueStart,OfflineRatingStart,PhaseType,CueLeft,CueDemandLeft,CueRight,CueDemandRight,Choice,ChoiceDemand,TaskDemand,ChoiceRT,ChoiceTimeOut,ChoiceSTART,CueCheck,CueDemandCheck,CorrectAnswer,Answer,AnswerDemand,AnswerRT,AnswerACC,AnswerTimeOut,CheckSTART,DemandRatingQuesIndex,QuesTLX,DemandLevel,DemandRating,DemandRatingRT,QuesStart,PID,SONA,Age,Gender,Run,TIME,EXPERIMENTER,frameRate,
1,./instructions/inst_begin/Slide2.png,right,22.74828227200487,0.11201746900042053,22.860299741005292,,,,,,,,,,,,,,,,,,,,,,,,,,,,,,,,,1,,,,,,,,,,,,,,,,,,,,,,,,,,,,,,,,,,,,,,,,,,,,,,117,156331,19,Female,1,2024/03/22_16:04:39,YZ,None,
2,./instructions/inst_begin/Slide3.png,right,9.395626284996979,22.888692145003006,32.284318429999985,,,,,,,,,,,,,,,,,,,,,,,,,,,,,,,,,1,,,,,,,,,,,,,,,,,,,,,,,,,,,,,,,,,,,,,,,,,,,,,,117,156331,19,Female,1,2024/03/22_16:04:39,YZ,None,
3,./instructions/inst_begin/Slide4.png,right,7.2280960570060415,32.31220403200132,39.54030008900736,,,,,,,,,,,,,,,,,,,,,,,,,,,,,,,,,1,,,,,,,,,,,,,,,,,,,,,,,,,,,,,,,,,,,,,,,,,,,,,,117,156331,19,Female,1,2024/03/22_16:04:39,YZ,None,
1,./instructions/inst_prac_2/Slide6.png,right,14.918948182996246,39.57344860601006,54.49239678900631,,,,,,,,,,,,,,,,,,,,,,,,,,,,,,,,,1,,,,,,,,,,,,,,,,,,,,,,,,,,,,,,,,,,,,,,,,,,,,,,117,156331,19,Female,1,2024/03/22_16:04:39,YZ,None,
2,./instructions/inst_prac_2/Slide7.png,right,12.083171341000707,54.52105811900401,66.60422946000472,,,,,,,,,,,,,,,,,,,,,,,,,,,,,,,,,1,,,,,,,,,,,,,,,,,,,,,,,,,,,,,,,,,,,,,,,,,,,,,,117,156331,19,Female,1,2024/03/22_16:04:39,YZ,None,
1,./instructions/inst_prac_2/Slide8.png,left,10.81901274700067,66.63342383700365,77.45243658400432,,,,,,,,,,,,,,,,,,,,,,,,,,,,,,,,,1,,,,,,,,,,,,,,,,,,,,,,,,,,,,,,,,,,,,,,,,,,,,,,117,156331,19,Female,1,2024/03/22_16:04:39,YZ,None,
2,./instructions/inst_prac_2/Slide7.png,right,2.9367601350095356,77.47559389600065,80.41235403101018,,,,,,,,,,,,,,,,,,,,,,,,,,,,,,,,,1,,,,,,,,,,,,,,,,,,,,,,,,,,,,,,,,,,,,,,,,,,,,,,117,156331,19,Female,1,2024/03/22_16:04:39,YZ,None,
3,./instructions/inst_prac_2/Slide8.png,right,1.4277057069994044,80.44051062800281,81.86821633500222,,,,,,,,,,,,,,,,,,,,,,,,,,,,,,,,,1,,,,,,,,,,,,,,,,,,,,,,,,,,,,,,,,,,,,,,,,,,,,,,117,156331,19,Female,1,2024/03/22_16:04:39,YZ,None,
4,./instructions/inst_prac_2/Slide9.png,right,6.339780406997306,81.89661462799995,88.23639503499726,,,,,,,,,,,,,,,,,,,,,,,,,,,,,,,,,1,,,,,,,,,,,,,,,,,,,,,,,,,,,,,,,,,,,,,,,,,,,,,,117,156331,19,Female,1,2024/03/22_16:04:39,YZ,None,
5,./instructions/inst_prac_2/Slide10.png,right,1.3469028710096609,88.26521841000067,89.61212128101033,,,,,,,,,,,,,,,,,,,,,,,,,,,,,,,,,1,,,,,,,,,,,,,,,,,,,,,,,,,,,,,,,,,,,,,,,,,,,,,,117,156331,19,Female,1,2024/03/22_16:04:39,YZ,None,
6,./instructions/inst_prac_2/Slide11.png,right,1.0223177470033988,89.63808162600617,90.66039937300957,,,,,,,,,,,,,,,,,,,,,,,,,,,,,,,,,1,,,,,,,,,,,,,,,,,,,,,,,,,,,,,,,,,,,,,,,,,,,,,,117,156331,19,Female,1,2024/03/22_16:04:39,YZ,None,
7,./instructions/inst_prac_2/Slide12.png,right,0.9802941679954529,90.68795288600086,91.66824705399631,,,,,,,,,,,,,,,,,,,,,,,,,,,,,,,,,1,,,,,,,,,,,,,,,,,,,,,,,,,,,,,,,,,,,,,,,,,,,,,,117,156331,19,Female,1,2024/03/22_16:04:39,YZ,None,
8,./instructions/inst_prac_2/Slide13.png,right,5.363592540990794,91.69675777900557,97.06035031999636,,,,,,,,,,,,,,,,,,,,,,,,,,,,,,,,,1,,,,,,,,,,,,,,,,,,,,,,,,,,,,,,,,,,,,,,,,,,,,,,117,156331,19,Female,1,2024/03/22_16:04:39,YZ,None,
9,./instructions/inst_prac_2/Slide14.png,right,10.10734274200513,97.08883405399683,107.19617679600196,,,,,,,,,,,,,,,,,,,,,,,,,,,,,,,,,1,,,,,,,,,,,,,,,,,,,,,,,,,,,,,,,,,,,,,,,,,,,,,,117,156331,19,Female,1,2024/03/22_16:04:39,YZ,None,
10,./instructions/inst_prac_2/Slide15.png,right,12.483041740008048,107.2253732800018,119.70841502000985,,,,,,,,,,,,,,,,,,,,,,,,,,,,,,,,,1,,,,,,,,,,,,,,,,,,,,,,,,,,,,,,,,,,,,,,,,,,,,,,117,156331,19,Female,1,2024/03/22_16:04:39,YZ,None,
,,,,,,practice,0,34,2,2583,1,J,0,right,3.18023297500622,1,0,,,,,,,,,,,,,,,,,,,,,1,,,,,,,,,,,,,,,,,,,,,,,,,,,,,,,,,,,,,,,,,,,,,,117,156331,19,Female,1,2024/03/22_16:04:39,YZ,None,
,,,,,,practice,0,34,2,2583,2,C,0,right,0.7722576849919278,1,0,,,,,,,,,,,,,,,,,,,,,1,,,,,,,,,,,,,,,,,,,,,,,,,,,,,,,,,,,,,,,,,,,,,,117,156331,19,Female,1,2024/03/22_16:04:39,YZ,None,
,,,,,,practice,0,34,2,2583,3,J,1,left,0.7268155920028221,1,0,,,,,,,,,,,,,,,,,,,,,1,,,,,,,,,,,,,,,,,,,,,,,,,,,,,,,,,,,,,,,,,,,,,,117,156331,19,Female,1,2024/03/22_16:04:39,YZ,None,
,,,,,,practice,0,34,2,2583,4,V,0,right,1.223749573007808,1,0,,,,,,,,,,,,,,,,,,,,,1,,,,,,,,,,,,,,,,,,,,,,,,,,,,,,,,,,,,,,,,,,,,,,117,156331,19,Female,1,2024/03/22_16:04:39,YZ,None,
,,,,,,practice,0,34,2,2583,5,Q,0,right,1.3727082169934874,1,0,,,,,,,,,,,,,,,,,,,,,1,,,,,,,,,,,,,,,,,,,,,,,,,,,,,,,,,,,,,,,,,,,,,,117,156331,19,Female,1,2024/03/22_16:04:39,YZ,None,
,,,,,,practice,0,34,2,2583,6,V,1,left,0.7507290970097529,1,0,,,,,,,,,,,,,,,,,,,,,1,,,,,,,,,,,,,,,,,,,,,,,,,,,,,,,,,,,,,,,,,,,,,,117,156331,19,Female,1,2024/03/22_16:04:39,YZ,None,
,,,,,,practice,0,34,2,2583,,,,,,,,1.0,1.0,0.0,1.0,0.0,1.0,1.337748856502003,2,0,0,0,0,4,6,2,4,0,,,,1,,,,,,,,,,,,,,,,,,,,,,,,,,,,,,,,,,,,,,,,,,,,,,117,156331,19,Female,1,2024/03/22_16:04:39,YZ,None,
1,./instructions/inst_to_cali/Slide20.png,right,2.618055236991495,134.08219621800527,136.70025145499676,,,,,,,,,,,,,,,,,,,,,,,,,,,,,,,,,1,,,,,,,,,,,,,,,,,,,,,,,,,,,,,,,,,,,,,,,,,,,,,,117,156331,19,Female,1,2024/03/22_16:04:39,YZ,None,
1,./instructions/inst_cali/Slide22.png,right,4.7115834779979195,136.73267251400102,141.44425599199894,,,,,,,,,,,,,,,,,,,,,,,,,,,,,,,,,1,,,,,,,,,,,,,,,,,,,,,,,,,,,,,,,,,,,,,,,,,,,,,,117,156331,19,Female,1,2024/03/22_16:04:39,YZ,None,
,,,,,,calibration,0,16,2,583,1,S,0,right,0.3718583129957551,1,0,,,,,,,,,,,,,,,,,,,,,1,,,,,,,,,,,,,,,,,,,,,,,,,,,,,,,,,,,,,,,,,,,,,,117,156331,19,Female,1,2024/03/22_16:04:39,YZ,None,
,,,,,,calibration,0,16,2,583,2,N,0,right,0.9481161739968229,1,0,,,,,,,,,,,,,,,,,,,,,1,,,,,,,,,,,,,,,,,,,,,,,,,,,,,,,,,,,,,,,,,,,,,,117,156331,19,Female,1,2024/03/22_16:04:39,YZ,None,
,,,,,,calibration,0,16,2,583,3,C,0,right,0.8561714230017969,1,0,,,,,,,,,,,,,,,,,,,,,1,,,,,,,,,,,,,,,,,,,,,,,,,,,,,,,,,,,,,,,,,,,,,,117,156331,19,Female,1,2024/03/22_16:04:39,YZ,None,
,,,,,,calibration,0,16,2,583,4,N,1,left,0.5877067720139166,1,0,,,,,,,,,,,,,,,,,,,,,1,,,,,,,,,,,,,,,,,,,,,,,,,,,,,,,,,,,,,,,,,,,,,,117,156331,19,Female,1,2024/03/22_16:04:39,YZ,None,
,,,,,,calibration,0,16,2,583,5,V,0,right,0.5626897820038721,1,0,,,,,,,,,,,,,,,,,,,,,1,,,,,,,,,,,,,,,,,,,,,,,,,,,,,,,,,,,,,,,,,,,,,,117,156331,19,Female,1,2024/03/22_16:04:39,YZ,None,
,,,,,,calibration,0,16,2,583,6,X,0,right,0.7263801549997879,1,0,,,,,,,,,,,,,,,,,,,,,1,,,,,,,,,,,,,,,,,,,,,,,,,,,,,,,,,,,,,,,,,,,,,,117,156331,19,Female,1,2024/03/22_16:04:39,YZ,None,
,,,,,,calibration,0,16,2,583,7,C,0,left,0.6563791559892707,0,0,,,,,,,,,,,,,,,,,,,,,1,,,,,,,,,,,,,,,,,,,,,,,,,,,,,,,,,,,,,,,,,,,,,,117,156331,19,Female,1,2024/03/22_16:04:39,YZ,None,
,,,,,,calibration,0,16,2,583,8,S,0,right,0.5787649389967555,1,0,,,,,,,,,,,,,,,,,,,,,1,,,,,,,,,,,,,,,,,,,,,,,,,,,,,,,,,,,,,,,,,,,,,,117,156331,19,Female,1,2024/03/22_16:04:39,YZ,None,
,,,,,,calibration,0,16,2,583,9,Q,0,left,0.5007491240103263,0,0,,,,,,,,,,,,,,,,,,,,,1,,,,,,,,,,,,,,,,,,,,,,,,,,,,,,,,,,,,,,,,,,,,,,117,156331,19,Female,1,2024/03/22_16:04:39,YZ,None,
,,,,,,calibration,0,16,2,583,10,S,1,left,0.8614242809999269,1,0,,,,,,,,,,,,,,,,,,,,,1,,,,,,,,,,,,,,,,,,,,,,,,,,,,,,,,,,,,,,,,,,,,,,117,156331,19,Female,1,2024/03/22_16:04:39,YZ,None,
,,,,,,calibration,0,16,2,583,11,F,0,right,0.37419350699929055,1,0,,,,,,,,,,,,,,,,,,,,,1,,,,,,,,,,,,,,,,,,,,,,,,,,,,,,,,,,,,,,,,,,,,,,117,156331,19,Female,1,2024/03/22_16:04:39,YZ,None,
,,,,,,calibration,0,16,2,583,12,S,1,left,0.8668212229968049,1,0,,,,,,,,,,,,,,,,,,,,,1,,,,,,,,,,,,,,,,,,,,,,,,,,,,,,,,,,,,,,,,,,,,,,117,156331,19,Female,1,2024/03/22_16:04:39,YZ,None,
,,,,,,calibration,0,16,2,583,13,X,0,right,0.6585567610018188,1,0,,,,,,,,,,,,,,,,,,,,,1,,,,,,,,,,,,,,,,,,,,,,,,,,,,,,,,,,,,,,,,,,,,,,117,156331,19,Female,1,2024/03/22_16:04:39,YZ,None,
,,,,,,calibration,0,16,2,583,14,V,0,right,1.426069130000542,1,0,,,,,,,,,,,,,,,,,,,,,1,,,,,,,,,,,,,,,,,,,,,,,,,,,,,,,,,,,,,,,,,,,,,,117,156331,19,Female,1,2024/03/22_16:04:39,YZ,None,
,,,,,,calibration,0,16,2,583,15,X,1,left,0.7235324460052652,1,0,,,,,,,,,,,,,,,,,,,,,1,,,,,,,,,,,,,,,,,,,,,,,,,,,,,,,,,,,,,,,,,,,,,,117,156331,19,Female,1,2024/03/22_16:04:39,YZ,None,
,,,,,,calibration,0,16,2,583,,,,,,,,0.9545454545454546,1.0,0.18181818181818182,0.8181818181818182,0.0,0.8181818181818181,0.7132942124007968,4,2,0,0,0,9,13,4,11,0,,,,1,,,,,,,,,,,,,,,,,,,,,,,,,,,,,,,,,,,,,,,,,,,,,,117,156331,19,Female,1,2024/03/22_16:04:39,YZ,None,
,,,,,,Calibration,0,,2,583,,,,,,,,,,,,,,,,,,,,,,,,,1,,,1,,,,,,,,,,,,,,,,,,,,,,,,,,,,,,,,,,,,,,,,,,,,,,117,156331,19,Female,1,2024/03/22_16:04:39,YZ,None,
,,,,,,calibration,0,1,2,500,1,X,0,right,0.8630292249872582,1,0,,,,,,,,,,,,,,,,,,,,,1,,,,,,,,,,,,,,,,,,,,,,,,,,,,,,,,,,,,,,,,,,,,,,117,156331,19,Female,1,2024/03/22_16:04:39,YZ,None,
,,,,,,calibration,0,1,2,500,2,X,0,right,nan,0,1,,,,,,,,,,,,,,,,,,,,,1,,,,,,,,,,,,,,,,,,,,,,,,,,,,,,,,,,,,,,,,,,,,,,117,156331,19,Female,1,2024/03/22_16:04:39,YZ,None,
,,,,,,calibration,0,1,2,500,3,J,0,right,nan,0,1,,,,,,,,,,,,,,,,,,,,,1,,,,,,,,,,,,,,,,,,,,,,,,,,,,,,,,,,,,,,,,,,,,,,117,156331,19,Female,1,2024/03/22_16:04:39,YZ,None,
,,,,,,calibration,0,1,2,500,4,N,0,right,0.11714484098774847,1,0,,,,,,,,,,,,,,,,,,,,,1,,,,,,,,,,,,,,,,,,,,,,,,,,,,,,,,,,,,,,,,,,,,,,117,156331,19,Female,1,2024/03/22_16:04:39,YZ,None,
,,,,,,calibration,0,1,2,500,5,J,1,left,0.601199238008121,1,0,,,,,,,,,,,,,,,,,,,,,1,,,,,,,,,,,,,,,,,,,,,,,,,,,,,,,,,,,,,,,,,,,,,,117,156331,19,Female,1,2024/03/22_16:04:39,YZ,None,
,,,,,,calibration,0,1,2,500,6,N,1,left,0.5222512439941056,1,0,,,,,,,,,,,,,,,,,,,,,1,,,,,,,,,,,,,,,,,,,,,,,,,,,,,,,,,,,,,,,,,,,,,,117,156331,19,Female,1,2024/03/22_16:04:39,YZ,None,
,,,,,,calibration,0,1,2,500,7,C,0,right,0.24929665900708642,1,0,,,,,,,,,,,,,,,,,,,,,1,,,,,,,,,,,,,,,,,,,,,,,,,,,,,,,,,,,,,,,,,,,,,,117,156331,19,Female,1,2024/03/22_16:04:39,YZ,None,
,,,,,,calibration,0,1,2,500,8,J,0,left,0.21907682900200598,0,0,,,,,,,,,,,,,,,,,,,,,1,,,,,,,,,,,,,,,,,,,,,,,,,,,,,,,,,,,,,,,,,,,,,,117,156331,19,Female,1,2024/03/22_16:04:39,YZ,None,
,,,,,,calibration,0,1,2,500,9,N,0,left,nan,0,1,,,,,,,,,,,,,,,,,,,,,1,,,,,,,,,,,,,,,,,,,,,,,,,,,,,,,,,,,,,,,,,,,,,,117,156331,19,Female,1,2024/03/22_16:04:39,YZ,None,
,,,,,,calibration,0,1,2,500,10,C,0,right,0.8998651199945016,1,0,,,,,,,,,,,,,,,,,,,,,1,,,,,,,,,,,,,,,,,,,,,,,,,,,,,,,,,,,,,,,,,,,,,,117,156331,19,Female,1,2024/03/22_16:04:39,YZ,None,
,,,,,,calibration,0,1,2,500,11,Q,0,left,0.25916405499447137,0,0,,,,,,,,,,,,,,,,,,,,,1,,,,,,,,,,,,,,,,,,,,,,,,,,,,,,,,,,,,,,,,,,,,,,117,156331,19,Female,1,2024/03/22_16:04:39,YZ,None,
,,,,,,calibration,0,1,2,500,12,J,0,right,0.9441148529876955,1,0,,,,,,,,,,,,,,,,,,,,,1,,,,,,,,,,,,,,,,,,,,,,,,,,,,,,,,,,,,,,,,,,,,,,117,156331,19,Female,1,2024/03/22_16:04:39,YZ,None,
,,,,,,calibration,0,1,2,500,13,S,0,right,0.7219916449976154,1,0,,,,,,,,,,,,,,,,,,,,,1,,,,,,,,,,,,,,,,,,,,,,,,,,,,,,,,,,,,,,,,,,,,,,117,156331,19,Female,1,2024/03/22_16:04:39,YZ,None,
,,,,,,calibration,0,1,2,500,14,J,1,left,0.4850787049945211,1,0,,,,,,,,,,,,,,,,,,,,,1,,,,,,,,,,,,,,,,,,,,,,,,,,,,,,,,,,,,,,,,,,,,,,117,156331,19,Female,1,2024/03/22_16:04:39,YZ,None,
,,,,,,calibration,0,1,2,500,15,Q,0,left,0.8319537299976218,0,0,,,,,,,,,,,,,,,,,,,,,1,,,,,,,,,,,,,,,,,,,,,,,,,,,,,,,,,,,,,,,,,,,,,,117,156331,19,Female,1,2024/03/22_16:04:39,YZ,None,
,,,,,,calibration,0,1,2,500,16,J,1,left,nan,0,1,,,,,,,,,,,,,,,,,,,,,1,,,,,,,,,,,,,,,,,,,,,,,,,,,,,,,,,,,,,,,,,,,,,,117,156331,19,Female,1,2024/03/22_16:04:39,YZ,None,
,,,,,,calibration,0,1,2,500,,,,,,,,0.8125,0.75,0.25,0.6666666666666666,0.25,0.5,0.5595138453293961,3,3,1,3,4,6,9,4,12,0,,,,1,,,,,,,,,,,,,,,,,,,,,,,,,,,,,,,,,,,,,,,,,,,,,,117,156331,19,Female,1,2024/03/22_16:04:39,YZ,None,
,,,,,,Calibration,0,,2,500,,,,,,,,,,,,,,,,,,,,,,,,,2,,,1,,,,,,,,,,,,,,,,,,,,,,,,,,,,,,,,,,,,,,,,,,,,,,117,156331,19,Female,1,2024/03/22_16:04:39,YZ,None,
,,,,,,calibration,0,9,2,500,1,J,0,right,0.9395608369959518,1,0,,,,,,,,,,,,,,,,,,,,,1,,,,,,,,,,,,,,,,,,,,,,,,,,,,,,,,,,,,,,,,,,,,,,117,156331,19,Female,1,2024/03/22_16:04:39,YZ,None,
,,,,,,calibration,0,9,2,500,2,N,0,right,nan,0,1,,,,,,,,,,,,,,,,,,,,,1,,,,,,,,,,,,,,,,,,,,,,,,,,,,,,,,,,,,,,,,,,,,,,117,156331,19,Female,1,2024/03/22_16:04:39,YZ,None,
,,,,,,calibration,0,9,2,500,3,J,1,left,0.5766855359979672,1,0,,,,,,,,,,,,,,,,,,,,,1,,,,,,,,,,,,,,,,,,,,,,,,,,,,,,,,,,,,,,,,,,,,,,117,156331,19,Female,1,2024/03/22_16:04:39,YZ,None,
,,,,,,calibration,0,9,2,500,4,F,0,right,0.8569454350072192,1,0,,,,,,,,,,,,,,,,,,,,,1,,,,,,,,,,,,,,,,,,,,,,,,,,,,,,,,,,,,,,,,,,,,,,117,156331,19,Female,1,2024/03/22_16:04:39,YZ,None,
,,,,,,calibration,0,9,2,500,5,C,0,left,0.6401691630017012,0,0,,,,,,,,,,,,,,,,,,,,,1,,,,,,,,,,,,,,,,,,,,,,,,,,,,,,,,,,,,,,,,,,,,,,117,156331,19,Female,1,2024/03/22_16:04:39,YZ,None,
,,,,,,calibration,0,9,2,500,6,F,1,left,nan,0,1,,,,,,,,,,,,,,,,,,,,,1,,,,,,,,,,,,,,,,,,,,,,,,,,,,,,,,,,,,,,,,,,,,,,117,156331,19,Female,1,2024/03/22_16:04:39,YZ,None,
,,,,,,calibration,0,9,2,500,7,X,0,right,0.41872465900087263,1,0,,,,,,,,,,,,,,,,,,,,,1,,,,,,,,,,,,,,,,,,,,,,,,,,,,,,,,,,,,,,,,,,,,,,117,156331,19,Female,1,2024/03/22_16:04:39,YZ,None,
,,,,,,calibration,0,9,2,500,8,J,0,left,0.733580351996352,0,0,,,,,,,,,,,,,,,,,,,,,1,,,,,,,,,,,,,,,,,,,,,,,,,,,,,,,,,,,,,,,,,,,,,,117,156331,19,Female,1,2024/03/22_16:04:39,YZ,None,
,,,,,,calibration,0,9,2,500,9,Q,0,left,nan,0,1,,,,,,,,,,,,,,,,,,,,,1,,,,,,,,,,,,,,,,,,,,,,,,,,,,,,,,,,,,,,,,,,,,,,117,156331,19,Female,1,2024/03/22_16:04:39,YZ,None,
,,,,,,calibration,0,9,2,500,10,J,1,left,0.9477616660005879,1,0,,,,,,,,,,,,,,,,,,,,,1,,,,,,,,,,,,,,,,,,,,,,,,,,,,,,,,,,,,,,,,,,,,,,117,156331,19,Female,1,2024/03/22_16:04:39,YZ,None,
,,,,,,calibration,0,9,2,500,11,F,0,right,0.7670237900019856,1,0,,,,,,,,,,,,,,,,,,,,,1,,,,,,,,,,,,,,,,,,,,,,,,,,,,,,,,,,,,,,,,,,,,,,117,156331,19,Female,1,2024/03/22_16:04:39,YZ,None,
,,,,,,calibration,0,9,2,500,12,J,1,right,nan,0,1,,,,,,,,,,,,,,,,,,,,,1,,,,,,,,,,,,,,,,,,,,,,,,,,,,,,,,,,,,,,,,,,,,,,117,156331,19,Female,1,2024/03/22_16:04:39,YZ,None,
,,,,,,calibration,0,9,2,500,13,F,1,right,0.9978635369916447,0,0,,,,,,,,,,,,,,,,,,,,,1,,,,,,,,,,,,,,,,,,,,,,,,,,,,,,,,,,,,,,,,,,,,,,117,156331,19,Female,1,2024/03/22_16:04:39,YZ,None,
,,,,,,calibration,0,9,2,500,14,X,0,right,nan,0,1,,,,,,,,,,,,,,,,,,,,,1,,,,,,,,,,,,,,,,,,,,,,,,,,,,,,,,,,,,,,,,,,,,,,117,156331,19,Female,1,2024/03/22_16:04:39,YZ,None,
,,,,,,calibration,0,9,2,500,15,V,0,right,0.9622051080077654,1,0,,,,,,,,,,,,,,,,,,,,,1,,,,,,,,,,,,,,,,,,,,,,,,,,,,,,,,,,,,,,,,,,,,,,117,156331,19,Female,1,2024/03/22_16:04:39,YZ,None,
,,,,,,calibration,0,9,2,500,16,C,0,left,0.9622300780029036,0,0,,,,,,,,,,,,,,,,,,,,,1,,,,,,,,,,,,,,,,,,,,,,,,,,,,,,,,,,,,,,,,,,,,,,117,156331,19,Female,1,2024/03/22_16:04:39,YZ,None,
,,,,,,calibration,0,9,2,500,,,,,,,,0.6113636363636364,0.4,0.2727272727272727,0.625,0.3125,0.4147727272727273,0.8002500146368138,2,3,2,3,5,5,7,5,11,0,,,,1,,,,,,,,,,,,,,,,,,,,,,,,,,,,,,,,,,,,,,,,,,,,,,117,156331,19,Female,1,2024/03/22_16:04:39,YZ,None,
,,,,,,Calibration,0,,2,500,,,,,,,,,,,,,,,,,,,,,,,,,3,,,1,,,,,,,,,,,,,,,,,,,,,,,,,,,,,,,,,,,,,,,,,,,,,,117,156331,19,Female,1,2024/03/22_16:04:39,YZ,None,
,,,,,,calibration,0,7,2,583,1,S,0,right,1.500207851990126,1,0,,,,,,,,,,,,,,,,,,,,,1,,,,,,,,,,,,,,,,,,,,,,,,,,,,,,,,,,,,,,,,,,,,,,117,156331,19,Female,1,2024/03/22_16:04:39,YZ,None,
,,,,,,calibration,0,7,2,583,2,N,0,right,1.106490196994855,1,0,,,,,,,,,,,,,,,,,,,,,1,,,,,,,,,,,,,,,,,,,,,,,,,,,,,,,,,,,,,,,,,,,,,,117,156331,19,Female,1,2024/03/22_16:04:39,YZ,None,
,,,,,,calibration,0,7,2,583,3,J,0,right,0.5290659150050487,1,0,,,,,,,,,,,,,,,,,,,,,1,,,,,,,,,,,,,,,,,,,,,,,,,,,,,,,,,,,,,,,,,,,,,,117,156331,19,Female,1,2024/03/22_16:04:39,YZ,None,
,,,,,,calibration,0,7,2,583,4,N,1,left,0.5421957299986389,1,0,,,,,,,,,,,,,,,,,,,,,1,,,,,,,,,,,,,,,,,,,,,,,,,,,,,,,,,,,,,,,,,,,,,,117,156331,19,Female,1,2024/03/22_16:04:39,YZ,None,
,,,,,,calibration,0,7,2,583,5,V,0,right,0.840195319004124,1,0,,,,,,,,,,,,,,,,,,,,,1,,,,,,,,,,,,,,,,,,,,,,,,,,,,,,,,,,,,,,,,,,,,,,117,156331,19,Female,1,2024/03/22_16:04:39,YZ,None,
,,,,,,calibration,0,7,2,583,6,N,1,right,0.5395157390012173,0,0,,,,,,,,,,,,,,,,,,,,,1,,,,,,,,,,,,,,,,,,,,,,,,,,,,,,,,,,,,,,,,,,,,,,117,156331,19,Female,1,2024/03/22_16:04:39,YZ,None,
,,,,,,calibration,0,7,2,583,7,V,1,left,1.3808706739946501,1,0,,,,,,,,,,,,,,,,,,,,,1,,,,,,,,,,,,,,,,,,,,,,,,,,,,,,,,,,,,,,,,,,,,,,117,156331,19,Female,1,2024/03/22_16:04:39,YZ,None,
,,,,,,calibration,0,7,2,583,8,Q,0,right,0.7645650369959185,1,0,,,,,,,,,,,,,,,,,,,,,1,,,,,,,,,,,,,,,,,,,,,,,,,,,,,,,,,,,,,,,,,,,,,,117,156331,19,Female,1,2024/03/22_16:04:39,YZ,None,
,,,,,,calibration,0,7,2,583,9,N,0,left,0.4665851850004401,0,0,,,,,,,,,,,,,,,,,,,,,1,,,,,,,,,,,,,,,,,,,,,,,,,,,,,,,,,,,,,,,,,,,,,,117,156331,19,Female,1,2024/03/22_16:04:39,YZ,None,
,,,,,,calibration,0,7,2,583,10,Q,1,left,1.0177030010090675,1,0,,,,,,,,,,,,,,,,,,,,,1,,,,,,,,,,,,,,,,,,,,,,,,,,,,,,,,,,,,,,,,,,,,,,117,156331,19,Female,1,2024/03/22_16:04:39,YZ,None,
,,,,,,calibration,0,7,2,583,11,X,0,right,0.7426479880086845,1,0,,,,,,,,,,,,,,,,,,,,,1,,,,,,,,,,,,,,,,,,,,,,,,,,,,,,,,,,,,,,,,,,,,,,117,156331,19,Female,1,2024/03/22_16:04:39,YZ,None,
,,,,,,calibration,0,7,2,583,12,J,0,left,0.9732490489986958,0,0,,,,,,,,,,,,,,,,,,,,,1,,,,,,,,,,,,,,,,,,,,,,,,,,,,,,,,,,,,,,,,,,,,,,117,156331,19,Female,1,2024/03/22_16:04:39,YZ,None,
,,,,,,calibration,0,7,2,583,13,S,0,right,0.9402751249872381,1,0,,,,,,,,,,,,,,,,,,,,,1,,,,,,,,,,,,,,,,,,,,,,,,,,,,,,,,,,,,,,,,,,,,,,117,156331,19,Female,1,2024/03/22_16:04:39,YZ,None,
,,,,,,calibration,0,7,2,583,14,J,1,left,0.9934422410005936,1,0,,,,,,,,,,,,,,,,,,,,,1,,,,,,,,,,,,,,,,,,,,,,,,,,,,,,,,,,,,,,,,,,,,,,117,156331,19,Female,1,2024/03/22_16:04:39,YZ,None,
,,,,,,calibration,0,7,2,583,15,Q,0,right,1.2228541679942282,1,0,,,,,,,,,,,,,,,,,,,,,1,,,,,,,,,,,,,,,,,,,,,,,,,,,,,,,,,,,,,,,,,,,,,,117,156331,19,Female,1,2024/03/22_16:04:39,YZ,None,
,,,,,,calibration,0,7,2,583,,,,,,,,0.86,0.8,0.2,0.8,0.0,0.8,0.9039908813322352,4,2,0,0,0,8,12,5,10,0,,,,1,,,,,,,,,,,,,,,,,,,,,,,,,,,,,,,,,,,,,,,,,,,,,,117,156331,19,Female,1,2024/03/22_16:04:39,YZ,None,
,,,,,,Calibration,0,,2,583,,,,,,,,,,,,,,,,,,,,,,,,,4,,,1,,,,,,,,,,,,,,,,,,,,,,,,,,,,,,,,,,,,,,,,,,,,,,117,156331,19,Female,1,2024/03/22_16:04:39,YZ,None,
,,,,,,calibration,0,12,2,500,1,V,0,None,nan,0,1,,,,,,,,,,,,,,,,,,,,,1,,,,,,,,,,,,,,,,,,,,,,,,,,,,,,,,,,,,,,,,,,,,,,117,156331,19,Female,1,2024/03/22_16:04:39,YZ,None,
,,,,,,calibration,0,12,2,500,2,V,0,None,nan,0,1,,,,,,,,,,,,,,,,,,,,,1,,,,,,,,,,,,,,,,,,,,,,,,,,,,,,,,,,,,,,,,,,,,,,117,156331,19,Female,1,2024/03/22_16:04:39,YZ,None,
,,,,,,calibration,0,12,2,500,3,Q,0,None,nan,0,1,,,,,,,,,,,,,,,,,,,,,1,,,,,,,,,,,,,,,,,,,,,,,,,,,,,,,,,,,,,,,,,,,,,,117,156331,19,Female,1,2024/03/22_16:04:39,YZ,None,
,,,,,,calibration,0,12,2,500,4,S,0,right,0.8942221239994979,1,0,,,,,,,,,,,,,,,,,,,,,1,,,,,,,,,,,,,,,,,,,,,,,,,,,,,,,,,,,,,,,,,,,,,,117,156331,19,Female,1,2024/03/22_16:04:39,YZ,None,
,,,,,,calibration,0,12,2,500,5,C,0,right,nan,0,1,,,,,,,,,,,,,,,,,,,,,1,,,,,,,,,,,,,,,,,,,,,,,,,,,,,,,,,,,,,,,,,,,,,,117,156331,19,Female,1,2024/03/22_16:04:39,YZ,None,
,,,,,,calibration,0,12,2,500,6,S,1,right,nan,0,1,,,,,,,,,,,,,,,,,,,,,1,,,,,,,,,,,,,,,,,,,,,,,,,,,,,,,,,,,,,,,,,,,,,,117,156331,19,Female,1,2024/03/22_16:04:39,YZ,None,
,,,,,,calibration,0,12,2,500,7,V,0,left,0.6661668169981567,0,0,,,,,,,,,,,,,,,,,,,,,1,,,,,,,,,,,,,,,,,,,,,,,,,,,,,,,,,,,,,,,,,,,,,,117,156331,19,Female,1,2024/03/22_16:04:39,YZ,None,
,,,,,,calibration,0,12,2,500,8,J,0,right,0.9482053870015079,1,0,,,,,,,,,,,,,,,,,,,,,1,,,,,,,,,,,,,,,,,,,,,,,,,,,,,,,,,,,,,,,,,,,,,,117,156331,19,Female,1,2024/03/22_16:04:39,YZ,None,
,,,,,,calibration,0,12,2,500,9,V,1,left,0.809562428999925,1,0,,,,,,,,,,,,,,,,,,,,,1,,,,,,,,,,,,,,,,,,,,,,,,,,,,,,,,,,,,,,,,,,,,,,117,156331,19,Female,1,2024/03/22_16:04:39,YZ,None,
,,,,,,calibration,0,12,2,500,10,S,0,right,0.7903428150020773,1,0,,,,,,,,,,,,,,,,,,,,,1,,,,,,,,,,,,,,,,,,,,,,,,,,,,,,,,,,,,,,,,,,,,,,117,156331,19,Female,1,2024/03/22_16:04:39,YZ,None,
,,,,,,calibration,0,12,2,500,11,V,1,left,0.48805076999997254,1,0,,,,,,,,,,,,,,,,,,,,,1,,,,,,,,,,,,,,,,,,,,,,,,,,,,,,,,,,,,,,,,,,,,,,117,156331,19,Female,1,2024/03/22_16:04:39,YZ,None,
,,,,,,calibration,0,12,2,500,12,S,1,left,0.7110504970041802,1,0,,,,,,,,,,,,,,,,,,,,,1,,,,,,,,,,,,,,,,,,,,,,,,,,,,,,,,,,,,,,,,,,,,,,117,156331,19,Female,1,2024/03/22_16:04:39,YZ,None,
,,,,,,calibration,0,12,2,500,13,Q,0,right,0.9959638390137115,1,0,,,,,,,,,,,,,,,,,,,,,1,,,,,,,,,,,,,,,,,,,,,,,,,,,,,,,,,,,,,,,,,,,,,,117,156331,19,Female,1,2024/03/22_16:04:39,YZ,None,
,,,,,,calibration,0,12,2,500,14,S,1,left,0.5751478159945691,1,0,,,,,,,,,,,,,,,,,,,,,1,,,,,,,,,,,,,,,,,,,,,,,,,,,,,,,,,,,,,,,,,,,,,,117,156331,19,Female,1,2024/03/22_16:04:39,YZ,None,
,,,,,,calibration,0,12,2,500,15,F,0,left,nan,0,1,,,,,,,,,,,,,,,,,,,,,1,,,,,,,,,,,,,,,,,,,,,,,,,,,,,,,,,,,,,,,,,,,,,,117,156331,19,Female,1,2024/03/22_16:04:39,YZ,None,
,,,,,,calibration,0,12,2,500,16,J,0,right,0.0,1,0,,,,,,,,,,,,,,,,,,,,,1,,,,,,,,,,,,,,,,,,,,,,,,,,,,,,,,,,,,,,,,,,,,,,117,156331,19,Female,1,2024/03/22_16:04:39,YZ,None,
,,,,,,calibration,0,12,2,500,,,,,,,,0.9090909090909091,0.8,0.09090909090909091,0.8333333333333334,0.375,0.5340909090909091,0.6878712494013598,4,1,1,5,6,5,9,5,11,0,,,,1,,,,,,,,,,,,,,,,,,,,,,,,,,,,,,,,,,,,,,,,,,,,,,117,156331,19,Female,1,2024/03/22_16:04:39,YZ,None,
,,,,,,Calibration,0,,2,500,,,,,,,,,,,,,,,,,,,,,,,,,5,,,1,,,,,,,,,,,,,,,,,,,,,,,,,,,,,,,,,,,,,,,,,,,,,,117,156331,19,Female,1,2024/03/22_16:04:39,YZ,None,
,,,,,,calibration,0,16,2,426,1,S,0,right,0.7464933009905508,1,0,,,,,,,,,,,,,,,,,,,,,1,,,,,,,,,,,,,,,,,,,,,,,,,,,,,,,,,,,,,,,,,,,,,,117,156331,19,Female,1,2024/03/22_16:04:39,YZ,None,
,,,,,,calibration,0,16,2,426,2,S,0,left,0.631694736002828,0,0,,,,,,,,,,,,,,,,,,,,,1,,,,,,,,,,,,,,,,,,,,,,,,,,,,,,,,,,,,,,,,,,,,,,117,156331,19,Female,1,2024/03/22_16:04:39,YZ,None,
,,,,,,calibration,0,16,2,426,3,S,1,left,0.5423242389952065,1,0,,,,,,,,,,,,,,,,,,,,,1,,,,,,,,,,,,,,,,,,,,,,,,,,,,,,,,,,,,,,,,,,,,,,117,156331,19,Female,1,2024/03/22_16:04:39,YZ,None,
,,,,,,calibration,0,16,2,426,4,C,0,right,0.7121676370006753,1,0,,,,,,,,,,,,,,,,,,,,,1,,,,,,,,,,,,,,,,,,,,,,,,,,,,,,,,,,,,,,,,,,,,,,117,156331,19,Female,1,2024/03/22_16:04:39,YZ,None,
,,,,,,calibration,0,16,2,426,5,N,0,right,0.9414613840053789,1,0,,,,,,,,,,,,,,,,,,,,,1,,,,,,,,,,,,,,,,,,,,,,,,,,,,,,,,,,,,,,,,,,,,,,117,156331,19,Female,1,2024/03/22_16:04:39,YZ,None,
,,,,,,calibration,0,16,2,426,6,X,0,right,nan,0,1,,,,,,,,,,,,,,,,,,,,,1,,,,,,,,,,,,,,,,,,,,,,,,,,,,,,,,,,,,,,,,,,,,,,117,156331,19,Female,1,2024/03/22_16:04:39,YZ,None,
,,,,,,calibration,0,16,2,426,7,C,0,left,0.9754901539999992,0,0,,,,,,,,,,,,,,,,,,,,,1,,,,,,,,,,,,,,,,,,,,,,,,,,,,,,,,,,,,,,,,,,,,,,117,156331,19,Female,1,2024/03/22_16:04:39,YZ,None,
,,,,,,calibration,0,16,2,426,8,N,0,left,nan,0,1,,,,,,,,,,,,,,,,,,,,,1,,,,,,,,,,,,,,,,,,,,,,,,,,,,,,,,,,,,,,,,,,,,,,117,156331,19,Female,1,2024/03/22_16:04:39,YZ,None,
,,,,,,calibration,0,16,2,426,9,V,0,right,0.9156436890043551,1,0,,,,,,,,,,,,,,,,,,,,,1,,,,,,,,,,,,,,,,,,,,,,,,,,,,,,,,,,,,,,,,,,,,,,117,156331,19,Female,1,2024/03/22_16:04:39,YZ,None,
,,,,,,calibration,0,16,2,426,10,N,1,right,nan,0,1,,,,,,,,,,,,,,,,,,,,,1,,,,,,,,,,,,,,,,,,,,,,,,,,,,,,,,,,,,,,,,,,,,,,117,156331,19,Female,1,2024/03/22_16:04:39,YZ,None,
,,,,,,calibration,0,16,2,426,11,S,0,right,0.9085469850106165,1,0,,,,,,,,,,,,,,,,,,,,,1,,,,,,,,,,,,,,,,,,,,,,,,,,,,,,,,,,,,,,,,,,,,,,117,156331,19,Female,1,2024/03/22_16:04:39,YZ,None,
,,,,,,calibration,0,16,2,426,12,N,1,left,0.7309124780003913,1,0,,,,,,,,,,,,,,,,,,,,,1,,,,,,,,,,,,,,,,,,,,,,,,,,,,,,,,,,,,,,,,,,,,,,117,156331,19,Female,1,2024/03/22_16:04:39,YZ,None,
,,,,,,calibration,0,16,2,426,13,F,0,right,0.6653742339985911,1,0,,,,,,,,,,,,,,,,,,,,,1,,,,,,,,,,,,,,,,,,,,,,,,,,,,,,,,,,,,,,,,,,,,,,117,156331,19,Female,1,2024/03/22_16:04:39,YZ,None,
,,,,,,calibration,0,16,2,426,14,N,1,left,0.7089312199968845,1,0,,,,,,,,,,,,,,,,,,,,,1,,,,,,,,,,,,,,,,,,,,,,,,,,,,,,,,,,,,,,,,,,,,,,117,156331,19,Female,1,2024/03/22_16:04:39,YZ,None,
,,,,,,calibration,0,16,2,426,15,S,0,right,0.8730844009987777,1,0,,,,,,,,,,,,,,,,,,,,,1,,,,,,,,,,,,,,,,,,,,,,,,,,,,,,,,,,,,,,,,,,,,,,117,156331,19,Female,1,2024/03/22_16:04:39,YZ,None,
,,,,,,calibration,0,16,2,426,16,N,1,left,0.511264453001786,1,0,,,,,,,,,,,,,,,,,,,,,1,,,,,,,,,,,,,,,,,,,,,,,,,,,,,,,,,,,,,,,,,,,,,,117,156331,19,Female,1,2024/03/22_16:04:39,YZ,None,
,,,,,,calibration,0,16,2,426,17,F,0,right,0.6604355489980662,1,0,,,,,,,,,,,,,,,,,,,,,1,,,,,,,,,,,,,,,,,,,,,,,,,,,,,,,,,,,,,,,,,,,,,,117,156331,19,Female,1,2024/03/22_16:04:39,YZ,None,
,,,,,,calibration,0,16,2,426,,,,,,,,0.875,0.8,0.16666666666666666,0.8,0.17647058823529413,0.6568627450980392,0.7517017471431505,4,2,1,2,3,8,12,5,12,0,,,,1,,,,,,,,,,,,,,,,,,,,,,,,,,,,,,,,,,,,,,,,,,,,,,117,156331,19,Female,1,2024/03/22_16:04:39,YZ,None,
,,,,,,Calibration,0,,2,426,,,,,,,,,,,,,,,,,,,,,,,,,6,,,1,,,,,,,,,,,,,,,,,,,,,,,,,,,,,,,,,,,,,,,,,,,,,,117,156331,19,Female,1,2024/03/22_16:04:39,YZ,None,
,,,,,,calibration,0,35,2,361,1,Q,0,left,0.4364448819978861,0,0,,,,,,,,,,,,,,,,,,,,,1,,,,,,,,,,,,,,,,,,,,,,,,,,,,,,,,,,,,,,,,,,,,,,117,156331,19,Female,1,2024/03/22_16:04:39,YZ,None,
,,,,,,calibration,0,35,2,361,2,F,0,right,0.9525368820031872,1,0,,,,,,,,,,,,,,,,,,,,,1,,,,,,,,,,,,,,,,,,,,,,,,,,,,,,,,,,,,,,,,,,,,,,117,156331,19,Female,1,2024/03/22_16:04:39,YZ,None,
,,,,,,calibration,0,35,2,361,3,Q,1,left,0.5565036069892813,1,0,,,,,,,,,,,,,,,,,,,,,1,,,,,,,,,,,,,,,,,,,,,,,,,,,,,,,,,,,,,,,,,,,,,,117,156331,19,Female,1,2024/03/22_16:04:39,YZ,None,
,,,,,,calibration,0,35,2,361,4,V,0,right,0.5455818460031878,1,0,,,,,,,,,,,,,,,,,,,,,1,,,,,,,,,,,,,,,,,,,,,,,,,,,,,,,,,,,,,,,,,,,,,,117,156331,19,Female,1,2024/03/22_16:04:39,YZ,None,
,,,,,,calibration,0,35,2,361,5,Q,1,left,0.6983212090126472,1,0,,,,,,,,,,,,,,,,,,,,,1,,,,,,,,,,,,,,,,,,,,,,,,,,,,,,,,,,,,,,,,,,,,,,117,156331,19,Female,1,2024/03/22_16:04:39,YZ,None,
,,,,,,calibration,0,35,2,361,6,C,0,right,0.6773143259924836,1,0,,,,,,,,,,,,,,,,,,,,,1,,,,,,,,,,,,,,,,,,,,,,,,,,,,,,,,,,,,,,,,,,,,,,117,156331,19,Female,1,2024/03/22_16:04:39,YZ,None,
,,,,,,calibration,0,35,2,361,7,V,0,left,0.6392317269928753,0,0,,,,,,,,,,,,,,,,,,,,,1,,,,,,,,,,,,,,,,,,,,,,,,,,,,,,,,,,,,,,,,,,,,,,117,156331,19,Female,1,2024/03/22_16:04:39,YZ,None,
,,,,,,calibration,0,35,2,361,8,S,0,right,0.4733045930042863,1,0,,,,,,,,,,,,,,,,,,,,,1,,,,,,,,,,,,,,,,,,,,,,,,,,,,,,,,,,,,,,,,,,,,,,117,156331,19,Female,1,2024/03/22_16:04:39,YZ,None,
,,,,,,calibration,0,35,2,361,9,Q,0,left,0.8472613049962092,0,0,,,,,,,,,,,,,,,,,,,,,1,,,,,,,,,,,,,,,,,,,,,,,,,,,,,,,,,,,,,,,,,,,,,,117,156331,19,Female,1,2024/03/22_16:04:39,YZ,None,
,,,,,,calibration,0,35,2,361,10,F,0,left,nan,0,1,,,,,,,,,,,,,,,,,,,,,1,,,,,,,,,,,,,,,,,,,,,,,,,,,,,,,,,,,,,,,,,,,,,,117,156331,19,Female,1,2024/03/22_16:04:39,YZ,None,
,,,,,,calibration,0,35,2,361,11,V,0,right,0.5298109780123923,1,0,,,,,,,,,,,,,,,,,,,,,1,,,,,,,,,,,,,,,,,,,,,,,,,,,,,,,,,,,,,,,,,,,,,,117,156331,19,Female,1,2024/03/22_16:04:39,YZ,None,
,,,,,,calibration,0,35,2,361,12,Q,0,right,0.9749180869985139,1,0,,,,,,,,,,,,,,,,,,,,,1,,,,,,,,,,,,,,,,,,,,,,,,,,,,,,,,,,,,,,,,,,,,,,117,156331,19,Female,1,2024/03/22_16:04:39,YZ,None,
,,,,,,calibration,0,35,2,361,13,V,1,left,0.8063518999988446,1,0,,,,,,,,,,,,,,,,,,,,,1,,,,,,,,,,,,,,,,,,,,,,,,,,,,,,,,,,,,,,,,,,,,,,117,156331,19,Female,1,2024/03/22_16:04:39,YZ,None,
,,,,,,calibration,0,35,2,361,14,S,0,right,0.7256521429953864,1,0,,,,,,,,,,,,,,,,,,,,,1,,,,,,,,,,,,,,,,,,,,,,,,,,,,,,,,,,,,,,,,,,,,,,117,156331,19,Female,1,2024/03/22_16:04:39,YZ,None,
,,,,,,calibration,0,35,2,361,15,V,1,left,0.35900149699591566,1,0,,,,,,,,,,,,,,,,,,,,,1,,,,,,,,,,,,,,,,,,,,,,,,,,,,,,,,,,,,,,,,,,,,,,117,156331,19,Female,1,2024/03/22_16:04:39,YZ,None,
,,,,,,calibration,0,35,2,361,16,Q,0,right,0.3888054249982815,1,0,,,,,,,,,,,,,,,,,,,,,1,,,,,,,,,,,,,,,,,,,,,,,,,,,,,,,,,,,,,,,,,,,,,,117,156331,19,Female,1,2024/03/22_16:04:39,YZ,None,
,,,,,,calibration,0,35,2,361,17,S,0,left,0.7432607399969129,0,0,,,,,,,,,,,,,,,,,,,,,1,,,,,,,,,,,,,,,,,,,,,,,,,,,,,,,,,,,,,,,,,,,,,,117,156331,19,Female,1,2024/03/22_16:04:39,YZ,None,
,,,,,,calibration,0,35,2,361,18,Q,1,left,0.8092634819913656,1,0,,,,,,,,,,,,,,,,,,,,,1,,,,,,,,,,,,,,,,,,,,,,,,,,,,,,,,,,,,,,,,,,,,,,117,156331,19,Female,1,2024/03/22_16:04:39,YZ,None,
,,,,,,calibration,0,35,2,361,,,,,,,,0.9230769230769231,1.0,0.3076923076923077,0.6666666666666666,0.05555555555555555,0.6367521367521367,0.656680272292921,5,4,0,1,1,8,13,5,13,0,,,,1,,,,,,,,,,,,,,,,,,,,,,,,,,,,,,,,,,,,,,,,,,,,,,117,156331,19,Female,1,2024/03/22_16:04:39,YZ,None,
,,,,,,Calibration,0,,2,361,,,,,,,,,,,,,,,,,,,,,,,,,7,,,1,,,,,,,,,,,,,,,,,,,,,,,,,,,,,,,,,,,,,,,,,,,,,,117,156331,19,Female,1,2024/03/22_16:04:39,YZ,None,
,,,,,,calibration,0,33,2,303,1,J,0,right,0.8666902350087184,1,0,,,,,,,,,,,,,,,,,,,,,1,,,,,,,,,,,,,,,,,,,,,,,,,,,,,,,,,,,,,,,,,,,,,,117,156331,19,Female,1,2024/03/22_16:04:39,YZ,None,
,,,,,,calibration,0,33,2,303,2,S,0,right,0.5837053000141168,1,0,,,,,,,,,,,,,,,,,,,,,1,,,,,,,,,,,,,,,,,,,,,,,,,,,,,,,,,,,,,,,,,,,,,,117,156331,19,Female,1,2024/03/22_16:04:39,YZ,None,
,,,,,,calibration,0,33,2,303,3,J,1,left,0.6231287289992906,1,0,,,,,,,,,,,,,,,,,,,,,1,,,,,,,,,,,,,,,,,,,,,,,,,,,,,,,,,,,,,,,,,,,,,,117,156331,19,Female,1,2024/03/22_16:04:39,YZ,None,
,,,,,,calibration,0,33,2,303,4,Q,0,right,0.6230553930072347,1,0,,,,,,,,,,,,,,,,,,,,,1,,,,,,,,,,,,,,,,,,,,,,,,,,,,,,,,,,,,,,,,,,,,,,117,156331,19,Female,1,2024/03/22_16:04:39,YZ,None,
,,,,,,calibration,0,33,2,303,5,F,0,right,0.857431220007129,1,0,,,,,,,,,,,,,,,,,,,,,1,,,,,,,,,,,,,,,,,,,,,,,,,,,,,,,,,,,,,,,,,,,,,,117,156331,19,Female,1,2024/03/22_16:04:39,YZ,None,
,,,,,,calibration,0,33,2,303,6,X,0,right,0.9487003850081237,1,0,,,,,,,,,,,,,,,,,,,,,1,,,,,,,,,,,,,,,,,,,,,,,,,,,,,,,,,,,,,,,,,,,,,,117,156331,19,Female,1,2024/03/22_16:04:39,YZ,None,
,,,,,,calibration,0,33,2,303,7,F,1,right,nan,0,1,,,,,,,,,,,,,,,,,,,,,1,,,,,,,,,,,,,,,,,,,,,,,,,,,,,,,,,,,,,,,,,,,,,,117,156331,19,Female,1,2024/03/22_16:04:39,YZ,None,
,,,,,,calibration,0,33,2,303,8,X,1,left,0.8753157700120937,1,0,,,,,,,,,,,,,,,,,,,,,1,,,,,,,,,,,,,,,,,,,,,,,,,,,,,,,,,,,,,,,,,,,,,,117,156331,19,Female,1,2024/03/22_16:04:39,YZ,None,
,,,,,,calibration,0,33,2,303,9,N,0,right,0.574166979000438,1,0,,,,,,,,,,,,,,,,,,,,,1,,,,,,,,,,,,,,,,,,,,,,,,,,,,,,,,,,,,,,,,,,,,,,117,156331,19,Female,1,2024/03/22_16:04:39,YZ,None,
,,,,,,calibration,0,33,2,303,10,X,1,left,0.5758613159996457,1,0,,,,,,,,,,,,,,,,,,,,,1,,,,,,,,,,,,,,,,,,,,,,,,,,,,,,,,,,,,,,,,,,,,,,117,156331,19,Female,1,2024/03/22_16:04:39,YZ,None,
,,,,,,calibration,0,33,2,303,11,C,0,right,0.7219409840035951,1,0,,,,,,,,,,,,,,,,,,,,,1,,,,,,,,,,,,,,,,,,,,,,,,,,,,,,,,,,,,,,,,,,,,,,117,156331,19,Female,1,2024/03/22_16:04:39,YZ,None,
,,,,,,calibration,0,33,2,303,12,N,0,left,0.40003028900537174,0,0,,,,,,,,,,,,,,,,,,,,,1,,,,,,,,,,,,,,,,,,,,,,,,,,,,,,,,,,,,,,,,,,,,,,117,156331,19,Female,1,2024/03/22_16:04:39,YZ,None,
,,,,,,calibration,0,33,2,303,13,C,1,right,0.569517679992714,0,0,,,,,,,,,,,,,,,,,,,,,1,,,,,,,,,,,,,,,,,,,,,,,,,,,,,,,,,,,,,,,,,,,,,,117,156331,19,Female,1,2024/03/22_16:04:39,YZ,None,
,,,,,,calibration,0,33,2,303,14,X,0,right,0.4709835829999065,1,0,,,,,,,,,,,,,,,,,,,,,1,,,,,,,,,,,,,,,,,,,,,,,,,,,,,,,,,,,,,,,,,,,,,,117,156331,19,Female,1,2024/03/22_16:04:39,YZ,None,
,,,,,,calibration,0,33,2,303,15,F,0,left,0.5461573939974187,0,0,,,,,,,,,,,,,,,,,,,,,1,,,,,,,,,,,,,,,,,,,,,,,,,,,,,,,,,,,,,,,,,,,,,,117,156331,19,Female,1,2024/03/22_16:04:39,YZ,None,
,,,,,,calibration,0,33,2,303,16,C,0,right,0.33560729400778655,1,0,,,,,,,,,,,,,,,,,,,,,1,,,,,,,,,,,,,,,,,,,,,,,,,,,,,,,,,,,,,,,,,,,,,,117,156331,19,Female,1,2024/03/22_16:04:39,YZ,None,
,,,,,,calibration,0,33,2,303,17,J,0,right,0.6769280589942355,1,0,,,,,,,,,,,,,,,,,,,,,1,,,,,,,,,,,,,,,,,,,,,,,,,,,,,,,,,,,,,,,,,,,,,,117,156331,19,Female,1,2024/03/22_16:04:39,YZ,None,
,,,,,,calibration,0,33,2,303,18,N,0,right,0.7062471060053213,1,0,,,,,,,,,,,,,,,,,,,,,1,,,,,,,,,,,,,,,,,,,,,,,,,,,,,,,,,,,,,,,,,,,,,,117,156331,19,Female,1,2024/03/22_16:04:39,YZ,None,
,,,,,,calibration,0,33,2,303,19,F,0,right,nan,0,1,,,,,,,,,,,,,,,,,,,,,1,,,,,,,,,,,,,,,,,,,,,,,,,,,,,,,,,,,,,,,,,,,,,,117,156331,19,Female,1,2024/03/22_16:04:39,YZ,None,
,,,,,,calibration,0,33,2,303,,,,,,,,0.8071428571428572,0.6,0.14285714285714285,0.8461538461538461,0.10526315789473684,0.7518796992481204,0.6444392774154788,3,2,1,1,2,11,14,5,14,0,,,,1,,,,,,,,,,,,,,,,,,,,,,,,,,,,,,,,,,,,,,,,,,,,,,117,156331,19,Female,1,2024/03/22_16:04:39,YZ,None,
,,,,,,Calibration,0,,2,303,,,,,,,,,,,,,,,,,,,,,,,,,8,,,1,,,,,,,,,,,,,,,,,,,,,,,,,,,,,,,,,,,,,,,,,,,,,,117,156331,19,Female,1,2024/03/22_16:04:39,YZ,None,
,,,,,,calibration,0,10,2,303,1,C,0,right,0.8105368329997873,1,0,,,,,,,,,,,,,,,,,,,,,1,,,,,,,,,,,,,,,,,,,,,,,,,,,,,,,,,,,,,,,,,,,,,,117,156331,19,Female,1,2024/03/22_16:04:39,YZ,None,
,,,,,,calibration,0,10,2,303,2,Q,0,right,0.7823161500127753,1,0,,,,,,,,,,,,,,,,,,,,,1,,,,,,,,,,,,,,,,,,,,,,,,,,,,,,,,,,,,,,,,,,,,,,117,156331,19,Female,1,2024/03/22_16:04:39,YZ,None,
,,,,,,calibration,0,10,2,303,3,C,1,left,0.4834431979979854,1,0,,,,,,,,,,,,,,,,,,,,,1,,,,,,,,,,,,,,,,,,,,,,,,,,,,,,,,,,,,,,,,,,,,,,117,156331,19,Female,1,2024/03/22_16:04:39,YZ,None,
,,,,,,calibration,0,10,2,303,4,Q,1,left,nan,0,1,,,,,,,,,,,,,,,,,,,,,1,,,,,,,,,,,,,,,,,,,,,,,,,,,,,,,,,,,,,,,,,,,,,,117,156331,19,Female,1,2024/03/22_16:04:39,YZ,None,
,,,,,,calibration,0,10,2,303,5,F,0,left,nan,0,1,,,,,,,,,,,,,,,,,,,,,1,,,,,,,,,,,,,,,,,,,,,,,,,,,,,,,,,,,,,,,,,,,,,,117,156331,19,Female,1,2024/03/22_16:04:39,YZ,None,
,,,,,,calibration,0,10,2,303,6,Q,1,left,0.9094925440003863,1,0,,,,,,,,,,,,,,,,,,,,,1,,,,,,,,,,,,,,,,,,,,,,,,,,,,,,,,,,,,,,,,,,,,,,117,156331,19,Female,1,2024/03/22_16:04:39,YZ,None,
,,,,,,calibration,0,10,2,303,7,F,1,left,0.9754864339920459,1,0,,,,,,,,,,,,,,,,,,,,,1,,,,,,,,,,,,,,,,,,,,,,,,,,,,,,,,,,,,,,,,,,,,,,117,156331,19,Female,1,2024/03/22_16:04:39,YZ,None,
,,,,,,calibration,0,10,2,303,8,X,0,right,0.6289622960030101,1,0,,,,,,,,,,,,,,,,,,,,,1,,,,,,,,,,,,,,,,,,,,,,,,,,,,,,,,,,,,,,,,,,,,,,117,156331,19,Female,1,2024/03/22_16:04:39,YZ,None,
,,,,,,calibration,0,10,2,303,9,J,0,right,0.6664936669985764,1,0,,,,,,,,,,,,,,,,,,,,,1,,,,,,,,,,,,,,,,,,,,,,,,,,,,,,,,,,,,,,,,,,,,,,117,156331,19,Female,1,2024/03/22_16:04:39,YZ,None,
,,,,,,calibration,0,10,2,303,10,F,0,left,0.6984206689958228,0,0,,,,,,,,,,,,,,,,,,,,,1,,,,,,,,,,,,,,,,,,,,,,,,,,,,,,,,,,,,,,,,,,,,,,117,156331,19,Female,1,2024/03/22_16:04:39,YZ,None,
,,,,,,calibration,0,10,2,303,11,J,1,left,0.925781565005309,1,0,,,,,,,,,,,,,,,,,,,,,1,,,,,,,,,,,,,,,,,,,,,,,,,,,,,,,,,,,,,,,,,,,,,,117,156331,19,Female,1,2024/03/22_16:04:39,YZ,None,
,,,,,,calibration,0,10,2,303,12,N,0,right,0.6789623989898246,1,0,,,,,,,,,,,,,,,,,,,,,1,,,,,,,,,,,,,,,,,,,,,,,,,,,,,,,,,,,,,,,,,,,,,,117,156331,19,Female,1,2024/03/22_16:04:39,YZ,None,
,,,,,,calibration,0,10,2,303,13,C,0,right,0.9927789469948038,1,0,,,,,,,,,,,,,,,,,,,,,1,,,,,,,,,,,,,,,,,,,,,,,,,,,,,,,,,,,,,,,,,,,,,,117,156331,19,Female,1,2024/03/22_16:04:39,YZ,None,
,,,,,,calibration,0,10,2,303,14,S,0,right,0.979702234006254,1,0,,,,,,,,,,,,,,,,,,,,,1,,,,,,,,,,,,,,,,,,,,,,,,,,,,,,,,,,,,,,,,,,,,,,117,156331,19,Female,1,2024/03/22_16:04:39,YZ,None,
,,,,,,calibration,0,10,2,303,15,C,1,left,0.8753131710109301,1,0,,,,,,,,,,,,,,,,,,,,,1,,,,,,,,,,,,,,,,,,,,,,,,,,,,,,,,,,,,,,,,,,,,,,117,156331,19,Female,1,2024/03/22_16:04:39,YZ,None,
,,,,,,calibration,0,10,2,303,16,V,0,right,0.5234147489973111,1,0,,,,,,,,,,,,,,,,,,,,,1,,,,,,,,,,,,,,,,,,,,,,,,,,,,,,,,,,,,,,,,,,,,,,117,156331,19,Female,1,2024/03/22_16:04:39,YZ,None,
,,,,,,calibration,0,10,2,303,17,S,0,left,0.5116078450082568,0,0,,,,,,,,,,,,,,,,,,,,,1,,,,,,,,,,,,,,,,,,,,,,,,,,,,,,,,,,,,,,,,,,,,,,117,156331,19,Female,1,2024/03/22_16:04:39,YZ,None,
,,,,,,calibration,0,10,2,303,18,F,0,right,0.5113872939982684,1,0,,,,,,,,,,,,,,,,,,,,,1,,,,,,,,,,,,,,,,,,,,,,,,,,,,,,,,,,,,,,,,,,,,,,117,156331,19,Female,1,2024/03/22_16:04:39,YZ,None,
,,,,,,calibration,0,10,2,303,19,X,0,right,0.6943370230001165,1,0,,,,,,,,,,,,,,,,,,,,,1,,,,,,,,,,,,,,,,,,,,,,,,,,,,,,,,,,,,,,,,,,,,,,117,156331,19,Female,1,2024/03/22_16:04:39,YZ,None,
,,,,,,calibration,0,10,2,303,,,,,,,,0.8942307692307693,0.8333333333333334,0.15384615384615385,0.8333333333333334,0.10526315789473684,0.7408906882591093,0.7440257069418508,5,2,1,1,2,10,15,6,13,0,,,,1,,,,,,,,,,,,,,,,,,,,,,,,,,,,,,,,,,,,,,,,,,,,,,117,156331,19,Female,1,2024/03/22_16:04:39,YZ,None,
,,,,,,Calibration,0,,2,303,,,,,,,,,,,,,,,,,,,,,,,,,9,,,1,,,,,,,,,,,,,,,,,,,,,,,,,,,,,,,,,,,,,,,,,,,,,,117,156331,19,Female,1,2024/03/22_16:04:39,YZ,None,
,,,,,,calibration,0,19,2,250,1,V,0,right,0.7171229329978814,1,0,,,,,,,,,,,,,,,,,,,,,1,,,,,,,,,,,,,,,,,,,,,,,,,,,,,,,,,,,,,,,,,,,,,,117,156331,19,Female,1,2024/03/22_16:04:39,YZ,None,
,,,,,,calibration,0,19,2,250,2,C,0,left,0.4937846190005075,0,0,,,,,,,,,,,,,,,,,,,,,1,,,,,,,,,,,,,,,,,,,,,,,,,,,,,,,,,,,,,,,,,,,,,,117,156331,19,Female,1,2024/03/22_16:04:39,YZ,None,
,,,,,,calibration,0,19,2,250,3,N,0,left,nan,0,1,,,,,,,,,,,,,,,,,,,,,1,,,,,,,,,,,,,,,,,,,,,,,,,,,,,,,,,,,,,,,,,,,,,,117,156331,19,Female,1,2024/03/22_16:04:39,YZ,None,
,,,,,,calibration,0,19,2,250,4,Q,0,right,0.7442822349985363,1,0,,,,,,,,,,,,,,,,,,,,,1,,,,,,,,,,,,,,,,,,,,,,,,,,,,,,,,,,,,,,,,,,,,,,117,156331,19,Female,1,2024/03/22_16:04:39,YZ,None,
,,,,,,calibration,0,19,2,250,5,X,0,right,0.8398759889969369,1,0,,,,,,,,,,,,,,,,,,,,,1,,,,,,,,,,,,,,,,,,,,,,,,,,,,,,,,,,,,,,,,,,,,,,117,156331,19,Female,1,2024/03/22_16:04:39,YZ,None,
,,,,,,calibration,0,19,2,250,6,Q,1,right,nan,0,1,,,,,,,,,,,,,,,,,,,,,1,,,,,,,,,,,,,,,,,,,,,,,,,,,,,,,,,,,,,,,,,,,,,,117,156331,19,Female,1,2024/03/22_16:04:39,YZ,None,
,,,,,,calibration,0,19,2,250,7,C,0,right,0.49230341099610087,1,0,,,,,,,,,,,,,,,,,,,,,1,,,,,,,,,,,,,,,,,,,,,,,,,,,,,,,,,,,,,,,,,,,,,,117,156331,19,Female,1,2024/03/22_16:04:39,YZ,None,
,,,,,,calibration,0,19,2,250,8,Q,1,left,0.7649579879944213,1,0,,,,,,,,,,,,,,,,,,,,,1,,,,,,,,,,,,,,,,,,,,,,,,,,,,,,,,,,,,,,,,,,,,,,117,156331,19,Female,1,2024/03/22_16:04:39,YZ,None,
,,,,,,calibration,0,19,2,250,9,C,1,left,0.7757982920011273,1,0,,,,,,,,,,,,,,,,,,,,,1,,,,,,,,,,,,,,,,,,,,,,,,,,,,,,,,,,,,,,,,,,,,,,117,156331,19,Female,1,2024/03/22_16:04:39,YZ,None,
,,,,,,calibration,0,19,2,250,10,V,0,right,0.6121474420069717,1,0,,,,,,,,,,,,,,,,,,,,,1,,,,,,,,,,,,,,,,,,,,,,,,,,,,,,,,,,,,,,,,,,,,,,117,156331,19,Female,1,2024/03/22_16:04:39,YZ,None,
,,,,,,calibration,0,19,2,250,11,F,0,right,nan,0,1,,,,,,,,,,,,,,,,,,,,,1,,,,,,,,,,,,,,,,,,,,,,,,,,,,,,,,,,,,,,,,,,,,,,117,156331,19,Female,1,2024/03/22_16:04:39,YZ,None,
,,,,,,calibration,0,19,2,250,12,S,0,right,nan,0,1,,,,,,,,,,,,,,,,,,,,,1,,,,,,,,,,,,,,,,,,,,,,,,,,,,,,,,,,,,,,,,,,,,,,117,156331,19,Female,1,2024/03/22_16:04:39,YZ,None,
,,,,,,calibration,0,19,2,250,13,F,1,right,nan,0,1,,,,,,,,,,,,,,,,,,,,,1,,,,,,,,,,,,,,,,,,,,,,,,,,,,,,,,,,,,,,,,,,,,,,117,156331,19,Female,1,2024/03/22_16:04:39,YZ,None,
,,,,,,calibration,0,19,2,250,14,C,0,left,0.45487665898690466,0,0,,,,,,,,,,,,,,,,,,,,,1,,,,,,,,,,,,,,,,,,,,,,,,,,,,,,,,,,,,,,,,,,,,,,117,156331,19,Female,1,2024/03/22_16:04:39,YZ,None,
,,,,,,calibration,0,19,2,250,15,N,0,left,0.6006289529905189,0,0,,,,,,,,,,,,,,,,,,,,,1,,,,,,,,,,,,,,,,,,,,,,,,,,,,,,,,,,,,,,,,,,,,,,117,156331,19,Female,1,2024/03/22_16:04:39,YZ,None,
,,,,,,calibration,0,19,2,250,16,C,1,right,0.42450780799845234,0,0,,,,,,,,,,,,,,,,,,,,,1,,,,,,,,,,,,,,,,,,,,,,,,,,,,,,,,,,,,,,,,,,,,,,117,156331,19,Female,1,2024/03/22_16:04:39,YZ,None,
,,,,,,calibration,0,19,2,250,17,V,0,left,0.3378073560015764,0,0,,,,,,,,,,,,,,,,,,,,,1,,,,,,,,,,,,,,,,,,,,,,,,,,,,,,,,,,,,,,,,,,,,,,117,156331,19,Female,1,2024/03/22_16:04:39,YZ,None,
,,,,,,calibration,0,19,2,250,18,J,0,right,0.3289271599933272,1,0,,,,,,,,,,,,,,,,,,,,,1,,,,,,,,,,,,,,,,,,,,,,,,,,,,,,,,,,,,,,,,,,,,,,117,156331,19,Female,1,2024/03/22_16:04:39,YZ,None,
,,,,,,calibration,0,19,2,250,19,X,0,right,0.05943151500832755,1,0,,,,,,,,,,,,,,,,,,,,,1,,,,,,,,,,,,,,,,,,,,,,,,,,,,,,,,,,,,,,,,,,,,,,117,156331,19,Female,1,2024/03/22_16:04:39,YZ,None,
,,,,,,calibration,0,19,2,250,20,C,0,right,0.36530240200227126,1,0,,,,,,,,,,,,,,,,,,,,,1,,,,,,,,,,,,,,,,,,,,,,,,,,,,,,,,,,,,,,,,,,,,,,117,156331,19,Female,1,2024/03/22_16:04:39,YZ,None,
,,,,,,calibration,0,19,2,250,,,,,,,,0.6166666666666667,0.4,0.26666666666666666,0.6666666666666666,0.25,0.4833333333333334,0.5341169841315908,2,4,2,3,5,8,10,5,15,0,,,,1,,,,,,,,,,,,,,,,,,,,,,,,,,,,,,,,,,,,,,,,,,,,,,117,156331,19,Female,1,2024/03/22_16:04:39,YZ,None,
,,,,,,Calibration,0,,2,250,,,,,,,,,,,,,,,,,,,,,,,,,10,,,1,,,,,,,,,,,,,,,,,,,,,,,,,,,,,,,,,,,,,,,,,,,,,,117,156331,19,Female,1,2024/03/22_16:04:39,YZ,None,
,,,,,,calibration,0,33,2,303,1,J,0,right,0.709786057996098,1,0,,,,,,,,,,,,,,,,,,,,,1,,,,,,,,,,,,,,,,,,,,,,,,,,,,,,,,,,,,,,,,,,,,,,117,156331,19,Female,1,2024/03/22_16:04:39,YZ,None,
,,,,,,calibration,0,33,2,303,2,S,0,right,0.5289744990004692,1,0,,,,,,,,,,,,,,,,,,,,,1,,,,,,,,,,,,,,,,,,,,,,,,,,,,,,,,,,,,,,,,,,,,,,117,156331,19,Female,1,2024/03/22_16:04:39,YZ,None,
,,,,,,calibration,0,33,2,303,3,J,1,left,0.47569418798957486,1,0,,,,,,,,,,,,,,,,,,,,,1,,,,,,,,,,,,,,,,,,,,,,,,,,,,,,,,,,,,,,,,,,,,,,117,156331,19,Female,1,2024/03/22_16:04:39,YZ,None,
,,,,,,calibration,0,33,2,303,4,Q,0,right,0.4822140550095355,1,0,,,,,,,,,,,,,,,,,,,,,1,,,,,,,,,,,,,,,,,,,,,,,,,,,,,,,,,,,,,,,,,,,,,,117,156331,19,Female,1,2024/03/22_16:04:39,YZ,None,
,,,,,,calibration,0,33,2,303,5,F,0,right,nan,0,1,,,,,,,,,,,,,,,,,,,,,1,,,,,,,,,,,,,,,,,,,,,,,,,,,,,,,,,,,,,,,,,,,,,,117,156331,19,Female,1,2024/03/22_16:04:39,YZ,None,
,,,,,,calibration,0,33,2,303,6,X,0,right,0.011306065003736876,1,0,,,,,,,,,,,,,,,,,,,,,1,,,,,,,,,,,,,,,,,,,,,,,,,,,,,,,,,,,,,,,,,,,,,,117,156331,19,Female,1,2024/03/22_16:04:39,YZ,None,
,,,,,,calibration,0,33,2,303,7,F,1,right,nan,0,1,,,,,,,,,,,,,,,,,,,,,1,,,,,,,,,,,,,,,,,,,,,,,,,,,,,,,,,,,,,,,,,,,,,,117,156331,19,Female,1,2024/03/22_16:04:39,YZ,None,
,,,,,,calibration,0,33,2,303,8,X,1,left,0.8484321050054859,1,0,,,,,,,,,,,,,,,,,,,,,1,,,,,,,,,,,,,,,,,,,,,,,,,,,,,,,,,,,,,,,,,,,,,,117,156331,19,Female,1,2024/03/22_16:04:39,YZ,None,
,,,,,,calibration,0,33,2,303,9,N,0,right,0.5921898300002795,1,0,,,,,,,,,,,,,,,,,,,,,1,,,,,,,,,,,,,,,,,,,,,,,,,,,,,,,,,,,,,,,,,,,,,,117,156331,19,Female,1,2024/03/22_16:04:39,YZ,None,
,,,,,,calibration,0,33,2,303,10,X,1,left,0.8067594390013255,1,0,,,,,,,,,,,,,,,,,,,,,1,,,,,,,,,,,,,,,,,,,,,,,,,,,,,,,,,,,,,,,,,,,,,,117,156331,19,Female,1,2024/03/22_16:04:39,YZ,None,
,,,,,,calibration,0,33,2,303,11,C,0,right,0.4745405319990823,1,0,,,,,,,,,,,,,,,,,,,,,1,,,,,,,,,,,,,,,,,,,,,,,,,,,,,,,,,,,,,,,,,,,,,,117,156331,19,Female,1,2024/03/22_16:04:39,YZ,None,
,,,,,,calibration,0,33,2,303,12,N,0,right,nan,0,1,,,,,,,,,,,,,,,,,,,,,1,,,,,,,,,,,,,,,,,,,,,,,,,,,,,,,,,,,,,,,,,,,,,,117,156331,19,Female,1,2024/03/22_16:04:39,YZ,None,
,,,,,,calibration,0,33,2,303,13,C,1,left,0.6588600510003744,1,0,,,,,,,,,,,,,,,,,,,,,1,,,,,,,,,,,,,,,,,,,,,,,,,,,,,,,,,,,,,,,,,,,,,,117,156331,19,Female,1,2024/03/22_16:04:39,YZ,None,
,,,,,,calibration,0,33,2,303,14,X,0,right,0.2894514009967679,1,0,,,,,,,,,,,,,,,,,,,,,1,,,,,,,,,,,,,,,,,,,,,,,,,,,,,,,,,,,,,,,,,,,,,,117,156331,19,Female,1,2024/03/22_16:04:39,YZ,None,
,,,,,,calibration,0,33,2,303,15,F,0,left,0.2985914739983855,0,0,,,,,,,,,,,,,,,,,,,,,1,,,,,,,,,,,,,,,,,,,,,,,,,,,,,,,,,,,,,,,,,,,,,,117,156331,19,Female,1,2024/03/22_16:04:39,YZ,None,
,,,,,,calibration,0,33,2,303,16,C,0,right,0.037220900994725525,1,0,,,,,,,,,,,,,,,,,,,,,1,,,,,,,,,,,,,,,,,,,,,,,,,,,,,,,,,,,,,,,,,,,,,,117,156331,19,Female,1,2024/03/22_16:04:39,YZ,None,
,,,,,,calibration,0,33,2,303,17,J,0,right,nan,0,1,,,,,,,,,,,,,,,,,,,,,1,,,,,,,,,,,,,,,,,,,,,,,,,,,,,,,,,,,,,,,,,,,,,,117,156331,19,Female,1,2024/03/22_16:04:39,YZ,None,
,,,,,,calibration,0,33,2,303,18,N,0,left,0.9983957600052236,0,0,,,,,,,,,,,,,,,,,,,,,1,,,,,,,,,,,,,,,,,,,,,,,,,,,,,,,,,,,,,,,,,,,,,,117,156331,19,Female,1,2024/03/22_16:04:39,YZ,None,
,,,,,,calibration,0,33,2,303,19,F,0,right,0.3733906779962126,1,0,,,,,,,,,,,,,,,,,,,,,1,,,,,,,,,,,,,,,,,,,,,,,,,,,,,,,,,,,,,,,,,,,,,,117,156331,19,Female,1,2024/03/22_16:04:39,YZ,None,
,,,,,,calibration,0,33,2,303,,,,,,,,0.8857142857142858,0.8,0.14285714285714285,0.8181818181818182,0.21052631578947367,0.6466165413533835,0.5057204690664852,4,2,1,3,4,9,13,5,14,0,,,,1,,,,,,,,,,,,,,,,,,,,,,,,,,,,,,,,,,,,,,,,,,,,,,117,156331,19,Female,1,2024/03/22_16:04:39,YZ,None,
,,,,,,Calibration,0,,2,303,,,,,,,,,,,,,,,,,,,,,,,,,11,,,1,,,,,,,,,,,,,,,,,,,,,,,,,,,,,,,,,,,,,,,,,,,,,,117,156331,19,Female,1,2024/03/22_16:04:39,YZ,None,
,,,,,,calibration,0,31,2,250,1,Q,0,right,0.9745019179972587,1,0,,,,,,,,,,,,,,,,,,,,,1,,,,,,,,,,,,,,,,,,,,,,,,,,,,,,,,,,,,,,,,,,,,,,117,156331,19,Female,1,2024/03/22_16:04:39,YZ,None,
,,,,,,calibration,0,31,2,250,2,V,0,right,0.5419603870104766,1,0,,,,,,,,,,,,,,,,,,,,,1,,,,,,,,,,,,,,,,,,,,,,,,,,,,,,,,,,,,,,,,,,,,,,117,156331,19,Female,1,2024/03/22_16:04:39,YZ,None,
,,,,,,calibration,0,31,2,250,3,Q,1,right,nan,0,1,,,,,,,,,,,,,,,,,,,,,1,,,,,,,,,,,,,,,,,,,,,,,,,,,,,,,,,,,,,,,,,,,,,,117,156331,19,Female,1,2024/03/22_16:04:39,YZ,None,
,,,,,,calibration,0,31,2,250,4,S,0,right,0.592474888995639,1,0,,,,,,,,,,,,,,,,,,,,,1,,,,,,,,,,,,,,,,,,,,,,,,,,,,,,,,,,,,,,,,,,,,,,117,156331,19,Female,1,2024/03/22_16:04:39,YZ,None,
,,,,,,calibration,0,31,2,250,5,N,0,right,nan,0,1,,,,,,,,,,,,,,,,,,,,,1,,,,,,,,,,,,,,,,,,,,,,,,,,,,,,,,,,,,,,,,,,,,,,117,156331,19,Female,1,2024/03/22_16:04:39,YZ,None,
,,,,,,calibration,0,31,2,250,6,S,1,right,0.1985532590042567,0,0,,,,,,,,,,,,,,,,,,,,,1,,,,,,,,,,,,,,,,,,,,,,,,,,,,,,,,,,,,,,,,,,,,,,117,156331,19,Female,1,2024/03/22_16:04:39,YZ,None,
,,,,,,calibration,0,31,2,250,7,N,1,left,0.0,1,0,,,,,,,,,,,,,,,,,,,,,1,,,,,,,,,,,,,,,,,,,,,,,,,,,,,,,,,,,,,,,,,,,,,,117,156331,19,Female,1,2024/03/22_16:04:39,YZ,None,
,,,,,,calibration,0,31,2,250,8,F,0,right,0.04566903199884109,1,0,,,,,,,,,,,,,,,,,,,,,1,,,,,,,,,,,,,,,,,,,,,,,,,,,,,,,,,,,,,,,,,,,,,,117,156331,19,Female,1,2024/03/22_16:04:39,YZ,None,
,,,,,,calibration,0,31,2,250,9,Q,0,left,0.0,0,0,,,,,,,,,,,,,,,,,,,,,1,,,,,,,,,,,,,,,,,,,,,,,,,,,,,,,,,,,,,,,,,,,,,,117,156331,19,Female,1,2024/03/22_16:04:39,YZ,None,
,,,,,,calibration,0,31,2,250,10,F,1,right,0.009371317995828576,0,0,,,,,,,,,,,,,,,,,,,,,1,,,,,,,,,,,,,,,,,,,,,,,,,,,,,,,,,,,,,,,,,,,,,,117,156331,19,Female,1,2024/03/22_16:04:39,YZ,None,
,,,,,,calibration,0,31,2,250,11,X,0,left,0.4176513109996449,0,0,,,,,,,,,,,,,,,,,,,,,1,,,,,,,,,,,,,,,,,,,,,,,,,,,,,,,,,,,,,,,,,,,,,,117,156331,19,Female,1,2024/03/22_16:04:39,YZ,None,
,,,,,,calibration,0,31,2,250,12,C,0,right,0.04569618799723685,1,0,,,,,,,,,,,,,,,,,,,,,1,,,,,,,,,,,,,,,,,,,,,,,,,,,,,,,,,,,,,,,,,,,,,,117,156331,19,Female,1,2024/03/22_16:04:39,YZ,None,
,,,,,,calibration,0,31,2,250,13,X,1,right,nan,0,1,,,,,,,,,,,,,,,,,,,,,1,,,,,,,,,,,,,,,,,,,,,,,,,,,,,,,,,,,,,,,,,,,,,,117,156331,19,Female,1,2024/03/22_16:04:39,YZ,None,
,,,,,,calibration,0,31,2,250,14,N,0,right,nan,0,1,,,,,,,,,,,,,,,,,,,,,1,,,,,,,,,,,,,,,,,,,,,,,,,,,,,,,,,,,,,,,,,,,,,,117,156331,19,Female,1,2024/03/22_16:04:39,YZ,None,
,,,,,,calibration,0,31,2,250,15,S,0,right,0.5757903630001238,1,0,,,,,,,,,,,,,,,,,,,,,1,,,,,,,,,,,,,,,,,,,,,,,,,,,,,,,,,,,,,,,,,,,,,,117,156331,19,Female,1,2024/03/22_16:04:39,YZ,None,
,,,,,,calibration,0,31,2,250,16,C,0,left,0.3603513410052983,0,0,,,,,,,,,,,,,,,,,,,,,1,,,,,,,,,,,,,,,,,,,,,,,,,,,,,,,,,,,,,,,,,,,,,,117,156331,19,Female,1,2024/03/22_16:04:39,YZ,None,
,,,,,,calibration,0,31,2,250,17,V,0,right,0.23744553200958762,1,0,,,,,,,,,,,,,,,,,,,,,1,,,,,,,,,,,,,,,,,,,,,,,,,,,,,,,,,,,,,,,,,,,,,,117,156331,19,Female,1,2024/03/22_16:04:39,YZ,None,
,,,,,,calibration,0,31,2,250,18,X,0,left,0.21704535699973349,0,0,,,,,,,,,,,,,,,,,,,,,1,,,,,,,,,,,,,,,,,,,,,,,,,,,,,,,,,,,,,,,,,,,,,,117,156331,19,Female,1,2024/03/22_16:04:39,YZ,None,
,,,,,,calibration,0,31,2,250,19,N,0,right,0.4544252469931962,1,0,,,,,,,,,,,,,,,,,,,,,1,,,,,,,,,,,,,,,,,,,,,,,,,,,,,,,,,,,,,,,,,,,,,,117,156331,19,Female,1,2024/03/22_16:04:39,YZ,None,
,,,,,,calibration,0,31,2,250,20,C,0,right,0.2417913410026813,1,0,,,,,,,,,,,,,,,,,,,,,1,,,,,,,,,,,,,,,,,,,,,,,,,,,,,,,,,,,,,,,,,,,,,,117,156331,19,Female,1,2024/03/22_16:04:39,YZ,None,
,,,,,,calibration,0,31,2,250,,,,,,,,0.04583333333333334,0.2,0.26666666666666666,0.6923076923076923,0.2,0.5333333333333334,0.3070454676881127,1,4,2,2,4,9,10,5,15,0,,,,1,,,,,,,,,,,,,,,,,,,,,,,,,,,,,,,,,,,,,,,,,,,,,,117,156331,19,Female,1,2024/03/22_16:04:39,YZ,None,
,,,,,,Calibration,0,,2,250,,,,,,,,,,,,,,,,,,,,,,,,,12,,,1,,,,,,,,,,,,,,,,,,,,,,,,,,,,,,,,,,,,,,,,,,,,,,117,156331,19,Female,1,2024/03/22_16:04:39,YZ,None,
,,,,,,calibration,0,36,2,303,1,F,0,right,0.4571703060064465,1,0,,,,,,,,,,,,,,,,,,,,,1,,,,,,,,,,,,,,,,,,,,,,,,,,,,,,,,,,,,,,,,,,,,,,117,156331,19,Female,1,2024/03/22_16:04:39,YZ,None,
,,,,,,calibration,0,36,2,303,2,C,0,right,0.4097289070050465,1,0,,,,,,,,,,,,,,,,,,,,,1,,,,,,,,,,,,,,,,,,,,,,,,,,,,,,,,,,,,,,,,,,,,,,117,156331,19,Female,1,2024/03/22_16:04:39,YZ,None,
,,,,,,calibration,0,36,2,303,3,Q,0,right,0.44979430599778425,1,0,,,,,,,,,,,,,,,,,,,,,1,,,,,,,,,,,,,,,,,,,,,,,,,,,,,,,,,,,,,,,,,,,,,,117,156331,19,Female,1,2024/03/22_16:04:39,YZ,None,
,,,,,,calibration,0,36,2,303,4,F,0,right,nan,0,1,,,,,,,,,,,,,,,,,,,,,1,,,,,,,,,,,,,,,,,,,,,,,,,,,,,,,,,,,,,,,,,,,,,,117,156331,19,Female,1,2024/03/22_16:04:39,YZ,None,
,,,,,,calibration,0,36,2,303,5,Q,1,right,nan,0,1,,,,,,,,,,,,,,,,,,,,,1,,,,,,,,,,,,,,,,,,,,,,,,,,,,,,,,,,,,,,,,,,,,,,117,156331,19,Female,1,2024/03/22_16:04:39,YZ,None,
,,,,,,calibration,0,36,2,303,6,F,1,left,0.0004507470002863556,1,0,,,,,,,,,,,,,,,,,,,,,1,,,,,,,,,,,,,,,,,,,,,,,,,,,,,,,,,,,,,,,,,,,,,,117,156331,19,Female,1,2024/03/22_16:04:39,YZ,None,
,,,,,,calibration,0,36,2,303,7,C,0,right,0.3707410200004233,1,0,,,,,,,,,,,,,,,,,,,,,1,,,,,,,,,,,,,,,,,,,,,,,,,,,,,,,,,,,,,,,,,,,,,,117,156331,19,Female,1,2024/03/22_16:04:39,YZ,None,
,,,,,,calibration,0,36,2,303,8,S,0,left,0.06166049599414691,0,0,,,,,,,,,,,,,,,,,,,,,1,,,,,,,,,,,,,,,,,,,,,,,,,,,,,,,,,,,,,,,,,,,,,,117,156331,19,Female,1,2024/03/22_16:04:39,YZ,None,
,,,,,,calibration,0,36,2,303,9,N,0,left,0.9070498619985301,0,0,,,,,,,,,,,,,,,,,,,,,1,,,,,,,,,,,,,,,,,,,,,,,,,,,,,,,,,,,,,,,,,,,,,,117,156331,19,Female,1,2024/03/22_16:04:39,YZ,None,
,,,,,,calibration,0,36,2,303,10,S,1,left,0.47498528500727843,1,0,,,,,,,,,,,,,,,,,,,,,1,,,,,,,,,,,,,,,,,,,,,,,,,,,,,,,,,,,,,,,,,,,,,,117,156331,19,Female,1,2024/03/22_16:04:39,YZ,None,
,,,,,,calibration,0,36,2,303,11,X,0,right,0.34934246000193525,1,0,,,,,,,,,,,,,,,,,,,,,1,,,,,,,,,,,,,,,,,,,,,,,,,,,,,,,,,,,,,,,,,,,,,,117,156331,19,Female,1,2024/03/22_16:04:39,YZ,None,
,,,,,,calibration,0,36,2,303,12,C,0,left,0.40561762599099893,0,0,,,,,,,,,,,,,,,,,,,,,1,,,,,,,,,,,,,,,,,,,,,,,,,,,,,,,,,,,,,,,,,,,,,,117,156331,19,Female,1,2024/03/22_16:04:39,YZ,None,
,,,,,,calibration,0,36,2,303,13,Q,0,right,0.29882865300169215,1,0,,,,,,,,,,,,,,,,,,,,,1,,,,,,,,,,,,,,,,,,,,,,,,,,,,,,,,,,,,,,,,,,,,,,117,156331,19,Female,1,2024/03/22_16:04:39,YZ,None,
,,,,,,calibration,0,36,2,303,14,X,0,left,0.2761842890031403,0,0,,,,,,,,,,,,,,,,,,,,,1,,,,,,,,,,,,,,,,,,,,,,,,,,,,,,,,,,,,,,,,,,,,,,117,156331,19,Female,1,2024/03/22_16:04:39,YZ,None,
,,,,,,calibration,0,36,2,303,15,C,0,right,0.17309773199667688,1,0,,,,,,,,,,,,,,,,,,,,,1,,,,,,,,,,,,,,,,,,,,,,,,,,,,,,,,,,,,,,,,,,,,,,117,156331,19,Female,1,2024/03/22_16:04:39,YZ,None,
,,,,,,calibration,0,36,2,303,16,X,1,right,0.8817064900067635,0,0,,,,,,,,,,,,,,,,,,,,,1,,,,,,,,,,,,,,,,,,,,,,,,,,,,,,,,,,,,,,,,,,,,,,117,156331,19,Female,1,2024/03/22_16:04:39,YZ,None,
,,,,,,calibration,0,36,2,303,17,J,0,right,nan,0,1,,,,,,,,,,,,,,,,,,,,,1,,,,,,,,,,,,,,,,,,,,,,,,,,,,,,,,,,,,,,,,,,,,,,117,156331,19,Female,1,2024/03/22_16:04:39,YZ,None,
,,,,,,calibration,0,36,2,303,18,X,1,right,0.8650510419975035,0,0,,,,,,,,,,,,,,,,,,,,,1,,,,,,,,,,,,,,,,,,,,,,,,,,,,,,,,,,,,,,,,,,,,,,117,156331,19,Female,1,2024/03/22_16:04:39,YZ,None,
,,,,,,calibration,0,36,2,303,19,S,0,right,nan,0,1,,,,,,,,,,,,,,,,,,,,,1,,,,,,,,,,,,,,,,,,,,,,,,,,,,,,,,,,,,,,,,,,,,,,117,156331,19,Female,1,2024/03/22_16:04:39,YZ,None,
,,,,,,calibration,0,36,2,303,,,,,,,,0.6000000000000001,0.4,0.2857142857142857,0.6363636363636364,0.21052631578947367,0.5037593984962406,0.42542728140057684,2,4,1,3,4,7,9,5,14,0,,,,1,,,,,,,,,,,,,,,,,,,,,,,,,,,,,,,,,,,,,,,,,,,,,,117,156331,19,Female,1,2024/03/22_16:04:39,YZ,None,
,,,,,,Calibration,0,,2,303,,,,,,,,,,,,,,,,,,,,,,,,,13,,,1,,,,,,,,,,,,,,,,,,,,,,,,,,,,,,,,,,,,,,,,,,,,,,117,156331,19,Female,1,2024/03/22_16:04:39,YZ,None,
,,,,,,calibration,0,25,2,361,1,S,0,right,0.7379673609975725,1,0,,,,,,,,,,,,,,,,,,,,,1,,,,,,,,,,,,,,,,,,,,,,,,,,,,,,,,,,,,,,,,,,,,,,117,156331,19,Female,1,2024/03/22_16:04:39,YZ,None,
,,,,,,calibration,0,25,2,361,2,Q,0,right,0.4354987999977311,1,0,,,,,,,,,,,,,,,,,,,,,1,,,,,,,,,,,,,,,,,,,,,,,,,,,,,,,,,,,,,,,,,,,,,,117,156331,19,Female,1,2024/03/22_16:04:39,YZ,None,
,,,,,,calibration,0,25,2,361,3,X,0,right,0.5312864979932783,1,0,,,,,,,,,,,,,,,,,,,,,1,,,,,,,,,,,,,,,,,,,,,,,,,,,,,,,,,,,,,,,,,,,,,,117,156331,19,Female,1,2024/03/22_16:04:39,YZ,None,
,,,,,,calibration,0,25,2,361,4,Q,1,left,0.6081998919980833,1,0,,,,,,,,,,,,,,,,,,,,,1,,,,,,,,,,,,,,,,,,,,,,,,,,,,,,,,,,,,,,,,,,,,,,117,156331,19,Female,1,2024/03/22_16:04:39,YZ,None,
,,,,,,calibration,0,25,2,361,5,S,0,right,0.48771834300714545,1,0,,,,,,,,,,,,,,,,,,,,,1,,,,,,,,,,,,,,,,,,,,,,,,,,,,,,,,,,,,,,,,,,,,,,117,156331,19,Female,1,2024/03/22_16:04:39,YZ,None,
,,,,,,calibration,0,25,2,361,6,X,0,left,0.41791394700703677,0,0,,,,,,,,,,,,,,,,,,,,,1,,,,,,,,,,,,,,,,,,,,,,,,,,,,,,,,,,,,,,,,,,,,,,117,156331,19,Female,1,2024/03/22_16:04:39,YZ,None,
,,,,,,calibration,0,25,2,361,7,V,0,right,0.5663443829980679,1,0,,,,,,,,,,,,,,,,,,,,,1,,,,,,,,,,,,,,,,,,,,,,,,,,,,,,,,,,,,,,,,,,,,,,117,156331,19,Female,1,2024/03/22_16:04:39,YZ,None,
,,,,,,calibration,0,25,2,361,8,X,1,left,0.5117413710104302,1,0,,,,,,,,,,,,,,,,,,,,,1,,,,,,,,,,,,,,,,,,,,,,,,,,,,,,,,,,,,,,,,,,,,,,117,156331,19,Female,1,2024/03/22_16:04:39,YZ,None,
,,,,,,calibration,0,25,2,361,9,S,0,right,0.24433949500962626,1,0,,,,,,,,,,,,,,,,,,,,,1,,,,,,,,,,,,,,,,,,,,,,,,,,,,,,,,,,,,,,,,,,,,,,117,156331,19,Female,1,2024/03/22_16:04:39,YZ,None,
,,,,,,calibration,0,25,2,361,10,J,0,left,0.3016964970011031,0,0,,,,,,,,,,,,,,,,,,,,,1,,,,,,,,,,,,,,,,,,,,,,,,,,,,,,,,,,,,,,,,,,,,,,117,156331,19,Female,1,2024/03/22_16:04:39,YZ,None,
,,,,,,calibration,0,25,2,361,11,Q,0,right,0.2518665499956114,1,0,,,,,,,,,,,,,,,,,,,,,1,,,,,,,,,,,,,,,,,,,,,,,,,,,,,,,,,,,,,,,,,,,,,,117,156331,19,Female,1,2024/03/22_16:04:39,YZ,None,
,,,,,,calibration,0,25,2,361,12,V,0,right,0.41074095699877944,1,0,,,,,,,,,,,,,,,,,,,,,1,,,,,,,,,,,,,,,,,,,,,,,,,,,,,,,,,,,,,,,,,,,,,,117,156331,19,Female,1,2024/03/22_16:04:39,YZ,None,
,,,,,,calibration,0,25,2,361,13,Q,1,left,0.34137877100147307,1,0,,,,,,,,,,,,,,,,,,,,,1,,,,,,,,,,,,,,,,,,,,,,,,,,,,,,,,,,,,,,,,,,,,,,117,156331,19,Female,1,2024/03/22_16:04:39,YZ,None,
,,,,,,calibration,0,25,2,361,14,S,0,left,0.44994185300311074,0,0,,,,,,,,,,,,,,,,,,,,,1,,,,,,,,,,,,,,,,,,,,,,,,,,,,,,,,,,,,,,,,,,,,,,117,156331,19,Female,1,2024/03/22_16:04:39,YZ,None,
,,,,,,calibration,0,25,2,361,15,X,0,left,0.6530382259952603,0,0,,,,,,,,,,,,,,,,,,,,,1,,,,,,,,,,,,,,,,,,,,,,,,,,,,,,,,,,,,,,,,,,,,,,117,156331,19,Female,1,2024/03/22_16:04:39,YZ,None,
,,,,,,calibration,0,25,2,361,16,S,1,left,0.5231135829963023,1,0,,,,,,,,,,,,,,,,,,,,,1,,,,,,,,,,,,,,,,,,,,,,,,,,,,,,,,,,,,,,,,,,,,,,117,156331,19,Female,1,2024/03/22_16:04:39,YZ,None,
,,,,,,calibration,0,25,2,361,17,C,0,right,0.3883919719955884,1,0,,,,,,,,,,,,,,,,,,,,,1,,,,,,,,,,,,,,,,,,,,,,,,,,,,,,,,,,,,,,,,,,,,,,117,156331,19,Female,1,2024/03/22_16:04:39,YZ,None,
,,,,,,calibration,0,25,2,361,18,S,1,left,0.8429195469943807,1,0,,,,,,,,,,,,,,,,,,,,,1,,,,,,,,,,,,,,,,,,,,,,,,,,,,,,,,,,,,,,,,,,,,,,117,156331,19,Female,1,2024/03/22_16:04:39,YZ,None,
,,,,,,calibration,0,25,2,361,,,,,,,,0.9230769230769231,1.0,0.3076923076923077,0.6923076923076923,0.0,0.6923076923076923,0.48356100255558787,5,4,0,0,0,9,14,5,13,0,,,,1,,,,,,,,,,,,,,,,,,,,,,,,,,,,,,,,,,,,,,,,,,,,,,117,156331,19,Female,1,2024/03/22_16:04:39,YZ,None,
,,,,,,Calibration,0,,2,361,,,,,,,,,,,,,,,,,,,,,,,,,14,,,1,,,,,,,,,,,,,,,,,,,,,,,,,,,,,,,,,,,,,,,,,,,,,,117,156331,19,Female,1,2024/03/22_16:04:39,YZ,None,
,,,,,,calibration,0,25,2,303,1,C,0,right,0.39293405700300355,1,0,,,,,,,,,,,,,,,,,,,,,1,,,,,,,,,,,,,,,,,,,,,,,,,,,,,,,,,,,,,,,,,,,,,,117,156331,19,Female,1,2024/03/22_16:04:39,YZ,None,
,,,,,,calibration,0,25,2,303,2,C,0,right,nan,0,1,,,,,,,,,,,,,,,,,,,,,1,,,,,,,,,,,,,,,,,,,,,,,,,,,,,,,,,,,,,,,,,,,,,,117,156331,19,Female,1,2024/03/22_16:04:39,YZ,None,
,,,,,,calibration,0,25,2,303,3,F,0,right,0.5972773960093036,1,0,,,,,,,,,,,,,,,,,,,,,1,,,,,,,,,,,,,,,,,,,,,,,,,,,,,,,,,,,,,,,,,,,,,,117,156331,19,Female,1,2024/03/22_16:04:39,YZ,None,
,,,,,,calibration,0,25,2,303,4,Q,0,right,nan,0,1,,,,,,,,,,,,,,,,,,,,,1,,,,,,,,,,,,,,,,,,,,,,,,,,,,,,,,,,,,,,,,,,,,,,117,156331,19,Female,1,2024/03/22_16:04:39,YZ,None,
,,,,,,calibration,0,25,2,303,5,F,1,left,0.5977483979950193,1,0,,,,,,,,,,,,,,,,,,,,,1,,,,,,,,,,,,,,,,,,,,,,,,,,,,,,,,,,,,,,,,,,,,,,117,156331,19,Female,1,2024/03/22_16:04:39,YZ,None,
,,,,,,calibration,0,25,2,303,6,V,0,right,0.4446999760111794,1,0,,,,,,,,,,,,,,,,,,,,,1,,,,,,,,,,,,,,,,,,,,,,,,,,,,,,,,,,,,,,,,,,,,,,117,156331,19,Female,1,2024/03/22_16:04:39,YZ,None,
,,,,,,calibration,0,25,2,303,7,X,0,right,0.98306712199701,1,0,,,,,,,,,,,,,,,,,,,,,1,,,,,,,,,,,,,,,,,,,,,,,,,,,,,,,,,,,,,,,,,,,,,,117,156331,19,Female,1,2024/03/22_16:04:39,YZ,None,
,,,,,,calibration,0,25,2,303,8,V,1,right,nan,0,1,,,,,,,,,,,,,,,,,,,,,1,,,,,,,,,,,,,,,,,,,,,,,,,,,,,,,,,,,,,,,,,,,,,,117,156331,19,Female,1,2024/03/22_16:04:39,YZ,None,
,,,,,,calibration,0,25,2,303,9,X,1,left,0.0,1,0,,,,,,,,,,,,,,,,,,,,,1,,,,,,,,,,,,,,,,,,,,,,,,,,,,,,,,,,,,,,,,,,,,,,117,156331,19,Female,1,2024/03/22_16:04:39,YZ,None,
,,,,,,calibration,0,25,2,303,10,F,0,right,0.18719402699207421,1,0,,,,,,,,,,,,,,,,,,,,,1,,,,,,,,,,,,,,,,,,,,,,,,,,,,,,,,,,,,,,,,,,,,,,117,156331,19,Female,1,2024/03/22_16:04:39,YZ,None,
,,,,,,calibration,0,25,2,303,11,X,1,right,0.477416303998325,0,0,,,,,,,,,,,,,,,,,,,,,1,,,,,,,,,,,,,,,,,,,,,,,,,,,,,,,,,,,,,,,,,,,,,,117,156331,19,Female,1,2024/03/22_16:04:39,YZ,None,
,,,,,,calibration,0,25,2,303,12,Q,0,left,0.013519977001124062,0,0,,,,,,,,,,,,,,,,,,,,,1,,,,,,,,,,,,,,,,,,,,,,,,,,,,,,,,,,,,,,,,,,,,,,117,156331,19,Female,1,2024/03/22_16:04:39,YZ,None,
,,,,,,calibration,0,25,2,303,13,J,0,right,0.6234225499938475,1,0,,,,,,,,,,,,,,,,,,,,,1,,,,,,,,,,,,,,,,,,,,,,,,,,,,,,,,,,,,,,,,,,,,,,117,156331,19,Female,1,2024/03/22_16:04:39,YZ,None,
,,,,,,calibration,0,25,2,303,14,X,0,left,0.3345643350039609,0,0,,,,,,,,,,,,,,,,,,,,,1,,,,,,,,,,,,,,,,,,,,,,,,,,,,,,,,,,,,,,,,,,,,,,117,156331,19,Female,1,2024/03/22_16:04:39,YZ,None,
,,,,,,calibration,0,25,2,303,15,F,0,right,0.3050822430086555,1,0,,,,,,,,,,,,,,,,,,,,,1,,,,,,,,,,,,,,,,,,,,,,,,,,,,,,,,,,,,,,,,,,,,,,117,156331,19,Female,1,2024/03/22_16:04:39,YZ,None,
,,,,,,calibration,0,25,2,303,16,J,0,right,0.914130914999987,1,0,,,,,,,,,,,,,,,,,,,,,1,,,,,,,,,,,,,,,,,,,,,,,,,,,,,,,,,,,,,,,,,,,,,,117,156331,19,Female,1,2024/03/22_16:04:39,YZ,None,
,,,,,,calibration,0,25,2,303,17,F,1,left,0.28141331700317096,1,0,,,,,,,,,,,,,,,,,,,,,1,,,,,,,,,,,,,,,,,,,,,,,,,,,,,,,,,,,,,,,,,,,,,,117,156331,19,Female,1,2024/03/22_16:04:39,YZ,None,
,,,,,,calibration,0,25,2,303,18,J,1,left,0.6234403069975087,1,0,,,,,,,,,,,,,,,,,,,,,1,,,,,,,,,,,,,,,,,,,,,,,,,,,,,,,,,,,,,,,,,,,,,,117,156331,19,Female,1,2024/03/22_16:04:39,YZ,None,
,,,,,,calibration,0,25,2,303,19,V,0,right,0.57267067200155,1,0,,,,,,,,,,,,,,,,,,,,,1,,,,,,,,,,,,,,,,,,,,,,,,,,,,,,,,,,,,,,,,,,,,,,117,156331,19,Female,1,2024/03/22_16:04:39,YZ,None,
,,,,,,calibration,0,25,2,303,,,,,,,,0.8269230769230769,0.6666666666666666,0.15384615384615385,0.8181818181818182,0.15789473684210525,0.688259109311741,0.4592863497509825,4,2,1,2,3,9,13,6,13,0,,,,1,,,,,,,,,,,,,,,,,,,,,,,,,,,,,,,,,,,,,,,,,,,,,,117,156331,19,Female,1,2024/03/22_16:04:39,YZ,None,
,,,,,,Calibration,0,,2,303,,,,,,,,,,,,,,,,,,,,,,,,,15,,,1,,,,,,,,,,,,,,,,,,,,,,,,,,,,,,,,,,,,,,,,,,,,,,117,156331,19,Female,1,2024/03/22_16:04:39,YZ,None,
,,,,,,CALIBRATION,0,,,,,,,,,,,,,,,,,,,,,,,,,,,,15,0.8269230769230769,303,1,,,,,,,,,,,,,,,,,,,,,,,,,,,,,,,,,,,,,,,,,,,,,,117,156331,19,Female,1,2024/03/22_16:04:39,YZ,None,
1,./instructions/inst_prac_1/Slide24.png,right,14.164646121993428,500.1194427290029,514.2840888509963,,,,,,,,,,,,,,,,,,,,,,,,,,,,,,,,,1,,,,,,,,,,,,,,,,,,,,,,,,,,,,,,,,,,,,,,,,,,,,,,117,156331,19,Female,1,2024/03/22_16:04:39,YZ,None,
2,./instructions/inst_prac_1/Slide25.png,right,1.6753870179963997,514.3127198720031,515.9881068899995,,,,,,,,,,,,,,,,,,,,,,,,,,,,,,,,,1,,,,,,,,,,,,,,,,,,,,,,,,,,,,,,,,,,,,,,,,,,,,,,117,156331,19,Female,1,2024/03/22_16:04:39,YZ,None,
3,./instructions/inst_prac_1/Slide26.png,right,0.5173443889943883,516.0148392990086,516.532183688003,,,,,,,,,,,,,,,,,,,,,,,,,,,,,,,,,1,,,,,,,,,,,,,,,,,,,,,,,,,,,,,,,,,,,,,,,,,,,,,,117,156331,19,Female,1,2024/03/22_16:04:39,YZ,None,
4,./instructions/inst_prac_1/Slide27.png,right,0.4596177529892884,516.5605695740087,517.020187326998,,,,,,,,,,,,,,,,,,,,,,,,,,,,,,,,,1,,,,,,,,,,,,,,,,,,,,,,,,,,,,,,,,,,,,,,,,,,,,,,117,156331,19,Female,1,2024/03/22_16:04:39,YZ,None,
5,./instructions/inst_prac_1/Slide28.png,right,0.6920168590004323,517.0483326950052,517.7403495540057,,,,,,,,,,,,,,,,,,,,,,,,,,,,,,,,,1,,,,,,,,,,,,,,,,,,,,,,,,,,,,,,,,,,,,,,,,,,,,,,117,156331,19,Female,1,2024/03/22_16:04:39,YZ,None,
6,./instructions/inst_prac_1/Slide29.png,right,0.3497208170010708,517.766582627999,518.1163034450001,,,,,,,,,,,,,,,,,,,,,,,,,,,,,,,,,1,,,,,,,,,,,,,,,,,,,,,,,,,,,,,,,,,,,,,,,,,,,,,,117,156331,19,Female,1,2024/03/22_16:04:39,YZ,None,
7,./instructions/inst_prac_1/Slide30.png,right,1.299386284998036,518.1448596280097,519.4442459130078,,,,,,,,,,,,,,,,,,,,,,,,,,,,,,,,,1,,,,,,,,,,,,,,,,,,,,,,,,,,,,,,,,,,,,,,,,,,,,,,117,156331,19,Female,1,2024/03/22_16:04:39,YZ,None,
,,,,,,practice,0,36,1,1250,1,C,0,right,2.2116595019906526,1,0,,,,,,,,,,,,,,,,,,,,,1,,,,,,,,,,,,,,,,,,,,,,,,,,,,,,,,,,,,,,,,,,,,,,117,156331,19,Female,1,2024/03/22_16:04:39,YZ,None,
,,,,,,practice,0,36,1,1250,2,F,0,right,0.7694875619927188,1,0,,,,,,,,,,,,,,,,,,,,,1,,,,,,,,,,,,,,,,,,,,,,,,,,,,,,,,,,,,,,,,,,,,,,117,156331,19,Female,1,2024/03/22_16:04:39,YZ,None,
,,,,,,practice,0,36,1,1250,3,F,1,left,0.695934903997113,1,0,,,,,,,,,,,,,,,,,,,,,1,,,,,,,,,,,,,,,,,,,,,,,,,,,,,,,,,,,,,,,,,,,,,,117,156331,19,Female,1,2024/03/22_16:04:39,YZ,None,
,,,,,,practice,0,36,1,1250,4,Q,0,right,0.7437816650053719,1,0,,,,,,,,,,,,,,,,,,,,,1,,,,,,,,,,,,,,,,,,,,,,,,,,,,,,,,,,,,,,,,,,,,,,117,156331,19,Female,1,2024/03/22_16:04:39,YZ,None,
,,,,,,practice,0,36,1,1250,5,Q,1,left,0.7043869759945665,1,0,,,,,,,,,,,,,,,,,,,,,1,,,,,,,,,,,,,,,,,,,,,,,,,,,,,,,,,,,,,,,,,,,,,,117,156331,19,Female,1,2024/03/22_16:04:39,YZ,None,
,,,,,,practice,0,36,1,1250,6,X,0,right,0.8486751540040132,1,0,,,,,,,,,,,,,,,,,,,,,1,,,,,,,,,,,,,,,,,,,,,,,,,,,,,,,,,,,,,,,,,,,,,,117,156331,19,Female,1,2024/03/22_16:04:39,YZ,None,
,,,,,,practice,0,36,1,1250,7,V,0,right,0.5744713189924369,1,0,,,,,,,,,,,,,,,,,,,,,1,,,,,,,,,,,,,,,,,,,,,,,,,,,,,,,,,,,,,,,,,,,,,,117,156331,19,Female,1,2024/03/22_16:04:39,YZ,None,
,,,,,,practice,0,36,1,1250,8,V,1,left,0.7053436139976839,1,0,,,,,,,,,,,,,,,,,,,,,1,,,,,,,,,,,,,,,,,,,,,,,,,,,,,,,,,,,,,,,,,,,,,,117,156331,19,Female,1,2024/03/22_16:04:39,YZ,None,
,,,,,,practice,0,36,1,1250,9,X,0,right,0.9538355129916454,1,0,,,,,,,,,,,,,,,,,,,,,1,,,,,,,,,,,,,,,,,,,,,,,,,,,,,,,,,,,,,,,,,,,,,,117,156331,19,Female,1,2024/03/22_16:04:39,YZ,None,
,,,,,,practice,0,36,1,1250,10,V,0,right,1.600776313993265,1,0,,,,,,,,,,,,,,,,,,,,,1,,,,,,,,,,,,,,,,,,,,,,,,,,,,,,,,,,,,,,,,,,,,,,117,156331,19,Female,1,2024/03/22_16:04:39,YZ,None,
,,,,,,practice,0,36,1,1250,,,,,,,,1.0,1.0,0.0,1.0,0.0,1.0,0.9808352522959467,3,0,0,0,0,7,10,3,7,0,,,,1,,,,,,,,,,,,,,,,,,,,,,,,,,,,,,,,,,,,,,,,,,,,,,117,156331,19,Female,1,2024/03/22_16:04:39,YZ,None,
1,./instructions/inst_prac_1_next/Slide35.png,right,3.362946984998416,539.7612110909977,543.1241580759961,,,,,,,,,,,,,,,,,,,,,,,,,,,,,,,,,1,,,,,,,,,,,,,,,,,,,,,,,,,,,,,,,,,,,,,,,,,,,,,,117,156331,19,Female,1,2024/03/22_16:04:39,YZ,None,
,,,,,,practice,0,33,1,303,1,F,0,right,0.9334917219966883,1,0,,,,,,,,,,,,,,,,,,,,,1,,,,,,,,,,,,,,,,,,,,,,,,,,,,,,,,,,,,,,,,,,,,,,117,156331,19,Female,1,2024/03/22_16:04:39,YZ,None,
,,,,,,practice,0,33,1,303,2,C,0,right,1.5868015979940537,1,0,,,,,,,,,,,,,,,,,,,,,1,,,,,,,,,,,,,,,,,,,,,,,,,,,,,,,,,,,,,,,,,,,,,,117,156331,19,Female,1,2024/03/22_16:04:39,YZ,None,
,,,,,,practice,0,33,1,303,3,C,1,left,0.6782273870048812,1,0,,,,,,,,,,,,,,,,,,,,,1,,,,,,,,,,,,,,,,,,,,,,,,,,,,,,,,,,,,,,,,,,,,,,117,156331,19,Female,1,2024/03/22_16:04:39,YZ,None,
,,,,,,practice,0,33,1,303,4,J,0,right,0.5494511520082597,1,0,,,,,,,,,,,,,,,,,,,,,1,,,,,,,,,,,,,,,,,,,,,,,,,,,,,,,,,,,,,,,,,,,,,,117,156331,19,Female,1,2024/03/22_16:04:39,YZ,None,
,,,,,,practice,0,33,1,303,5,X,0,right,1.1971400439942954,1,0,,,,,,,,,,,,,,,,,,,,,1,,,,,,,,,,,,,,,,,,,,,,,,,,,,,,,,,,,,,,,,,,,,,,117,156331,19,Female,1,2024/03/22_16:04:39,YZ,None,
,,,,,,practice,0,33,1,303,6,C,0,right,1.5482091059966478,1,0,,,,,,,,,,,,,,,,,,,,,1,,,,,,,,,,,,,,,,,,,,,,,,,,,,,,,,,,,,,,,,,,,,,,117,156331,19,Female,1,2024/03/22_16:04:39,YZ,None,
,,,,,,practice,0,33,1,303,7,V,0,right,0.9449292049976066,1,0,,,,,,,,,,,,,,,,,,,,,1,,,,,,,,,,,,,,,,,,,,,,,,,,,,,,,,,,,,,,,,,,,,,,117,156331,19,Female,1,2024/03/22_16:04:39,YZ,None,
,,,,,,practice,0,33,1,303,8,V,1,left,0.8971673630003352,1,0,,,,,,,,,,,,,,,,,,,,,1,,,,,,,,,,,,,,,,,,,,,,,,,,,,,,,,,,,,,,,,,,,,,,117,156331,19,Female,1,2024/03/22_16:04:39,YZ,None,
,,,,,,practice,0,33,1,303,9,F,0,right,1.1492792430071859,1,0,,,,,,,,,,,,,,,,,,,,,1,,,,,,,,,,,,,,,,,,,,,,,,,,,,,,,,,,,,,,,,,,,,,,117,156331,19,Female,1,2024/03/22_16:04:39,YZ,None,
,,,,,,practice,0,33,1,303,10,C,0,right,1.1061422189959558,1,0,,,,,,,,,,,,,,,,,,,,,1,,,,,,,,,,,,,,,,,,,,,,,,,,,,,,,,,,,,,,,,,,,,,,117,156331,19,Female,1,2024/03/22_16:04:39,YZ,None,
,,,,,,practice,0,33,1,303,11,N,0,right,0.6212904209969565,1,0,,,,,,,,,,,,,,,,,,,,,1,,,,,,,,,,,,,,,,,,,,,,,,,,,,,,,,,,,,,,,,,,,,,,117,156331,19,Female,1,2024/03/22_16:04:39,YZ,None,
,,,,,,practice,0,33,1,303,12,N,1,left,0.43506374199932907,1,0,,,,,,,,,,,,,,,,,,,,,1,,,,,,,,,,,,,,,,,,,,,,,,,,,,,,,,,,,,,,,,,,,,,,117,156331,19,Female,1,2024/03/22_16:04:39,YZ,None,
,,,,,,practice,0,33,1,303,13,S,0,right,0.5055925810011104,1,0,,,,,,,,,,,,,,,,,,,,,1,,,,,,,,,,,,,,,,,,,,,,,,,,,,,,,,,,,,,,,,,,,,,,117,156331,19,Female,1,2024/03/22_16:04:39,YZ,None,
,,,,,,practice,0,33,1,303,14,S,1,left,0.4044343529967591,1,0,,,,,,,,,,,,,,,,,,,,,1,,,,,,,,,,,,,,,,,,,,,,,,,,,,,,,,,,,,,,,,,,,,,,117,156331,19,Female,1,2024/03/22_16:04:39,YZ,None,
,,,,,,practice,0,33,1,303,15,X,0,right,0.5333551100047771,1,0,,,,,,,,,,,,,,,,,,,,,1,,,,,,,,,,,,,,,,,,,,,,,,,,,,,,,,,,,,,,,,,,,,,,117,156331,19,Female,1,2024/03/22_16:04:39,YZ,None,
,,,,,,practice,0,33,1,303,16,F,0,right,0.5413081940059783,1,0,,,,,,,,,,,,,,,,,,,,,1,,,,,,,,,,,,,,,,,,,,,,,,,,,,,,,,,,,,,,,,,,,,,,117,156331,19,Female,1,2024/03/22_16:04:39,YZ,None,
,,,,,,practice,0,33,1,303,17,F,1,left,0.6218141290009953,1,0,,,,,,,,,,,,,,,,,,,,,1,,,,,,,,,,,,,,,,,,,,,,,,,,,,,,,,,,,,,,,,,,,,,,117,156331,19,Female,1,2024/03/22_16:04:39,YZ,None,
,,,,,,practice,0,33,1,303,18,N,0,right,0.5839047710032901,1,0,,,,,,,,,,,,,,,,,,,,,1,,,,,,,,,,,,,,,,,,,,,,,,,,,,,,,,,,,,,,,,,,,,,,117,156331,19,Female,1,2024/03/22_16:04:39,YZ,None,
,,,,,,practice,0,33,1,303,19,J,0,right,0.6755029019986978,1,0,,,,,,,,,,,,,,,,,,,,,1,,,,,,,,,,,,,,,,,,,,,,,,,,,,,,,,,,,,,,,,,,,,,,117,156331,19,Female,1,2024/03/22_16:04:39,YZ,None,
,,,,,,practice,0,33,1,303,,,,,,,,1.0,1.0,0.0,1.0,0.0,1.0,0.8164792232633581,5,0,0,0,0,14,19,5,14,0,,,,1,,,,,,,,,,,,,,,,,,,,,,,,,,,,,,,,,,,,,,,,,,,,,,117,156331,19,Female,1,2024/03/22_16:04:39,YZ,None,
,,,,,,practice,0,16,1,303,1,V,0,right,1.113133270002436,1,0,,,,,,,,,,,,,,,,,,,,,1,,,,,,,,,,,,,,,,,,,,,,,,,,,,,,,,,,,,,,,,,,,,,,117,156331,19,Female,1,2024/03/22_16:04:39,YZ,None,
,,,,,,practice,0,16,1,303,2,V,1,left,0.5812110590049997,1,0,,,,,,,,,,,,,,,,,,,,,1,,,,,,,,,,,,,,,,,,,,,,,,,,,,,,,,,,,,,,,,,,,,,,117,156331,19,Female,1,2024/03/22_16:04:39,YZ,None,
,,,,,,practice,0,16,1,303,3,X,0,right,0.5937784129928332,1,0,,,,,,,,,,,,,,,,,,,,,1,,,,,,,,,,,,,,,,,,,,,,,,,,,,,,,,,,,,,,,,,,,,,,117,156331,19,Female,1,2024/03/22_16:04:39,YZ,None,
,,,,,,practice,0,16,1,303,4,C,0,right,0.604811785990023,1,0,,,,,,,,,,,,,,,,,,,,,1,,,,,,,,,,,,,,,,,,,,,,,,,,,,,,,,,,,,,,,,,,,,,,117,156331,19,Female,1,2024/03/22_16:04:39,YZ,None,
,,,,,,practice,0,16,1,303,5,N,0,right,0.8654302189970622,1,0,,,,,,,,,,,,,,,,,,,,,1,,,,,,,,,,,,,,,,,,,,,,,,,,,,,,,,,,,,,,,,,,,,,,117,156331,19,Female,1,2024/03/22_16:04:39,YZ,None,
,,,,,,practice,0,16,1,303,6,F,0,right,0.6289737110055285,1,0,,,,,,,,,,,,,,,,,,,,,1,,,,,,,,,,,,,,,,,,,,,,,,,,,,,,,,,,,,,,,,,,,,,,117,156331,19,Female,1,2024/03/22_16:04:39,YZ,None,
,,,,,,practice,0,16,1,303,7,N,0,right,0.7400670259958133,1,0,,,,,,,,,,,,,,,,,,,,,1,,,,,,,,,,,,,,,,,,,,,,,,,,,,,,,,,,,,,,,,,,,,,,117,156331,19,Female,1,2024/03/22_16:04:39,YZ,None,
,,,,,,practice,0,16,1,303,8,N,1,left,0.677637392989709,1,0,,,,,,,,,,,,,,,,,,,,,1,,,,,,,,,,,,,,,,,,,,,,,,,,,,,,,,,,,,,,,,,,,,,,117,156331,19,Female,1,2024/03/22_16:04:39,YZ,None,
,,,,,,practice,0,16,1,303,9,X,0,right,0.4540001949935686,1,0,,,,,,,,,,,,,,,,,,,,,1,,,,,,,,,,,,,,,,,,,,,,,,,,,,,,,,,,,,,,,,,,,,,,117,156331,19,Female,1,2024/03/22_16:04:39,YZ,None,
,,,,,,practice,0,16,1,303,10,C,0,right,1.6406709809962194,1,0,,,,,,,,,,,,,,,,,,,,,1,,,,,,,,,,,,,,,,,,,,,,,,,,,,,,,,,,,,,,,,,,,,,,117,156331,19,Female,1,2024/03/22_16:04:39,YZ,None,
,,,,,,practice,0,16,1,303,11,C,1,left,0.688757574011106,1,0,,,,,,,,,,,,,,,,,,,,,1,,,,,,,,,,,,,,,,,,,,,,,,,,,,,,,,,,,,,,,,,,,,,,117,156331,19,Female,1,2024/03/22_16:04:39,YZ,None,
,,,,,,practice,0,16,1,303,12,X,0,right,0.7854206269985298,1,0,,,,,,,,,,,,,,,,,,,,,1,,,,,,,,,,,,,,,,,,,,,,,,,,,,,,,,,,,,,,,,,,,,,,117,156331,19,Female,1,2024/03/22_16:04:39,YZ,None,
,,,,,,practice,0,16,1,303,13,F,0,right,0.6899816590012051,1,0,,,,,,,,,,,,,,,,,,,,,1,,,,,,,,,,,,,,,,,,,,,,,,,,,,,,,,,,,,,,,,,,,,,,117,156331,19,Female,1,2024/03/22_16:04:39,YZ,None,
,,,,,,practice,0,16,1,303,14,J,0,right,0.6494890710018808,1,0,,,,,,,,,,,,,,,,,,,,,1,,,,,,,,,,,,,,,,,,,,,,,,,,,,,,,,,,,,,,,,,,,,,,117,156331,19,Female,1,2024/03/22_16:04:39,YZ,None,
,,,,,,practice,0,16,1,303,15,C,0,right,0.7174134819942992,1,0,,,,,,,,,,,,,,,,,,,,,1,,,,,,,,,,,,,,,,,,,,,,,,,,,,,,,,,,,,,,,,,,,,,,117,156331,19,Female,1,2024/03/22_16:04:39,YZ,None,
,,,,,,practice,0,16,1,303,16,C,1,left,0.611192302996642,1,0,,,,,,,,,,,,,,,,,,,,,1,,,,,,,,,,,,,,,,,,,,,,,,,,,,,,,,,,,,,,,,,,,,,,117,156331,19,Female,1,2024/03/22_16:04:39,YZ,None,
,,,,,,practice,0,16,1,303,17,S,0,right,0.6752968249929836,1,0,,,,,,,,,,,,,,,,,,,,,1,,,,,,,,,,,,,,,,,,,,,,,,,,,,,,,,,,,,,,,,,,,,,,117,156331,19,Female,1,2024/03/22_16:04:39,YZ,None,
,,,,,,practice,0,16,1,303,18,C,0,right,1.1058925329998601,1,0,,,,,,,,,,,,,,,,,,,,,1,,,,,,,,,,,,,,,,,,,,,,,,,,,,,,,,,,,,,,,,,,,,,,117,156331,19,Female,1,2024/03/22_16:04:39,YZ,None,
,,,,,,practice,0,16,1,303,19,C,1,left,0.7253932610037737,1,0,,,,,,,,,,,,,,,,,,,,,1,,,,,,,,,,,,,,,,,,,,,,,,,,,,,,,,,,,,,,,,,,,,,,117,156331,19,Female,1,2024/03/22_16:04:39,YZ,None,
,,,,,,practice,0,16,1,303,,,,,,,,1.0,1.0,0.0,1.0,0.0,1.0,0.7657132309457091,5,0,0,0,0,14,19,5,14,0,,,,1,,,,,,,,,,,,,,,,,,,,,,,,,,,,,,,,,,,,,,,,,,,,,,117,156331,19,Female,1,2024/03/22_16:04:39,YZ,None,
1,./instructions/inst_prac_3/Slide37.png,right,17.149062441007118,597.1751979510009,614.324260392008,,,,,,,,,,,,,,,,,,,,,,,,,,,,,,,,,1,,,,,,,,,,,,,,,,,,,,,,,,,,,,,,,,,,,,,,,,,,,,,,117,156331,19,Female,1,2024/03/22_16:04:39,YZ,None,
2,./instructions/inst_prac_3/Slide38.png,right,1.2433813420066144,614.3528957020026,615.5962770440092,,,,,,,,,,,,,,,,,,,,,,,,,,,,,,,,,1,,,,,,,,,,,,,,,,,,,,,,,,,,,,,,,,,,,,,,,,,,,,,,117,156331,19,Female,1,2024/03/22_16:04:39,YZ,None,
3,./instructions/inst_prac_3/Slide39.png,right,0.4626901830051793,615.6215305469959,616.0842207300011,,,,,,,,,,,,,,,,,,,,,,,,,,,,,,,,,1,,,,,,,,,,,,,,,,,,,,,,,,,,,,,,,,,,,,,,,,,,,,,,117,156331,19,Female,1,2024/03/22_16:04:39,YZ,None,
4,./instructions/inst_prac_3/Slide40.png,right,4.003757205995498,616.1124629230035,620.116220128999,,,,,,,,,,,,,,,,,,,,,,,,,,,,,,,,,1,,,,,,,,,,,,,,,,,,,,,,,,,,,,,,,,,,,,,,,,,,,,,,117,156331,19,Female,1,2024/03/22_16:04:39,YZ,None,
5,./instructions/inst_prac_3/Slide41.png,right,6.062706217009691,620.1416009399982,626.2043071570079,,,,,,,,,,,,,,,,,,,,,,,,,,,,,,,,,1,,,,,,,,,,,,,,,,,,,,,,,,,,,,,,,,,,,,,,,,,,,,,,117,156331,19,Female,1,2024/03/22_16:04:39,YZ,None,
6,./instructions/inst_prac_3/Slide42.png,right,2.1556716070044786,626.2327040539967,628.3883756610012,,,,,,,,,,,,,,,,,,,,,,,,,,,,,,,,,1,,,,,,,,,,,,,,,,,,,,,,,,,,,,,,,,,,,,,,,,,,,,,,117,156331,19,Female,1,2024/03/22_16:04:39,YZ,None,
7,./instructions/inst_prac_3/Slide43.png,right,2.622199770004954,628.4141269329994,631.0363267030043,,,,,,,,,,,,,,,,,,,,,,,,,,,,,,,,,1,,,,,,,,,,,,,,,,,,,,,,,,,,,,,,,,,,,,,,,,,,,,,,117,156331,19,Female,1,2024/03/22_16:04:39,YZ,None,
8,./instructions/inst_prac_3/Slide44.png,right,2.0117633719928563,631.0646924120083,633.0764557840012,,,,,,,,,,,,,,,,,,,,,,,,,,,,,,,,,1,,,,,,,,,,,,,,,,,,,,,,,,,,,,,,,,,,,,,,,,,,,,,,117,156331,19,Female,1,2024/03/22_16:04:39,YZ,None,
,,,,,,practice,0,26,3,788,1,Q,0,right,1.291627017009887,1,0,,,,,,,,,,,,,,,,,,,,,1,,,,,,,,,,,,,,,,,,,,,,,,,,,,,,,,,,,,,,,,,,,,,,117,156331,19,Female,1,2024/03/22_16:04:39,YZ,None,
,,,,,,practice,0,26,3,788,2,N,0,right,1.0513879799982533,1,0,,,,,,,,,,,,,,,,,,,,,1,,,,,,,,,,,,,,,,,,,,,,,,,,,,,,,,,,,,,,,,,,,,,,117,156331,19,Female,1,2024/03/22_16:04:39,YZ,None,
,,,,,,practice,0,26,3,788,3,Q,0,right,0.5663673219969496,1,0,,,,,,,,,,,,,,,,,,,,,1,,,,,,,,,,,,,,,,,,,,,,,,,,,,,,,,,,,,,,,,,,,,,,117,156331,19,Female,1,2024/03/22_16:04:39,YZ,None,
,,,,,,practice,0,26,3,788,4,Q,1,left,0.6792307440045988,1,0,,,,,,,,,,,,,,,,,,,,,1,,,,,,,,,,,,,,,,,,,,,,,,,,,,,,,,,,,,,,,,,,,,,,117,156331,19,Female,1,2024/03/22_16:04:39,YZ,None,
,,,,,,practice,0,26,3,788,5,V,0,right,0.6088625069969567,1,0,,,,,,,,,,,,,,,,,,,,,1,,,,,,,,,,,,,,,,,,,,,,,,,,,,,,,,,,,,,,,,,,,,,,117,156331,19,Female,1,2024/03/22_16:04:39,YZ,None,
,,,,,,practice,0,26,3,788,6,Q,1,left,0.6494914390059421,1,0,,,,,,,,,,,,,,,,,,,,,1,,,,,,,,,,,,,,,,,,,,,,,,,,,,,,,,,,,,,,,,,,,,,,117,156331,19,Female,1,2024/03/22_16:04:39,YZ,None,
,,,,,,practice,0,26,3,788,7,Q,1,left,0.7288771019957494,1,0,,,,,,,,,,,,,,,,,,,,,1,,,,,,,,,,,,,,,,,,,,,,,,,,,,,,,,,,,,,,,,,,,,,,117,156331,19,Female,1,2024/03/22_16:04:39,YZ,None,
,,,,,,practice,0,26,3,788,8,C,0,right,0.6542933399905451,1,0,,,,,,,,,,,,,,,,,,,,,1,,,,,,,,,,,,,,,,,,,,,,,,,,,,,,,,,,,,,,,,,,,,,,117,156331,19,Female,1,2024/03/22_16:04:39,YZ,None,
,,,,,,practice,0,26,3,788,9,J,0,right,0.6224815059977118,1,0,,,,,,,,,,,,,,,,,,,,,1,,,,,,,,,,,,,,,,,,,,,,,,,,,,,,,,,,,,,,,,,,,,,,117,156331,19,Female,1,2024/03/22_16:04:39,YZ,None,
,,,,,,practice,0,26,3,788,10,J,0,right,0.8161997370043537,1,0,,,,,,,,,,,,,,,,,,,,,1,,,,,,,,,,,,,,,,,,,,,,,,,,,,,,,,,,,,,,,,,,,,,,117,156331,19,Female,1,2024/03/22_16:04:39,YZ,None,
,,,,,,practice,0,26,3,788,11,V,0,right,0.48642790400481317,1,0,,,,,,,,,,,,,,,,,,,,,1,,,,,,,,,,,,,,,,,,,,,,,,,,,,,,,,,,,,,,,,,,,,,,117,156331,19,Female,1,2024/03/22_16:04:39,YZ,None,
,,,,,,practice,0,26,3,788,12,J,1,left,0.6389156739896862,1,0,,,,,,,,,,,,,,,,,,,,,1,,,,,,,,,,,,,,,,,,,,,,,,,,,,,,,,,,,,,,,,,,,,,,117,156331,19,Female,1,2024/03/22_16:04:39,YZ,None,
,,,,,,practice,0,26,3,788,13,V,0,right,0.5996186770062195,1,0,,,,,,,,,,,,,,,,,,,,,1,,,,,,,,,,,,,,,,,,,,,,,,,,,,,,,,,,,,,,,,,,,,,,117,156331,19,Female,1,2024/03/22_16:04:39,YZ,None,
,,,,,,practice,0,26,3,788,,,,,,,,1.0,1.0,0.0,1.0,0.0,1.0,0.7225985345385897,4,0,0,0,0,9,13,4,9,0,,,,1,,,,,,,,,,,,,,,,,,,,,,,,,,,,,,,,,,,,,,,,,,,,,,117,156331,19,Female,1,2024/03/22_16:04:39,YZ,None,
1,./instructions/inst_prac_3_next/Slide49.png,right,2.3458876769873314,656.1304057750094,658.4762934519968,,,,,,,,,,,,,,,,,,,,,,,,,,,,,,,,,1,,,,,,,,,,,,,,,,,,,,,,,,,,,,,,,,,,,,,,,,,,,,,,117,156331,19,Female,1,2024/03/22_16:04:39,YZ,None,
,,,,,,practice,0,5,3,303,1,J,0,right,0.5506107529945439,1,0,,,,,,,,,,,,,,,,,,,,,1,,,,,,,,,,,,,,,,,,,,,,,,,,,,,,,,,,,,,,,,,,,,,,117,156331,19,Female,1,2024/03/22_16:04:39,YZ,None,
,,,,,,practice,0,5,3,303,2,N,0,right,0.6114600869914284,1,0,,,,,,,,,,,,,,,,,,,,,1,,,,,,,,,,,,,,,,,,,,,,,,,,,,,,,,,,,,,,,,,,,,,,117,156331,19,Female,1,2024/03/22_16:04:39,YZ,None,
,,,,,,practice,0,5,3,303,3,N,0,right,0.7053463269985514,1,0,,,,,,,,,,,,,,,,,,,,,1,,,,,,,,,,,,,,,,,,,,,,,,,,,,,,,,,,,,,,,,,,,,,,117,156331,19,Female,1,2024/03/22_16:04:39,YZ,None,
,,,,,,practice,0,5,3,303,4,J,1,left,1.154586538003059,1,0,,,,,,,,,,,,,,,,,,,,,1,,,,,,,,,,,,,,,,,,,,,,,,,,,,,,,,,,,,,,,,,,,,,,117,156331,19,Female,1,2024/03/22_16:04:39,YZ,None,
,,,,,,practice,0,5,3,303,5,N,1,left,1.5018117129948223,1,0,,,,,,,,,,,,,,,,,,,,,1,,,,,,,,,,,,,,,,,,,,,,,,,,,,,,,,,,,,,,,,,,,,,,117,156331,19,Female,1,2024/03/22_16:04:39,YZ,None,
,,,,,,practice,0,5,3,303,6,V,0,right,0.7619610789988656,1,0,,,,,,,,,,,,,,,,,,,,,1,,,,,,,,,,,,,,,,,,,,,,,,,,,,,,,,,,,,,,,,,,,,,,117,156331,19,Female,1,2024/03/22_16:04:39,YZ,None,
,,,,,,practice,0,5,3,303,7,C,0,right,0.725408811995294,1,0,,,,,,,,,,,,,,,,,,,,,1,,,,,,,,,,,,,,,,,,,,,,,,,,,,,,,,,,,,,,,,,,,,,,117,156331,19,Female,1,2024/03/22_16:04:39,YZ,None,
,,,,,,practice,0,5,3,303,8,N,1,left,1.1172052460024133,1,0,,,,,,,,,,,,,,,,,,,,,1,,,,,,,,,,,,,,,,,,,,,,,,,,,,,,,,,,,,,,,,,,,,,,117,156331,19,Female,1,2024/03/22_16:04:39,YZ,None,
,,,,,,practice,0,5,3,303,9,C,0,right,1.0704130130034173,1,0,,,,,,,,,,,,,,,,,,,,,1,,,,,,,,,,,,,,,,,,,,,,,,,,,,,,,,,,,,,,,,,,,,,,117,156331,19,Female,1,2024/03/22_16:04:39,YZ,None,
,,,,,,practice,0,5,3,303,10,F,0,right,1.097643531000358,1,0,,,,,,,,,,,,,,,,,,,,,1,,,,,,,,,,,,,,,,,,,,,,,,,,,,,,,,,,,,,,,,,,,,,,117,156331,19,Female,1,2024/03/22_16:04:39,YZ,None,
,,,,,,practice,0,5,3,303,11,S,0,right,0.9335471090016654,1,0,,,,,,,,,,,,,,,,,,,,,1,,,,,,,,,,,,,,,,,,,,,,,,,,,,,,,,,,,,,,,,,,,,,,117,156331,19,Female,1,2024/03/22_16:04:39,YZ,None,
,,,,,,practice,0,5,3,303,12,N,0,left,0.5690950639982475,0,0,,,,,,,,,,,,,,,,,,,,,1,,,,,,,,,,,,,,,,,,,,,,,,,,,,,,,,,,,,,,,,,,,,,,117,156331,19,Female,1,2024/03/22_16:04:39,YZ,None,
,,,,,,practice,0,5,3,303,13,X,0,right,0.5739919719926547,1,0,,,,,,,,,,,,,,,,,,,,,1,,,,,,,,,,,,,,,,,,,,,,,,,,,,,,,,,,,,,,,,,,,,,,117,156331,19,Female,1,2024/03/22_16:04:39,YZ,None,
,,,,,,practice,0,5,3,303,14,S,1,left,1.5790502420131816,1,0,,,,,,,,,,,,,,,,,,,,,1,,,,,,,,,,,,,,,,,,,,,,,,,,,,,,,,,,,,,,,,,,,,,,117,156331,19,Female,1,2024/03/22_16:04:39,YZ,None,
,,,,,,practice,0,5,3,303,15,X,0,right,0.6454360030038515,1,0,,,,,,,,,,,,,,,,,,,,,1,,,,,,,,,,,,,,,,,,,,,,,,,,,,,,,,,,,,,,,,,,,,,,117,156331,19,Female,1,2024/03/22_16:04:39,YZ,None,
,,,,,,practice,0,5,3,303,16,J,0,left,1.3903004960011458,0,0,,,,,,,,,,,,,,,,,,,,,1,,,,,,,,,,,,,,,,,,,,,,,,,,,,,,,,,,,,,,,,,,,,,,117,156331,19,Female,1,2024/03/22_16:04:39,YZ,None,
,,,,,,practice,0,5,3,303,17,Q,0,right,0.773393474999466,1,0,,,,,,,,,,,,,,,,,,,,,1,,,,,,,,,,,,,,,,,,,,,,,,,,,,,,,,,,,,,,,,,,,,,,117,156331,19,Female,1,2024/03/22_16:04:39,YZ,None,
,,,,,,practice,0,5,3,303,18,Q,0,right,1.1696671120007522,1,0,,,,,,,,,,,,,,,,,,,,,1,,,,,,,,,,,,,,,,,,,,,,,,,,,,,,,,,,,,,,,,,,,,,,117,156331,19,Female,1,2024/03/22_16:04:39,YZ,None,
,,,,,,practice,0,5,3,303,19,J,1,left,0.7333637190022273,1,0,,,,,,,,,,,,,,,,,,,,,1,,,,,,,,,,,,,,,,,,,,,,,,,,,,,,,,,,,,,,,,,,,,,,117,156331,19,Female,1,2024/03/22_16:04:39,YZ,None,
,,,,,,practice,0,5,3,303,,,,,,,,0.9642857142857143,1.0,0.14285714285714285,0.8571428571428571,0.0,0.8571428571428572,0.9296995942629445,5,2,0,0,0,12,17,5,14,0,,,,1,,,,,,,,,,,,,,,,,,,,,,,,,,,,,,,,,,,,,,,,,,,,,,117,156331,19,Female,1,2024/03/22_16:04:39,YZ,None,
,,,,,,practice,0,22,3,303,1,S,0,right,0.6071796390024247,1,0,,,,,,,,,,,,,,,,,,,,,1,,,,,,,,,,,,,,,,,,,,,,,,,,,,,,,,,,,,,,,,,,,,,,117,156331,19,Female,1,2024/03/22_16:04:39,YZ,None,
,,,,,,practice,0,22,3,303,2,S,0,right,0.6850138310110196,1,0,,,,,,,,,,,,,,,,,,,,,1,,,,,,,,,,,,,,,,,,,,,,,,,,,,,,,,,,,,,,,,,,,,,,117,156331,19,Female,1,2024/03/22_16:04:39,YZ,None,
,,,,,,practice,0,22,3,303,3,N,0,right,0.6016528979962459,1,0,,,,,,,,,,,,,,,,,,,,,1,,,,,,,,,,,,,,,,,,,,,,,,,,,,,,,,,,,,,,,,,,,,,,117,156331,19,Female,1,2024/03/22_16:04:39,YZ,None,
,,,,,,practice,0,22,3,303,4,C,0,right,1.4851812880078796,1,0,,,,,,,,,,,,,,,,,,,,,1,,,,,,,,,,,,,,,,,,,,,,,,,,,,,,,,,,,,,,,,,,,,,,117,156331,19,Female,1,2024/03/22_16:04:39,YZ,None,
,,,,,,practice,0,22,3,303,5,S,1,left,1.1915369030029979,1,0,,,,,,,,,,,,,,,,,,,,,1,,,,,,,,,,,,,,,,,,,,,,,,,,,,,,,,,,,,,,,,,,,,,,117,156331,19,Female,1,2024/03/22_16:04:39,YZ,None,
,,,,,,practice,0,22,3,303,6,V,0,right,1.162655234002159,1,0,,,,,,,,,,,,,,,,,,,,,1,,,,,,,,,,,,,,,,,,,,,,,,,,,,,,,,,,,,,,,,,,,,,,117,156331,19,Female,1,2024/03/22_16:04:39,YZ,None,
,,,,,,practice,0,22,3,303,7,C,1,right,0.9781358150066808,0,0,,,,,,,,,,,,,,,,,,,,,1,,,,,,,,,,,,,,,,,,,,,,,,,,,,,,,,,,,,,,,,,,,,,,117,156331,19,Female,1,2024/03/22_16:04:39,YZ,None,
,,,,,,practice,0,22,3,303,8,V,0,left,1.1924286700086668,0,0,,,,,,,,,,,,,,,,,,,,,1,,,,,,,,,,,,,,,,,,,,,,,,,,,,,,,,,,,,,,,,,,,,,,117,156331,19,Female,1,2024/03/22_16:04:39,YZ,None,
,,,,,,practice,0,22,3,303,9,V,1,right,2.6853687910042936,0,0,,,,,,,,,,,,,,,,,,,,,1,,,,,,,,,,,,,,,,,,,,,,,,,,,,,,,,,,,,,,,,,,,,,,117,156331,19,Female,1,2024/03/22_16:04:39,YZ,None,
,,,,,,practice,0,22,3,303,10,C,1,left,0.717510960996151,1,0,,,,,,,,,,,,,,,,,,,,,1,,,,,,,,,,,,,,,,,,,,,,,,,,,,,,,,,,,,,,,,,,,,,,117,156331,19,Female,1,2024/03/22_16:04:39,YZ,None,
,,,,,,practice,0,22,3,303,11,C,0,left,0.8742227040056605,0,0,,,,,,,,,,,,,,,,,,,,,1,,,,,,,,,,,,,,,,,,,,,,,,,,,,,,,,,,,,,,,,,,,,,,117,156331,19,Female,1,2024/03/22_16:04:39,YZ,None,
,,,,,,practice,0,22,3,303,12,J,0,right,0.5068930760025978,1,0,,,,,,,,,,,,,,,,,,,,,1,,,,,,,,,,,,,,,,,,,,,,,,,,,,,,,,,,,,,,,,,,,,,,117,156331,19,Female,1,2024/03/22_16:04:39,YZ,None,
,,,,,,practice,0,22,3,303,13,J,0,left,0.5580033680016641,0,0,,,,,,,,,,,,,,,,,,,,,1,,,,,,,,,,,,,,,,,,,,,,,,,,,,,,,,,,,,,,,,,,,,,,117,156331,19,Female,1,2024/03/22_16:04:39,YZ,None,
,,,,,,practice,0,22,3,303,14,C,1,right,0.4097829589882167,0,0,,,,,,,,,,,,,,,,,,,,,1,,,,,,,,,,,,,,,,,,,,,,,,,,,,,,,,,,,,,,,,,,,,,,117,156331,19,Female,1,2024/03/22_16:04:39,YZ,None,
,,,,,,practice,0,22,3,303,15,C,0,left,1.2004864509945037,0,0,,,,,,,,,,,,,,,,,,,,,1,,,,,,,,,,,,,,,,,,,,,,,,,,,,,,,,,,,,,,,,,,,,,,117,156331,19,Female,1,2024/03/22_16:04:39,YZ,None,
,,,,,,practice,0,22,3,303,16,N,0,right,1.461217988995486,1,0,,,,,,,,,,,,,,,,,,,,,1,,,,,,,,,,,,,,,,,,,,,,,,,,,,,,,,,,,,,,,,,,,,,,117,156331,19,Female,1,2024/03/22_16:04:39,YZ,None,
,,,,,,practice,0,22,3,303,17,F,0,right,0.7491094150027493,1,0,,,,,,,,,,,,,,,,,,,,,1,,,,,,,,,,,,,,,,,,,,,,,,,,,,,,,,,,,,,,,,,,,,,,117,156331,19,Female,1,2024/03/22_16:04:39,YZ,None,
,,,,,,practice,0,22,3,303,18,C,1,left,1.0490819400001783,1,0,,,,,,,,,,,,,,,,,,,,,1,,,,,,,,,,,,,,,,,,,,,,,,,,,,,,,,,,,,,,,,,,,,,,117,156331,19,Female,1,2024/03/22_16:04:39,YZ,None,
,,,,,,practice,0,22,3,303,19,X,0,right,1.0299998779955786,1,0,,,,,,,,,,,,,,,,,,,,,1,,,,,,,,,,,,,,,,,,,,,,,,,,,,,,,,,,,,,,,,,,,,,,117,156331,19,Female,1,2024/03/22_16:04:39,YZ,None,
,,,,,,practice,0,22,3,303,,,,,,,,0.6442307692307693,0.5,0.3076923076923077,0.6923076923076923,0.0,0.6923076923076923,1.007655884738166,3,4,0,0,0,9,12,6,13,0,,,,1,,,,,,,,,,,,,,,,,,,,,,,,,,,,,,,,,,,,,,,,,,,,,,117,156331,19,Female,1,2024/03/22_16:04:39,YZ,None,
1,./instructions/inst_redo_3/Slide47.png,right,17.962272596996627,717.7460569510004,735.708329547997,,,,,,,,,,,,,,,,,,,,,,,,,,,,,,,,,1,,,,,,,,,,,,,,,,,,,,,,,,,,,,,,,,,,,,,,,,,,,,,,117,156331,19,Female,1,2024/03/22_16:04:39,YZ,None,
,,,,,,practice,0,28,3,303,1,C,0,right,0.9958273930096766,1,0,,,,,,,,,,,,,,,,,,,,,1,,,,,,,,,,,,,,,,,,,,,,,,,,,,,,,,,,,,,,,,,,,,,,117,156331,19,Female,1,2024/03/22_16:04:39,YZ,None,
,,,,,,practice,0,28,3,303,2,S,0,right,0.5705097999889404,1,0,,,,,,,,,,,,,,,,,,,,,1,,,,,,,,,,,,,,,,,,,,,,,,,,,,,,,,,,,,,,,,,,,,,,117,156331,19,Female,1,2024/03/22_16:04:39,YZ,None,
,,,,,,practice,0,28,3,303,3,S,0,right,0.8168086880032206,1,0,,,,,,,,,,,,,,,,,,,,,1,,,,,,,,,,,,,,,,,,,,,,,,,,,,,,,,,,,,,,,,,,,,,,117,156331,19,Female,1,2024/03/22_16:04:39,YZ,None,
,,,,,,practice,0,28,3,303,4,C,1,left,0.7495440719940234,1,0,,,,,,,,,,,,,,,,,,,,,1,,,,,,,,,,,,,,,,,,,,,,,,,,,,,,,,,,,,,,,,,,,,,,117,156331,19,Female,1,2024/03/22_16:04:39,YZ,None,
,,,,,,practice,0,28,3,303,5,N,0,right,1.0095384510059375,1,0,,,,,,,,,,,,,,,,,,,,,1,,,,,,,,,,,,,,,,,,,,,,,,,,,,,,,,,,,,,,,,,,,,,,117,156331,19,Female,1,2024/03/22_16:04:39,YZ,None,
,,,,,,practice,0,28,3,303,6,Q,0,right,1.8518159539962653,1,0,,,,,,,,,,,,,,,,,,,,,1,,,,,,,,,,,,,,,,,,,,,,,,,,,,,,,,,,,,,,,,,,,,,,117,156331,19,Female,1,2024/03/22_16:04:39,YZ,None,
,,,,,,practice,0,28,3,303,7,F,0,right,0.8565261540061329,1,0,,,,,,,,,,,,,,,,,,,,,1,,,,,,,,,,,,,,,,,,,,,,,,,,,,,,,,,,,,,,,,,,,,,,117,156331,19,Female,1,2024/03/22_16:04:39,YZ,None,
,,,,,,practice,0,28,3,303,8,N,1,left,0.6822856650105678,1,0,,,,,,,,,,,,,,,,,,,,,1,,,,,,,,,,,,,,,,,,,,,,,,,,,,,,,,,,,,,,,,,,,,,,117,156331,19,Female,1,2024/03/22_16:04:39,YZ,None,
,,,,,,practice,0,28,3,303,9,Q,1,right,1.5219277419964783,0,0,,,,,,,,,,,,,,,,,,,,,1,,,,,,,,,,,,,,,,,,,,,,,,,,,,,,,,,,,,,,,,,,,,,,117,156331,19,Female,1,2024/03/22_16:04:39,YZ,None,
,,,,,,practice,0,28,3,303,10,Q,0,left,1.3369459200039273,0,0,,,,,,,,,,,,,,,,,,,,,1,,,,,,,,,,,,,,,,,,,,,,,,,,,,,,,,,,,,,,,,,,,,,,117,156331,19,Female,1,2024/03/22_16:04:39,YZ,None,
,,,,,,practice,0,28,3,303,11,N,1,left,1.1542114100011531,1,0,,,,,,,,,,,,,,,,,,,,,1,,,,,,,,,,,,,,,,,,,,,,,,,,,,,,,,,,,,,,,,,,,,,,117,156331,19,Female,1,2024/03/22_16:04:39,YZ,None,
,,,,,,practice,0,28,3,303,12,V,0,right,0.7356961750047049,1,0,,,,,,,,,,,,,,,,,,,,,1,,,,,,,,,,,,,,,,,,,,,,,,,,,,,,,,,,,,,,,,,,,,,,117,156331,19,Female,1,2024/03/22_16:04:39,YZ,None,
,,,,,,practice,0,28,3,303,13,J,0,right,0.9152781699958723,1,0,,,,,,,,,,,,,,,,,,,,,1,,,,,,,,,,,,,,,,,,,,,,,,,,,,,,,,,,,,,,,,,,,,,,117,156331,19,Female,1,2024/03/22_16:04:39,YZ,None,
,,,,,,practice,0,28,3,303,14,C,0,left,0.8919061350025004,0,0,,,,,,,,,,,,,,,,,,,,,1,,,,,,,,,,,,,,,,,,,,,,,,,,,,,,,,,,,,,,,,,,,,,,117,156331,19,Female,1,2024/03/22_16:04:39,YZ,None,
,,,,,,practice,0,28,3,303,15,V,1,right,1.0216932729963446,0,0,,,,,,,,,,,,,,,,,,,,,1,,,,,,,,,,,,,,,,,,,,,,,,,,,,,,,,,,,,,,,,,,,,,,117,156331,19,Female,1,2024/03/22_16:04:39,YZ,None,
,,,,,,practice,0,28,3,303,16,J,1,left,0.9218269389966736,1,0,,,,,,,,,,,,,,,,,,,,,1,,,,,,,,,,,,,,,,,,,,,,,,,,,,,,,,,,,,,,,,,,,,,,117,156331,19,Female,1,2024/03/22_16:04:39,YZ,None,
,,,,,,practice,0,28,3,303,17,S,0,left,2.1700591270055156,0,0,,,,,,,,,,,,,,,,,,,,,1,,,,,,,,,,,,,,,,,,,,,,,,,,,,,,,,,,,,,,,,,,,,,,117,156331,19,Female,1,2024/03/22_16:04:39,YZ,None,
,,,,,,practice,0,28,3,303,18,N,0,right,1.7656313059997046,1,0,,,,,,,,,,,,,,,,,,,,,1,,,,,,,,,,,,,,,,,,,,,,,,,,,,,,,,,,,,,,,,,,,,,,117,156331,19,Female,1,2024/03/22_16:04:39,YZ,None,
,,,,,,practice,0,28,3,303,19,F,0,left,1.6669501700089313,0,0,,,,,,,,,,,,,,,,,,,,,1,,,,,,,,,,,,,,,,,,,,,,,,,,,,,,,,,,,,,,,,,,,,,,117,156331,19,Female,1,2024/03/22_16:04:39,YZ,None,
,,,,,,practice,0,28,3,303,,,,,,,,0.7371794871794872,0.6666666666666666,0.3076923076923077,0.6923076923076923,0.0,0.6923076923076923,1.138683291790872,4,4,0,0,0,9,13,6,13,0,,,,1,,,,,,,,,,,,,,,,,,,,,,,,,,,,,,,,,,,,,,,,,,,,,,117,156331,19,Female,1,2024/03/22_16:04:39,YZ,None,
1,./instructions/inst_redo_3/Slide47.png,right,2.0761954329937,768.34396345001,770.4201588830038,,,,,,,,,,,,,,,,,,,,,,,,,,,,,,,,,1,,,,,,,,,,,,,,,,,,,,,,,,,,,,,,,,,,,,,,,,,,,,,,117,156331,19,Female,1,2024/03/22_16:04:39,YZ,None,
,,,,,,practice,0,15,3,303,1,Q,0,right,0.7743767509964528,1,0,,,,,,,,,,,,,,,,,,,,,1,,,,,,,,,,,,,,,,,,,,,,,,,,,,,,,,,,,,,,,,,,,,,,117,156331,19,Female,1,2024/03/22_16:04:39,YZ,None,
,,,,,,practice,0,15,3,303,2,S,0,right,0.7624213959934423,1,0,,,,,,,,,,,,,,,,,,,,,1,,,,,,,,,,,,,,,,,,,,,,,,,,,,,,,,,,,,,,,,,,,,,,117,156331,19,Female,1,2024/03/22_16:04:39,YZ,None,
,,,,,,practice,0,15,3,303,3,S,0,right,0.8826098489953438,1,0,,,,,,,,,,,,,,,,,,,,,1,,,,,,,,,,,,,,,,,,,,,,,,,,,,,,,,,,,,,,,,,,,,,,117,156331,19,Female,1,2024/03/22_16:04:39,YZ,None,
,,,,,,practice,0,15,3,303,4,X,0,right,3.749260152995703,1,0,,,,,,,,,,,,,,,,,,,,,1,,,,,,,,,,,,,,,,,,,,,,,,,,,,,,,,,,,,,,,,,,,,,,117,156331,19,Female,1,2024/03/22_16:04:39,YZ,None,
,,,,,,practice,0,15,3,303,5,V,0,right,1.7304013929970097,1,0,,,,,,,,,,,,,,,,,,,,,1,,,,,,,,,,,,,,,,,,,,,,,,,,,,,,,,,,,,,,,,,,,,,,117,156331,19,Female,1,2024/03/22_16:04:39,YZ,None,
,,,,,,practice,0,15,3,303,6,N,0,right,2.0644134299946018,1,0,,,,,,,,,,,,,,,,,,,,,1,,,,,,,,,,,,,,,,,,,,,,,,,,,,,,,,,,,,,,,,,,,,,,117,156331,19,Female,1,2024/03/22_16:04:39,YZ,None,
,,,,,,practice,0,15,3,303,7,J,0,right,1.1576872250007,1,0,,,,,,,,,,,,,,,,,,,,,1,,,,,,,,,,,,,,,,,,,,,,,,,,,,,,,,,,,,,,,,,,,,,,117,156331,19,Female,1,2024/03/22_16:04:39,YZ,None,
,,,,,,practice,0,15,3,303,8,N,0,left,2.4742084290046478,0,0,,,,,,,,,,,,,,,,,,,,,1,,,,,,,,,,,,,,,,,,,,,,,,,,,,,,,,,,,,,,,,,,,,,,117,156331,19,Female,1,2024/03/22_16:04:39,YZ,None,
,,,,,,practice,0,15,3,303,9,F,0,right,1.0471024669968756,1,0,,,,,,,,,,,,,,,,,,,,,1,,,,,,,,,,,,,,,,,,,,,,,,,,,,,,,,,,,,,,,,,,,,,,117,156331,19,Female,1,2024/03/22_16:04:39,YZ,None,
,,,,,,practice,0,15,3,303,10,J,1,right,1.6169534060027217,0,0,,,,,,,,,,,,,,,,,,,,,1,,,,,,,,,,,,,,,,,,,,,,,,,,,,,,,,,,,,,,,,,,,,,,117,156331,19,Female,1,2024/03/22_16:04:39,YZ,None,
,,,,,,practice,0,15,3,303,11,N,1,left,1.5894941539881984,1,0,,,,,,,,,,,,,,,,,,,,,1,,,,,,,,,,,,,,,,,,,,,,,,,,,,,,,,,,,,,,,,,,,,,,117,156331,19,Female,1,2024/03/22_16:04:39,YZ,None,
,,,,,,practice,0,15,3,303,12,N,0,right,1.0619758770044427,1,0,,,,,,,,,,,,,,,,,,,,,1,,,,,,,,,,,,,,,,,,,,,,,,,,,,,,,,,,,,,,,,,,,,,,117,156331,19,Female,1,2024/03/22_16:04:39,YZ,None,
,,,,,,practice,0,15,3,303,13,J,1,left,2.090595770001528,1,0,,,,,,,,,,,,,,,,,,,,,1,,,,,,,,,,,,,,,,,,,,,,,,,,,,,,,,,,,,,,,,,,,,,,117,156331,19,Female,1,2024/03/22_16:04:39,YZ,None,
,,,,,,practice,0,15,3,303,14,N,1,left,1.8464883300039219,1,0,,,,,,,,,,,,,,,,,,,,,1,,,,,,,,,,,,,,,,,,,,,,,,,,,,,,,,,,,,,,,,,,,,,,117,156331,19,Female,1,2024/03/22_16:04:39,YZ,None,
,,,,,,practice,0,15,3,303,15,V,0,right,1.946639215995674,1,0,,,,,,,,,,,,,,,,,,,,,1,,,,,,,,,,,,,,,,,,,,,,,,,,,,,,,,,,,,,,,,,,,,,,117,156331,19,Female,1,2024/03/22_16:04:39,YZ,None,
,,,,,,practice,0,15,3,303,16,X,0,right,1.2670567509921966,1,0,,,,,,,,,,,,,,,,,,,,,1,,,,,,,,,,,,,,,,,,,,,,,,,,,,,,,,,,,,,,,,,,,,,,117,156331,19,Female,1,2024/03/22_16:04:39,YZ,None,
,,,,,,practice,0,15,3,303,17,C,0,right,1.2584012459992664,1,0,,,,,,,,,,,,,,,,,,,,,1,,,,,,,,,,,,,,,,,,,,,,,,,,,,,,,,,,,,,,,,,,,,,,117,156331,19,Female,1,2024/03/22_16:04:39,YZ,None,
,,,,,,practice,0,15,3,303,18,V,1,left,2.529502968012821,1,0,,,,,,,,,,,,,,,,,,,,,1,,,,,,,,,,,,,,,,,,,,,,,,,,,,,,,,,,,,,,,,,,,,,,117,156331,19,Female,1,2024/03/22_16:04:39,YZ,None,
,,,,,,practice,0,15,3,303,19,X,1,left,2.3731158900045557,1,0,,,,,,,,,,,,,,,,,,,,,1,,,,,,,,,,,,,,,,,,,,,,,,,,,,,,,,,,,,,,,,,,,,,,117,156331,19,Female,1,2024/03/22_16:04:39,YZ,None,
,,,,,,practice,0,15,3,303,,,,,,,,0.9262820512820513,0.8333333333333334,0.07692307692307693,0.9230769230769231,0.0,0.9230769230769231,1.6959318263673737,5,1,0,0,0,12,17,6,13,0,,,,1,,,,,,,,,,,,,,,,,,,,,,,,,,,,,,,,,,,,,,,,,,,,,,117,156331,19,Female,1,2024/03/22_16:04:39,YZ,None,
1,./instructions/inst_prac_main/Slide51.png,right,2.582273474006797,815.1579566459986,817.7402301200054,,,,,,,,,,,,,,,,,,,,,,,,,,,,,,,,,1,,,,,,,,,,,,,,,,,,,,,,,,,,,,,,,,,,,,,,,,,,,,,,117,156331,19,Female,1,2024/03/22_16:04:39,YZ,None,
2,./instructions/inst_prac_main/Slide52.png,right,13.428905464010313,817.7675267879968,831.1964322520071,,,,,,,,,,,,,,,,,,,,,,,,,,,,,,,,,1,,,,,,,,,,,,,,,,,,,,,,,,,,,,,,,,,,,,,,,,,,,,,,117,156331,19,Female,1,2024/03/22_16:04:39,YZ,None,
1,./instructions/inst_prac_main/Slide53.png,left,3.8831424600066384,831.2249254769995,835.1080679370061,,,,,,,,,,,,,,,,,,,,,,,,,,,,,,,,,1,,,,,,,,,,,,,,,,,,,,,,,,,,,,,,,,,,,,,,,,,,,,,,117,156331,19,Female,1,2024/03/22_16:04:39,YZ,None,
0,./instructions/inst_prac_main/Slide52.png,left,0.20060254000418354,835.1318147940037,835.3324173340079,,,,,,,,,,,,,,,,,,,,,,,,,,,,,,,,,1,,,,,,,,,,,,,,,,,,,,,,,,,,,,,,,,,,,,,,,,,,,,,,117,156331,19,Female,1,2024/03/22_16:04:39,YZ,None,
-1,./instructions/inst_prac_main/Slide51.png,left,0.20038684400788043,835.3521642330015,835.5525510770094,,,,,,,,,,,,,,,,,,,,,,,,,,,,,,,,,1,,,,,,,,,,,,,,,,,,,,,,,,,,,,,,,,,,,,,,,,,,,,,,117,156331,19,Female,1,2024/03/22_16:04:39,YZ,None,
-2,./instructions/inst_prac_main/Slide54.png,left,0.20038641399878543,835.5753194810095,835.7757058950083,,,,,,,,,,,,,,,,,,,,,,,,,,,,,,,,,1,,,,,,,,,,,,,,,,,,,,,,,,,,,,,,,,,,,,,,,,,,,,,,117,156331,19,Female,1,2024/03/22_16:04:39,YZ,None,
-3,./instructions/inst_prac_main/Slide53.png,left,0.20061315500061028,835.7980362399976,835.9986493949982,,,,,,,,,,,,,,,,,,,,,,,,,,,,,,,,,1,,,,,,,,,,,,,,,,,,,,,,,,,,,,,,,,,,,,,,,,,,,,,,117,156331,19,Female,1,2024/03/22_16:04:39,YZ,None,
-4,./instructions/inst_prac_main/Slide52.png,left,0.20039354200707749,836.0212530010031,836.2216465430101,,,,,,,,,,,,,,,,,,,,,,,,,,,,,,,,,1,,,,,,,,,,,,,,,,,,,,,,,,,,,,,,,,,,,,,,,,,,,,,,117,156331,19,Female,1,2024/03/22_16:04:39,YZ,None,
,,,,,,practice_main,0,1,1,303,1,V,0,None,nan,0,1,,,,,,,,,,,,,,,,,,,,,1,,,,,,,,,,,,,,,,,,,,,,,,,,,,,,,,,,,,,,,,,,,,,,117,156331,19,Female,1,2024/03/22_16:04:39,YZ,None,
,,,,,,practice_main,0,1,1,303,2,V,1,left,0.7980323160008993,1,0,,,,,,,,,,,,,,,,,,,,,1,,,,,,,,,,,,,,,,,,,,,,,,,,,,,,,,,,,,,,,,,,,,,,117,156331,19,Female,1,2024/03/22_16:04:39,YZ,None,
,,,,,,practice_main,0,1,1,303,3,J,0,right,0.5802506399923004,1,0,,,,,,,,,,,,,,,,,,,,,1,,,,,,,,,,,,,,,,,,,,,,,,,,,,,,,,,,,,,,,,,,,,,,117,156331,19,Female,1,2024/03/22_16:04:39,YZ,None,
,,,,,,practice_main,0,1,1,303,4,X,0,right,0.49429432999750134,1,0,,,,,,,,,,,,,,,,,,,,,1,,,,,,,,,,,,,,,,,,,,,,,,,,,,,,,,,,,,,,,,,,,,,,117,156331,19,Female,1,2024/03/22_16:04:39,YZ,None,
,,,,,,practice_main,0,1,1,303,5,X,1,left,0.6931912299914984,1,0,,,,,,,,,,,,,,,,,,,,,1,,,,,,,,,,,,,,,,,,,,,,,,,,,,,,,,,,,,,,,,,,,,,,117,156331,19,Female,1,2024/03/22_16:04:39,YZ,None,
,,,,,,practice_main,0,1,1,303,6,Q,0,right,0.5735999199969228,1,0,,,,,,,,,,,,,,,,,,,,,1,,,,,,,,,,,,,,,,,,,,,,,,,,,,,,,,,,,,,,,,,,,,,,117,156331,19,Female,1,2024/03/22_16:04:39,YZ,None,
,,,,,,practice_main,0,1,1,303,7,C,0,right,0.46875436999835074,1,0,,,,,,,,,,,,,,,,,,,,,1,,,,,,,,,,,,,,,,,,,,,,,,,,,,,,,,,,,,,,,,,,,,,,117,156331,19,Female,1,2024/03/22_16:04:39,YZ,None,
,,,,,,practice_main,0,1,1,303,8,F,0,right,0.6613877180061536,1,0,,,,,,,,,,,,,,,,,,,,,1,,,,,,,,,,,,,,,,,,,,,,,,,,,,,,,,,,,,,,,,,,,,,,117,156331,19,Female,1,2024/03/22_16:04:39,YZ,None,
,,,,,,practice_main,0,1,1,303,9,S,0,right,0.6414068610029062,1,0,,,,,,,,,,,,,,,,,,,,,1,,,,,,,,,,,,,,,,,,,,,,,,,,,,,,,,,,,,,,,,,,,,,,117,156331,19,Female,1,2024/03/22_16:04:39,YZ,None,
,,,,,,practice_main,0,1,1,303,10,J,0,right,0.6959185169980628,1,0,,,,,,,,,,,,,,,,,,,,,1,,,,,,,,,,,,,,,,,,,,,,,,,,,,,,,,,,,,,,,,,,,,,,117,156331,19,Female,1,2024/03/22_16:04:39,YZ,None,
,,,,,,practice_main,0,1,1,303,11,J,1,left,0.5813711470109411,1,0,,,,,,,,,,,,,,,,,,,,,1,,,,,,,,,,,,,,,,,,,,,,,,,,,,,,,,,,,,,,,,,,,,,,117,156331,19,Female,1,2024/03/22_16:04:39,YZ,None,
,,,,,,practice_main,0,1,1,303,12,X,0,right,0.36769293699762784,1,0,,,,,,,,,,,,,,,,,,,,,1,,,,,,,,,,,,,,,,,,,,,,,,,,,,,,,,,,,,,,,,,,,,,,117,156331,19,Female,1,2024/03/22_16:04:39,YZ,None,
,,,,,,practice_main,0,1,1,303,13,V,0,right,0.7083560549945105,1,0,,,,,,,,,,,,,,,,,,,,,1,,,,,,,,,,,,,,,,,,,,,,,,,,,,,,,,,,,,,,,,,,,,,,117,156331,19,Female,1,2024/03/22_16:04:39,YZ,None,
,,,,,,practice_main,0,1,1,303,14,J,0,right,0.8986101070040604,1,0,,,,,,,,,,,,,,,,,,,,,1,,,,,,,,,,,,,,,,,,,,,,,,,,,,,,,,,,,,,,,,,,,,,,117,156331,19,Female,1,2024/03/22_16:04:39,YZ,None,
,,,,,,practice_main,0,1,1,303,15,J,1,left,0.38144317700061947,1,0,,,,,,,,,,,,,,,,,,,,,1,,,,,,,,,,,,,,,,,,,,,,,,,,,,,,,,,,,,,,,,,,,,,,117,156331,19,Female,1,2024/03/22_16:04:39,YZ,None,
,,,,,,practice_main,0,1,1,303,16,S,0,right,0.4533094100042945,1,0,,,,,,,,,,,,,,,,,,,,,1,,,,,,,,,,,,,,,,,,,,,,,,,,,,,,,,,,,,,,,,,,,,,,117,156331,19,Female,1,2024/03/22_16:04:39,YZ,None,
,,,,,,practice_main,0,1,1,303,17,S,1,left,0.45796925699687563,1,0,,,,,,,,,,,,,,,,,,,,,1,,,,,,,,,,,,,,,,,,,,,,,,,,,,,,,,,,,,,,,,,,,,,,117,156331,19,Female,1,2024/03/22_16:04:39,YZ,None,
,,,,,,practice_main,0,1,1,303,18,X,0,right,0.4262961170024937,1,0,,,,,,,,,,,,,,,,,,,,,1,,,,,,,,,,,,,,,,,,,,,,,,,,,,,,,,,,,,,,,,,,,,,,117,156331,19,Female,1,2024/03/22_16:04:39,YZ,None,
,,,,,,practice_main,0,1,1,303,19,V,0,right,0.4496037380013149,1,0,,,,,,,,,,,,,,,,,,,,,1,,,,,,,,,,,,,,,,,,,,,,,,,,,,,,,,,,,,,,,,,,,,,,117,156331,19,Female,1,2024/03/22_16:04:39,YZ,None,
,,,,,,practice_main,0,1,1,303,,,,,,,,1.0,1.0,0.0,1.0,0.05263157894736842,0.9473684210526316,0.5739715470554074,5,0,0,1,1,13,18,5,14,0,,,,1,,,,,,,,,,,,,,,,,,,,,,,,,,,,,,,,,,,,,,,,,,,,,,117,156331,19,Female,1,2024/03/22_16:04:39,YZ,None,
,,,,,240322_165158,PRACTICE,0,1,1,303,,,,,,,,,,,,,,,,,,,,,,,,,,,,1,21,2,1,cue1.png,easy,A,22,1.9195106559927808,0,847.3328871910053,849.2668935380061,,,,,,,,,,,,,,,,,,,,,,,,,,,,,,,,,,,117,156331,19,Female,1,2024/03/22_16:04:39,YZ,None,
,,,,,,practice_main,0,2,3,303,1,J,0,right,0.4862011490040459,1,0,,,,,,,,,,,,,,,,,,,,,1,,,,,,,,,,,,,,,,,,,,,,,,,,,,,,,,,,,,,,,,,,,,,,117,156331,19,Female,1,2024/03/22_16:04:39,YZ,None,
,,,,,,practice_main,0,2,3,303,2,N,0,right,0.5406780869961949,1,0,,,,,,,,,,,,,,,,,,,,,1,,,,,,,,,,,,,,,,,,,,,,,,,,,,,,,,,,,,,,,,,,,,,,117,156331,19,Female,1,2024/03/22_16:04:39,YZ,None,
,,,,,,practice_main,0,2,3,303,3,J,0,right,0.5754931080009555,1,0,,,,,,,,,,,,,,,,,,,,,1,,,,,,,,,,,,,,,,,,,,,,,,,,,,,,,,,,,,,,,,,,,,,,117,156331,19,Female,1,2024/03/22_16:04:39,YZ,None,
,,,,,,practice_main,0,2,3,303,4,J,1,left,0.6970902540051611,1,0,,,,,,,,,,,,,,,,,,,,,1,,,,,,,,,,,,,,,,,,,,,,,,,,,,,,,,,,,,,,,,,,,,,,117,156331,19,Female,1,2024/03/22_16:04:39,YZ,None,
,,,,,,practice_main,0,2,3,303,5,Q,0,right,0.4282540129934205,1,0,,,,,,,,,,,,,,,,,,,,,1,,,,,,,,,,,,,,,,,,,,,,,,,,,,,,,,,,,,,,,,,,,,,,117,156331,19,Female,1,2024/03/22_16:04:39,YZ,None,
,,,,,,practice_main,0,2,3,303,6,J,1,right,nan,0,1,,,,,,,,,,,,,,,,,,,,,1,,,,,,,,,,,,,,,,,,,,,,,,,,,,,,,,,,,,,,,,,,,,,,117,156331,19,Female,1,2024/03/22_16:04:39,YZ,None,
,,,,,,practice_main,0,2,3,303,7,J,1,left,0.75022313799127,1,0,,,,,,,,,,,,,,,,,,,,,1,,,,,,,,,,,,,,,,,,,,,,,,,,,,,,,,,,,,,,,,,,,,,,117,156331,19,Female,1,2024/03/22_16:04:39,YZ,None,
,,,,,,practice_main,0,2,3,303,8,F,0,right,0.4987035439989995,1,0,,,,,,,,,,,,,,,,,,,,,1,,,,,,,,,,,,,,,,,,,,,,,,,,,,,,,,,,,,,,,,,,,,,,117,156331,19,Female,1,2024/03/22_16:04:39,YZ,None,
,,,,,,practice_main,0,2,3,303,9,X,0,right,0.4681614089931827,1,0,,,,,,,,,,,,,,,,,,,,,1,,,,,,,,,,,,,,,,,,,,,,,,,,,,,,,,,,,,,,,,,,,,,,117,156331,19,Female,1,2024/03/22_16:04:39,YZ,None,
,,,,,,practice_main,0,2,3,303,10,S,0,right,0.7926705199934077,1,0,,,,,,,,,,,,,,,,,,,,,1,,,,,,,,,,,,,,,,,,,,,,,,,,,,,,,,,,,,,,,,,,,,,,117,156331,19,Female,1,2024/03/22_16:04:39,YZ,None,
,,,,,,practice_main,0,2,3,303,11,Q,0,left,0.34707557399815414,0,0,,,,,,,,,,,,,,,,,,,,,1,,,,,,,,,,,,,,,,,,,,,,,,,,,,,,,,,,,,,,,,,,,,,,117,156331,19,Female,1,2024/03/22_16:04:39,YZ,None,
,,,,,,practice_main,0,2,3,303,12,X,1,right,0.32506042601016816,0,0,,,,,,,,,,,,,,,,,,,,,1,,,,,,,,,,,,,,,,,,,,,,,,,,,,,,,,,,,,,,,,,,,,,,117,156331,19,Female,1,2024/03/22_16:04:39,YZ,None,
,,,,,,practice_main,0,2,3,303,13,S,1,right,0.5423071710101794,0,0,,,,,,,,,,,,,,,,,,,,,1,,,,,,,,,,,,,,,,,,,,,,,,,,,,,,,,,,,,,,,,,,,,,,117,156331,19,Female,1,2024/03/22_16:04:39,YZ,None,
