,END,Phase,Block,TrialN,NbackLevel,ISI,Letter_Resp,Letter_RT,Letter_Accuracy,Trial_A_measure,Trial_ACC,Trial_RT,TrialCountCali,CaliEnd_A_measure,ISI_calibrated,TrialIndex,TrialNumber_total,TrialNumber_valid,CueLearning,TrialDemandLearning,CueMapping,OfflineRatingTimePoint,CueFigure,TrialDemand,OfflineRating,OfflineRatingRT,PhaseType,CueLeft,CueDemandLeft,CueRight,CueDemandRight,Choice,ChoiceDemand,TaskDemand,ChoiceRT,CueCheck,CueDemandCheck,CorrectAnswer,Answer,AnswerDemand,AnswerRT,AnswerACC,DemandRatingQuesIndex,QuesTLX,DemandLevel,DemandRating,DemandRatingRT,PID,Age,Gender,Task_A_measure,Task_ACC,Task_RT,cue_i_on_zyg_values,cue_i_on_zyg_zvalues,cue_e_on_zyg_values,cue_e_on_zyg_zvalues,cue_i_on_cor_values,cue_i_on_cor_zvalues,cue_e_on_cor_values,cue_e_on_cor_zvalues,cue_i_on_scr_values,cue_i_on_scr_zvalues,cue_e_on_scr_values,cue_e_on_scr_zvalues,BAI_bis,BAI_bas_d,BAI_bas_rr,BAI_bas_fs,NFC,BFI_ext,BFI_agr,BFI_con,BFI_neu,BFI_open,UPPS_lps,UPPS_lpm,UPPS_pu,UPPS_ss,cue_e_true_zyg_values,cue_e_true_zyg_zvalues,cue_e_true_cor_values,cue_e_true_cor_zvalues,cue_e_true_scr_values,cue_e_true_scr_zvalues,cue_i_off_zyg_values,cue_i_off_zyg_zvalues,cue_i_off_cor_values,cue_i_off_cor_zvalues,cue_i_off_scr_values,cue_i_off_scr_zvalues
0,240610_144936,LEARNING,1.0,1,1.0,1750.0,,,,,,,,,,1.0,1.0,1.0,cue1.png,Easy,A,,,,,,,,,,,,,,,,,,,,,,,,,,,7,20,Female,1.0,1.0,0.4330997750512324,4.896871273521973e-05,0.09603705282988298,0.000167146426834415,-0.2441341939038245,0.000579648779563127,1.455049656995416,,,,,,,1.0,1.25,0.8,0.75,2.9444444444444446,2.75,2.6666666666666665,2.111111111111111,1.875,3.0,2.0,2.75,2.25,1.25,,,,,,,,,,,,
1,240610_144958,LEARNING,1.0,2,3.0,1750.0,,,,,,,,,,2.0,2.0,2.0,cue2.png,Hard,A,,,,,,,,,,,,,,,,,,,,,,,,,,,7,20,Female,1.0,1.0,0.8521885749651119,0.00021690453302303844,0.2838552771997238,0.0009517057967960612,0.5707548538385007,5.516516087989299e-06,0.005344375841895164,,,1.437,-0.2555848666078969,1.134,-0.6235066856457173,1.0,1.25,0.8,0.75,2.9444444444444446,2.75,2.6666666666666665,2.111111111111111,1.875,3.0,2.0,2.75,2.25,1.25,,,,,,,,,,,,
2,240610_145020,LEARNING,1.0,3,1.0,1750.0,,,,,,,,,,3.0,3.0,3.0,cue1.png,Easy,A,,,,,,,,,,,,,,,,,,,,,,,,,,,7,20,Female,1.0,0.875,0.5320081142043429,0.0010659030439777503,1.2333691602228034,,,0.00017746328805384043,0.4395163589445119,0.002022658738706628,3.9801522303294914,1.953,0.6565828099338076,1.6029999999999998,0.18752501427324839,1.0,1.25,0.8,0.75,2.9444444444444446,2.75,2.6666666666666665,2.111111111111111,1.875,3.0,2.0,2.75,2.25,1.25,,,,,,,,,,,,
3,240610_145039,LEARNING,1.0,4,3.0,1750.0,,,,,,,,,,4.0,4.0,4.0,cue2.png,Hard,A,,,,,,,,,,,,,,,,,,,,,,,,,,,7,20,Female,0.75,0.8333333333333334,0.4841686874860897,,,0.0001675273548030114,-0.2437385399336181,-0.001341441147065847,-3.395773732283519,0.00017337878702336149,-0.13313292455473988,1.577,-0.008097512507434658,1.5849999999999997,0.1563979980716676,1.0,1.25,0.8,0.75,2.9444444444444446,2.75,2.6666666666666665,2.111111111111111,1.875,3.0,2.0,2.75,2.25,1.25,,,,,,,,,,,,
4,240610_145058,LEARNING,1.0,5,3.0,1750.0,,,,,,,,,,5.0,5.0,5.0,cue2.png,Hard,A,,,,,,,,,,,,,,,,,,,,,,,,,,,7,20,Female,1.0,1.0,0.4605313750216737,5.6825950251954745e-05,0.10482453126251318,0.00029733955847122953,-0.10890802603930531,,,0.0005578161257516786,0.7219568615725815,1.563,-0.03284624791748093,,,1.0,1.25,0.8,0.75,2.9444444444444446,2.75,2.6666666666666665,2.111111111111111,1.875,3.0,2.0,2.75,2.25,1.25,,,,,,,,,,,,
5,240610_145117,LEARNING,1.0,6,1.0,1750.0,,,,,,,,,,6.0,6.0,6.0,cue1.png,Easy,A,,,,,,,,,,,,,,,,,,,,,,,,,,,7,20,Female,1.0,1.0,0.352339000091888,-0.0002365015174253639,-0.22323081776091375,0.0001936736163246802,-0.21658151018014507,5.766239507111991e-06,0.005974936746691899,0.0002442159114185434,0.024427477224435404,,,0.11299999999999999,-2.3891002157464936,1.0,1.25,0.8,0.75,2.9444444444444446,2.75,2.6666666666666665,2.111111111111111,1.875,3.0,2.0,2.75,2.25,1.25,,,,,,,,,,,,
6,240610_145136,LEARNING,1.0,7,3.0,1750.0,,,,,,,,,,7.0,7.0,7.0,cue2.png,Hard,A,,,,,,,,,,,,,,,,,,,,,,,,,,,7,20,Female,0.75,0.8333333333333334,0.5495117625105195,-4.33563217073123e-05,-0.007218607601357071,0.0001645599844295048,-0.24682062359808798,-5.3915086970693533e-05,-0.14472262840567796,,,1.443,-0.24497826571787712,1.2009999999999998,-0.5076450142287222,1.0,1.25,0.8,0.75,2.9444444444444446,2.75,2.6666666666666665,2.111111111111111,1.875,3.0,2.0,2.75,2.25,1.25,,,,,,,,,,,,
7,240610_145157,LEARNING,1.0,8,3.0,1750.0,,,,,,,,,,8.0,8.0,8.0,cue2.png,Hard,A,,,,,,,,,,,,,,,,,,,,,,,,,,,7,20,Female,0.75,0.8333333333333334,0.603178224992007,1.5147137370397686e-05,0.058211244020751896,0.0001942270558378781,-0.2160066756741027,,,,,,,,,1.0,1.25,0.8,0.75,2.9444444444444446,2.75,2.6666666666666665,2.111111111111111,1.875,3.0,2.0,2.75,2.25,1.25,,,,,,,,,,,,
8,240610_145216,LEARNING,1.0,9,1.0,1750.0,,,,,,,,,,9.0,9.0,9.0,cue1.png,Easy,A,,,,,,,,,,,,,,,,,,,,,,,,,,,7,20,Female,1.0,1.0,0.3996586875291541,,,-0.0014065785849356658,-1.8786966315588514,,,-6.574765415335443e-05,-0.6650130434827511,,,,,1.0,1.25,0.8,0.75,2.9444444444444446,2.75,2.6666666666666665,2.111111111111111,1.875,3.0,2.0,2.75,2.25,1.25,,,,,,,,,,,,
9,240610_145236,LEARNING,1.0,10,1.0,1750.0,,,,,,,,,,10.0,10.0,10.0,cue1.png,Easy,A,,,,,,,,,,,,,,,,,,,,,,,,,,,7,20,Female,1.0,1.0,0.5625223750830628,0.0011318386789996257,1.3071111044446033,0.00011287344974108366,-0.3005052683119828,,,0.0005418662629486496,0.6864801703174674,1.4539999999999997,-0.22553283075284133,1.5299999999999998,0.06128767078905975,1.0,1.25,0.8,0.75,2.9444444444444446,2.75,2.6666666666666665,2.111111111111111,1.875,3.0,2.0,2.75,2.25,1.25,,,,,,,,,,,,
10,240610_145256,LEARNING,1.0,11,3.0,1750.0,,,,,,,,,,11.0,11.0,11.0,cue2.png,Hard,A,,,,,,,,,,,,,,,,,,,,,,,,,,,7,20,Female,0.75,0.8333333333333334,0.5401107875513844,6.782037261820984e-05,0.11712061486911393,-6.944738791154429e-05,-0.4898743071211122,0.0001293044180275529,0.3179134241278756,0.00011243688797814332,-0.2686837417390073,2.306,1.2806044956299736,,,1.0,1.25,0.8,0.75,2.9444444444444446,2.75,2.6666666666666665,2.111111111111111,1.875,3.0,2.0,2.75,2.25,1.25,,,,,,,,,,,,
11,240610_145314,LEARNING,1.0,12,1.0,1750.0,,,,,,,,,,12.0,12.0,12.0,cue1.png,Easy,A,,,,,,,,,,,,,,,,,,,,,,,,,,,7,20,Female,1.0,1.0,0.399273324990645,-6.447719835501802e-05,-0.030840045495356298,-0.00021296884841609087,-0.6389440534767705,,,0.00011788265046437998,-0.2565709331989733,,,,,1.0,1.25,0.8,0.75,2.9444444444444446,2.75,2.6666666666666665,2.111111111111111,1.875,3.0,2.0,2.75,2.25,1.25,,,,,,,,,,,,
12,240610_145333,LEARNING,1.0,13,1.0,1750.0,,,,,,,,,,13.0,13.0,13.0,cue1.png,Easy,A,,,,,,,,,,,,,,,,,,,,,,,,,,,7,20,Female,1.0,1.0,0.4162561750272289,3.738391459698733e-05,0.08308069716807857,0.0011841268537272948,0.8121608978033016,0.00013131963284662186,0.3230019163651519,0.0002922512742448754,0.13127076217065653,,,,,1.0,1.25,0.8,0.75,2.9444444444444446,2.75,2.6666666666666665,2.111111111111111,1.875,3.0,2.0,2.75,2.25,1.25,,,,,,,,,,,,
13,240610_145352,LEARNING,1.0,14,1.0,1750.0,,,,,,,,,,14.0,14.0,14.0,cue1.png,Easy,A,,,,,,,,,,,,,,,,,,,,,,,,,,,7,20,Female,1.0,1.0,0.4355103750131093,-4.3480928627956036e-05,-0.007357967093211694,0.00012148947943655449,-0.29155615814559094,0.00014711633620034196,0.3628891788194335,-0.0001340131762030991,-0.8168535250615673,2.928,2.380155454562028,,,1.0,1.25,0.8,0.75,2.9444444444444446,2.75,2.6666666666666665,2.111111111111111,1.875,3.0,2.0,2.75,2.25,1.25,,,,,,,,,,,,
14,240610_145411,LEARNING,1.0,15,3.0,1750.0,,,,,,,,,,15.0,15.0,15.0,cue2.png,Hard,A,,,,,,,,,,,,,,,,,,,,,,,,,,,7,20,Female,0.1666666666666666,0.6666666666666667,0.4629452250082977,0.0014699493558635473,1.6852516754093376,,,,,-0.0007011989655983457,-2.0784239462718346,,,,,1.0,1.25,0.8,0.75,2.9444444444444446,2.75,2.6666666666666665,2.111111111111111,1.875,3.0,2.0,2.75,2.25,1.25,,,,,,,,,,,,
15,240610_145430,LEARNING,1.0,16,1.0,1750.0,,,,,,,,,,16.0,16.0,16.0,cue1.png,Easy,A,,,,,,,,,,,,,,,,,,,,,,,,,,,7,20,Female,0.75,0.8333333333333334,0.4046527250902727,-0.00014341537025281152,-0.11912393427760112,0.00021065318981929515,-0.19894553640192864,,,0.0002998188661652713,0.14810307762189642,,,,,1.0,1.25,0.8,0.75,2.9444444444444446,2.75,2.6666666666666665,2.111111111111111,1.875,3.0,2.0,2.75,2.25,1.25,,,,,,,,,,,,
16,240610_145449,LEARNING,1.0,17,1.0,1750.0,,,,,,,,,,17.0,17.0,17.0,cue1.png,Easy,A,,,,,,,,,,,,,,,,,,,,,,,,,,,7,20,Female,1.0,1.0,0.4567565249744802,3.3584799774162826e-05,0.07883179423017571,-0.0010861476497873788,-1.5458784031270947,0.0006924634758161017,1.7399109535192094,0.0003474209126926972,0.25398255311458534,,,,,1.0,1.25,0.8,0.75,2.9444444444444446,2.75,2.6666666666666665,2.111111111111111,1.875,3.0,2.0,2.75,2.25,1.25,,,,,,,,,,,,
17,240610_145508,LEARNING,1.0,18,3.0,1750.0,,,,,,,,,,18.0,18.0,18.0,cue2.png,Hard,A,,,,,,,,,,,,,,,,,,,,,,,,,,,7,20,Female,1.0,1.0,0.4852365499245934,-1.3481548034850223e-05,0.026193126327689,-3.637036971497823e-05,-0.4555185898964579,-0.00018310228797523056,-0.4709251072911533,0.0005097448398000757,0.6150336741444461,,,,,1.0,1.25,0.8,0.75,2.9444444444444446,2.75,2.6666666666666665,2.111111111111111,1.875,3.0,2.0,2.75,2.25,1.25,,,,,,,,,,,,
18,240610_145528,LEARNING,1.0,19,3.0,1750.0,,,,,,,,,,19.0,19.0,19.0,cue2.png,Hard,A,,,,,,,,,,,,,,,,,,,,,,,,,,,7,20,Female,0.75,0.8333333333333334,0.5168162750196643,0.002686414269745241,3.0457373641795944,-0.0006173334315855952,-1.058940656328927,-0.0003244292144118392,-0.827780843605681,0.0004969470775737467,0.5865680838840951,,,,,1.0,1.25,0.8,0.75,2.9444444444444446,2.75,2.6666666666666665,2.111111111111111,1.875,3.0,2.0,2.75,2.25,1.25,,,,,,,,,,,,
19,240610_145548,LEARNING,1.0,20,3.0,1750.0,,,,,,,,,,20.0,20.0,20.0,cue2.png,Hard,A,,,,,,,,,,,,,,,,,,,,,,,,,,,7,20,Female,1.0,1.0,0.5183252624701709,-5.224204697297334e-05,-0.017156339401365094,-2.365737701646043e-05,-0.44231413538263725,-0.00011207002791235616,-0.2915660134089844,0.00011547070163138353,-0.26193574198310265,,,0.589,-1.5659635650824686,1.0,1.25,0.8,0.75,2.9444444444444446,2.75,2.6666666666666665,2.111111111111111,1.875,3.0,2.0,2.75,2.25,1.25,,,,,,,,,,,,
20,240610_145606,LEARNING,1.0,21,1.0,1750.0,,,,,,,,,,21.0,21.0,21.0,cue1.png,Easy,A,,,,,,,,,,,,,,,,,,,,,,,,,,,7,20,Female,1.0,1.0,0.3876711499760858,-5.314014818329476e-05,-0.01816076939335775,-2.845798204930989e-05,-0.44730032331637765,,,,,1.994,0.7290612493489429,0.6799999999999999,-1.4085992053966991,1.0,1.25,0.8,0.75,2.9444444444444446,2.75,2.6666666666666665,2.111111111111111,1.875,3.0,2.0,2.75,2.25,1.25,,,,,,,,,,,,
21,240610_145625,LEARNING,1.0,22,3.0,1750.0,,,,,,,,,,22.0,22.0,22.0,cue2.png,Hard,A,,,,,,,,,,,,,,,,,,,,,,,,,,,7,20,Female,0.75,0.8333333333333334,0.4353489125496708,-1.3468235143548717e-05,0.02620801537042683,,,0.0004338199221201925,1.0868263777461724,0.0003330409807833414,0.22199780121308965,1.492,-0.15835769178271536,2.589,1.8925937906487293,1.0,1.25,0.8,0.75,2.9444444444444446,2.75,2.6666666666666665,2.111111111111111,1.875,3.0,2.0,2.75,2.25,1.25,,,,,,,,,,,,
22,240610_145645,LEARNING,1.0,23,3.0,1750.0,,,,,,,,,,23.0,23.0,23.0,cue2.png,Hard,A,,,,,,,,,,,,,,,,,,,,,,,,,,,7,20,Female,1.0,1.0,0.5377794125815853,0.0003839926288373959,0.47072541256099293,0.0016977419122519164,1.3456314061826842,7.443630471250977e-05,0.1793694009122348,,,1.293,-0.5101432879683728,2.181,1.187048090079565,1.0,1.25,0.8,0.75,2.9444444444444446,2.75,2.6666666666666665,2.111111111111111,1.875,3.0,2.0,2.75,2.25,1.25,,,,,,,,,,,,
23,240610_145705,LEARNING,1.0,24,3.0,1750.0,,,,,,,,,,24.0,24.0,24.0,cue2.png,Hard,A,,,,,,,,,,,,,,,,,,,,,,,,,,,7,20,Female,0.75,0.8333333333333334,0.5112107124878094,-0.0006322946336601446,-0.6658830177598118,0.0007780248752843701,0.3903597350489688,-6.813238869478929e-05,-0.18062184310652052,1.4309878992165188e-05,-0.48694402676931064,-0.049000000000000155,-2.882486353702806,0.9469999999999998,-0.9468817984065844,1.0,1.25,0.8,0.75,2.9444444444444446,2.75,2.6666666666666665,2.111111111111111,1.875,3.0,2.0,2.75,2.25,1.25,,,,,,,,,,,,
24,240610_145723,LEARNING,1.0,25,1.0,1750.0,,,,,,,,,,25.0,25.0,25.0,cue1.png,Easy,A,,,,,,,,,,,,,,,,,,,,,,,,,,,7,20,Female,1.0,1.0,0.3682620499748736,-8.078522169803091e-05,-0.04907882255921995,0.003327548358887396,3.0384432877972194,-0.0008301938101955091,-2.1048552255434823,0.0011440681600529564,2.025935627749754,0.43000000000000016,-2.035726049316223,1.408,-0.14968432791054312,1.0,1.25,0.8,0.75,2.9444444444444446,2.75,2.6666666666666665,2.111111111111111,1.875,3.0,2.0,2.75,2.25,1.25,,,,,,,,,,,,
25,240610_145744,LEARNING,1.0,26,1.0,1750.0,,,,,,,,,,26.0,26.0,26.0,cue1.png,Easy,A,,,,,,,,,,,,,,,,,,,,,,,,,,,7,20,Female,0.1666666666666666,0.6666666666666667,0.6273406124091707,2.882218180469843e-06,0.044494245822607956,0.0017814454367157421,1.432570760875928,-0.0002455801754633626,-0.6286840928228604,,,1.9380000000000002,0.6300663077087582,1.2229999999999999,-0.469600883315679,1.0,1.25,0.8,0.75,2.9444444444444446,2.75,2.6666666666666665,2.111111111111111,1.875,3.0,2.0,2.75,2.25,1.25,,,,,,,,,,,,
26,240610_145804,LEARNING,1.0,27,3.0,1750.0,,,,,,,,,,27.0,27.0,27.0,cue2.png,Hard,A,,,,,,,,,,,,,,,,,,,,,,,,,,,7,20,Female,1.0,1.0,0.5769828750053421,-0.0004773655986476085,-0.4926114893299828,2.49473577767223e-05,-0.3918304274978902,-0.0001256697208819324,-0.3259057430746294,5.8618921989503706e-06,-0.5057345720480604,,,2.176,1.1784016966902373,1.0,1.25,0.8,0.75,2.9444444444444446,2.75,2.6666666666666665,2.111111111111111,1.875,3.0,2.0,2.75,2.25,1.25,,,,,,,,,,,,
27,240610_145824,LEARNING,1.0,28,1.0,1750.0,,,,,,,,,,28.0,28.0,28.0,cue1.png,Easy,A,,,,,,,,,,,,,,,,,,,,,,,,,,,7,20,Female,1.0,1.0,0.5597290500882082,-0.0033082682665982587,-3.6586728546008613,,,,,,,1.0539999999999998,-0.9326395567541624,1.7230000000000003,0.3950384556171212,1.0,1.25,0.8,0.75,2.9444444444444446,2.75,2.6666666666666665,2.111111111111111,1.875,3.0,2.0,2.75,2.25,1.25,,,,,,,,,,,,
28,240610_145844,LEARNING,1.0,29,1.0,1750.0,,,,,,,,,,29.0,29.0,29.0,cue1.png,Easy,A,,,,,,,,,,,,,,,,,,,,,,,,,,,7,20,Female,0.75,0.8333333333333334,0.5920007125241682,0.000337254166461859,0.4184534493901512,0.00029865248345667134,-0.10754434569578193,0.00012577803574847363,0.3090091779487741,-0.00022447188042719248,-1.018057482783786,1.6179999999999999,0.06438092690770064,,,1.0,1.25,0.8,0.75,2.9444444444444446,2.75,2.6666666666666665,2.111111111111111,1.875,3.0,2.0,2.75,2.25,1.25,,,,,,,,,,,,
29,240610_145903,LEARNING,1.0,30,3.0,1750.0,,,,,,,,,,30.0,30.0,30.0,cue2.png,Hard,A,,,,,,,,,,,,,,,,,,,,,,,,,,,7,20,Female,0.75,0.8333333333333334,0.4157548250514082,-0.0021052961575737956,-2.3132774226067387,0.0003076218605053151,-0.09822822839242412,-0.0005771166257023492,-1.4658259386706574,0.00037197586709652834,0.30859923207452505,1.3150000000000002,-0.4712524180382997,1.3739999999999999,-0.20847980295797355,1.0,1.25,0.8,0.75,2.9444444444444446,2.75,2.6666666666666665,2.111111111111111,1.875,3.0,2.0,2.75,2.25,1.25,,,,,,,,,,,,
30,240610_145923,LEARNING,1.0,31,3.0,1750.0,,,,,,,,,,31.0,31.0,31.0,cue2.png,Hard,A,,,,,,,,,,,,,,,,,,,,,,,,,,,7,20,Female,0.75,0.8333333333333334,0.5341299249557778,4.0292806722865525e-05,0.08633398138718977,0.00017949761539445223,-0.2313055302366419,0.00016584172547100652,0.41017148194768027,0.000331337931093645,0.21820977063379193,,,1.43,-0.11164019699749991,1.0,1.25,0.8,0.75,2.9444444444444446,2.75,2.6666666666666665,2.111111111111111,1.875,3.0,2.0,2.75,2.25,1.25,,,,,,,,,,,,
31,240610_145943,LEARNING,1.0,32,1.0,1750.0,,,,,,,,,,32.0,32.0,32.0,cue1.png,Easy,A,,,,,,,,,,,,,,,,,,,,,,,,,,,7,20,Female,0.1666666666666666,0.6666666666666667,0.5662097999593243,-0.0014437996857375743,-1.5734644836264693,4.6413751099717935e-05,-0.3695341813714903,-0.0001553337506363774,-0.40080851954466545,0.00021308556897311126,-0.04481459471318852,1.062,-0.9184974222341357,1.2469999999999999,-0.4280981950469046,1.0,1.25,0.8,0.75,2.9444444444444446,2.75,2.6666666666666665,2.111111111111111,1.875,3.0,2.0,2.75,2.25,1.25,,,,,,,,,,,,
32,240610_150003,LEARNING,1.0,33,1.0,1750.0,,,,,,,,,,33.0,33.0,33.0,cue1.png,Easy,A,,,,,,,,,,,,,,,,,,,,,,,,,,,7,20,Female,1.0,1.0,0.4808466875110753,,,0.000878167884391802,0.49437409578956576,,,0.00035958052263451853,0.28102872479743435,0.8220000000000001,-1.3427614578349285,1.7409999999999999,0.4261654718187013,1.0,1.25,0.8,0.75,2.9444444444444446,2.75,2.6666666666666665,2.111111111111111,1.875,3.0,2.0,2.75,2.25,1.25,,,,,,,,,,,,
33,240610_150022,LEARNING,1.0,34,1.0,1750.0,,,,,,,,,,34.0,34.0,34.0,cue1.png,Easy,A,,,,,,,,,,,,,,,,,,,,,,,,,,,7,20,Female,0.75,0.8333333333333334,0.4305187876452692,-4.81609011056287e-05,-0.012592014953577322,0.00018014022752727184,-0.23063807585520146,-0.00018281805760762392,-0.4702074150602909,0.0002542342987212698,0.046711006405983184,2.3979999999999997,1.4432390426102768,2.203,1.2250922209926078,1.0,1.25,0.8,0.75,2.9444444444444446,2.75,2.6666666666666665,2.111111111111111,1.875,3.0,2.0,2.75,2.25,1.25,,,,,,,,,,,,
34,240610_150041,LEARNING,1.0,35,3.0,1750.0,,,,,,,,,,35.0,35.0,35.0,cue2.png,Hard,A,,,,,,,,,,,,,,,,,,,,,,,,,,,7,20,Female,0.75,0.8333333333333334,0.4959126875037327,-0.0008663987383786161,-0.9277033797919131,1.1175255194969744e-05,-0.40613493521003774,0.00016883088032077767,0.41771920892207026,0.0004691609009451316,0.5247643165672855,1.695,0.2004989716629553,1.359,-0.23441898312595735,1.0,1.25,0.8,0.75,2.9444444444444446,2.75,2.6666666666666665,2.111111111111111,1.875,3.0,2.0,2.75,2.25,1.25,,,,,,,,,,,,
35,240610_150102,LEARNING,1.0,36,3.0,1750.0,,,,,,,,,,36.0,36.0,36.0,cue2.png,Hard,A,,,,,,,,,,,,,,,,,,,,,,,,,,,7,20,Female,1.0,1.0,0.6622834875597619,,,,,-0.0001922901679092901,-0.49412484524419625,-0.00030268833110674636,-1.1920314477073222,1.592,0.01841898971761511,1.728,0.40368484900644863,1.0,1.25,0.8,0.75,2.9444444444444446,2.75,2.6666666666666665,2.111111111111111,1.875,3.0,2.0,2.75,2.25,1.25,,,,,,,,,,,,
36,240610_150121,LEARNING,1.0,37,1.0,1750.0,,,,,,,,,,37.0,37.0,37.0,cue1.png,Easy,A,,,,,,,,,,,,,,,,,,,,,,,,,,,7,20,Female,1.0,1.0,0.502654500072822,-3.289284090683339e-05,0.004483674742610605,0.0031138111310641333,2.816443356732095,0.0003809430725225751,0.9533103693469233,0.0009229058603758421,1.5340124858512576,,,0.6040000000000001,-1.5400243849144843,1.0,1.25,0.8,0.75,2.9444444444444446,2.75,2.6666666666666665,2.111111111111111,1.875,3.0,2.0,2.75,2.25,1.25,,,,,,,,,,,,
37,240610_150143,LEARNING,1.0,38,3.0,1750.0,,,,,,,,,,38.0,38.0,38.0,cue2.png,Hard,A,,,,,,,,,,,,,,,,,,,,,,,,,,,7,20,Female,1.0,1.0,0.7694850499974564,0.00037269436580097915,0.458089515714648,,,0.0005771768124204963,1.4488078481832471,-3.520514658573396e-05,-0.597078470971715,2.0959999999999996,0.9093734644792791,2.098,1.0435179598167201,1.0,1.25,0.8,0.75,2.9444444444444446,2.75,2.6666666666666665,2.111111111111111,1.875,3.0,2.0,2.75,2.25,1.25,,,,,,,,,,,,
38,240610_150203,LEARNING,1.0,39,3.0,1750.0,,,,,,,,,,39.0,39.0,39.0,cue2.png,Hard,A,,,,,,,,,,,,,,,,,,,,,,,,,,,7,20,Female,0.1666666666666666,0.6666666666666667,0.5254442749428563,8.887881385878432e-05,0.14067222544881475,,,0.00034870438947783196,0.8719064977294166,-0.0005238235764680383,-1.6838944136894862,2.319,1.3035854642250164,1.6360000000000001,0.24459121064281378,1.0,1.25,0.8,0.75,2.9444444444444446,2.75,2.6666666666666665,2.111111111111111,1.875,3.0,2.0,2.75,2.25,1.25,,,,,,,,,,,,
39,240610_150224,LEARNING,1.0,40,3.0,1750.0,,,,,,,,,,40.0,40.0,40.0,cue2.png,Hard,A,,,,,,,,,,,,,,,,,,,,,,,,,,,7,20,Female,0.75,0.8333333333333334,0.6395180499530397,,,-2.6024203983172726e-06,-0.42044523137649,-0.00018472148199031712,-0.47501363229526117,0.0002090798909107931,-0.053724276610719164,1.5969999999999998,0.027257823792631045,1.3419999999999999,-0.26381672064967276,1.0,1.25,0.8,0.75,2.9444444444444446,2.75,2.6666666666666665,2.111111111111111,1.875,3.0,2.0,2.75,2.25,1.25,,,,,,,,,,,,
40,240610_150242,LEARNING,1.0,41,1.0,1750.0,,,,,,,,,,41.0,41.0,41.0,cue1.png,Easy,A,,,,,,,,,,,,,,,,,,,,,,,,,,,7,20,Female,1.0,1.0,0.4257322250632569,,,,,0.00012646635198432102,0.31074720199948985,0.000501197776578379,0.5960227568219164,,,2.021,0.910363501621069,1.0,1.25,0.8,0.75,2.9444444444444446,2.75,2.6666666666666665,2.111111111111111,1.875,3.0,2.0,2.75,2.25,1.25,,,,,,,,,,,,
41,240610_150301,LEARNING,1.0,42,3.0,1750.0,,,,,,,,,,42.0,42.0,42.0,cue2.png,Hard,A,,,,,,,,,,,,,,,,,,,,,,,,,,,7,20,Female,0.75,0.8333333333333334,0.3881745874532498,6.921378122145367e-05,0.11867899311881899,5.167511721903715e-05,-0.3640694201425149,0.0003729238660273365,0.9330615752163849,0.00026749295806651873,0.07620175312004268,,,1.5019999999999998,0.012867867808822937,1.0,1.25,0.8,0.75,2.9444444444444446,2.75,2.6666666666666665,2.111111111111111,1.875,3.0,2.0,2.75,2.25,1.25,,,,,,,,,,,,
42,240610_150320,LEARNING,1.0,43,3.0,1750.0,,,,,,,,,,43.0,43.0,43.0,cue2.png,Hard,A,,,,,,,,,,,,,,,,,,,,,,,,,,,7,20,Female,1.0,1.0,0.4725976376212202,,,,,,,,,1.6600000000000001,0.13862713313783984,2.2809999999999997,1.3599759578661244,1.0,1.25,0.8,0.75,2.9444444444444446,2.75,2.6666666666666665,2.111111111111111,1.875,3.0,2.0,2.75,2.25,1.25,,,,,,,,,,,,
43,240610_150340,LEARNING,1.0,44,1.0,1750.0,,,,,,,,,,44.0,44.0,44.0,cue1.png,Easy,A,,,,,,,,,,,,,,,,,,,,,,,,,,,7,20,Female,1.0,1.0,0.5243159249075688,,,0.002510753792804483,2.190072888258242,0.00032598772837414075,0.8145460850383398,0.0003700835529032512,0.3043902274441018,1.283,-0.5278209561184058,2.0540000000000003,0.9674296979906344,1.0,1.25,0.8,0.75,2.9444444444444446,2.75,2.6666666666666665,2.111111111111111,1.875,3.0,2.0,2.75,2.25,1.25,,,,,,,,,,,,
44,240610_150359,LEARNING,1.0,45,1.0,1750.0,,,,,,,,,,45.0,45.0,45.0,cue1.png,Easy,A,,,,,,,,,,,,,,,,,,,,,,,,,,,7,20,Female,1.0,1.0,0.4640863001695834,-8.555622659801951e-05,-0.05441468043182813,-0.0005486388245377794,-0.9875904372563227,,,-2.8054424862584363e-05,-0.5811733845169751,1.6390000000000002,0.10150403002277063,1.7020000000000002,0.3587236033819434,1.0,1.25,0.8,0.75,2.9444444444444446,2.75,2.6666666666666665,2.111111111111111,1.875,3.0,2.0,2.75,2.25,1.25,,,,,,,,,,,,
45,240610_150418,LEARNING,1.0,46,1.0,1750.0,,,,,,,,,,46.0,46.0,46.0,cue1.png,Easy,A,,,,,,,,,,,,,,,,,,,,,,,,,,,7,20,Female,1.0,1.0,0.4060702374554239,7.522059231093508e-05,0.12539696782497703,,,-0.0004183357444018775,-1.0648983183097573,,,2.0509999999999997,0.8298239578041307,0.17799999999999994,-2.27669710168523,1.0,1.25,0.8,0.75,2.9444444444444446,2.75,2.6666666666666665,2.111111111111111,1.875,3.0,2.0,2.75,2.25,1.25,,,,,,,,,,,,
46,240610_150439,LEARNING,1.0,47,3.0,1750.0,,,,,,,,,,47.0,47.0,47.0,cue2.png,Hard,A,,,,,,,,,,,,,,,,,,,,,,,,,,,7,20,Female,0.1666666666666666,0.6666666666666667,0.6198109624674544,,,0.0002968726534606477,-0.10939298077189331,0.0001241666963090601,0.30494048603985835,0.000296913054116573,0.14163978711149253,,,1.6360000000000001,0.24459121064281378,1.0,1.25,0.8,0.75,2.9444444444444446,2.75,2.6666666666666665,2.111111111111111,1.875,3.0,2.0,2.75,2.25,1.25,,,,,,,,,,,,
47,240610_150458,LEARNING,1.0,48,3.0,1750.0,,,,,,,,,,48.0,48.0,48.0,cue2.png,Hard,A,,,,,,,,,,,,,,,,,,,,,,,,,,,7,20,Female,1.0,1.0,0.4783315249951556,0.0001040383325870654,0.15762652313805897,,,0.0006076539215955161,1.5257636803775336,-0.00011404528859496098,-0.772439689504549,1.585,0.00604462201259178,1.9969999999999999,0.8688608133522946,1.0,1.25,0.8,0.75,2.9444444444444446,2.75,2.6666666666666665,2.111111111111111,1.875,3.0,2.0,2.75,2.25,1.25,,,,,,,,,,,,
48,240610_150517,LEARNING,1.0,49,1.0,1750.0,,,,,,,,,,49.0,49.0,49.0,cue1.png,Easy,A,,,,,,,,,,,,,,,,,,,,,,,,,,,7,20,Female,0.75,0.8333333333333334,0.4156430001021363,,,,,-0.00018963383212978156,-0.4874174987788336,-0.00011730753925632284,-0.779695793267896,,,,,1.0,1.25,0.8,0.75,2.9444444444444446,2.75,2.6666666666666665,2.111111111111111,1.875,3.0,2.0,2.75,2.25,1.25,,,,,,,,,,,,
49,240610_150537,LEARNING,1.0,50,1.0,1750.0,,,,,,,,,,50.0,50.0,50.0,cue1.png,Easy,A,,,,,,,,,,,,,,,,,,,,,,,,,,,7,20,Female,1.0,1.0,0.6054634625324979,,,6.576595439250748e-05,-0.34943385612300326,-0.0003873462899708479,-0.986648795322141,-0.00032033683843427476,-1.2312863712953446,1.4839999999999998,-0.1724998263027422,,,1.0,1.25,0.8,0.75,2.9444444444444446,2.75,2.6666666666666665,2.111111111111111,1.875,3.0,2.0,2.75,2.25,1.25,,,,,,,,,,,,
0,240610_150646,TrueCHOICE,9.0,1,1.0,1750.0,,,,,,,,,,,2.0,1.0,,,A,,,,,,True,cue1.png,Easy,cue2.png,Hard,Left,Easy,Easy,0.0140102002769708,,,,,,,,,,,,,7,20,Female,0.75,0.8333333333333334,0.8006134750321507,,,,,,,,,,,,,1.0,1.25,0.8,0.75,2.9444444444444446,2.75,2.6666666666666665,2.111111111111111,1.875,3.0,2.0,2.75,2.25,1.25,,,-0.0003295305079243599,-0.6159457263102687,,,,,,,,
1,240610_150704,TrueCHOICE,9.0,2,3.0,1750.0,,,,,,,,,,,3.0,2.0,,,A,,,,,,True,cue1.png,Easy,cue2.png,Hard,Right,Hard,Hard,0.0140955997630953,,,,,,,,,,,,,7,20,Female,,,,,,,,,,,,,,,,1.0,1.25,0.8,0.75,2.9444444444444446,2.75,2.6666666666666665,2.111111111111111,1.875,3.0,2.0,2.75,2.25,1.25,,,,,,,,,,,,
2,240610_150724,TrueCHOICE,9.0,3,1.0,1750.0,,,,,,,,,,,4.0,3.0,,,A,,,,,,True,cue2.png,Hard,cue1.png,Easy,Right,Easy,Easy,0.0178204998373985,,,,,,,,,,,,,7,20,Female,0.75,0.8333333333333334,0.5422181874746457,,,,,,,,,,,,,1.0,1.25,0.8,0.75,2.9444444444444446,2.75,2.6666666666666665,2.111111111111111,1.875,3.0,2.0,2.75,2.25,1.25,,,,,,,,,,,,
3,240610_150742,TrueCHOICE,9.0,4,1.0,1750.0,,,,,,,,,,,5.0,4.0,,,A,,,,,,True,cue1.png,Easy,cue2.png,Hard,Left,Easy,Easy,0.0166081003844738,,,,,,,,,,,,,7,20,Female,1.0,1.0,0.3957397874910384,,,,,,,,,,,,,1.0,1.25,0.8,0.75,2.9444444444444446,2.75,2.6666666666666665,2.111111111111111,1.875,3.0,2.0,2.75,2.25,1.25,-1.8752807384237943e-05,-0.9787496536919144,-0.0004107150492067193,-0.7957233612572283,1.3239999999999998,-0.986901690180926,,,,,,
4,240610_150759,TrueCHOICE,9.0,5,1.0,1750.0,,,,,,,,,,,6.0,5.0,,,A,,,,,,True,cue2.png,Hard,cue1.png,Easy,Right,Easy,Easy,0.0168340997770428,,,,,,,,,,,,,7,20,Female,1.0,1.0,0.5425828375155106,,,,,,,,,,,,,1.0,1.25,0.8,0.75,2.9444444444444446,2.75,2.6666666666666665,2.111111111111111,1.875,3.0,2.0,2.75,2.25,1.25,0.0011440230657743691,1.740021283104685,0.0007179324493816128,1.703589620992777,1.5810000000000002,-0.46459169352421636,,,,,,
5,240610_150816,TrueCHOICE,9.0,6,1.0,1750.0,,,,,,,,,,,7.0,6.0,,,A,,,,,,True,cue2.png,Hard,cue1.png,Easy,Right,Easy,Easy,0.016665400005877,,,,,,,,,,,,,7,20,Female,1.0,1.0,0.4751309499260969,,,,,,,,,,,,,1.0,1.25,0.8,0.75,2.9444444444444446,2.75,2.6666666666666665,2.111111111111111,1.875,3.0,2.0,2.75,2.25,1.25,,,,,1.5559999999999998,-0.5154000589577491,,,,,,
6,240610_150832,TrueCHOICE,9.0,7,3.0,1750.0,,,,,,,,,,,8.0,7.0,,,A,,,,,,True,cue1.png,Easy,cue2.png,Hard,Right,Hard,Hard,0.0166946998797357,,,,,,,,,,,,,7,20,Female,,,,,,,,,,,,,,,,1.0,1.25,0.8,0.75,2.9444444444444446,2.75,2.6666666666666665,2.111111111111111,1.875,3.0,2.0,2.75,2.25,1.25,,,,,,,,,,,,
7,240610_150849,TrueCHOICE,9.0,8,1.0,1750.0,,,,,,,,,,,9.0,8.0,,,A,,,,,,True,cue2.png,Hard,cue1.png,Easy,Right,Easy,Easy,0.0168309998698532,,,,,,,,,,,,,7,20,Female,0.75,0.8333333333333334,0.4671679874882102,,,,,,,,,,,,,1.0,1.25,0.8,0.75,2.9444444444444446,2.75,2.6666666666666665,2.111111111111111,1.875,3.0,2.0,2.75,2.25,1.25,0.00014320411704206318,-0.6000663757640028,,,,,,,,,,
8,240610_150905,TrueCHOICE,9.0,9,1.0,1750.0,,,,,,,,,,,10.0,9.0,,,A,,,,,,True,cue1.png,Easy,cue2.png,Hard,Left,Easy,Easy,0.0141937001608312,,,,,,,,,,,,,7,20,Female,1.0,1.0,0.3848062749602832,,,,,,,,,,,,,1.0,1.25,0.8,0.75,2.9444444444444446,2.75,2.6666666666666665,2.111111111111111,1.875,3.0,2.0,2.75,2.25,1.25,0.0001231898925388962,-0.646863091414733,-0.00018320620759602977,-0.29192053342528007,2.735,1.8807224548876198,,,,,,
9,240610_150921,TrueCHOICE,9.0,10,1.0,1750.0,,,,,,,,,,,11.0,10.0,,,A,,,,,,True,cue2.png,Hard,cue1.png,Easy,Right,Easy,Easy,0.0161120002157986,,,,,,,,,,,,,7,20,Female,1.0,1.0,0.4204561750520952,,,,,,,,,,,,,1.0,1.25,0.8,0.75,2.9444444444444446,2.75,2.6666666666666665,2.111111111111111,1.875,3.0,2.0,2.75,2.25,1.25,0.0006075514084266918,0.48565783776596494,,,1.852,0.08617098777527026,,,,,,
0,240610_151054,FalseCHOICE,9.0,1,2.0,1750.0,,,,,,,,,,,1.0,1.0,,,A,,,,,,False,cue1.png,Easy,cue2.png,Hard,Left,Easy,Mid,0.017319899983704,,,,,,,,,,,,,7,20,Female,1.0,1.0,0.4282385749975219,,,,,,,,,,,,,1.0,1.25,0.8,0.75,2.9444444444444446,2.75,2.6666666666666665,2.111111111111111,1.875,3.0,2.0,2.75,2.25,1.25,,,-0.0003295305079243599,-0.6159457263102687,,,,,,,,
1,240610_151115,FalseCHOICE,9.0,2,2.0,1750.0,,,,,,,,,,,2.0,2.0,,,A,,,,,,False,cue2.png,Hard,cue1.png,Easy,Left,Hard,Mid,0.0153878000564873,,,,,,,,,,,,,7,20,Female,,,,,,,,,,,,,,,,1.0,1.25,0.8,0.75,2.9444444444444446,2.75,2.6666666666666665,2.111111111111111,1.875,3.0,2.0,2.75,2.25,1.25,,,,,,,,,,,,
2,240610_151133,FalseCHOICE,9.0,3,2.0,1750.0,,,,,,,,,,,3.0,3.0,,,A,,,,,,False,cue2.png,Hard,cue1.png,Easy,Right,Easy,Mid,0.0164328999817371,,,,,,,,,,,,,7,20,Female,,,,,,,,,,,,,,,,1.0,1.25,0.8,0.75,2.9444444444444446,2.75,2.6666666666666665,2.111111111111111,1.875,3.0,2.0,2.75,2.25,1.25,,,,,,,,,,,,
3,240610_151152,FalseCHOICE,9.0,4,2.0,1750.0,,,,,,,,,,,4.0,4.0,,,A,,,,,,False,cue2.png,Hard,cue1.png,Easy,Right,Easy,Mid,0.0164577001705765,,,,,,,,,,,,,7,20,Female,1.0,1.0,0.6745869749574922,,,,,,,,,,,,,1.0,1.25,0.8,0.75,2.9444444444444446,2.75,2.6666666666666665,2.111111111111111,1.875,3.0,2.0,2.75,2.25,1.25,-1.8752807384237943e-05,-0.9787496536919144,-0.0004107150492067193,-0.7957233612572283,1.3239999999999998,-0.986901690180926,,,,,,
4,240610_151209,FalseCHOICE,9.0,5,2.0,1750.0,,,,,,,,,,,5.0,5.0,,,A,,,,,,False,cue1.png,Easy,cue2.png,Hard,Left,Easy,Mid,0.0161144998855888,,,,,,,,,,,,,7,20,Female,,,,,,,,,,,,,,,,1.0,1.25,0.8,0.75,2.9444444444444446,2.75,2.6666666666666665,2.111111111111111,1.875,3.0,2.0,2.75,2.25,1.25,0.0011440230657743691,1.740021283104685,0.0007179324493816128,1.703589620992777,1.5810000000000002,-0.46459169352421636,,,,,,
5,240610_151226,FalseCHOICE,9.0,6,2.0,1750.0,,,,,,,,,,,6.0,6.0,,,A,,,,,,False,cue2.png,Hard,cue1.png,Easy,Right,Easy,Mid,0.0168093997053802,,,,,,,,,,,,,7,20,Female,0.75,0.8333333333333334,0.3403981124865822,,,,,,,,,,,,,1.0,1.25,0.8,0.75,2.9444444444444446,2.75,2.6666666666666665,2.111111111111111,1.875,3.0,2.0,2.75,2.25,1.25,,,,,1.5559999999999998,-0.5154000589577491,,,,,,
6,240610_151244,FalseCHOICE,9.0,7,2.0,1750.0,,,,,,,,,,,7.0,7.0,,,A,,,,,,False,cue2.png,Hard,cue1.png,Easy,Right,Easy,Mid,0.0162447998300194,,,,,,,,,,,,,7,20,Female,0.1666666666666666,0.6666666666666667,0.37837321247207,,,,,,,,,,,,,1.0,1.25,0.8,0.75,2.9444444444444446,2.75,2.6666666666666665,2.111111111111111,1.875,3.0,2.0,2.75,2.25,1.25,,,,,,,,,,,,
7,240610_151302,FalseCHOICE,9.0,8,2.0,1750.0,,,,,,,,,,,8.0,8.0,,,A,,,,,,False,cue1.png,Easy,cue2.png,Hard,Left,Easy,Mid,0.0137207997031509,,,,,,,,,,,,,7,20,Female,,,,,,,,,,,,,,,,1.0,1.25,0.8,0.75,2.9444444444444446,2.75,2.6666666666666665,2.111111111111111,1.875,3.0,2.0,2.75,2.25,1.25,0.00014320411704206318,-0.6000663757640028,,,,,,,,,,
8,240610_151321,FalseCHOICE,9.0,9,2.0,1750.0,,,,,,,,,,,9.0,9.0,,,A,,,,,,False,cue1.png,Easy,cue2.png,Hard,Left,Easy,Mid,0.0170081001706421,,,,,,,,,,,,,7,20,Female,1.0,1.0,0.5702191875898279,,,,,,,,,,,,,1.0,1.25,0.8,0.75,2.9444444444444446,2.75,2.6666666666666665,2.111111111111111,1.875,3.0,2.0,2.75,2.25,1.25,0.0001231898925388962,-0.646863091414733,-0.00018320620759602977,-0.29192053342528007,2.735,1.8807224548876198,,,,,,
9,240610_151339,FalseCHOICE,9.0,10,2.0,1750.0,,,,,,,,,,,10.0,10.0,,,A,,,,,,False,cue2.png,Hard,cue1.png,Easy,Right,Easy,Mid,0.0162963001057505,,,,,,,,,,,,,7,20,Female,,,,,,,,,,,,,,,,1.0,1.25,0.8,0.75,2.9444444444444446,2.75,2.6666666666666665,2.111111111111111,1.875,3.0,2.0,2.75,2.25,1.25,0.0006075514084266918,0.48565783776596494,,,1.852,0.08617098777527026,,,,,,
0,240610_144858,OFFLINERATING,9.0,1,1.0,,,,,,,,,,,,,,,,,T0,cue1.png,Easy,36.0,1.3854791997000575,,,,,,,,,,,,,,,,,,,,,,7,20,Female,,,,,,,,,,,,,,,,1.0,1.25,0.8,0.75,2.9444444444444446,2.75,2.6666666666666665,2.111111111111111,1.875,3.0,2.0,2.75,2.25,1.25,,,,,,,,,0.00012455867517123954,0.945420507258537,1.5979999999999999,-0.11483862157793868
1,240610_144905,OFFLINERATING,9.0,2,3.0,,,,,,,,,,,,,,,,,T0,cue2.png,Hard,50.0,1.2354760998860002,,,,,,,,,,,,,,,,,,,,,,7,20,Female,,,,,,,,,,,,,,,,1.0,1.25,0.8,0.75,2.9444444444444446,2.75,2.6666666666666665,2.111111111111111,1.875,3.0,2.0,2.75,2.25,1.25,,,,,,,,,-0.00047522435163624465,-0.6682092318668944,,
2,240610_150601,OFFLINERATING,9.0,3,1.0,,,,,,,,,,,,,,,,,T1,cue1.png,Easy,59.0,1.2832892001606524,,,,,,,,,,,,,,,,,,,,,,7,20,Female,,,,,,,,,,,,,,,,1.0,1.25,0.8,0.75,2.9444444444444446,2.75,2.6666666666666665,2.111111111111111,1.875,3.0,2.0,2.75,2.25,1.25,,,,,,,,,0.00014715788711909972,1.0062204279798197,,
3,240610_150608,OFFLINERATING,9.0,4,3.0,,,,,,,,,,,,,,,,,T1,cue2.png,Hard,56.0,1.134937800001353,,,,,,,,,,,,,,,,,,,,,,7,20,Female,,,,,,,,,,,,,,,,1.0,1.25,0.8,0.75,2.9444444444444446,2.75,2.6666666666666665,2.111111111111111,1.875,3.0,2.0,2.75,2.25,1.25,,,,,,,,,-0.0007039013443638233,-1.2834317033714624,1.467,-0.7689194662174976
4,240610_150939,OFFLINERATING,9.0,5,1.0,,,,,,,,,,,,,,,,,T2,cue1.png,Easy,80.0,2.277085099834949,,,,,,,,,,,,,,,,,,,,,,7,20,Female,,,,,,,,,,,,,,,,1.0,1.25,0.8,0.75,2.9444444444444446,2.75,2.6666666666666665,2.111111111111111,1.875,3.0,2.0,2.75,2.25,1.25,,,,,,,3.8913950514205334e-05,1.065605200667823,,,1.4639999999999997,-0.7838984168580999
5,240610_150946,OFFLINERATING,9.0,6,3.0,,,,,,,,,,,,,,,,,T2,cue2.png,Hard,66.0,1.1352021000348032,,,,,,,,,,,,,,,,,,,,,,7,20,Female,,,,,,,,,,,,,,,,1.0,1.25,0.8,0.75,2.9444444444444446,2.75,2.6666666666666665,2.111111111111111,1.875,3.0,2.0,2.75,2.25,1.25,,,,,,,1.675200615737938e-05,0.27240803498598215,,,1.9549999999999998,1.667656504653534
6,240610_152644,OFFLINERATING,9.0,7,1.0,,,,,,,,,,,,,,,,,T3,cue1.png,Easy,81.0,1.3353312001563609,,,,,,,,,,,,,,,,,,,,,,7,20,Female,,,,,,,,,,,,,,,,1.0,1.25,0.8,0.75,2.9444444444444446,2.75,2.6666666666666665,2.111111111111111,1.875,3.0,2.0,2.75,2.25,1.25,,,,,,,-2.8243195710605552e-05,-1.338013235653805,,,,
7,240610_152652,OFFLINERATING,9.0,8,3.0,,,,,,,,,,,,,,,,,T3,cue2.png,Hard,78.0,1.5355529999360442,,,,,,,,,,,,,,,,,,,,,,7,20,Female,,,,,,,,,,,,,,,,1.0,1.25,0.8,0.75,2.9444444444444446,2.75,2.6666666666666665,2.111111111111111,1.875,3.0,2.0,2.75,2.25,1.25,,,,,,,,,,,,
