,END,Phase,Block,TrialN,NbackLevel,ISI,Letter_Resp,Letter_RT,Letter_Accuracy,Trial_A_measure,Trial_ACC,Trial_RT,TrialCountCali,CaliEnd_A_measure,ISI_calibrated,TrialIndex,TrialNumber_total,TrialNumber_valid,CueLearning,TrialDemandLearning,CueMapping,OfflineRatingTimePoint,CueFigure,TrialDemand,OfflineRating,OfflineRatingRT,PhaseType,CueLeft,CueDemandLeft,CueRight,CueDemandRight,Choice,ChoiceDemand,TaskDemand,ChoiceRT,CueCheck,CueDemandCheck,CorrectAnswer,Answer,AnswerDemand,AnswerRT,AnswerACC,DemandRatingQuesIndex,QuesTLX,DemandLevel,DemandRating,DemandRatingRT,PID,Age,Gender,BAI_bis,BAI_bas_d,BAI_bas_rr,BAI_bas_fs,NFC,BFI_ext,BFI_agr,BFI_con,BFI_neu,BFI_open,UPPS_lps,UPPS_lpm,UPPS_pu,UPPS_ss,Task_A_measure,Task_ACC,Task_RT,Task_RT_z,cue_i_on_zyg_values,cue_i_on_zyg_zvalues,cue_e_on_zyg_values,cue_e_on_zyg_zvalues,cue_i_on_cor_values,cue_i_on_cor_zvalues,cue_e_on_cor_values,cue_e_on_cor_zvalues,cue_i_on_scr_values,cue_i_on_scr_zvalues,cue_e_on_scr_values,cue_e_on_scr_zvalues,cue_e_true_zyg_values,cue_e_true_zyg_zvalues,cue_e_true_cor_values,cue_e_true_cor_zvalues,cue_e_true_scr_values,cue_e_true_scr_zvalues,cue_e_false_zyg_values,cue_e_false_zyg_zvalues,cue_e_false_cor_values,cue_e_false_cor_zvalues,cue_e_false_scr_values,cue_e_false_scr_zvalues,OfflineRating_z,cue_i_off_zyg_values,cue_i_off_zyg_zvalues,cue_i_off_cor_values,cue_i_off_cor_zvalues,cue_i_off_scr_values,cue_i_off_scr_zvalues,DemandRating_z
0,240610_144619,PRACTICE,0.0,1,1.0,1750.0,,,,,,,,,,50.0,1.0,1.0,cue1.png,Easy,A,,,,,,,,,,,,,,,,,,,,,,,,,,,7,20,Female,1.0,1.25,0.8,0.75,2.9444444444444446,2.75,2.6666666666666665,2.111111111111111,1.875,3.0,2.0,2.75,2.25,1.25,,,,,,,,,,,,,,,,,,,,,,,,,,,,,,,,,,,,
0,240610_144936,LEARNING,1.0,1,1.0,1750.0,,,,,,,,,,1.0,1.0,1.0,cue1.png,Easy,A,,,,,,,,,,,,,,,,,,,,,,,,,,,7,20,Female,1.0,1.25,0.8,0.75,2.9444444444444446,2.75,2.6666666666666665,2.111111111111111,1.875,3.0,2.0,2.75,2.25,1.25,1.0,1.0,0.4330997750512324,-0.7377401989686043,0.012767905051712544,-0.16316827494355232,0.01418899608931285,-0.29032350985728655,0.015711023366443803,0.2775854911686715,,,,,,,,,,,,,,,,,,,,,,,,,,
1,240610_144958,LEARNING,1.0,2,3.0,1750.0,,,,,,,,,,2.0,2.0,2.0,cue2.png,Hard,A,,,,,,,,,,,,,,,,,,,,,,,,,,,7,20,Female,1.0,1.25,0.8,0.75,2.9444444444444446,2.75,2.6666666666666665,2.111111111111111,1.875,3.0,2.0,2.75,2.25,1.25,1.0,1.0,0.8521885749651119,3.5216106896541763,0.01175879032605053,-0.2367656481752952,0.025791502028052388,0.4227471882668578,0.016374862856786725,0.43742461074052114,,,1.447561864486597e+45,-0.18110003606265498,4.109367439255739e+44,3.1395583168573205,,,,,,,,,,,,,,,,,,,,
2,240610_145020,LEARNING,1.0,3,1.0,1750.0,,,,,,,,,,3.0,3.0,3.0,cue1.png,Easy,A,,,,,,,,,,,,,,,,,,,,,,,,,,,7,20,Female,1.0,1.25,0.8,0.75,2.9444444444444446,2.75,2.6666666666666665,2.111111111111111,1.875,3.0,2.0,2.75,2.25,1.25,1.0,0.875,0.5320081142043429,0.267500987029629,0.029827479469086184,1.081031055064702,,,0.014277687425321959,-0.06753280657112633,0.02928458398836671,2.4581207784467995,-2.096573751243307e+45,-0.18460811224227627,-3.720265293283846e+44,-2.733863979259277,,,,,,,,,,,,,,,,,,,,
3,240610_145039,LEARNING,1.0,4,3.0,1750.0,,,,,,,,,,4.0,4.0,4.0,cue2.png,Hard,A,,,,,,,,,,,,,,,,,,,,,,,,,,,7,20,Female,1.0,1.25,0.8,0.75,2.9444444444444446,2.75,2.6666666666666665,2.111111111111111,1.875,3.0,2.0,2.75,2.25,1.25,0.75,0.8333333333333334,0.4841686874860897,-0.21870839090046304,,,0.017139208778818214,-0.10900834973345207,0.012036447214207394,-0.6071781083420745,0.009687149477997155,-1.1373868491850652,-2.1544741473531858e+45,-0.1846654235368786,-4.71853320175046e+44,-3.4827176217447167,,,,,,,,,,,,,,,,,,,,
4,240610_145058,LEARNING,1.0,5,3.0,1750.0,,,,,,,,,,5.0,5.0,5.0,cue2.png,Hard,A,,,,,,,,,,,,,,,,,,,,,,,,,,,7,20,Female,1.0,1.25,0.8,0.75,2.9444444444444446,2.75,2.6666666666666665,2.111111111111111,1.875,3.0,2.0,2.75,2.25,1.25,1.0,1.0,0.4605313750216737,-0.45894293754225796,0.011295137001787983,-0.2705810963975008,0.012642089227141702,-0.38539383017993595,,,0.0191174442339686,0.5927731219055952,5.7179337739135274e+48,5.477224386574552,,,,,,,,,,,,,,,,,,,,,,
5,240610_145117,LEARNING,1.0,6,1.0,1750.0,,,,,,,,,,6.0,6.0,6.0,cue1.png,Easy,A,,,,,,,,,,,,,,,,,,,,,,,,,,,7,20,Female,1.0,1.25,0.8,0.75,2.9444444444444446,2.75,2.6666666666666665,2.111111111111111,1.875,3.0,2.0,2.75,2.25,1.25,1.0,1.0,0.352339000091888,-1.5585411334236312,0.01235779387545686,-0.19307875443397643,0.010582068219713655,-0.5119992915925851,0.013629658668194546,-0.2235650214412884,0.01597152905094437,0.015597470140489941,,,-7.685149355769427e+43,-0.5195996637091204,,,,,,,,,,,,,,,,,,,,
6,240610_145136,LEARNING,1.0,7,3.0,1750.0,,,,,,,,,,7.0,7.0,7.0,cue2.png,Hard,A,,,,,,,,,,,,,,,,,,,,,,,,,,,7,20,Female,1.0,1.25,0.8,0.75,2.9444444444444446,2.75,2.6666666666666665,2.111111111111111,1.875,3.0,2.0,2.75,2.25,1.25,0.75,0.8333333333333334,0.5495117625105195,0.44539688876304273,0.007039104709862559,-0.5809846502349438,0.009600802593029683,-0.5723062433113946,0.01317172348746011,-0.3338265487748867,,,1.4670874292868043e+44,-0.1823876537905628,5.166947991491586e+43,0.44450424371361746,,,,,,,,,,,,,,,,,,,,
7,240610_145157,LEARNING,1.0,8,3.0,1750.0,,,,,,,,,,8.0,8.0,8.0,cue2.png,Hard,A,,,,,,,,,,,,,,,,,,,,,,,,,,,7,20,Female,1.0,1.25,0.8,0.75,2.9444444444444446,2.75,2.6666666666666665,2.111111111111111,1.875,3.0,2.0,2.75,2.25,1.25,0.75,0.8333333333333334,0.603178224992007,0.990828536439473,0.0063284188625475375,-0.6328168257302005,0.008108176099228908,-0.6640405825647249,,,,,,,,,,,,,,,,,,,,,,,,,,,,
8,240610_145216,LEARNING,1.0,9,1.0,1750.0,,,,,,,,,,9.0,9.0,9.0,cue1.png,Easy,A,,,,,,,,,,,,,,,,,,,,,,,,,,,7,20,Female,1.0,1.25,0.8,0.75,2.9444444444444446,2.75,2.6666666666666665,2.111111111111111,1.875,3.0,2.0,2.75,2.25,1.25,1.0,1.0,0.3996586875291541,-1.0776140535859229,,,0.015921380309449486,-0.1838540599130719,,,0.01145229845901547,-0.8135379993879249,,,,,,,,,,,,,,,,,,,,,,,,
9,240610_145236,LEARNING,1.0,10,1.0,1750.0,,,,,,,,,,10.0,10.0,10.0,cue1.png,Easy,A,,,,,,,,,,,,,,,,,,,,,,,,,,,7,20,Female,1.0,1.25,0.8,0.75,2.9444444444444446,2.75,2.6666666666666665,2.111111111111111,1.875,3.0,2.0,2.75,2.25,1.25,1.0,1.0,0.5625223750830628,0.5776284450198002,0.042148184696855724,1.9796122748874212,0.007577540557773264,-0.6966525594939403,,,0.014623914267705752,-0.23164709800337052,9.983530203572914e+44,-0.1815446744785133,1.943110865144153e+44,1.514534500782456,,,,,,,,,,,,,,,,,,,,
10,240610_145256,LEARNING,1.0,11,3.0,1750.0,,,,,,,,,,11.0,11.0,11.0,cue2.png,Hard,A,,,,,,,,,,,,,,,,,,,,,,,,,,,7,20,Female,1.0,1.25,0.8,0.75,2.9444444444444446,2.75,2.6666666666666665,2.111111111111111,1.875,3.0,2.0,2.75,2.25,1.25,0.75,0.8333333333333334,0.5401107875513844,0.3498513837189069,0.007668379152643606,-0.5350900211577884,0.00578137368050371,-0.8070419853545753,0.01262098235969111,-0.4664338706579682,0.01318448327936805,-0.4957370274928343,9.817817199994754e+44,-0.18156107717591363,,,,,,,,,,,,,,,,,,,,,,
11,240610_145314,LEARNING,1.0,12,1.0,1750.0,,,,,,,,,,12.0,12.0,12.0,cue1.png,Easy,A,,,,,,,,,,,,,,,,,,,,,,,,,,,7,20,Female,1.0,1.25,0.8,0.75,2.9444444444444446,2.75,2.6666666666666665,2.111111111111111,1.875,3.0,2.0,2.75,2.25,1.25,1.0,1.0,0.399273324990645,-1.0815306322947267,0.0074765044652051,-0.5490839433809246,0.006290371799140237,-0.7757598084079412,,,0.01177773342808401,-0.7538310049359246,,,,,,,,,,,,,,,,,,,,,,,,
12,240610_145333,LEARNING,1.0,13,1.0,1750.0,,,,,,,,,,13.0,13.0,13.0,cue1.png,Easy,A,,,,,,,,,,,,,,,,,,,,,,,,,,,7,20,Female,1.0,1.25,0.8,0.75,2.9444444444444446,2.75,2.6666666666666665,2.111111111111111,1.875,3.0,2.0,2.75,2.25,1.25,1.0,1.0,0.4162561750272289,-0.9089277915375036,0.006721675250945026,-0.6041356099510234,0.052405489616836935,2.0583985561698497,0.011341248342205512,-0.7745679326062533,0.013609555571492418,-0.41774974462581244,,,,,,,,,,,,,,,,,,,,,,,,
13,240610_145352,LEARNING,1.0,14,1.0,1750.0,,,,,,,,,,14.0,14.0,14.0,cue1.png,Easy,A,,,,,,,,,,,,,,,,,,,,,,,,,,,7,20,Female,1.0,1.25,0.8,0.75,2.9444444444444446,2.75,2.6666666666666665,2.111111111111111,1.875,3.0,2.0,2.75,2.25,1.25,1.0,1.0,0.4355103750131093,-0.7132404006159778,0.006932008901274296,-0.588795427340644,0.00851291872680261,-0.6391657745251149,0.013262299406613526,-0.31201769982494815,0.01279108816911945,-0.5679125522444792,-3.596911305553022e+44,-0.1828889013516459,,,,,,,,,,,,,,,,,,,,,,
14,240610_145411,LEARNING,1.0,15,3.0,1750.0,,,,,,,,,,15.0,15.0,15.0,cue2.png,Hard,A,,,,,,,,,,,,,,,,,,,,,,,,,,,7,20,Female,1.0,1.25,0.8,0.75,2.9444444444444446,2.75,2.6666666666666665,2.111111111111111,1.875,3.0,2.0,2.75,2.25,1.25,0.1666666666666666,0.6666666666666667,0.4629452250082977,-0.43441010801390517,0.030105804339761528,1.1013300150004335,,,,,0.013809607440971011,-0.3810465719604465,,,,,,,,,,,,,,,,,,,,,,,,
15,240610_145430,LEARNING,1.0,16,1.0,1750.0,,,,,,,,,,16.0,16.0,16.0,cue1.png,Easy,A,,,,,,,,,,,,,,,,,,,,,,,,,,,7,20,Female,1.0,1.25,0.8,0.75,2.9444444444444446,2.75,2.6666666666666665,2.111111111111111,1.875,3.0,2.0,2.75,2.25,1.25,0.75,0.8333333333333334,0.4046527250902727,-1.0268578455265875,0.00742176797073423,-0.5530760189205289,0.009186869971405704,-0.5977458530850254,,,0.015992147774318663,0.019380351880703466,,,,,,,,,,,,,,,,,,,,,,,,
16,240610_145449,LEARNING,1.0,17,1.0,1750.0,,,,,,,,,,17.0,17.0,17.0,cue1.png,Easy,A,,,,,,,,,,,,,,,,,,,,,,,,,,,7,20,Female,1.0,1.25,0.8,0.75,2.9444444444444446,2.75,2.6666666666666665,2.111111111111111,1.875,3.0,2.0,2.75,2.25,1.25,1.0,1.0,0.4567565249744802,-0.4973081024100265,0.010738500373132384,-0.31117805992585423,0.012302940880542863,-0.4062373229179501,0.018350739214133847,0.9131756649269057,0.03198849228614823,2.9542021866508374,,,,,,,,,,,,,,,,,,,,,,,,
17,240610_145508,LEARNING,1.0,18,3.0,1750.0,,,,,,,,,,18.0,18.0,18.0,cue2.png,Hard,A,,,,,,,,,,,,,,,,,,,,,,,,,,,7,20,Female,1.0,1.25,0.8,0.75,2.9444444444444446,2.75,2.6666666666666665,2.111111111111111,1.875,3.0,2.0,2.75,2.25,1.25,1.0,1.0,0.4852365499245934,-0.2078553191235453,0.011240248530582767,-0.27458425599737674,0.011827703849578382,-0.4354445996246839,0.011823438232194769,-0.6584663619652599,0.023879147814982085,1.4663946940045802,,,,,,,,,,,,,,,,,,,,,,,,
18,240610_145528,LEARNING,1.0,19,3.0,1750.0,,,,,,,,,,19.0,19.0,19.0,cue2.png,Hard,A,,,,,,,,,,,,,,,,,,,,,,,,,,,7,20,Female,1.0,1.25,0.8,0.75,2.9444444444444446,2.75,2.6666666666666665,2.111111111111111,1.875,3.0,2.0,2.75,2.25,1.25,0.75,0.8333333333333334,0.5168162750196643,0.11310083664533775,0.07649026724569744,4.484270073082082,0.006766471017823956,-0.7464995430794287,0.012369990332587077,-0.5268676731290118,0.016619486885047653,0.13447718032242473,,,,,,,,,,,,,,,,,,,,,,,,
19,240610_145548,LEARNING,1.0,20,3.0,1750.0,,,,,,,,,,20.0,20.0,20.0,cue2.png,Hard,A,,,,,,,,,,,,,,,,,,,,,,,,,,,7,20,Female,1.0,1.25,0.8,0.75,2.9444444444444446,2.75,2.6666666666666665,2.111111111111111,1.875,3.0,2.0,2.75,2.25,1.25,1.0,1.0,0.5183252624701709,0.1284372212959331,0.008853329008585953,-0.44866853250943206,0.00942217468707099,-0.5832844170161914,0.013628474651929231,-0.2238501086049173,0.01053919491629361,-0.9810635370258722,,,5.672869105140541e+43,0.4824560666213835,,,,,,,,,,,,,,,,,,,,
20,240610_145606,LEARNING,1.0,21,1.0,1750.0,,,,,,,,,,21.0,21.0,21.0,cue1.png,Easy,A,,,,,,,,,,,,,,,,,,,,,,,,,,,7,20,Female,1.0,1.25,0.8,0.75,2.9444444444444446,2.75,2.6666666666666665,2.111111111111111,1.875,3.0,2.0,2.75,2.25,1.25,1.0,1.0,0.3876711499760858,-1.1994477287868657,0.006171190925556141,-0.6442838699293836,0.00784089533975996,-0.6804672130492062,,,,,2.584724224724903e+44,-0.18227702723885458,2.903014677201397e+43,0.27467461237201846,,,,,,,,,,,,,,,,,,,,
21,240610_145625,LEARNING,1.0,22,3.0,1750.0,,,,,,,,,,22.0,22.0,22.0,cue2.png,Hard,A,,,,,,,,,,,,,,,,,,,,,,,,,,,7,20,Female,1.0,1.25,0.8,0.75,2.9444444444444446,2.75,2.6666666666666665,2.111111111111111,1.875,3.0,2.0,2.75,2.25,1.25,0.75,0.8333333333333334,0.4353489125496708,-0.714881401967642,0.0076263961852615185,-0.538151948648509,,,0.028912121493103723,3.456142857282758,0.023665690840280914,1.4272321097232965,9.06035190414281e+43,-0.182443188177734,-9.722135426939352e+41,0.049611013569763586,,,,,,,,,,,,,,,,,,,,
22,240610_145645,LEARNING,1.0,23,3.0,1750.0,,,,,,,,,,23.0,23.0,23.0,cue2.png,Hard,A,,,,,,,,,,,,,,,,,,,,,,,,,,,7,20,Female,1.0,1.25,0.8,0.75,2.9444444444444446,2.75,2.6666666666666665,2.111111111111111,1.875,3.0,2.0,2.75,2.25,1.25,1.0,1.0,0.5377794125815853,0.32615677758443806,0.015419792886723595,0.03024083286030771,0.04039047542663781,1.3199757876909615,0.013363291691134996,-0.28770080082105987,,,-8.042619797976419e+43,-0.18261247777083717,-2.8752589444726706e+43,-0.15878430303223973,,,,,,,,,,,,,,,,,,,,
23,240610_145705,LEARNING,1.0,24,3.0,1750.0,,,,,,,,,,24.0,24.0,24.0,cue2.png,Hard,A,,,,,,,,,,,,,,,,,,,,,,,,,,,7,20,Female,1.0,1.25,0.8,0.75,2.9444444444444446,2.75,2.6666666666666665,2.111111111111111,1.875,3.0,2.0,2.75,2.25,1.25,0.75,0.8333333333333334,0.5112107124878094,0.05612947936689609,0.007728462341685061,-0.5307079972150337,0.06665709945425174,2.9342787694457684,0.014165385487048716,-0.09457284140023037,0.014179496518023109,-0.3131836587196946,-2.1307546703816224e+44,-0.18274377741381997,-4.88929542428285e+43,-0.3098678489634216,,,,,,,,,,,,,,,,,,,,
24,240610_145723,LEARNING,1.0,25,1.0,1750.0,,,,,,,,,,25.0,25.0,25.0,cue1.png,Easy,A,,,,,,,,,,,,,,,,,,,,,,,,,,,7,20,Female,1.0,1.25,0.8,0.75,2.9444444444444446,2.75,2.6666666666666665,2.111111111111111,1.875,3.0,2.0,2.75,2.25,1.25,1.0,1.0,0.3682620499748736,-1.396709424528961,0.00579096289113303,-0.6720148938169314,0.04528717204762436,1.6209186095662456,0.007345000342641836,-1.7367836054205636,0.021034938138314096,0.944572432951326,-2.6501045675794434e+44,-0.18279518399643385,-5.152370818336623e+43,-0.32960252794234113,,,,,,,,,,,,,,,,,,,,
25,240610_145744,LEARNING,1.0,26,1.0,1750.0,,,,,,,,,,26.0,26.0,26.0,cue1.png,Easy,A,,,,,,,,,,,,,,,,,,,,,,,,,,,7,20,Female,1.0,1.25,0.8,0.75,2.9444444444444446,2.75,2.6666666666666665,2.111111111111111,1.875,3.0,2.0,2.75,2.25,1.25,0.1666666666666666,0.6666666666666667,0.6273406124091707,1.2363996095335112,0.010127220342994124,-0.3557603094789787,0.05355218075784699,2.1288722845842165,0.011593663182057297,-0.7137915456095455,,,-2.351292404127789e+44,-0.18276560680339043,-4.027288360094725e+43,-0.24520413250107415,,,,,,,,,,,,,,,,,,,,
26,240610_145804,LEARNING,1.0,27,3.0,1750.0,,,,,,,,,,27.0,27.0,27.0,cue2.png,Hard,A,,,,,,,,,,,,,,,,,,,,,,,,,,,7,20,Female,1.0,1.25,0.8,0.75,2.9444444444444446,2.75,2.6666666666666665,2.111111111111111,1.875,3.0,2.0,2.75,2.25,1.25,1.0,1.0,0.5769828750053421,0.7245957302503927,0.020890944852799388,0.42926623900598043,0.01008667599140848,-0.5424452731717354,0.025584684868301816,2.6549634332254124,0.023797576310375008,1.451428910250744,,,3.5040808080260896e+43,0.3197637670593701,,,,,,,,,,,,,,,,,,,,
27,240610_145824,LEARNING,1.0,28,1.0,1750.0,,,,,,,,,,28.0,28.0,28.0,cue1.png,Easy,A,,,,,,,,,,,,,,,,,,,,,,,,,,,7,20,Female,1.0,1.25,0.8,0.75,2.9444444444444446,2.75,2.6666666666666665,2.111111111111111,1.875,3.0,2.0,2.75,2.25,1.25,1.0,1.0,0.5597290500882082,0.5492388738800055,0.030470509199332918,1.127928893192105,,,,,,,-2.7859887589551304e+43,-0.18256044629085882,9.73706623139265e+42,0.12994699451438788,,,,,,,,,,,,,,,,,,,,
28,240610_145844,LEARNING,1.0,29,1.0,1750.0,,,,,,,,,,29.0,29.0,29.0,cue1.png,Easy,A,,,,,,,,,,,,,,,,,,,,,,,,,,,7,20,Female,1.0,1.25,0.8,0.75,2.9444444444444446,2.75,2.6666666666666665,2.111111111111111,1.875,3.0,2.0,2.75,2.25,1.25,0.75,0.8333333333333334,0.5920007125241682,0.8772274388385233,0.029077405851881337,1.02632622661173,0.02902286536735503,0.6213413992429413,0.008713080858455508,-1.407377493955127,0.006818691047573083,-1.6636579874137696,1.095353107978811e+44,-0.18242444900550717,,,,,,,,,,,,,,,,,,,,,,
29,240610_145903,LEARNING,1.0,30,3.0,1750.0,,,,,,,,,,30.0,30.0,30.0,cue2.png,Hard,A,,,,,,,,,,,,,,,,,,,,,,,,,,,7,20,Female,1.0,1.25,0.8,0.75,2.9444444444444446,2.75,2.6666666666666665,2.111111111111111,1.875,3.0,2.0,2.75,2.25,1.25,0.75,0.8333333333333334,0.4157548250514082,-0.9140231924774992,0.0038363252478093727,-0.8145717235908018,0.012586409665200655,-0.38881580335660837,0.012063642869131702,-0.600629944813816,0.0147877832981788,-0.20158232862313735,1.9480943672922597e+44,-0.18234004249222646,4.1794906325304715e+43,0.37042983605356067,,,,,,,,,,,,,,,,,,,,
30,240610_145923,LEARNING,1.0,31,3.0,1750.0,,,,,,,,,,31.0,31.0,31.0,cue2.png,Hard,A,,,,,,,,,,,,,,,,,,,,,,,,,,,7,20,Female,1.0,1.25,0.8,0.75,2.9444444444444446,2.75,2.6666666666666665,2.111111111111111,1.875,3.0,2.0,2.75,2.25,1.25,0.75,0.8333333333333334,0.5341299249557778,0.2890657162981536,0.007255803312450074,-0.5651802550280781,0.008414525115608217,-0.6452128820547978,0.015228373934843165,0.1613732722043431,0.017012862814485805,0.2066491860037429,,,4.435385463240442e+43,0.38962586293623436,,,,,,,,,,,,,,,,,,,,
31,240610_145943,LEARNING,1.0,32,1.0,1750.0,,,,,,,,,,32.0,32.0,32.0,cue1.png,Easy,A,,,,,,,,,,,,,,,,,,,,,,,,,,,7,20,Female,1.0,1.25,0.8,0.75,2.9444444444444446,2.75,2.6666666666666665,2.111111111111111,1.875,3.0,2.0,2.75,2.25,1.25,0.1666666666666666,0.6666666666666667,0.5662097999593243,0.6151050762890244,0.03818321153128895,1.6904364235206457,0.006390889478119664,-0.7695821592085247,0.018121001566562198,0.8578594870638032,0.013794815833238255,-0.3837603628089335,2.043766970712962e+44,-0.18233057257297133,3.3703817837689624e+43,0.3097342949645003,,,,,,,,,,,,,,,,,,,,
32,240610_150003,LEARNING,1.0,33,1.0,1750.0,,,,,,,,,,33.0,33.0,33.0,cue1.png,Easy,A,,,,,,,,,,,,,,,,,,,,,,,,,,,7,20,Female,1.0,1.25,0.8,0.75,2.9444444444444446,2.75,2.6666666666666665,2.111111111111111,1.875,3.0,2.0,2.75,2.25,1.25,1.0,1.0,0.4808466875110753,-0.252471076871766,,,0.03214053464416919,0.8129481624263422,,,0.014767389604671355,-0.20532392452043735,1.187520351694192e+44,-0.1824153260557311,1.6464013891374362e+43,0.18040939258670538,,,,,,,,,,,,,,,,,,,,
33,240610_150022,LEARNING,1.0,34,1.0,1750.0,,,,,,,,,,34.0,34.0,34.0,cue1.png,Easy,A,,,,,,,,,,,,,,,,,,,,,,,,,,,7,20,Female,1.0,1.25,0.8,0.75,2.9444444444444446,2.75,2.6666666666666665,2.111111111111111,1.875,3.0,2.0,2.75,2.25,1.25,0.75,0.8333333333333334,0.4305187876452692,-0.7639717064757789,0.006599597677193798,-0.6130390463295785,0.008591510929597949,-0.6343356285885143,0.018550470411651202,0.9612668966578075,0.02061724949041411,0.8679398145999292,2.1507033456740095e+43,-0.18251158164837303,-3.949158771460303e+42,0.02727937033918385,,,,,,,,,,,,,,,,,,,,
34,240610_150041,LEARNING,1.0,35,3.0,1750.0,,,,,,,,,,35.0,35.0,35.0,cue2.png,Hard,A,,,,,,,,,,,,,,,,,,,,,,,,,,,7,20,Female,1.0,1.25,0.8,0.75,2.9444444444444446,2.75,2.6666666666666665,2.111111111111111,1.875,3.0,2.0,2.75,2.25,1.25,0.75,0.8333333333333334,0.4959126875037327,-0.09934987566118017,0.018305351450393317,0.2406921573646953,0.012570071129596534,-0.3898199425530088,0.015982139200114032,0.34286469914928097,0.013094371680792168,-0.5122696476093219,-9.767756326724221e+43,-0.1826295536139179,-2.521994030928542e+43,-0.13228403040741138,,,,,,,,,,,,,,,,,,,,
35,240610_150102,LEARNING,1.0,36,3.0,1750.0,,,,,,,,,,36.0,36.0,36.0,cue2.png,Hard,A,,,,,,,,,,,,,,,,,,,,,,,,,,,7,20,Female,1.0,1.25,0.8,0.75,2.9444444444444446,2.75,2.6666666666666665,2.111111111111111,1.875,3.0,2.0,2.75,2.25,1.25,1.0,1.0,0.6622834875597619,1.5915366744092365,,,,,0.011908028678071324,-0.6380986938921926,0.013401709723688367,-0.4558828650990893,-1.803727913460588e+44,-0.1827114074680718,-3.774956823007381e+43,-0.22627540714997502,,,,,,,,,,,,,,,,,,,,
36,240610_150121,LEARNING,1.0,37,1.0,1750.0,,,,,,,,,,37.0,37.0,37.0,cue1.png,Easy,A,,,,,,,,,,,,,,,,,,,,,,,,,,,7,20,Female,1.0,1.25,0.8,0.75,2.9444444444444446,2.75,2.6666666666666665,2.111111111111111,1.875,3.0,2.0,2.75,2.25,1.25,1.0,1.0,0.502654500072822,-0.030830398731757025,0.008445718733430144,-0.47839661474909523,0.05443462636427814,2.1831059223825355,0.018266406255409682,0.8928699945510796,0.022481935460493055,1.2100505447064356,,,-3.9735150827590275e+43,-0.24117031409824968,,,,,,,,,,,,,,,,,,,,
37,240610_150143,LEARNING,1.0,38,3.0,1750.0,,,,,,,,,,38.0,38.0,38.0,cue2.png,Hard,A,,,,,,,,,,,,,,,,,,,,,,,,,,,7,20,Female,1.0,1.25,0.8,0.75,2.9444444444444446,2.75,2.6666666666666665,2.111111111111111,1.875,3.0,2.0,2.75,2.25,1.25,1.0,1.0,0.7694850499974564,2.6810648849569185,0.011638919440584598,-0.2455081450122808,,,0.019710460820504115,1.2405691201020028,0.018412848590871323,0.4635021702505736,-1.64130947376714e+44,-0.18269533087504045,-2.675364881586292e+43,-0.14378919041426413,,,,,,,,,,,,,,,,,,,,
38,240610_150203,LEARNING,1.0,39,3.0,1750.0,,,,,,,,,,39.0,39.0,39.0,cue2.png,Hard,A,,,,,,,,,,,,,,,,,,,,,,,,,,,7,20,Female,1.0,1.25,0.8,0.75,2.9444444444444446,2.75,2.6666666666666665,2.111111111111111,1.875,3.0,2.0,2.75,2.25,1.25,0.1666666666666666,0.6666666666666667,0.5254442749428563,0.20079031712641202,0.007515820743548745,-0.546216504488442,,,0.012454783236720349,-0.5064512572035278,0.010206563526817725,-1.0420908463615663,-6.938338236239018e+43,-0.18260154730918912,-5.978731494558163e+42,0.012054470154668352,,,,,,,,,,,,,,,,,,,,
39,240610_150224,LEARNING,1.0,40,3.0,1750.0,,,,,,,,,,40.0,40.0,40.0,cue2.png,Hard,A,,,,,,,,,,,,,,,,,,,,,,,,,,,7,20,Female,1.0,1.25,0.8,0.75,2.9444444444444446,2.75,2.6666666666666665,2.111111111111111,1.875,3.0,2.0,2.75,2.25,1.25,0.75,0.8333333333333334,0.6395180499530397,1.3601633069510646,,,0.005986005842385553,-0.7944656333749106,0.011362342817233969,-0.7694888097679342,0.013534415143843086,-0.43153562974326193,5.246951687875062e+43,-0.1824809341894912,1.7450177951452502e+43,0.18780713163265048,,,,,,,,,,,,,,,,,,,,
40,240610_150242,LEARNING,1.0,41,1.0,1750.0,,,,,,,,,,41.0,41.0,41.0,cue1.png,Easy,A,,,,,,,,,,,,,,,,,,,,,,,,,,,7,20,Female,1.0,1.25,0.8,0.75,2.9444444444444446,2.75,2.6666666666666665,2.111111111111111,1.875,3.0,2.0,2.75,2.25,1.25,1.0,1.0,0.4257322250632569,-0.812619271362581,,,,,0.01028952159217228,-1.027802457217971,0.0181091281135921,0.40777909628660064,,,3.412444632102622e+43,0.31288965205059127,,,,,,,,,,,,,,,,,,,,
41,240610_150301,LEARNING,1.0,42,3.0,1750.0,,,,,,,,,,42.0,42.0,42.0,cue2.png,Hard,A,,,,,,,,,,,,,,,,,,,,,,,,,,,7,20,Female,1.0,1.25,0.8,0.75,2.9444444444444446,2.75,2.6666666666666665,2.111111111111111,1.875,3.0,2.0,2.75,2.25,1.25,0.75,0.8333333333333334,0.3881745874532498,-1.1943311118165123,0.007218821508230824,-0.5678774346239084,0.009140005666546895,-0.6006260552378375,0.012349113581719431,-0.5318943723940428,0.011487966515414911,-0.8069940423827803,,,4.0631127848196446e+43,0.36169971717227406,,,,,,,,,,,,,,,,,,,,
42,240610_150320,LEARNING,1.0,43,3.0,1750.0,,,,,,,,,,43.0,43.0,43.0,cue2.png,Hard,A,,,,,,,,,,,,,,,,,,,,,,,,,,,7,20,Female,1.0,1.25,0.8,0.75,2.9444444444444446,2.75,2.6666666666666665,2.111111111111111,1.875,3.0,2.0,2.75,2.25,1.25,1.0,1.0,0.4725976376212202,-0.33630915125091454,,,,,,,,,1.7221162277814208e+44,-0.18236241038708959,3.085853508318945e+43,0.2883903217030407,,,,,,,,,,,,,,,,,,,,
43,240610_150340,LEARNING,1.0,44,1.0,1750.0,,,,,,,,,,44.0,44.0,44.0,cue1.png,Easy,A,,,,,,,,,,,,,,,,,,,,,,,,,,,7,20,Female,1.0,1.25,0.8,0.75,2.9444444444444446,2.75,2.6666666666666665,2.111111111111111,1.875,3.0,2.0,2.75,2.25,1.25,1.0,1.0,0.5243159249075688,0.18932248804945573,,,0.03430492714738552,0.9459681222033073,0.010862717910819917,-0.8897883796475996,0.022670543599587596,1.2446541558265058,5.267362829582576e+43,-0.18248073215478433,6.992226681329583e+42,0.10935649894030755,,,,,,,,,,,,,,,,,,,,
44,240610_150359,LEARNING,1.0,45,1.0,1750.0,,,,,,,,,,45.0,45.0,45.0,cue1.png,Easy,A,,,,,,,,,,,,,,,,,,,,,,,,,,,7,20,Female,1.0,1.25,0.8,0.75,2.9444444444444446,2.75,2.6666666666666665,2.111111111111111,1.875,3.0,2.0,2.75,2.25,1.25,1.0,1.0,0.4640863001695834,-0.42281294888389176,0.01617584638474308,0.0853817896433936,0.020089697446117414,0.07232377152611945,,,0.011410314973492071,-0.8212406373201541,-1.0582576838056107e+44,-0.18263761891597285,-2.097984158477885e+43,-0.10047680363577363,,,,,,,,,,,,,,,,,,,,
45,240610_150418,LEARNING,1.0,46,1.0,1750.0,,,,,,,,,,46.0,46.0,46.0,cue1.png,Easy,A,,,,,,,,,,,,,,,,,,,,,,,,,,,7,20,Female,1.0,1.25,0.8,0.75,2.9444444444444446,2.75,2.6666666666666665,2.111111111111111,1.875,3.0,2.0,2.75,2.25,1.25,1.0,1.0,0.4060702374554239,-1.0124511552180389,0.006374466110857822,-0.6294584796135452,,,0.01428939149212279,-0.06471470406280963,,,-2.1433184445689427e+44,-0.18274502100835843,-4.3206690633402536e+43,-0.26721217326818864,,,,,,,,,,,,,,,,,,,,
46,240610_150439,LEARNING,1.0,47,3.0,1750.0,,,,,,,,,,47.0,47.0,47.0,cue2.png,Hard,A,,,,,,,,,,,,,,,,,,,,,,,,,,,7,20,Female,1.0,1.25,0.8,0.75,2.9444444444444446,2.75,2.6666666666666665,2.111111111111111,1.875,3.0,2.0,2.75,2.25,1.25,0.1666666666666666,0.6666666666666667,0.6198109624674544,1.159873056743605,,,0.010352094754066385,-0.526133077911245,0.018716803352384747,1.0013165038134657,0.01380125037991587,-0.38257982758900566,,,-3.0005594733196425e+43,-0.16818375949443704,,,,,,,,,,,,,,,,,,,,
47,240610_150458,LEARNING,1.0,48,3.0,1750.0,,,,,,,,,,48.0,48.0,48.0,cue2.png,Hard,A,,,,,,,,,,,,,,,,,,,,,,,,,,,7,20,Female,1.0,1.25,0.8,0.75,2.9444444444444446,2.75,2.6666666666666665,2.111111111111111,1.875,3.0,2.0,2.75,2.25,1.25,1.0,1.0,0.4783315249951556,-0.2780335822391602,0.01317686663036148,-0.13334163860988574,,,0.01834987327459711,0.9129671642047164,0.01033716852950177,-1.0181289709891095,8.276230421246811e+43,-0.18245094961294506,1.298423019101248e+43,0.15430569159645555,,,,,,,,,,,,,,,,,,,,
48,240610_150517,LEARNING,1.0,49,1.0,1750.0,,,,,,,,,,49.0,49.0,49.0,cue1.png,Easy,A,,,,,,,,,,,,,,,,,,,,,,,,,,,7,20,Female,1.0,1.25,0.8,0.75,2.9444444444444446,2.75,2.6666666666666665,2.111111111111111,1.875,3.0,2.0,2.75,2.25,1.25,0.75,0.8333333333333334,0.4156430001021363,-0.9151597098388542,,,,,0.012047792715107235,-0.6044463412488039,0.010619158281815172,-0.9663927957861573,,,,,,,,,,,,,,,,,,,,,,,,
49,240610_150537,LEARNING,1.0,50,1.0,1750.0,,,,,,,,,,50.0,50.0,50.0,cue1.png,Easy,A,,,,,,,,,,,,,,,,,,,,,,,,,,,7,20,Female,1.0,1.25,0.8,0.75,2.9444444444444446,2.75,2.6666666666666665,2.111111111111111,1.875,3.0,2.0,2.75,2.25,1.25,1.0,1.0,0.6054634625324979,1.0140542312106153,,,0.006803607864011185,-0.7442171743414444,0.014381520861533208,-0.04253181571782167,0.011088855283662689,-0.8802182941224334,8.036458733064311e+43,-0.18245332293450794,,,,,,,,,,,,,,,,,,,,,,
0,240610_150646,TrueCHOICE,9.0,1,1.0,1750.0,,,,,,,,,,,2.0,1.0,,,A,,,,,,True,cue1.png,Easy,cue2.png,Hard,Left,Easy,Easy,0.0140102002769708,,,,,,,,,,,,,7,20,Female,1.0,1.25,0.8,0.75,2.9444444444444446,2.75,2.6666666666666665,2.111111111111111,1.875,3.0,2.0,2.75,2.25,1.25,1.0,1.0,0.4282385749975219,-0.33016042974230386,,,,,,,,,,,,,,,0.012687263567089432,-0.4765435558358854,,,,,,,,,,,,,,,,
1,240610_150704,TrueCHOICE,9.0,2,3.0,1750.0,,,,,,,,,,,3.0,2.0,,,A,,,,,,True,cue1.png,Easy,cue2.png,Hard,Right,Hard,Hard,0.0140955997630953,,,,,,,,,,,,,7,20,Female,1.0,1.25,0.8,0.75,2.9444444444444446,2.75,2.6666666666666665,2.111111111111111,1.875,3.0,2.0,2.75,2.25,1.25,0.75,0.8333333333333334,0.5351034873747267,1.608587073876631,,,,,,,,,,,,,,,,,,,,,,,,,,,,,,,,
2,240610_150724,TrueCHOICE,9.0,3,1.0,1750.0,,,,,,,,,,,4.0,3.0,,,A,,,,,,True,cue2.png,Hard,cue1.png,Easy,Right,Easy,Easy,0.0178204998373985,,,,,,,,,,,,,7,20,Female,1.0,1.25,0.8,0.75,2.9444444444444446,2.75,2.6666666666666665,2.111111111111111,1.875,3.0,2.0,2.75,2.25,1.25,0.75,0.8333333333333334,0.5422181874746457,1.7376622469233982,,,,,,,,,,,,,,,,,,,,,,,,,,,,,,,,
3,240610_150742,TrueCHOICE,9.0,4,1.0,1750.0,,,,,,,,,,,5.0,4.0,,,A,,,,,,True,cue1.png,Easy,cue2.png,Hard,Left,Easy,Easy,0.0166081003844738,,,,,,,,,,,,,7,20,Female,1.0,1.25,0.8,0.75,2.9444444444444446,2.75,2.6666666666666665,2.111111111111111,1.875,3.0,2.0,2.75,2.25,1.25,1.0,1.0,0.3957397874910384,-0.9197547291924293,,,,,,,,,,,,,0.0057323199732954265,-1.380858387234149,0.014467642263025812,-0.05901848859242276,3557296.55902715,-0.6216067087549019,,,,,,,,,,,,,,
4,240610_150759,TrueCHOICE,9.0,5,1.0,1750.0,,,,,,,,,,,6.0,5.0,,,A,,,,,,True,cue2.png,Hard,cue1.png,Easy,Right,Easy,Easy,0.0168340997770428,,,,,,,,,,,,,7,20,Female,1.0,1.25,0.8,0.75,2.9444444444444446,2.75,2.6666666666666665,2.111111111111111,1.875,3.0,2.0,2.75,2.25,1.25,1.0,1.0,0.4751309499260969,0.5205629069375691,,,,,,,,,,,,,0.028902589117456464,0.9206902727126458,0.021602708126951455,1.6142597085808275,999037993006.2258,1.9576265111049234,,,,,,,,,,,,,,
5,240610_150816,TrueCHOICE,9.0,6,1.0,1750.0,,,,,,,,,,,7.0,6.0,,,A,,,,,,True,cue2.png,Hard,cue1.png,Easy,Right,Easy,Easy,0.016665400005877,,,,,,,,,,,,,7,20,Female,1.0,1.25,0.8,0.75,2.9444444444444446,2.75,2.6666666666666665,2.111111111111111,1.875,3.0,2.0,2.75,2.25,1.25,1.0,1.0,0.4371374999755062,-0.1687157777777599,,,,,,,,,,,,,,,,,9949348.526863066,-0.6215902062278726,,,,,,,,,,,,,,
6,240610_150832,TrueCHOICE,9.0,7,3.0,1750.0,,,,,,,,,,,8.0,7.0,,,A,,,,,,True,cue1.png,Easy,cue2.png,Hard,Right,Hard,Hard,0.0166946998797357,,,,,,,,,,,,,7,20,Female,1.0,1.25,0.8,0.75,2.9444444444444446,2.75,2.6666666666666665,2.111111111111111,1.875,3.0,2.0,2.75,2.25,1.25,0.1666666666666666,0.6666666666666667,0.37837321247207,-1.234819826009164,,,,,,,,,,,,,,,,,,,,,,,,,,,,,,,,
7,240610_150849,TrueCHOICE,9.0,8,1.0,1750.0,,,,,,,,,,,9.0,8.0,,,A,,,,,,True,cue2.png,Hard,cue1.png,Easy,Right,Easy,Easy,0.0168309998698532,,,,,,,,,,,,,7,20,Female,1.0,1.25,0.8,0.75,2.9444444444444446,2.75,2.6666666666666665,2.111111111111111,1.875,3.0,2.0,2.75,2.25,1.25,0.75,0.8333333333333334,0.4671679874882102,0.3760985247147914,,,,,,,,,,,,,0.009236584300322141,-1.032772880942128,,,,,,,,,,,,,,,,,,
8,240610_150905,TrueCHOICE,9.0,9,1.0,1750.0,,,,,,,,,,,10.0,9.0,,,A,,,,,,True,cue1.png,Easy,cue2.png,Hard,Left,Easy,Easy,0.0141937001608312,,,,,,,,,,,,,7,20,Female,1.0,1.25,0.8,0.75,2.9444444444444446,2.75,2.6666666666666665,2.111111111111111,1.875,3.0,2.0,2.75,2.25,1.25,1.0,1.0,0.3848062749602832,-1.1181109497072328,,,,,,,,,,,,,0.028956626854027962,0.926057947961426,0.010119603730051739,-1.0786976641525183,204791526718.61447,-0.09290027494133864,,,,,,,,,,,,,,
9,240610_150921,TrueCHOICE,9.0,10,1.0,1750.0,,,,,,,,,,,11.0,10.0,,,A,,,,,,True,cue2.png,Hard,cue1.png,Easy,Right,Easy,Easy,0.0161120002157986,,,,,,,,,,,,,7,20,Female,1.0,1.25,0.8,0.75,2.9444444444444446,2.75,2.6666666666666665,2.111111111111111,1.875,3.0,2.0,2.75,2.25,1.25,1.0,1.0,0.4204561750520952,-0.47134904002350714,,,,,,,,,,,,,0.02534072280720249,0.5668830475022067,,,33532426.69379762,-0.6215293211808106,,,,,,,,,,,,,,
0,240610_151054,FalseCHOICE,9.0,1,2.0,1750.0,,,,,,,,,,,1.0,1.0,,,A,,,,,,False,cue1.png,Easy,cue2.png,Hard,Left,Easy,Mid,0.017319899983704,,,,,,,,,,,,,7,20,Female,1.0,1.25,0.8,0.75,2.9444444444444446,2.75,2.6666666666666665,2.111111111111111,1.875,3.0,2.0,2.75,2.25,1.25,0.75,0.8333333333333334,0.8006134750321507,1.8070260905688325,,,,,,,,,,,,,,,,,,,0.035617920957307134,2.5275034647646915,0.018043770801301977,1.1461258310690077,2.80587719629861e+46,-0.17018763094041056,,,,,,,,
1,240610_151115,FalseCHOICE,9.0,2,2.0,1750.0,,,,,,,,,,,2.0,2.0,,,A,,,,,,False,cue2.png,Hard,cue1.png,Easy,Left,Hard,Mid,0.0153878000564873,,,,,,,,,,,,,7,20,Female,1.0,1.25,0.8,0.75,2.9444444444444446,2.75,2.6666666666666665,2.111111111111111,1.875,3.0,2.0,2.75,2.25,1.25,0.75,0.7083333333333334,0.7284236428593951,1.1979885631808778,,,,,,,,,,,,,,,,,,,,,0.01625173412845216,0.632528768409693,3.46034941437144e+45,-0.17612150088939188,,,,,,,,
2,240610_151133,FalseCHOICE,9.0,3,2.0,1750.0,,,,,,,,,,,3.0,3.0,,,A,,,,,,False,cue2.png,Hard,cue1.png,Easy,Right,Easy,Mid,0.0164328999817371,,,,,,,,,,,,,7,20,Female,1.0,1.25,0.8,0.75,2.9444444444444446,2.75,2.6666666666666665,2.111111111111111,1.875,3.0,2.0,2.75,2.25,1.25,0.1666666666666666,0.6666666666666667,0.5726615749881603,-0.11611540162835905,,,,,,,,,,,,,,,,,,,0.008134703619467876,-0.209617205217097,,,-4.473224605812471e+45,-0.17803531452412186,,,,,,,,
3,240610_151152,FalseCHOICE,9.0,4,2.0,1750.0,,,,,,,,,,,4.0,4.0,,,A,,,,,,False,cue2.png,Hard,cue1.png,Easy,Right,Easy,Mid,0.0164577001705765,,,,,,,,,,,,,7,20,Female,1.0,1.25,0.8,0.75,2.9444444444444446,2.75,2.6666666666666665,2.111111111111111,1.875,3.0,2.0,2.75,2.25,1.25,1.0,1.0,0.6745869749574922,0.7437895421426248,,,,,,,,,,,,,,,,,,,0.009092100473124585,-0.11426771664352475,0.012109839869204051,-0.5545366290926844,-4.333209090944358e+45,-0.17800153862428822,,,,,,,,
4,240610_151209,FalseCHOICE,9.0,5,2.0,1750.0,,,,,,,,,,,5.0,5.0,,,A,,,,,,False,cue1.png,Easy,cue2.png,Hard,Left,Easy,Mid,0.0161144998855888,,,,,,,,,,,,,7,20,Female,1.0,1.25,0.8,0.75,2.9444444444444446,2.75,2.6666666666666665,2.111111111111111,1.875,3.0,2.0,2.75,2.25,1.25,1.0,1.0,0.5425828375155106,-0.36987800705255564,,,,,,,,,,,,,,,,,,,0.007425975529842236,-0.2802011648629061,0.01230396863648081,-0.4988993945641853,2.4183616333681334e+49,5.656850132684053,,,,,,,,
5,240610_151226,FalseCHOICE,9.0,6,2.0,1750.0,,,,,,,,,,,6.0,6.0,,,A,,,,,,False,cue2.png,Hard,cue1.png,Easy,Right,Easy,Mid,0.0168093997053802,,,,,,,,,,,,,7,20,Female,1.0,1.25,0.8,0.75,2.9444444444444446,2.75,2.6666666666666665,2.111111111111111,1.875,3.0,2.0,2.75,2.25,1.25,0.75,0.8333333333333334,0.3403981124865822,-2.07563186879521,,,,,,,,,,,,,,,,,,,0.02186428806479323,1.1577456080085755,0.0189836124332146,1.4154841030443452,,,,,,,,,,
6,240610_151244,FalseCHOICE,9.0,7,2.0,1750.0,,,,,,,,,,,7.0,7.0,,,A,,,,,,False,cue2.png,Hard,cue1.png,Easy,Right,Easy,Mid,0.0162447998300194,,,,,,,,,,,,,7,20,Female,1.0,1.25,0.8,0.75,2.9444444444444446,2.75,2.6666666666666665,2.111111111111111,1.875,3.0,2.0,2.75,2.25,1.25,0.75,0.8333333333333334,0.5334305625292473,-0.4470921902670183,,,,,,,,,,,,,,,,,,,0.007744341167166637,-0.2484943542729835,,,2.751373279049975e+44,-0.1768898686269434,,,,,,,,
7,240610_151302,FalseCHOICE,9.0,8,2.0,1750.0,,,,,,,,,,,8.0,8.0,,,A,,,,,,False,cue1.png,Easy,cue2.png,Hard,Left,Easy,Mid,0.0137207997031509,,,,,,,,,,,,,7,20,Female,1.0,1.25,0.8,0.75,2.9444444444444446,2.75,2.6666666666666665,2.111111111111111,1.875,3.0,2.0,2.75,2.25,1.25,1.0,1.0,0.5702191875898279,-0.13672087385669346,,,,,,,,,,,,,,,,,,,,,,,,,,,,,,,,
8,240610_151321,FalseCHOICE,9.0,9,2.0,1750.0,,,,,,,,,,,9.0,9.0,,,A,,,,,,False,cue1.png,Easy,cue2.png,Hard,Left,Easy,Mid,0.0170081001706421,,,,,,,,,,,,,7,20,Female,1.0,1.25,0.8,0.75,2.9444444444444446,2.75,2.6666666666666665,2.111111111111111,1.875,3.0,2.0,2.75,2.25,1.25,0.75,0.8333333333333334,0.5862295626429841,-0.0016475686356292644,,,,,,,,,,,,,,,,,,,0.008189082946605586,-0.20420143534930216,,,,,,,,,,,,
9,240610_151339,FalseCHOICE,9.0,10,2.0,1750.0,,,,,,,,,,,10.0,10.0,,,A,,,,,,False,cue2.png,Hard,cue1.png,Easy,Right,Easy,Mid,0.0162963001057505,,,,,,,,,,,,,7,20,Female,1.0,1.25,0.8,0.75,2.9444444444444446,2.75,2.6666666666666665,2.111111111111111,1.875,3.0,2.0,2.75,2.25,1.25,0.1666666666666666,0.6666666666666667,0.6048995125456713,0.15586353483914644,,,,,,,,,,,,,,,,,,,0.024900876882843495,1.4601668972612554,0.017623981839266053,1.0258144662934265,,,,,,,,,,
10,240610_151358,FalseCHOICE,9.0,11,2.0,1750.0,,,,,,,,,,,11.0,11.0,,,A,,,,,,False,cue1.png,Easy,cue2.png,Hard,Left,Easy,Mid,0.0166025003418326,,,,,,,,,,,,,7,20,Female,1.0,1.25,0.8,0.75,2.9444444444444446,2.75,2.6666666666666665,2.111111111111111,1.875,3.0,2.0,2.75,2.25,1.25,1.0,1.0,0.6841956749558449,0.824854405604351,,,,,,,,,,,,,,,,,,,0.005852623593787888,-0.4368951229389511,0.013803482564321175,-0.06913924488443252,,,,,,,,,,
11,240610_151418,FalseCHOICE,9.0,12,2.0,1750.0,,,,,,,,,,,12.0,12.0,,,A,,,,,,False,cue2.png,Hard,cue1.png,Easy,Left,Hard,Mid,0.0161528997123241,,,,,,,,,,,,,7,20,Female,1.0,1.25,0.8,0.75,2.9444444444444446,2.75,2.6666666666666665,2.111111111111111,1.875,3.0,2.0,2.75,2.25,1.25,1.0,1.0,0.564773787453305,-0.18266159618514335,,,,,,,,,,,,,,,,,,,0.0067425438694592495,-0.3482657914005979,0.011804213810360382,-0.6421289470805911,1.2898695571894626e+45,-0.17664508508158744,,,,,,,,
12,240610_151442,FalseCHOICE,9.0,13,2.0,1750.0,,,,,,,,,,,14.0,13.0,,,A,,,,,,False,cue1.png,Easy,cue2.png,Hard,Right,Hard,Mid,0.0170408999547362,,,,,,,,,,,,,7,20,Female,1.0,1.25,0.8,0.75,2.9444444444444446,2.75,2.6666666666666665,2.111111111111111,1.875,3.0,2.0,2.75,2.25,1.25,0.75,0.8333333333333334,0.5228453375166282,-0.5363956153408287,,,,,,,,,,,,,,,,,,,0.006121005589220226,-0.41016630519833636,0.009390525635380398,-1.3338911055378988,4.939667975819753e+43,-0.1769443239744623,,,,,,,,
13,240610_151502,FalseCHOICE,9.0,14,2.0,1750.0,,,,,,,,,,,15.0,14.0,,,A,,,,,,False,cue2.png,Hard,cue1.png,Easy,Left,Hard,Mid,0.0165388998575508,,,,,,,,,,,,,7,20,Female,1.0,1.25,0.8,0.75,2.9444444444444446,2.75,2.6666666666666665,2.111111111111111,1.875,3.0,2.0,2.75,2.25,1.25,1.0,1.0,0.7081659125396982,1.0270819740801425,,,,,,,,,,,,,,,,,,,0.006544361657286164,-0.3680032414485156,0.014067722465735276,0.0065918153442900175,-8.845382258345546e+44,-0.1771696168061327,,,,,,,,
14,240610_151523,FalseCHOICE,9.0,15,2.0,1750.0,,,,,,,,,,,16.0,15.0,,,A,,,,,,False,cue1.png,Easy,cue2.png,Hard,Right,Hard,Mid,0.0155209000222384,,,,,,,,,,,,,7,20,Female,1.0,1.25,0.8,0.75,2.9444444444444446,2.75,2.6666666666666665,2.111111111111111,1.875,3.0,2.0,2.75,2.25,1.25,1.0,0.75,0.548967650004973,-0.31601182819633883,,,,,,,,,,,,,,,,,,,0.008148093865116897,-0.20828363798253577,0.013661029589994078,-0.1099662158331524,,,,,,,,,,
15,240610_151542,FalseCHOICE,9.0,16,2.0,1750.0,,,,,,,,,,,17.0,16.0,,,A,,,,,,False,cue1.png,Easy,cue2.png,Hard,Left,Easy,Mid,0.0162741001695394,,,,,,,,,,,,,7,20,Female,1.0,1.25,0.8,0.75,2.9444444444444446,2.75,2.6666666666666665,2.111111111111111,1.875,3.0,2.0,2.75,2.25,1.25,0.75,0.8333333333333334,0.5576303999405354,-0.24292757737678636,,,,,,,,,,,,,,,,,,,0.006158505564782257,-0.4064315911372817,0.008928497735981821,-1.4663081344932258,,,,,,,,,,
16,240610_151600,FalseCHOICE,9.0,17,2.0,1750.0,,,,,,,,,,,18.0,17.0,,,A,,,,,,False,cue2.png,Hard,cue1.png,Easy,Left,Hard,Mid,0.0135706001892685,,,,,,,,,,,,,7,20,Female,1.0,1.25,0.8,0.75,2.9444444444444446,2.75,2.6666666666666665,2.111111111111111,1.875,3.0,2.0,2.75,2.25,1.25,1.0,1.0,0.5437170999357477,-0.36030867631665503,,,,,,,,,,,,,,,,,,,0.006087554910361132,-0.4134977399210131,0.01154379625907332,-0.7167645231445946,,,,,,,,,,
17,240610_151618,FalseCHOICE,9.0,18,2.0,1750.0,,,,,,,,,,,19.0,18.0,,,A,,,,,,False,cue2.png,Hard,cue1.png,Easy,Right,Easy,Mid,0.0159013997763395,,,,,,,,,,,,,7,20,Female,1.0,1.25,0.8,0.75,2.9444444444444446,2.75,2.6666666666666665,2.111111111111111,1.875,3.0,2.0,2.75,2.25,1.25,0.75,0.8333333333333334,0.5136209498741664,-0.6142181849790107,,,,,,,,,,,,,,,,,,,0.06031265999742221,4.9869127775689455,0.01810444094185379,1.1635138714203168,,,,,,,,,,
18,240610_151638,FalseCHOICE,9.0,19,2.0,1750.0,,,,,,,,,,,20.0,19.0,,,A,,,,,,False,cue1.png,Easy,cue2.png,Hard,Right,Hard,Mid,0.0164640001021325,,,,,,,,,,,,,7,20,Female,1.0,1.25,0.8,0.75,2.9444444444444446,2.75,2.6666666666666665,2.111111111111111,1.875,3.0,2.0,2.75,2.25,1.25,0.75,0.8333333333333334,0.8194872625172138,1.9662568924197152,,,,,,,,,,,,,,,,,,,0.007143617910816444,-0.30832184905581067,0.011877469750338938,-0.6211338211630498,,,,,,,,,,
19,240610_151658,FalseCHOICE,9.0,20,2.0,1750.0,,,,,,,,,,,21.0,20.0,,,A,,,,,,False,cue1.png,Easy,cue2.png,Hard,Right,Hard,Mid,0.0171076999977231,,,,,,,,,,,,,7,20,Female,1.0,1.25,0.8,0.75,2.9444444444444446,2.75,2.6666666666666665,2.111111111111111,1.875,3.0,2.0,2.75,2.25,1.25,1.0,1.0,0.7610383749706671,1.473146368700283,,,,,,,,,,,,,,,,,,,,,0.012302961586253219,-0.4991880147953875,,,,,,,,,,
20,240610_151719,FalseCHOICE,9.0,21,2.0,1750.0,,,,,,,,,,,22.0,21.0,,,A,,,,,,False,cue1.png,Easy,cue2.png,Hard,Right,Hard,Mid,0.0166061003692448,,,,,,,,,,,,,7,20,Female,1.0,1.25,0.8,0.75,2.9444444444444446,2.75,2.6666666666666665,2.111111111111111,1.875,3.0,2.0,2.75,2.25,1.25,0.75,0.8333333333333334,0.732844450045377,1.2352851934205233,,,,,,,,,,,,,,,,,,,0.006340377099673766,-0.3883185612356669,0.012189368162984859,-0.5317438488427275,4.93240782055582e+44,-0.1768372555973967,,,,,,,,
21,240610_151739,FalseCHOICE,9.0,22,2.0,1750.0,,,,,,,,,,,23.0,22.0,,,A,,,,,,False,cue2.png,Hard,cue1.png,Easy,Left,Hard,Mid,0.0161568000912666,,,,,,,,,,,,,7,20,Female,1.0,1.25,0.8,0.75,2.9444444444444446,2.75,2.6666666666666665,2.111111111111111,1.875,3.0,2.0,2.75,2.25,1.25,1.0,1.0,0.7162450749892741,1.0952427243348346,,,,,,,,,,,,,,,,,,,0.007021184873552721,-0.32051525395683717,0.00929826994636181,-1.3603315526623472,,,,,,,,,,
22,240610_151800,FalseCHOICE,9.0,23,2.0,1750.0,,,,,,,,,,,24.0,23.0,,,A,,,,,,False,cue1.png,Easy,cue2.png,Hard,Right,Hard,Mid,0.0165727999992668,,,,,,,,,,,,,7,20,Female,1.0,1.25,0.8,0.75,2.9444444444444446,2.75,2.6666666666666665,2.111111111111111,1.875,3.0,2.0,2.75,2.25,1.25,1.0,1.0,0.7074026624322869,1.0206427298790484,,,,,,,,,,,,,,,,,,,0.006061570515969204,-0.4160855891568878,0.007879236021918597,-1.7670261624601193,-2.327884501160596e+44,-0.17701239540704708,,,,,,,,
23,240610_151818,FalseCHOICE,9.0,24,2.0,1750.0,,,,,,,,,,,25.0,24.0,,,A,,,,,,False,cue2.png,Hard,cue1.png,Easy,Left,Hard,Mid,0.015200600028038,,,,,,,,,,,,,7,20,Female,1.0,1.25,0.8,0.75,2.9444444444444446,2.75,2.6666666666666665,2.111111111111111,1.875,3.0,2.0,2.75,2.25,1.25,1.0,1.0,0.6373647124855779,0.4297597956067177,,,,,,,,,,,,,,,,,,,0.0055012469254597275,-0.47188958264895675,0.011700801740751849,-0.6717668088493465,-4.593623597347277e+44,-0.17706705176197604,,,,,,,,
24,240610_151843,FalseCHOICE,9.0,25,2.0,1750.0,,,,,,,,,,,26.0,25.0,,,A,,,,,,False,cue2.png,Hard,cue1.png,Easy,Left,Hard,Mid,0.0165083999745547,,,,,,,,,,,,,7,20,Female,1.0,1.25,0.8,0.75,2.9444444444444446,2.75,2.6666666666666665,2.111111111111111,1.875,3.0,2.0,2.75,2.25,1.25,0.5,0.5,0.6227170750498772,0.306183377468414,,,,,,,,,,,,,,,,,,,0.008313371703659705,-0.19182321478664657,0.012438381789680021,-0.46037663344450974,-5.47486097915819e+44,-0.17708830982438845,,,,,,,,
25,240610_151902,FalseCHOICE,9.0,26,2.0,1750.0,,,,,,,,,,,27.0,26.0,,,A,,,,,,False,cue1.png,Easy,cue2.png,Hard,Right,Hard,Mid,0.0164374001324176,,,,,,,,,,,,,7,20,Female,1.0,1.25,0.8,0.75,2.9444444444444446,2.75,2.6666666666666665,2.111111111111111,1.875,3.0,2.0,2.75,2.25,1.25,1.0,1.0,0.5909282250213437,0.03799321775792763,,,,,,,,,,,,,,,,,,,0.007869763833627783,-0.23600320490589766,0.009043756486609836,-1.4332750182265859,,,,,,,,,,
26,240610_151920,FalseCHOICE,9.0,27,2.0,1750.0,,,,,,,,,,,28.0,27.0,,,A,,,,,,False,cue1.png,Easy,cue2.png,Hard,Right,Hard,Mid,0.0165689000859856,,,,,,,,,,,,,7,20,Female,1.0,1.25,0.8,0.75,2.9444444444444446,2.75,2.6666666666666665,2.111111111111111,1.875,3.0,2.0,2.75,2.25,1.25,0.75,0.8333333333333334,0.5330379124497995,-0.4504048262202822,,,,,,,,,,,,,,,,,,,0.005681473923676546,-0.45394033616721974,0.01614156820028004,0.6009552532179764,-1.2003097903554359e+43,-0.17695913542405103,,,,,,,,
27,240610_151940,FalseCHOICE,9.0,28,2.0,1750.0,,,,,,,,,,,29.0,28.0,,,A,,,,,,False,cue2.png,Hard,cue1.png,Easy,Left,Hard,Mid,0.0172021999023854,,,,,,,,,,,,,7,20,Female,1.0,1.25,0.8,0.75,2.9444444444444446,2.75,2.6666666666666665,2.111111111111111,1.875,3.0,2.0,2.75,2.25,1.25,1.0,1.0,0.7907102375174873,1.7234763286767063,,,,,,,,,,,,,,,,,,,0.005947246310995831,-0.42747141566567215,0.011055759007084604,-0.8566358231504817,-1.615162100183313e+43,-0.1769601361710094,,,,,,,,
28,240610_151957,FalseCHOICE,9.0,29,2.0,1750.0,,,,,,,,,,,30.0,29.0,,,A,,,,,,False,cue1.png,Easy,cue2.png,Hard,Right,Hard,Mid,0.0168886999599635,,,,,,,,,,,,,7,20,Female,1.0,1.25,0.8,0.75,2.9444444444444446,2.75,2.6666666666666665,2.111111111111111,1.875,3.0,2.0,2.75,2.25,1.25,0.1666666666666666,0.6666666666666667,0.4212975249392912,-1.3931150011922,,,,,,,,,,,,,,,,,,,0.005005002739792146,-0.5213117518678029,,,2.475259831616479e+44,-0.17689652930319202,,,,,,,,
29,240610_152015,FalseCHOICE,9.0,30,2.0,1750.0,,,,,,,,,,,31.0,30.0,,,A,,,,,,False,cue1.png,Easy,cue2.png,Hard,Right,Hard,Mid,0.0177270001731812,,,,,,,,,,,,,7,20,Female,1.0,1.25,0.8,0.75,2.9444444444444446,2.75,2.6666666666666665,2.111111111111111,1.875,3.0,2.0,2.75,2.25,1.25,0.75,0.8333333333333334,0.521129637490958,-0.5508703089358085,,,,,,,,,,,,,,,,,,,0.013397049772762314,0.31447268759724184,0.00939332563447811,-1.3330886268086288,4.2498764869225475e+44,-0.17685372027988547,,,,,,,,
30,240610_152034,FalseCHOICE,9.0,31,2.0,1750.0,,,,,,,,,,,32.0,31.0,,,A,,,,,,False,cue2.png,Hard,cue1.png,Easy,Left,Hard,Mid,0.0170951997861266,,,,,,,,,,,,,7,20,Female,1.0,1.25,0.8,0.75,2.9444444444444446,2.75,2.6666666666666665,2.111111111111111,1.875,3.0,2.0,2.75,2.25,1.25,0.1666666666666666,0.6666666666666667,0.4800078250118531,-0.8977990416976646,,,,,,,,,,,,,,,,,,,,,,,4.654651290076521e+44,-0.1768439559096874,,,,,,,,
31,240610_152052,FalseCHOICE,9.0,32,2.0,1750.0,,,,,,,,,,,33.0,32.0,,,A,,,,,,False,cue1.png,Easy,cue2.png,Hard,Right,Hard,Mid,0.0163549999706447,,,,,,,,,,,,,7,20,Female,1.0,1.25,0.8,0.75,2.9444444444444446,2.75,2.6666666666666665,2.111111111111111,1.875,3.0,2.0,2.75,2.25,1.25,1.0,1.0,0.5965703375404701,0.08559352592418205,,,,,,,,,,,,,,,,,,,0.006270262169253735,-0.39530147822707656,0.013821079768094208,-0.06409589264405995,4.1163828170886605e+44,-0.17685694054360054,,,,,,,,
32,240610_152112,FalseCHOICE,9.0,33,2.0,1750.0,,,,,,,,,,,34.0,33.0,,,A,,,,,,False,cue2.png,Hard,cue1.png,Easy,Left,Hard,Mid,0.0164540000259876,,,,,,,,,,,,,7,20,Female,1.0,1.25,0.8,0.75,2.9444444444444446,2.75,2.6666666666666665,2.111111111111111,1.875,3.0,2.0,2.75,2.25,1.25,1.0,1.0,0.6578642374370247,0.6027063119413083,,,,,,,,,,,,,,,,,,,0.018369488012307998,0.8096899439455258,0.017006789692319613,0.8489274200791368,2.32987798581538e+44,-0.1769000363450124,,,,,,,,
33,240610_152129,FalseCHOICE,9.0,34,2.0,1750.0,,,,,,,,,,,35.0,34.0,,,A,,,,,,False,cue2.png,Hard,cue1.png,Easy,Left,Hard,Mid,0.0145804998464882,,,,,,,,,,,,,7,20,Female,1.0,1.25,0.8,0.75,2.9444444444444446,2.75,2.6666666666666665,2.111111111111111,1.875,3.0,2.0,2.75,2.25,1.25,0.75,0.8333333333333334,0.521088162495289,-0.5512202173377315,,,,,,,,,,,,,,,,,,,0.006508518050014284,-0.37157299375024105,0.01497845737696165,0.2676081116923488,1.3776460632689832e+43,-0.17695291662902896,,,,,,,,
34,240610_152147,FalseCHOICE,9.0,35,2.0,1750.0,,,,,,,,,,,36.0,35.0,,,A,,,,,,False,cue2.png,Hard,cue1.png,Easy,Left,Hard,Mid,0.0168215003795921,,,,,,,,,,,,,7,20,Female,1.0,1.25,0.8,0.75,2.9444444444444446,2.75,2.6666666666666665,2.111111111111111,1.875,3.0,2.0,2.75,2.25,1.25,1.0,1.0,0.4492550749564543,-1.157248029046722,,,,,,,,,,,,,,,,,,,0.006846586832243569,-0.3379038988862516,0.017824286630317526,1.0832217470032706,-2.2716453121054476e+44,-0.17701103875080934,,,,,,,,
35,240610_152206,FalseCHOICE,9.0,36,2.0,1750.0,,,,,,,,,,,37.0,36.0,,,A,,,,,,False,cue1.png,Easy,cue2.png,Hard,Right,Hard,Mid,0.0166503000073134,,,,,,,,,,,,,7,20,Female,1.0,1.25,0.8,0.75,2.9444444444444446,2.75,2.6666666666666665,2.111111111111111,1.875,3.0,2.0,2.75,2.25,1.25,0.75,0.8333333333333334,0.6327512250863947,0.3908375973737311,,,,,,,,,,,,,,,,,,,0.006430155888658496,-0.37937727259266274,0.01741588959974158,0.9661753056662017,-3.737045446278145e+44,-0.17704638855343274,,,,,,,,
36,240610_152223,FalseCHOICE,9.0,37,2.0,1750.0,,,,,,,,,,,38.0,37.0,,,A,,,,,,False,cue2.png,Hard,cue1.png,Easy,Left,Hard,Mid,0.0160327996127307,,,,,,,,,,,,,7,20,Female,1.0,1.25,0.8,0.75,2.9444444444444446,2.75,2.6666666666666665,2.111111111111111,1.875,3.0,2.0,2.75,2.25,1.25,0.1666666666666666,0.6666666666666667,0.3714909499976784,-1.8133136958991083,,,,,,,,,,,,,,,,,,,0.0060118918154181186,-0.42103321215403217,0.016777503717068803,0.7832141424537847,-4.235621663337866e+44,-0.17705841569227,,,,,,,,
37,240610_152240,FalseCHOICE,9.0,38,2.0,1750.0,,,,,,,,,,,39.0,38.0,,,A,,,,,,False,cue1.png,Easy,cue2.png,Hard,Right,Hard,Mid,0.0166778001002967,,,,,,,,,,,,,7,20,Female,1.0,1.25,0.8,0.75,2.9444444444444446,2.75,2.6666666666666665,2.111111111111111,1.875,3.0,2.0,2.75,2.25,1.25,0.75,0.8333333333333334,0.4214493124745786,-1.3918344288124422,,,,,,,,,,,,,,,,,,,,,,,-3.2015692238697773e+44,-0.17703347127689492,,,,,,,,
38,240610_152301,FalseCHOICE,9.0,39,2.0,1750.0,,,,,,,,,,,40.0,39.0,,,A,,,,,,False,cue1.png,Easy,cue2.png,Hard,Right,Hard,Mid,0.0173982996493577,,,,,,,,,,,,,7,20,Female,1.0,1.25,0.8,0.75,2.9444444444444446,2.75,2.6666666666666665,2.111111111111111,1.875,3.0,2.0,2.75,2.25,1.25,0.75,0.8333333333333334,0.6796593375038356,0.7865830914592017,,,,,,,,,,,,,,,,,,,0.010164422251402398,-0.007472574425776423,0.017961977628608978,1.1226839373415176,-1.4804579542482246e+44,-0.17699195296237102,,,,,,,,
39,240610_152320,FalseCHOICE,9.0,40,2.0,1750.0,,,,,,,,,,,41.0,40.0,,,A,,,,,,False,cue2.png,Hard,cue1.png,Easy,Left,Hard,Mid,0.0176434000022709,,,,,,,,,,,,,7,20,Female,1.0,1.25,0.8,0.75,2.9444444444444446,2.75,2.6666666666666665,2.111111111111111,1.875,3.0,2.0,2.75,2.25,1.25,0.75,0.8333333333333334,0.5837321248836815,-0.022717479341211686,,,,,,,,,,,,,,,,,,,,,0.013811088116327096,-0.06695949642876517,1.5432059307054167e+44,-0.17691901321094067,,,,,,,,
40,240610_152338,FalseCHOICE,9.0,41,2.0,1750.0,,,,,,,,,,,42.0,41.0,,,A,,,,,,False,cue2.png,Hard,cue1.png,Easy,Left,Hard,Mid,0.0165892001241445,,,,,,,,,,,,,7,20,Female,1.0,1.25,0.8,0.75,2.9444444444444446,2.75,2.6666666666666665,2.111111111111111,1.875,3.0,2.0,2.75,2.25,1.25,0.1666666666666666,0.6666666666666667,0.490881675039418,-0.8060605996671132,,,,,,,,,,,,,,,,,,,,,0.020413966879252073,1.8254231702389276,3.5365009207929414e+44,-0.17687092901685153,,,,,,,,
41,240610_152356,FalseCHOICE,9.0,42,2.0,1750.0,,,,,,,,,,,43.0,42.0,,,A,,,,,,False,cue1.png,Easy,cue2.png,Hard,Right,Hard,Mid,0.0169424000196158,,,,,,,,,,,,,7,20,Female,1.0,1.25,0.8,0.75,2.9444444444444446,2.75,2.6666666666666665,2.111111111111111,1.875,3.0,2.0,2.75,2.25,1.25,0.75,0.8333333333333334,0.5300298249931075,-0.4757828897459906,,,,,,,,,,,,,,,,,,,0.005143321755335266,-0.5075362236303083,0.01713944040111476,0.8869450652696895,,,,,,,,,,
42,240610_152415,FalseCHOICE,9.0,43,2.0,1750.0,,,,,,,,,,,44.0,43.0,,,A,,,,,,False,cue2.png,Hard,cue1.png,Easy,Left,Hard,Mid,0.0169040998443961,,,,,,,,,,,,,7,20,Female,1.0,1.25,0.8,0.75,2.9444444444444446,2.75,2.6666666666666665,2.111111111111111,1.875,3.0,2.0,2.75,2.25,1.25,1.0,1.0,0.6135324625647627,0.22869637535758564,,,,,,,,,,,,,,,,,,,0.005920207025504177,-0.43016432407995914,0.009617457727248663,-1.26885245003911,,,,,,,,,,
43,240610_152433,FalseCHOICE,9.0,44,2.0,1750.0,,,,,,,,,,,45.0,44.0,,,A,,,,,,False,cue1.png,Easy,cue2.png,Hard,Right,Hard,Mid,0.0143838999792933,,,,,,,,,,,,,7,20,Female,1.0,1.25,0.8,0.75,2.9444444444444446,2.75,2.6666666666666665,2.111111111111111,1.875,3.0,2.0,2.75,2.25,1.25,1.0,1.0,0.639550662599504,0.44820180623770234,,,,,,,,,,,,,,,,,,,,,,,1.0728080117582641e+44,-0.1769303606055542,,,,,,,,
44,240610_152450,FalseCHOICE,9.0,45,2.0,1750.0,,,,,,,,,,,46.0,45.0,,,A,,,,,,False,cue2.png,Hard,cue1.png,Easy,Left,Hard,Mid,0.015816000290215,,,,,,,,,,,,,7,20,Female,1.0,1.25,0.8,0.75,2.9444444444444446,2.75,2.6666666666666665,2.111111111111111,1.875,3.0,2.0,2.75,2.25,1.25,0.1666666666666666,0.6666666666666667,0.4486556124757044,-1.162305460765971,,,,,,,,,,,,,,,,,,,,,0.01201095562185477,-0.5828768186386405,-2.3268735875442128e+44,-0.17701237102080886,,,,,,,,
45,240610_152511,FalseCHOICE,9.0,46,2.0,1750.0,,,,,,,,,,,47.0,46.0,,,A,,,,,,False,cue2.png,Hard,cue1.png,Easy,Left,Hard,Mid,0.0167770003899931,,,,,,,,,,,,,7,20,Female,1.0,1.25,0.8,0.75,2.9444444444444446,2.75,2.6666666666666665,2.111111111111111,1.875,3.0,2.0,2.75,2.25,1.25,1.0,1.0,0.7258501626201905,1.1762771116579525,,,,,,,,,,,,,,,,,,,,,0.0165280062468932,0.7117082576889713,,,,,,,,,,
46,240610_152530,FalseCHOICE,9.0,47,2.0,1750.0,,,,,,,,,,,48.0,47.0,,,A,,,,,,False,cue1.png,Easy,cue2.png,Hard,Right,Hard,Mid,0.0168503997847437,,,,,,,,,,,,,7,20,Female,1.0,1.25,0.8,0.75,2.9444444444444446,2.75,2.6666666666666665,2.111111111111111,1.875,3.0,2.0,2.75,2.25,1.25,1.0,1.0,0.5144597624894232,-0.6071414492980736,,,,,,,,,,,,,,,,,,,0.0056675625921310535,-0.45532579961758923,0.022960613365492863,2.5552911326422554,,,,,,,,,,
47,240610_152545,FalseCHOICE,9.0,48,2.0,1750.0,,,,,,,,,,,49.0,48.0,,,A,,,,,,False,cue1.png,Easy,cue2.png,Hard,Right,Hard,Mid,0.0163926999084651,,,,,,,,,,,,,7,20,Female,1.0,1.25,0.8,0.75,2.9444444444444446,2.75,2.6666666666666665,2.111111111111111,1.875,3.0,2.0,2.75,2.25,1.25,0.1666666666666666,0.6666666666666667,0.3035974375670776,-2.386104845177078,,,,,,,,,,,,,,,,,,,0.005622207748846671,-0.45984279911992,0.014477122585020175,0.12392574154275154,9.20392384035219e+43,-0.17693403732308077,,,,,,,,
48,240610_152603,FalseCHOICE,9.0,49,2.0,1750.0,,,,,,,,,,,50.0,49.0,,,A,,,,,,False,cue2.png,Hard,cue1.png,Easy,Left,Hard,Mid,0.0171823999844491,,,,,,,,,,,,,7,20,Female,1.0,1.25,0.8,0.75,2.9444444444444446,2.75,2.6666666666666665,2.111111111111111,1.875,3.0,2.0,2.75,2.25,1.25,0.75,0.8333333333333334,0.4583578500896692,-1.0804514568336887,,,,,,,,,,,,,,,,,,,0.012771166406732508,0.25213943610418194,0.013147467316996824,-0.2571529776333868,5.7801931486274595e+44,-0.17681680449785364,,,,,,,,
49,240610_152622,FalseCHOICE,9.0,50,2.0,1750.0,,,,,,,,,,,51.0,50.0,,,A,,,,,,False,cue1.png,Easy,cue2.png,Hard,Right,Hard,Mid,0.0153282997198402,,,,,,,,,,,,,7,20,Female,1.0,1.25,0.8,0.75,2.9444444444444446,2.75,2.6666666666666665,2.111111111111111,1.875,3.0,2.0,2.75,2.25,1.25,0.75,0.8333333333333334,0.7502930876216851,1.3824925599694902,,,,,,,,,,,,,,,,,,,0.006633816926326081,-0.35909417294616,,,-1.900561591779262e+44,-0.17700208710957202,,,,,,,,
0,240610_144858,OFFLINERATING,9.0,1,1.0,,,,,,,,,,,,,,,,,T0,cue1.png,Easy,36.0,1.3854791997000575,,,,,,,,,,,,,,,,,,,,,,7,20,Female,1.0,1.25,0.8,0.75,2.9444444444444446,2.75,2.6666666666666665,2.111111111111111,1.875,3.0,2.0,2.75,2.25,1.25,,,,,,,,,,,,,,,,,,,,,,,,,,,,,-1.8118915782854474,,,0.014686254209013316,0.49613579195315133,1520807993.2366307,-0.3189702092598006,
1,240610_144905,OFFLINERATING,9.0,2,3.0,,,,,,,,,,,,,,,,,T0,cue2.png,Hard,50.0,1.2354760998860002,,,,,,,,,,,,,,,,,,,,,,7,20,Female,1.0,1.25,0.8,0.75,2.9444444444444446,2.75,2.6666666666666665,2.111111111111111,1.875,3.0,2.0,2.75,2.25,1.25,,,,,,,,,,,,,,,,,,,,,,,,,,,,,-0.8810115013681534,,,0.014512124223256418,0.3293712958933684,,,
2,240610_150601,OFFLINERATING,9.0,3,1.0,,,,,,,,,,,,,,,,,T1,cue1.png,Easy,59.0,1.2832892001606524,,,,,,,,,,,,,,,,,,,,,,7,20,Female,1.0,1.25,0.8,0.75,2.9444444444444446,2.75,2.6666666666666665,2.111111111111111,1.875,3.0,2.0,2.75,2.25,1.25,,,,,,,,,,,,,,,,,,,,,,,,,,,,,-0.2825885947784643,,,0.012395023971495618,-1.6981781526308517,,,
3,240610_150608,OFFLINERATING,9.0,4,3.0,,,,,,,,,,,,,,,,,T1,cue2.png,Hard,56.0,1.134937800001353,,,,,,,,,,,,,,,,,,,,,,7,20,Female,1.0,1.25,0.8,0.75,2.9444444444444446,2.75,2.6666666666666665,2.111111111111111,1.875,3.0,2.0,2.75,2.25,1.25,,,,,,,,,,,,,,,,,,,,,,,,,,,,,-0.4820628969750273,,,0.01507941992020617,0.8726710647843269,30180.001141579163,-0.7177366592760938,
4,240610_150939,OFFLINERATING,9.0,5,1.0,,,,,,,,,,,,,,,,,T2,cue1.png,Easy,80.0,2.277085099834949,,,,,,,,,,,,,,,,,,,,,,7,20,Female,1.0,1.25,0.8,0.75,2.9444444444444446,2.75,2.6666666666666665,2.111111111111111,1.875,3.0,2.0,2.75,2.25,1.25,,,,,,,,,,,,,,,,,,,,,,,,,,,,,1.113731520597477,0.009223490654971751,0.2019718648605161,,,9263251894.786232,1.7111928048248555,
5,240610_150946,OFFLINERATING,9.0,6,3.0,,,,,,,,,,,,,,,,,T2,cue2.png,Hard,66.0,1.1352021000348032,,,,,,,,,,,,,,,,,,,,,,7,20,Female,1.0,1.25,0.8,0.75,2.9444444444444446,2.75,2.6666666666666665,2.111111111111111,1.875,3.0,2.0,2.75,2.25,1.25,,,,,,,,,,,,,,,,,,,,,,,,,,,,,0.18285144368018277,0.010879422742985874,1.1112044504525511,,,164975701.17660213,-0.674485936288961,
6,240610_152644,OFFLINERATING,9.0,7,1.0,,,,,,,,,,,,,,,,,T3,cue1.png,Easy,81.0,1.3353312001563609,,,,,,,,,,,,,,,,,,,,,,7,20,Female,1.0,1.25,0.8,0.75,2.9444444444444446,2.75,2.6666666666666665,2.111111111111111,1.875,3.0,2.0,2.75,2.25,1.25,,,,,,,,,,,,,,,,,,,,,,,,,,,,,1.1802229546629979,0.006464039960612891,-1.313176315313069,,,,,
7,240610_152652,OFFLINERATING,9.0,8,3.0,,,,,,,,,,,,,,,,,T3,cue2.png,Hard,78.0,1.5355529999360442,,,,,,,,,,,,,,,,,,,,,,7,20,Female,1.0,1.25,0.8,0.75,2.9444444444444446,2.75,2.6666666666666665,2.111111111111111,1.875,3.0,2.0,2.75,2.25,1.25,,,,,,,,,,,,,,,,,,,,,,,,,,,,,0.980748652466435,,,,,,,
0,240610_150959,LEARNINGCHECK,9.0,1,,,,,,,,,,,,1.0,1.0,1.0,,,A,,,,,,,,,,,,,,,cue1.png,Easy,Left,Left,Easy,0.0159650999121367,1.0,,,,,,7,20,Female,1.0,1.25,0.8,0.75,2.9444444444444446,2.75,2.6666666666666665,2.111111111111111,1.875,3.0,2.0,2.75,2.25,1.25,,,,,,,,,,,,,,,,,,,,,,,,,,,,,,,,,,,,
1,240610_151004,LEARNINGCHECK,9.0,2,,,,,,,,,,,,2.0,2.0,2.0,,,A,,,,,,,,,,,,,,,cue2.png,Hard,Right,Right,Hard,0.0151575999334454,1.0,,,,,,7,20,Female,1.0,1.25,0.8,0.75,2.9444444444444446,2.75,2.6666666666666665,2.111111111111111,1.875,3.0,2.0,2.75,2.25,1.25,,,,,,,,,,,,,,,,,,,,,,,,,,,,,,,,,,,,
2,240610_152706,LEARNINGCHECK,9.0,1,,,,,,,,,,,,1.0,1.0,1.0,,,A,,,,,,,,,,,,,,,cue1.png,Easy,Middle,Middle,Mid,0.0142455003224313,1.0,,,,,,7,20,Female,1.0,1.25,0.8,0.75,2.9444444444444446,2.75,2.6666666666666665,2.111111111111111,1.875,3.0,2.0,2.75,2.25,1.25,,,,,,,,,,,,,,,,,,,,,,,,,,,,,,,,,,,,
3,240610_152711,LEARNINGCHECK,9.0,2,,,,,,,,,,,,2.0,2.0,2.0,,,A,,,,,,,,,,,,,,,cue2.png,Hard,Middle,Middle,Mid,0.0137447998858988,1.0,,,,,,7,20,Female,1.0,1.25,0.8,0.75,2.9444444444444446,2.75,2.6666666666666665,2.111111111111111,1.875,3.0,2.0,2.75,2.25,1.25,,,,,,,,,,,,,,,,,,,,,,,,,,,,,,,,,,,,
0,240610_152727,DEMANDRATING,9.0,-1,,,,,,,,,,,,,,,,,,,,,,,,,,,,,,,,,,,,,,,1.0,MentalDemand,1.0,51.0,5.315294600091875,7,20,Female,1.0,1.25,0.8,0.75,2.9444444444444446,2.75,2.6666666666666665,2.111111111111111,1.875,3.0,2.0,2.75,2.25,1.25,,,,,,,,,,,,,,,,,,,,,,,,,,,,,,,,,,,,-0.0270717551140132
1,240610_152732,DEMANDRATING,9.0,-1,,,,,,,,,,,,,,,,,,,,,,,,,,,,,,,,,,,,,,,2.0,Effort,1.0,51.0,2.8728665998205543,7,20,Female,1.0,1.25,0.8,0.75,2.9444444444444446,2.75,2.6666666666666665,2.111111111111111,1.875,3.0,2.0,2.75,2.25,1.25,,,,,,,,,,,,,,,,,,,,,,,,,,,,,,,,,,,,-0.0270717551140132
2,240610_152737,DEMANDRATING,9.0,-1,,,,,,,,,,,,,,,,,,,,,,,,,,,,,,,,,,,,,,,3.0,Frustration,1.0,0.0,4.146030299831182,7,20,Female,1.0,1.25,0.8,0.75,2.9444444444444446,2.75,2.6666666666666665,2.111111111111111,1.875,3.0,2.0,2.75,2.25,1.25,,,,,,,,,,,,,,,,,,,,,,,,,,,,,,,,,,,,-2.512258874580418
3,240610_152742,DEMANDRATING,9.0,-1,,,,,,,,,,,,,,,,,,,,,,,,,,,,,,,,,,,,,,,4.0,MentalDemand,2.0,59.0,2.748912899754941,7,20,Female,1.0,1.25,0.8,0.75,2.9444444444444446,2.75,2.6666666666666665,2.111111111111111,1.875,3.0,2.0,2.75,2.25,1.25,,,,,,,,,,,,,,,,,,,,,,,,,,,,,,,,,,,,0.3627615185277758
4,240610_152746,DEMANDRATING,9.0,-1,,,,,,,,,,,,,,,,,,,,,,,,,,,,,,,,,,,,,,,5.0,Effort,2.0,54.0,2.451189300045371,7,20,Female,1.0,1.25,0.8,0.75,2.9444444444444446,2.75,2.6666666666666665,2.111111111111111,1.875,3.0,2.0,2.75,2.25,1.25,,,,,,,,,,,,,,,,,,,,,,,,,,,,,,,,,,,,0.11911572250165767
5,240610_152751,DEMANDRATING,9.0,-1,,,,,,,,,,,,,,,,,,,,,,,,,,,,,,,,,,,,,,,6.0,Frustration,2.0,45.0,3.619960099924356,7,20,Female,1.0,1.25,0.8,0.75,2.9444444444444446,2.75,2.6666666666666665,2.111111111111111,1.875,3.0,2.0,2.75,2.25,1.25,,,,,,,,,,,,,,,,,,,,,,,,,,,,,,,,,,,,-0.31944671034535493
6,240610_152755,DEMANDRATING,9.0,-1,,,,,,,,,,,,,,,,,,,,,,,,,,,,,,,,,,,,,,,7.0,MentalDemand,3.0,74.0,2.387065399903804,7,20,Female,1.0,1.25,0.8,0.75,2.9444444444444446,2.75,2.6666666666666665,2.111111111111111,1.875,3.0,2.0,2.75,2.25,1.25,,,,,,,,,,,,,,,,,,,,,,,,,,,,,,,,,,,,1.09369890660613
7,240610_152759,DEMANDRATING,9.0,-1,,,,,,,,,,,,,,,,,,,,,,,,,,,,,,,,,,,,,,,8.0,Effort,3.0,74.0,2.3967605996876955,7,20,Female,1.0,1.25,0.8,0.75,2.9444444444444446,2.75,2.6666666666666665,2.111111111111111,1.875,3.0,2.0,2.75,2.25,1.25,,,,,,,,,,,,,,,,,,,,,,,,,,,,,,,,,,,,1.09369890660613
8,240610_152802,DEMANDRATING,9.0,-1,,,,,,,,,,,,,,,,,,,,,,,,,,,,,,,,,,,,,,,9.0,Frustration,3.0,56.0,1.7595281000249088,7,20,Female,1.0,1.25,0.8,0.75,2.9444444444444446,2.75,2.6666666666666665,2.111111111111111,1.875,3.0,2.0,2.75,2.25,1.25,,,,,,,,,,,,,,,,,,,,,,,,,,,,,,,,,,,,0.21657404091210491
