,END,Phase,Block,TrialN,NbackLevel,ISI,Letter_Resp,Letter_RT,Letter_Accuracy,Trial_A_measure,Trial_ACC,Trial_RT,TrialCountCali,CaliEnd_A_measure,ISI_calibrated,TrialIndex,TrialNumber_total,TrialNumber_valid,CueLearning,TrialDemandLearning,CueMapping,OfflineRatingTimePoint,CueFigure,TrialDemand,OfflineRating,OfflineRatingRT,PhaseType,CueLeft,CueDemandLeft,CueRight,CueDemandRight,Choice,ChoiceDemand,TaskDemand,ChoiceRT,CueCheck,CueDemandCheck,CorrectAnswer,Answer,AnswerDemand,AnswerRT,AnswerACC,DemandRatingQuesIndex,QuesTLX,DemandLevel,DemandRating,DemandRatingRT,PID,Age,Gender,Task_A_measure,Task_ACC,Task_RT,cue_i_on_zyg_values,cue_i_on_zyg_zvalues,cue_e_on_zyg_values,cue_e_on_zyg_zvalues,cue_i_on_cor_values,cue_i_on_cor_zvalues,cue_e_on_cor_values,cue_e_on_cor_zvalues,cue_i_on_scr_values,cue_i_on_scr_zvalues,cue_e_on_scr_values,cue_e_on_scr_zvalues,BAI_bis,BAI_bas_d,BAI_bas_rr,BAI_bas_fs,NFC,BFI_ext,BFI_agr,BFI_con,BFI_neu,BFI_open,UPPS_lps,UPPS_lpm,UPPS_pu,UPPS_ss,cue_e_true_zyg_values,cue_e_true_zyg_zvalues,cue_e_true_cor_values,cue_e_true_cor_zvalues,cue_e_true_scr_values,cue_e_true_scr_zvalues,cue_i_off_zyg_values,cue_i_off_zyg_zvalues,cue_i_off_cor_values,cue_i_off_cor_zvalues,cue_i_off_scr_values,cue_i_off_scr_zvalues
0,240612_092737,LEARNING,1.0,1,1.0,2583.0,,,,,,,,,,1.0,1.0,1.0,cue2.png,Easy,B,,,,,,,,,,,,,,,,,,,,,,,,,,,8,24,Female,1.0,1.0,0.8337642166673808,-0.0008605090160311731,-0.686209599922561,0.0012626213224961333,0.6063927040271087,,,-0.0006815119664613078,-0.49022203440879447,1.279,-0.4459141436366053,,,1.1428571428571428,0.5,0.4,1.0,2.888888888888889,3.5,3.4444444444444446,3.4444444444444446,0.375,3.111111111111111,2.5,2.25,3.0,2.25,,,,,,,,,,,,
1,240612_092756,LEARNING,1.0,2,3.0,2583.0,,,,,,,,,,2.0,2.0,2.0,cue1.png,Hard,B,,,,,,,,,,,,,,,,,,,,,,,,,,,8,24,Female,1.0,1.0,0.5760878166668894,0.004833306718648254,1.822469087699895,,,-0.000822302028999653,-0.4167856063181972,-0.0012005456396594017,-0.7371466963460463,1.1130000000000002,-0.7485378061209729,1.162,-0.9749864162269131,1.1428571428571428,0.5,0.4,1.0,2.888888888888889,3.5,3.4444444444444446,3.4444444444444446,0.375,3.111111111111111,2.5,2.25,3.0,2.25,,,,,,,,,,,,
2,240612_092814,LEARNING,1.0,3,1.0,2583.0,,,,,,,,,,3.0,3.0,3.0,cue2.png,Easy,B,,,,,,,,,,,,,,,,,,,,,,,,,,,8,24,Female,1.0,1.0,0.640335133333186,,,0.0003777133593967606,0.11596324684736382,,,-0.003565129285450294,-1.8620718168332282,,,1.5749999999999997,-0.2506119997713196,1.1428571428571428,0.5,0.4,1.0,2.888888888888889,3.5,3.4444444444444446,3.4444444444444446,0.375,3.111111111111111,2.5,2.25,3.0,2.25,,,,,,,,,,,,
3,240612_092832,LEARNING,1.0,4,3.0,2583.0,,,,,,,,,,4.0,4.0,4.0,cue1.png,Hard,B,,,,,,,,,,,,,,,,,,,,,,,,,,,8,24,Female,1.0,1.0,0.539075683333067,0.0038407033376636705,1.3851309188562182,-0.0019886680699923026,-1.195521346229104,-0.001498965043273721,-0.8942021246062186,-0.001764066540667895,-1.0052356762357786,1.579,0.10099608976887928,1.5830000000000002,-0.2365805340772637,1.1428571428571428,0.5,0.4,1.0,2.888888888888889,3.5,3.4444444444444446,3.4444444444444446,0.375,3.111111111111111,2.5,2.25,3.0,2.25,,,,,,,,,,,,
4,240612_092850,LEARNING,1.0,5,3.0,2583.0,,,,,,,,,,5.0,5.0,5.0,cue1.png,Hard,B,,,,,,,,,,,,,,,,,,,,,,,,,,,8,24,Female,1.0,1.0,0.551127800001268,,,-0.0011193633331494177,-0.7137394344465327,0.0011849479351030093,0.999420494769976,0.00013094770014892513,-0.10370312653281731,1.5019999999999998,-0.0393775368051954,,,1.1428571428571428,0.5,0.4,1.0,2.888888888888889,3.5,3.4444444444444446,3.4444444444444446,0.375,3.111111111111111,2.5,2.25,3.0,2.25,,,,,,,,,,,,
5,240612_092909,LEARNING,1.0,6,1.0,2583.0,,,,,,,,,,6.0,6.0,6.0,cue2.png,Easy,B,,,,,,,,,,,,,,,,,,,,,,,,,,,8,24,Female,1.0,1.0,0.6919481833332005,0.0028638020529809186,0.9547110480711656,-0.0032660235535085505,-1.9034511903818288,-0.00016863288582199838,0.044407690588956654,-0.0016787161827497314,-0.9646311656549739,0.08299999999999996,-2.626262940813137,1.637,-0.14186814064239217,1.1428571428571428,0.5,0.4,1.0,2.888888888888889,3.5,3.4444444444444446,3.4444444444444446,0.375,3.111111111111111,2.5,2.25,3.0,2.25,,,,,,,,,,,,
6,240612_092928,LEARNING,1.0,7,3.0,2583.0,,,,,,,,,,7.0,7.0,7.0,cue1.png,Hard,B,,,,,,,,,,,,,,,,,,,,,,,,,,,8,24,Female,1.0,1.0,0.6228657499996189,0.001410962070645024,0.3145939684099902,-2.6861279624649376e-05,-0.10825817377248861,0.0009390728802094045,0.825944465838333,-0.0014769365027593618,-0.8686366631009692,,,1.2109999999999999,-0.8890436888508257,1.1428571428571428,0.5,0.4,1.0,2.888888888888889,3.5,3.4444444444444446,3.4444444444444446,0.375,3.111111111111111,2.5,2.25,3.0,2.25,,,,,,,,,,,,
7,240612_092947,LEARNING,1.0,8,3.0,2583.0,,,,,,,,,,8.0,8.0,8.0,cue1.png,Hard,B,,,,,,,,,,,,,,,,,,,,,,,,,,,8,24,Female,0.6875,0.75,0.7642744500008121,-0.0006045214116503338,-0.573422204381406,0.002797728819568365,1.4571726358347141,-0.005203062548862051,-3.5076113064490926,,,2.687,2.1209178851464685,2.894,2.0628259065360135,1.1428571428571428,0.5,0.4,1.0,2.888888888888889,3.5,3.4444444444444446,3.4444444444444446,0.375,3.111111111111111,2.5,2.25,3.0,2.25,,,,,,,,,,,,
8,240612_093005,LEARNING,1.0,9,1.0,2583.0,,,,,,,,,,9.0,9.0,9.0,cue2.png,Easy,B,,,,,,,,,,,,,,,,,,,,,,,,,,,8,24,Female,1.0,1.0,0.634540533334075,,,0.00045735892636555083,0.1601040318827567,0.0012618146390636154,1.053653448844639,0.0016882074900045289,0.6371463925152714,,,0.5709999999999997,-2.011560944375233,1.1428571428571428,0.5,0.4,1.0,2.888888888888889,3.5,3.4444444444444446,3.4444444444444446,0.375,3.111111111111111,2.5,2.25,3.0,2.25,,,,,,,,,,,,
9,240612_093025,LEARNING,1.0,10,1.0,2583.0,,,,,,,,,,10.0,10.0,10.0,cue2.png,Easy,B,,,,,,,,,,,,,,,,,,,,,,,,,,,8,24,Female,0.6875,0.75,0.7504396166659717,0.009110507481079177,3.7069913299703687,-0.0012747448089430518,-0.7998542124878081,0.0005350539955766885,0.5408907756630387,0.0009389657255166745,0.28070271851336487,,,,,1.1428571428571428,0.5,0.4,1.0,2.888888888888889,3.5,3.4444444444444446,3.4444444444444446,0.375,3.111111111111111,2.5,2.25,3.0,2.25,,,,,,,,,,,,
10,240612_093044,LEARNING,1.0,11,3.0,2583.0,,,,,,,,,,11.0,11.0,11.0,cue1.png,Hard,B,,,,,,,,,,,,,,,,,,,,,,,,,,,8,24,Female,1.0,1.0,0.7344053499994819,-0.0013320449358702672,-0.8939669576719311,,,0.002487750549368807,1.9186069657293443,,,,,0.6950000000000001,-1.7940732261173784,1.1428571428571428,0.5,0.4,1.0,2.888888888888889,3.5,3.4444444444444446,3.4444444444444446,0.375,3.111111111111111,2.5,2.25,3.0,2.25,,,,,,,,,,,,
11,240612_093102,LEARNING,1.0,12,1.0,2583.0,,,,,,,,,,12.0,12.0,12.0,cue2.png,Easy,B,,,,,,,,,,,,,,,,,,,,,,,,,,,8,24,Female,0.6875,0.75,0.5458578333333813,0.002311634521499878,0.7114276362482892,-0.0032634208822189302,-1.9020087503530203,-0.00010772977886334793,0.08737760125906338,-0.001094935745190235,-0.68690393015258,2.519,1.8146481544393978,2.475,1.3279278908098782,1.1428571428571428,0.5,0.4,1.0,2.888888888888889,3.5,3.4444444444444446,3.4444444444444446,0.375,3.111111111111111,2.5,2.25,3.0,2.25,,,,,,,,,,,,
12,240612_093120,LEARNING,1.0,13,1.0,2583.0,,,,,,,,,,13.0,13.0,13.0,cue2.png,Easy,B,,,,,,,,,,,,,,,,,,,,,,,,,,,8,24,Female,1.0,1.0,0.5541423166675182,0.00047248024398941933,-0.09889840067252678,0.0016068777085730427,0.7971848311123068,0.00031510768563054823,0.3857086550362212,0.0019164947507431104,0.7457515901995101,,,,,1.1428571428571428,0.5,0.4,1.0,2.888888888888889,3.5,3.4444444444444446,3.4444444444444446,0.375,3.111111111111111,2.5,2.25,3.0,2.25,,,,,,,,,,,,
13,240612_093138,LEARNING,1.0,14,1.0,2583.0,,,,,,,,,,14.0,14.0,14.0,cue2.png,Easy,B,,,,,,,,,,,,,,,,,,,,,,,,,,,8,24,Female,1.0,1.0,0.5279058333326248,0.001726585546279141,0.4536567557450311,-0.00226528978751618,-1.3488293109288514,-0.0021922898034457943,-1.3833742620834446,,,,,,,1.1428571428571428,0.5,0.4,1.0,2.888888888888889,3.5,3.4444444444444446,3.4444444444444446,0.375,3.111111111111111,2.5,2.25,3.0,2.25,,,,,,,,,,,,
14,240612_093156,LEARNING,1.0,15,3.0,2583.0,,,,,,,,,,15.0,15.0,15.0,cue1.png,Hard,B,,,,,,,,,,,,,,,,,,,,,,,,,,,8,24,Female,0.6875,0.75,0.6565558999997544,0.0001816611307799347,-0.22703245791260934,,,,,,,,,,,1.1428571428571428,0.5,0.4,1.0,2.888888888888889,3.5,3.4444444444444446,3.4444444444444446,0.375,3.111111111111111,2.5,2.25,3.0,2.25,,,,,,,,,,,,
15,240612_093215,LEARNING,1.0,16,1.0,2583.0,,,,,,,,,,16.0,16.0,16.0,cue2.png,Easy,B,,,,,,,,,,,,,,,,,,,,,,,,,,,8,24,Female,0.6875,0.75,0.6143481166679218,0.0003538248031808894,-0.15117764352083196,,,,,,,,,,,1.1428571428571428,0.5,0.4,1.0,2.888888888888889,3.5,3.4444444444444446,3.4444444444444446,0.375,3.111111111111111,2.5,2.25,3.0,2.25,,,,,,,,,,,,
16,240612_093233,LEARNING,1.0,17,1.0,2583.0,,,,,,,,,,17.0,17.0,17.0,cue2.png,Easy,B,,,,,,,,,,,,,,,,,,,,,,,,,,,8,24,Female,1.0,1.0,0.6020072833331748,0.0005039962279224505,-0.08501254962000787,0.00040712022173264653,0.1322609773844869,0.0007123034899488038,0.6659483518662109,,,,,,,1.1428571428571428,0.5,0.4,1.0,2.888888888888889,3.5,3.4444444444444446,3.4444444444444446,0.375,3.111111111111111,2.5,2.25,3.0,2.25,,,,,,,,,,,,
17,240612_093251,LEARNING,1.0,18,3.0,2583.0,,,,,,,,,,18.0,18.0,18.0,cue1.png,Hard,B,,,,,,,,,,,,,,,,,,,,,,,,,,,8,24,Female,1.0,1.0,0.5302077500006513,,,0.0014051772038058993,0.6853993424617517,,,-0.00017284649131139689,-0.24822993066602603,,,,,1.1428571428571428,0.5,0.4,1.0,2.888888888888889,3.5,3.4444444444444446,3.4444444444444446,0.375,3.111111111111111,2.5,2.25,3.0,2.25,,,,,,,,,,,,
18,240612_093309,LEARNING,1.0,19,3.0,2583.0,,,,,,,,,,19.0,19.0,19.0,cue1.png,Hard,B,,,,,,,,,,,,,,,,,,,,,,,,,,,8,24,Female,1.0,1.0,0.5278895666657869,6.394853726299958e-05,-0.2788962849806496,8.352400247207872e-06,-0.0887422166051816,-0.0004937433625436197,-0.18497253055688165,0.0003215873789898056,-0.013008359159517067,,,,,1.1428571428571428,0.5,0.4,1.0,2.888888888888889,3.5,3.4444444444444446,3.4444444444444446,0.375,3.111111111111111,2.5,2.25,3.0,2.25,,,,,,,,,,,,
19,240612_093327,LEARNING,1.0,20,3.0,2583.0,,,,,,,,,,20.0,20.0,20.0,cue1.png,Hard,B,,,,,,,,,,,,,,,,,,,,,,,,,,,8,24,Female,0.6875,0.75,0.5698921500006691,-0.0006109361354791425,-0.5762485130830209,,,-0.0015855180224687779,-0.9552691862056916,,,2.035,0.9322996445452161,2.443,1.2718020280336577,1.1428571428571428,0.5,0.4,1.0,2.888888888888889,3.5,3.4444444444444446,3.4444444444444446,0.375,3.111111111111111,2.5,2.25,3.0,2.25,,,,,,,,,,,,
20,240612_093345,LEARNING,1.0,21,1.0,2583.0,,,,,,,,,,21.0,21.0,21.0,cue2.png,Easy,B,,,,,,,,,,,,,,,,,,,,,,,,,,,8,24,Female,1.0,1.0,0.4899011999987124,-0.0004051126093352381,-0.48556326482259615,-4.6858239643394854e-05,-0.11934079327213605,-8.745282943740593e-06,0.15721566305579313,,,2.146,1.134656430905245,1.5119999999999998,-0.3611097921120033,1.1428571428571428,0.5,0.4,1.0,2.888888888888889,3.5,3.4444444444444446,3.4444444444444446,0.375,3.111111111111111,2.5,2.25,3.0,2.25,,,,,,,,,,,,
21,240612_093405,LEARNING,1.0,22,3.0,2583.0,,,,,,,,,,22.0,22.0,22.0,cue1.png,Hard,B,,,,,,,,,,,,,,,,,,,,,,,,,,,8,24,Female,0.1875,0.5833333333333334,0.532116260001203,,,0.00035638720074376504,0.1041439652406243,,,-0.00015647933474723184,-0.24044343277547767,1.4170000000000003,-0.1943354362700818,1.8200000000000003,0.1791016371091184,1.1428571428571428,0.5,0.4,1.0,2.888888888888889,3.5,3.4444444444444446,3.4444444444444446,0.375,3.111111111111111,2.5,2.25,3.0,2.25,,,,,,,,,,,,
22,240612_093423,LEARNING,1.0,23,3.0,2583.0,,,,,,,,,,23.0,23.0,23.0,cue1.png,Hard,B,,,,,,,,,,,,,,,,,,,,,,,,,,,8,24,Female,1.0,1.0,0.5805763166645193,-0.00018270040090932185,-0.3875690912938046,0.0013498938935836082,0.6547604907912837,0.002686032244004181,2.0585037153612484,-0.004732220948943043,-2.417303065476597,1.359,-0.300071414728476,1.4560000000000002,-0.4593300519703882,1.1428571428571428,0.5,0.4,1.0,2.888888888888889,3.5,3.4444444444444446,3.4444444444444446,0.375,3.111111111111111,2.5,2.25,3.0,2.25,,,,,,,,,,,,
23,240612_093442,LEARNING,1.0,24,3.0,2583.0,,,,,,,,,,24.0,24.0,24.0,cue1.png,Hard,B,,,,,,,,,,,,,,,,,,,,,,,,,,,8,24,Female,1.0,1.0,0.6878914499999761,-0.00021279363968209524,-0.4008280849579262,0.000147949099283483,-0.011375602010985116,-0.0002807150204725698,-0.034671350763068466,0.0001244393640760285,-0.10679939709783066,2.1020000000000003,1.0544429300057745,1.946,0.4000972217904854,1.1428571428571428,0.5,0.4,1.0,2.888888888888889,3.5,3.4444444444444446,3.4444444444444446,0.375,3.111111111111111,2.5,2.25,3.0,2.25,,,,,,,,,,,,
24,240612_093502,LEARNING,1.0,25,1.0,2583.0,,,,,,,,,,25.0,25.0,25.0,cue2.png,Easy,B,,,,,,,,,,,,,,,,,,,,,,,,,,,8,24,Female,1.0,1.0,0.8806421333344284,8.399792411147846e-05,-0.2700625833242491,0.0032307481293256807,1.6971585257670663,0.00010387369769502414,0.23667347365799682,0.005712426152070388,2.5516249398694537,1.0099999999999998,-0.93631031959019,1.2060000000000002,-0.8978133549096097,1.1428571428571428,0.5,0.4,1.0,2.888888888888889,3.5,3.4444444444444446,3.4444444444444446,0.375,3.111111111111111,2.5,2.25,3.0,2.25,,,,,,,,,,,,
25,240612_093521,LEARNING,1.0,26,1.0,2583.0,,,,,,,,,,26.0,26.0,26.0,cue2.png,Easy,B,,,,,,,,,,,,,,,,,,,,,,,,,,,8,24,Female,1.0,1.0,0.6178970500004652,,,,,,,,,1.862,0.6169147432813866,1.496,-0.3891727235001131,1.1428571428571428,0.5,0.4,1.0,2.888888888888889,3.5,3.4444444444444446,3.4444444444444446,0.375,3.111111111111111,2.5,2.25,3.0,2.25,,,,,,,,,,,,
26,240612_093539,LEARNING,1.0,27,3.0,2583.0,,,,,,,,,,27.0,27.0,27.0,cue1.png,Hard,B,,,,,,,,,,,,,,,,,,,,,,,,,,,8,24,Female,1.0,1.0,0.5987674000001183,,,,,-0.0002806782545890889,-0.034645410760862104,,,1.4370000000000003,-0.15787475404304946,1.8900000000000001,0.3018769619321001,1.1428571428571428,0.5,0.4,1.0,2.888888888888889,3.5,3.4444444444444446,3.4444444444444446,0.375,3.111111111111111,2.5,2.25,3.0,2.25,,,,,,,,,,,,
27,240612_093557,LEARNING,1.0,28,1.0,2583.0,,,,,,,,,,28.0,28.0,28.0,cue2.png,Easy,B,,,,,,,,,,,,,,,,,,,,,,,,,,,8,24,Female,1.0,1.0,0.6159453666659829,,,0.0004752727198171214,0.17003212877513063,-0.000679787454679474,-0.3162350952928058,0.00019889325075758083,-0.07137876497298555,0.9089999999999998,-1.120436764836703,1.4749999999999999,-0.42600532094700794,1.1428571428571428,0.5,0.4,1.0,2.888888888888889,3.5,3.4444444444444446,3.4444444444444446,0.375,3.111111111111111,2.5,2.25,3.0,2.25,,,,,,,,,,,,
28,240612_093616,LEARNING,1.0,29,1.0,2583.0,,,,,,,,,,29.0,29.0,29.0,cue2.png,Easy,B,,,,,,,,,,,,,,,,,,,,,,,,,,,8,24,Female,1.0,1.0,0.5900013999974666,,,0.0018082804030901075,0.908805268791033,-0.00013307284025509264,0.06949691932850671,0.0025249931552518666,1.035238131403815,0.9969999999999999,-0.9600097630377608,1.023,-1.2187831326611203,1.1428571428571428,0.5,0.4,1.0,2.888888888888889,3.5,3.4444444444444446,3.4444444444444446,0.375,3.111111111111111,2.5,2.25,3.0,2.25,,,,,,,,,,,,
29,240612_093634,LEARNING,1.0,30,3.0,2583.0,,,,,,,,,,30.0,30.0,30.0,cue1.png,Hard,B,,,,,,,,,,,,,,,,,,,,,,,,,,,8,24,Female,1.0,1.0,0.5964918666662319,-0.00023349231627164437,-0.40994786178981824,-0.0007296243607807507,-0.49774016601290405,,,0.0011230068721919534,0.36825830550510363,1.6829999999999998,0.290591637349447,2.032,0.5509354780015777,1.1428571428571428,0.5,0.4,1.0,2.888888888888889,3.5,3.4444444444444446,3.4444444444444446,0.375,3.111111111111111,2.5,2.25,3.0,2.25,,,,,,,,,,,,
30,240612_093652,LEARNING,1.0,31,3.0,2583.0,,,,,,,,,,31.0,31.0,31.0,cue1.png,Hard,B,,,,,,,,,,,,,,,,,,,,,,,,,,,8,24,Female,0.6875,0.75,0.6328358000027947,,,,,-0.0008295140377691575,-0.4218740063695779,0.001172290352176978,0.3917043886068237,,,0.6170000000000002,-1.9308800166344153,1.1428571428571428,0.5,0.4,1.0,2.888888888888889,3.5,3.4444444444444446,3.4444444444444446,0.375,3.111111111111111,2.5,2.25,3.0,2.25,,,,,,,,,,,,
31,240612_093711,LEARNING,1.0,32,1.0,2583.0,,,,,,,,,,32.0,32.0,32.0,cue2.png,Easy,B,,,,,,,,,,,,,,,,,,,,,,,,,,,8,24,Female,1.0,1.0,0.5943713500006803,,,-0.0001888964651501927,-0.19806053898455028,0.0011815284440813726,0.9970078884010313,0.001957645284190614,0.7653285118613621,0.3740000000000001,-2.0957600144098163,2.048,0.5789984093896879,1.1428571428571428,0.5,0.4,1.0,2.888888888888889,3.5,3.4444444444444446,3.4444444444444446,0.375,3.111111111111111,2.5,2.25,3.0,2.25,,,,,,,,,,,,
32,240612_093729,LEARNING,1.0,33,1.0,2583.0,,,,,,,,,,33.0,33.0,33.0,cue2.png,Easy,B,,,,,,,,,,,,,,,,,,,,,,,,,,,8,24,Female,1.0,1.0,0.5323872333343994,-0.0007704637270311869,-0.6465359069262792,-0.0003742964351201956,-0.30081202323503026,0.0021284180159117424,1.6650815277907451,0.0023039713401586106,0.930089390983209,1.346,-0.3237708581760468,1.1210000000000002,-1.046897677908945,1.1428571428571428,0.5,0.4,1.0,2.888888888888889,3.5,3.4444444444444446,3.4444444444444446,0.375,3.111111111111111,2.5,2.25,3.0,2.25,,,,,,,,,,,,
33,240612_093746,LEARNING,1.0,34,1.0,2583.0,,,,,,,,,,34.0,34.0,34.0,cue2.png,Easy,B,,,,,,,,,,,,,,,,,,,,,,,,,,,8,24,Female,1.0,1.0,0.4720135499992466,0.00010195286561465438,-0.2621516882083113,0.0013006102318384363,0.6274467355925404,0.000647643464073689,0.6203277641075787,4.921114002929064e-05,-0.14258841185755514,1.496,-0.0503157414733047,2.2270000000000003,0.8929524542941709,1.1428571428571428,0.5,0.4,1.0,2.888888888888889,3.5,3.4444444444444446,3.4444444444444446,0.375,3.111111111111111,2.5,2.25,3.0,2.25,,,,,,,,,,,,
34,240612_093804,LEARNING,1.0,35,3.0,2583.0,,,,,,,,,,35.0,35.0,35.0,cue1.png,Hard,B,,,,,,,,,,,,,,,,,,,,,,,,,,,8,24,Female,0.6875,0.75,0.5219472166681953,-0.00047148600972693206,-0.514807192400637,0.0004399398544794103,0.1504501172092196,0.00027604974336046736,0.3581515011550073,-0.00037156830325075184,-0.3427696855346,,,1.8980000000000001,0.31590842762615523,1.1428571428571428,0.5,0.4,1.0,2.888888888888889,3.5,3.4444444444444446,3.4444444444444446,0.375,3.111111111111111,2.5,2.25,3.0,2.25,,,,,,,,,,,,
35,240612_093822,LEARNING,1.0,36,3.0,2583.0,,,,,,,,,,36.0,36.0,36.0,cue1.png,Hard,B,,,,,,,,,,,,,,,,,,,,,,,,,,,8,24,Female,1.0,1.0,0.5936021666651262,-0.0016803501995863671,-1.0474292459840229,0.004329752095219111,2.3062432452035617,0.0003593759490895009,0.41694192738213665,-2.5881308290973647e-05,-0.17831283278244764,1.869,0.6296759820608477,2.59,1.5296302101619197,1.1428571428571428,0.5,0.4,1.0,2.888888888888889,3.5,3.4444444444444446,3.4444444444444446,0.375,3.111111111111111,2.5,2.25,3.0,2.25,,,,,,,,,,,,
36,240612_093842,LEARNING,1.0,37,1.0,2583.0,,,,,,,,,,37.0,37.0,37.0,cue2.png,Easy,B,,,,,,,,,,,,,,,,,,,,,,,,,,,8,24,Female,1.0,1.0,0.798336799999864,0.003155540155873092,1.0832500094982707,-0.0008564599146021405,-0.5680343597659454,-0.0006116717084390447,-0.2681763397162452,0.0001449608843573395,-0.09703650555617302,1.229,-0.5370658492041858,2.205,0.854365923635519,1.1428571428571428,0.5,0.4,1.0,2.888888888888889,3.5,3.4444444444444446,3.4444444444444446,0.375,3.111111111111111,2.5,2.25,3.0,2.25,,,,,,,,,,,,
37,240612_093900,LEARNING,1.0,38,3.0,2583.0,,,,,,,,,,38.0,38.0,38.0,cue1.png,Hard,B,,,,,,,,,,,,,,,,,,,,,,,,,,,8,24,Female,1.0,1.0,0.5793070833351521,0.0014088277761391673,0.31365360444504115,-0.002546739782368056,-1.504813180386863,,,8.65246230598556e-05,-0.12483692547276488,1.5230000000000001,-0.0010938204668108486,,,1.1428571428571428,0.5,0.4,1.0,2.888888888888889,3.5,3.4444444444444446,3.4444444444444446,0.375,3.111111111111111,2.5,2.25,3.0,2.25,,,,,,,,,,,,
38,240612_093918,LEARNING,1.0,39,3.0,2583.0,,,,,,,,,,39.0,39.0,39.0,cue1.png,Hard,B,,,,,,,,,,,,,,,,,,,,,,,,,,,8,24,Female,1.0,1.0,0.6045289499985907,-0.0009633436598232587,-0.7315182455218863,0.0012726783306760987,0.6119664509795911,-0.0026380904190945256,-1.6979068629261298,-0.002236106635819287,-1.229803651176395,1.2269999999999999,-0.5407119174268894,2.37,1.1437649035754052,1.1428571428571428,0.5,0.4,1.0,2.888888888888889,3.5,3.4444444444444446,3.4444444444444446,0.375,3.111111111111111,2.5,2.25,3.0,2.25,,,,,,,,,,,,
39,240612_093936,LEARNING,1.0,40,3.0,2583.0,,,,,,,,,,40.0,40.0,40.0,cue1.png,Hard,B,,,,,,,,,,,,,,,,,,,,,,,,,,,8,24,Female,1.0,1.0,0.5055551500008733,-9.499453045436809e-05,-0.34892613931880423,-0.00021877208224484277,-0.21461806054116642,-0.00045896617830299725,-0.1604356460726142,,,1.5090000000000001,-0.02661629802573348,2.041,0.5667208769073895,1.1428571428571428,0.5,0.4,1.0,2.888888888888889,3.5,3.4444444444444446,3.4444444444444446,0.375,3.111111111111111,2.5,2.25,3.0,2.25,,,,,,,,,,,,
40,240612_093954,LEARNING,1.0,41,1.0,2583.0,,,,,,,,,,41.0,41.0,41.0,cue2.png,Easy,B,,,,,,,,,,,,,,,,,,,,,,,,,,,8,24,Female,1.0,1.0,0.5209089666677755,0.0011901596783490897,0.21730907519592302,-0.0022740152787714372,-1.3536651109423967,-0.0003338085071921187,-0.07213121932203155,0.001144083829611055,0.378285440263644,2.4690000000000003,1.7234964488718172,1.7990000000000002,0.14226903966222357,1.1428571428571428,0.5,0.4,1.0,2.888888888888889,3.5,3.4444444444444446,3.4444444444444446,0.375,3.111111111111111,2.5,2.25,3.0,2.25,,,,,,,,,,,,
41,240612_094012,LEARNING,1.0,42,3.0,2583.0,,,,,,,,,,42.0,42.0,42.0,cue1.png,Hard,B,,,,,,,,,,,,,,,,,,,,,,,,,,,8,24,Female,1.0,1.0,0.5234083666667478,0.0057178179889792345,2.212182186303731,-0.0016458242639497394,-1.005512092491594,-0.00035038976571205756,-0.08383005100698089,0.0043888255579109465,1.9219362585186612,1.496,-0.0503157414733047,,,1.1428571428571428,0.5,0.4,1.0,2.888888888888889,3.5,3.4444444444444446,3.4444444444444446,0.375,3.111111111111111,2.5,2.25,3.0,2.25,,,,,,,,,,,,
42,240612_094029,LEARNING,1.0,43,3.0,2583.0,,,,,,,,,,43.0,43.0,43.0,cue1.png,Hard,B,,,,,,,,,,,,,,,,,,,,,,,,,,,8,24,Female,1.0,1.0,0.4401369833321951,-0.004129589681983876,-2.1265570535367955,,,0.0001814923555840276,0.2914369654136555,0.00018130858135929906,-0.0797444814393079,1.4279999999999997,-0.17428206104521504,,,1.1428571428571428,0.5,0.4,1.0,2.888888888888889,3.5,3.4444444444444446,3.4444444444444446,0.375,3.111111111111111,2.5,2.25,3.0,2.25,,,,,,,,,,,,
43,240612_094047,LEARNING,1.0,44,1.0,2583.0,,,,,,,,,,44.0,44.0,44.0,cue2.png,Easy,B,,,,,,,,,,,,,,,,,,,,,,,,,,,8,24,Female,1.0,1.0,0.5785442999998244,0.0012907797928856032,0.26164200563243883,,,-0.0013625905615915939,-0.797983728071183,-1.9513669741065207e-06,-0.16692842176064,1.185,-0.6172793501036569,1.452,-0.4663457848174161,1.1428571428571428,0.5,0.4,1.0,2.888888888888889,3.5,3.4444444444444446,3.4444444444444446,0.375,3.111111111111111,2.5,2.25,3.0,2.25,,,,,,,,,,,,
44,240612_094105,LEARNING,1.0,45,1.0,2583.0,,,,,,,,,,45.0,45.0,45.0,cue2.png,Easy,B,,,,,,,,,,,,,,,,,,,,,,,,,,,8,24,Female,1.0,1.0,0.5297191333326433,-0.00024959951705793085,-0.41704464770856514,0.0039192316559864505,2.0787265716402397,-0.002588580294234687,-1.6629752190620901,0.00017384195464390483,-0.08329664842329222,1.5310000000000001,0.013490452424002083,2.566,1.4875358130797545,1.1428571428571428,0.5,0.4,1.0,2.888888888888889,3.5,3.4444444444444446,3.4444444444444446,0.375,3.111111111111111,2.5,2.25,3.0,2.25,,,,,,,,,,,,
45,240612_094123,LEARNING,1.0,46,1.0,2583.0,,,,,,,,,,46.0,46.0,46.0,cue2.png,Easy,B,,,,,,,,,,,,,,,,,,,,,,,,,,,8,24,Female,1.0,1.0,0.5125076000016028,-0.0006996302880440527,-0.6153268992873915,0.0009392340939488927,0.4271665815727499,-0.0007542137744656922,-0.36874624739034834,6.415377029969378e-05,-0.13547961695945526,1.8360000000000003,0.5695158563862449,,,1.1428571428571428,0.5,0.4,1.0,2.888888888888889,3.5,3.4444444444444446,3.4444444444444446,0.375,3.111111111111111,2.5,2.25,3.0,2.25,,,,,,,,,,,,
46,240612_094141,LEARNING,1.0,47,3.0,2583.0,,,,,,,,,,47.0,47.0,47.0,cue1.png,Hard,B,,,,,,,,,,,,,,,,,,,,,,,,,,,8,24,Female,1.0,1.0,0.5934538666660956,-0.0006808377817152109,-0.6070469755401173,0.002111875728498868,1.0770624173887637,0.0007492647469916867,0.6920261990024144,3.4025664772753365e-05,-0.14981273763390196,1.351,-0.3146556876192889,1.3459999999999999,-0.6522627052636462,1.1428571428571428,0.5,0.4,1.0,2.888888888888889,3.5,3.4444444444444446,3.4444444444444446,0.375,3.111111111111111,2.5,2.25,3.0,2.25,,,,,,,,,,,,
47,240612_094159,LEARNING,1.0,48,3.0,2583.0,,,,,,,,,,48.0,48.0,48.0,cue1.png,Hard,B,,,,,,,,,,,,,,,,,,,,,,,,,,,8,24,Female,1.0,1.0,0.5057259666658259,7.010821100697853e-05,-0.2761823506061826,,,-0.0007381569106215818,-0.3574173999886561,-0.00042743375148223024,-0.3693470689123179,2.4850000000000003,1.7526649946534432,2.252,0.9368007845880921,1.1428571428571428,0.5,0.4,1.0,2.888888888888889,3.5,3.4444444444444446,3.4444444444444446,0.375,3.111111111111111,2.5,2.25,3.0,2.25,,,,,,,,,,,,
48,240612_094217,LEARNING,1.0,49,1.0,2583.0,,,,,,,,,,49.0,49.0,49.0,cue2.png,Easy,B,,,,,,,,,,,,,,,,,,,,,,,,,,,8,24,Female,1.0,1.0,0.5524866499993853,-2.6291499062706426e-05,-0.31865578308343123,,,,,,,,,,,1.1428571428571428,0.5,0.4,1.0,2.888888888888889,3.5,3.4444444444444446,3.4444444444444446,0.375,3.111111111111111,2.5,2.25,3.0,2.25,,,,,,,,,,,,
49,240612_094235,LEARNING,1.0,50,1.0,2583.0,,,,,,,,,,50.0,50.0,50.0,cue2.png,Easy,B,,,,,,,,,,,,,,,,,,,,,,,,,,,8,24,Female,1.0,1.0,0.5565207333335517,,,-0.0015169061381363827,-0.9340637056539058,-0.0008914581609213556,-0.4655784012897779,0.006464897343157085,2.9096049786822538,1.253,-0.49331303053174735,1.4920000000000002,-0.3961884563471403,1.1428571428571428,0.5,0.4,1.0,2.888888888888889,3.5,3.4444444444444446,3.4444444444444446,0.375,3.111111111111111,2.5,2.25,3.0,2.25,,,,,,,,,,,,
0,240612_094407,TrueCHOICE,9.0,1,3.0,2583.0,,,,,,,,,,,1.0,1.0,,,B,,,,,,True,cue2.png,Easy,cue1.png,Hard,Right,Hard,Hard,0.016624200005026,,,,,,,,,,,,,8,24,Female,0.6875,0.75,1.2168856166669382,,,,,,,,,,,,,1.1428571428571428,0.5,0.4,1.0,2.888888888888889,3.5,3.4444444444444446,3.4444444444444446,0.375,3.111111111111111,2.5,2.25,3.0,2.25,0.0008985306798965083,0.8294611866757863,-2.7366153932404172e-05,-0.13836174506058108,1.727,0.05337775030909833,,,,,,
1,240612_094423,TrueCHOICE,9.0,2,3.0,2583.0,,,,,,,,,,,2.0,2.0,,,B,,,,,,True,cue2.png,Easy,cue1.png,Hard,Right,Hard,Hard,0.0161028000002261,,,,,,,,,,,,,8,24,Female,,,,,,,,,,,,,,,,1.1428571428571428,0.5,0.4,1.0,2.888888888888889,3.5,3.4444444444444446,3.4444444444444446,0.375,3.111111111111111,2.5,2.25,3.0,2.25,0.0018833754565025966,2.3476441792623914,-0.0001911503186700879,-0.6600442226361641,1.573,-0.5278466419455156,,,,,,
2,240612_094438,TrueCHOICE,9.0,3,3.0,2583.0,,,,,,,,,,,3.0,3.0,,,B,,,,,,True,cue1.png,Hard,cue2.png,Easy,Left,Hard,Hard,0.0154362000030232,,,,,,,,,,,,,8,24,Female,1.0,1.0,0.4885129666666519,,,,,,,,,,,,,1.1428571428571428,0.5,0.4,1.0,2.888888888888889,3.5,3.4444444444444446,3.4444444444444446,0.375,3.111111111111111,2.5,2.25,3.0,2.25,0.00018135975276886316,-0.27609039892017184,,,,,,,,,,
3,240612_094455,TrueCHOICE,9.0,4,3.0,2583.0,,,,,,,,,,,4.0,4.0,,,B,,,,,,True,cue2.png,Easy,cue1.png,Hard,Right,Hard,Hard,0.0166398000001208,,,,,,,,,,,,,8,24,Female,1.0,1.0,0.6590596333323143,,,,,,,,,,,,,1.1428571428571428,0.5,0.4,1.0,2.888888888888889,3.5,3.4444444444444446,3.4444444444444446,0.375,3.111111111111111,2.5,2.25,3.0,2.25,,,0.00025278947137664584,0.7539850880538355,1.4709999999999999,-0.9128134472050651,,,,,,
4,240612_094510,TrueCHOICE,9.0,5,3.0,2583.0,,,,,,,,,,,5.0,5.0,,,B,,,,,,True,cue1.png,Hard,cue2.png,Easy,Left,Hard,Hard,0.0154607999938889,,,,,,,,,,,,,8,24,Female,0.6875,0.75,0.5459616999990734,,,,,,,,,,,,,1.1428571428571428,0.5,0.4,1.0,2.888888888888889,3.5,3.4444444444444446,3.4444444444444446,0.375,3.111111111111111,2.5,2.25,3.0,2.25,-1.8962074119577635e-05,-0.5848956013744778,,,1.4660000000000002,-0.9316843690315123,,,,,,
5,240612_094526,TrueCHOICE,9.0,6,3.0,2583.0,,,,,,,,,,,6.0,6.0,,,B,,,,,,True,cue1.png,Hard,cue2.png,Easy,Left,Hard,Hard,0.0158441000021412,,,,,,,,,,,,,8,24,Female,1.0,1.0,0.3958964999995563,,,,,,,,,,,,,1.1428571428571428,0.5,0.4,1.0,2.888888888888889,3.5,3.4444444444444446,3.4444444444444446,0.375,3.111111111111111,2.5,2.25,3.0,2.25,9.403992304886236e-05,-0.4106978858515739,,,1.8760000000000001,0.6157312207372634,,,,,,
6,240612_094540,TrueCHOICE,9.0,7,3.0,2583.0,,,,,,,,,,,7.0,7.0,,,B,,,,,,True,cue2.png,Easy,cue1.png,Hard,Right,Hard,Hard,0.0166228000016417,,,,,,,,,,,,,8,24,Female,,,,,,,,,,,,,,,,1.1428571428571428,0.5,0.4,1.0,2.888888888888889,3.5,3.4444444444444446,3.4444444444444446,0.375,3.111111111111111,2.5,2.25,3.0,2.25,-8.218744607473233e-05,-0.6823603863663471,0.0004957440154942858,1.5278396833166397,1.604,-0.41084692662153444,,,,,,
7,240612_094556,TrueCHOICE,9.0,8,3.0,2583.0,,,,,,,,,,,8.0,8.0,,,B,,,,,,True,cue1.png,Hard,cue2.png,Easy,Left,Hard,Hard,0.0174470000056317,,,,,,,,,,,,,8,24,Female,0.6875,0.75,0.4716386166680119,,,,,,,,,,,,,1.1428571428571428,0.5,0.4,1.0,2.888888888888889,3.5,3.4444444444444446,3.4444444444444446,0.375,3.111111111111111,2.5,2.25,3.0,2.25,,,5.8895619454362585e-05,0.13639775768222603,,,,,,,,
8,240612_094612,TrueCHOICE,9.0,9,3.0,2583.0,,,,,,,,,,,9.0,9.0,,,B,,,,,,True,cue2.png,Easy,cue1.png,Hard,Right,Hard,Hard,0.0153907999992952,,,,,,,,,,,,,8,24,Female,1.0,1.0,0.5141754333332452,,,,,,,,,,,,,1.1428571428571428,0.5,0.4,1.0,2.888888888888889,3.5,3.4444444444444446,3.4444444444444446,0.375,3.111111111111111,2.5,2.25,3.0,2.25,-3.526655962006291e-05,-0.6100297069489772,-0.0004924744336108266,-1.6198165613559559,2.273,2.114082413757273,,,,,,
9,240612_094627,TrueCHOICE,9.0,10,3.0,2583.0,,,,,,,,,,,10.0,10.0,,,B,,,,,,True,cue1.png,Hard,cue2.png,Easy,Left,Hard,Hard,0.0161360999991302,,,,,,,,,,,,,8,24,Female,1.0,1.0,0.4319275833319504,,,,,,,,,,,,,1.1428571428571428,0.5,0.4,1.0,2.888888888888889,3.5,3.4444444444444446,3.4444444444444446,0.375,3.111111111111111,2.5,2.25,3.0,2.25,-3.721374808040613e-05,-0.6130313864766297,,,,,,,,,,
0,240612_094840,FalseCHOICE,9.0,1,2.0,2583.0,,,,,,,,,,,1.0,1.0,,,B,,,,,,False,cue2.png,Easy,cue1.png,Hard,Right,Hard,Mid,0.0164647999990847,,,,,,,,,,,,,8,24,Female,1.0,1.0,0.5734813166648868,,,,,,,,,,,,,1.1428571428571428,0.5,0.4,1.0,2.888888888888889,3.5,3.4444444444444446,3.4444444444444446,0.375,3.111111111111111,2.5,2.25,3.0,2.25,0.0008985306798965083,0.8294611866757863,-2.7366153932404172e-05,-0.13836174506058108,1.727,0.05337775030909833,,,,,,
1,240612_094857,FalseCHOICE,9.0,2,2.0,2583.0,,,,,,,,,,,2.0,2.0,,,B,,,,,,False,cue1.png,Hard,cue2.png,Easy,Left,Hard,Mid,0.0160709999981918,,,,,,,,,,,,,8,24,Female,,,,,,,,,,,,,,,,1.1428571428571428,0.5,0.4,1.0,2.888888888888889,3.5,3.4444444444444446,3.4444444444444446,0.375,3.111111111111111,2.5,2.25,3.0,2.25,0.0018833754565025966,2.3476441792623914,-0.0001911503186700879,-0.6600442226361641,1.573,-0.5278466419455156,,,,,,
2,240612_094913,FalseCHOICE,9.0,3,2.0,2583.0,,,,,,,,,,,3.0,3.0,,,B,,,,,,False,cue1.png,Hard,cue2.png,Easy,Left,Hard,Mid,0.0161112999994657,,,,,,,,,,,,,8,24,Female,,,,,,,,,,,,,,,,1.1428571428571428,0.5,0.4,1.0,2.888888888888889,3.5,3.4444444444444446,3.4444444444444446,0.375,3.111111111111111,2.5,2.25,3.0,2.25,0.00018135975276886316,-0.27609039892017184,,,,,,,,,,
3,240612_094929,FalseCHOICE,9.0,4,2.0,2583.0,,,,,,,,,,,4.0,4.0,,,B,,,,,,False,cue1.png,Hard,cue2.png,Easy,Left,Hard,Mid,0.0161946000007446,,,,,,,,,,,,,8,24,Female,1.0,1.0,0.6822413500000645,,,,,,,,,,,,,1.1428571428571428,0.5,0.4,1.0,2.888888888888889,3.5,3.4444444444444446,3.4444444444444446,0.375,3.111111111111111,2.5,2.25,3.0,2.25,,,0.00025278947137664584,0.7539850880538355,1.4709999999999999,-0.9128134472050651,,,,,,
4,240612_094945,FalseCHOICE,9.0,5,2.0,2583.0,,,,,,,,,,,5.0,5.0,,,B,,,,,,False,cue2.png,Easy,cue1.png,Hard,Right,Hard,Mid,0.0161671999958343,,,,,,,,,,,,,8,24,Female,,,,,,,,,,,,,,,,1.1428571428571428,0.5,0.4,1.0,2.888888888888889,3.5,3.4444444444444446,3.4444444444444446,0.375,3.111111111111111,2.5,2.25,3.0,2.25,-1.8962074119577635e-05,-0.5848956013744778,,,1.4660000000000002,-0.9316843690315123,,,,,,
5,240612_095002,FalseCHOICE,9.0,6,2.0,2583.0,,,,,,,,,,,6.0,6.0,,,B,,,,,,False,cue1.png,Hard,cue2.png,Easy,Left,Hard,Mid,0.0162263000020175,,,,,,,,,,,,,8,24,Female,0.125,0.5,0.586870133333529,,,,,,,,,,,,,1.1428571428571428,0.5,0.4,1.0,2.888888888888889,3.5,3.4444444444444446,3.4444444444444446,0.375,3.111111111111111,2.5,2.25,3.0,2.25,9.403992304886236e-05,-0.4106978858515739,,,1.8760000000000001,0.6157312207372634,,,,,,
6,240612_095017,FalseCHOICE,9.0,7,2.0,2583.0,,,,,,,,,,,7.0,7.0,,,B,,,,,,False,cue1.png,Hard,cue2.png,Easy,Left,Hard,Mid,0.0160356999986106,,,,,,,,,,,,,8,24,Female,1.0,1.0,0.3738306999997197,,,,,,,,,,,,,1.1428571428571428,0.5,0.4,1.0,2.888888888888889,3.5,3.4444444444444446,3.4444444444444446,0.375,3.111111111111111,2.5,2.25,3.0,2.25,-8.218744607473233e-05,-0.6823603863663471,0.0004957440154942858,1.5278396833166397,1.604,-0.41084692662153444,,,,,,
7,240612_095033,FalseCHOICE,9.0,8,2.0,2583.0,,,,,,,,,,,8.0,8.0,,,B,,,,,,False,cue2.png,Easy,cue1.png,Hard,Right,Hard,Mid,0.0165338000006158,,,,,,,,,,,,,8,24,Female,,,,,,,,,,,,,,,,1.1428571428571428,0.5,0.4,1.0,2.888888888888889,3.5,3.4444444444444446,3.4444444444444446,0.375,3.111111111111111,2.5,2.25,3.0,2.25,,,5.8895619454362585e-05,0.13639775768222603,,,,,,,,
8,240612_095050,FalseCHOICE,9.0,9,2.0,2583.0,,,,,,,,,,,9.0,9.0,,,B,,,,,,False,cue2.png,Easy,cue1.png,Hard,Right,Hard,Mid,0.0168188000025111,,,,,,,,,,,,,8,24,Female,0.6875,0.75,0.5453317833331918,,,,,,,,,,,,,1.1428571428571428,0.5,0.4,1.0,2.888888888888889,3.5,3.4444444444444446,3.4444444444444446,0.375,3.111111111111111,2.5,2.25,3.0,2.25,-3.526655962006291e-05,-0.6100297069489772,-0.0004924744336108266,-1.6198165613559559,2.273,2.114082413757273,,,,,,
9,240612_095106,FalseCHOICE,9.0,10,2.0,2583.0,,,,,,,,,,,10.0,10.0,,,B,,,,,,False,cue1.png,Hard,cue2.png,Easy,Left,Hard,Mid,0.0160424999994575,,,,,,,,,,,,,8,24,Female,,,,,,,,,,,,,,,,1.1428571428571428,0.5,0.4,1.0,2.888888888888889,3.5,3.4444444444444446,3.4444444444444446,0.375,3.111111111111111,2.5,2.25,3.0,2.25,-3.721374808040613e-05,-0.6130313864766297,,,,,,,,,,
0,240612_092656,OFFLINERATING,9.0,1,1.0,,,,,,,,,,,,,,,,,T0,cue2.png,Easy,34.0,2.328686399996513,,,,,,,,,,,,,,,,,,,,,,8,24,Female,,,,,,,,,,,,,,,,1.1428571428571428,0.5,0.4,1.0,2.888888888888889,3.5,3.4444444444444446,3.4444444444444446,0.375,3.111111111111111,2.5,2.25,3.0,2.25,,,,,,,,,,,1.579,0.7911413130665216
1,240612_092704,OFFLINERATING,9.0,2,3.0,,,,,,,,,,,,,,,,,T0,cue1.png,Hard,67.0,1.8186191999993755,,,,,,,,,,,,,,,,,,,,,,8,24,Female,,,,,,,,,,,,,,,,1.1428571428571428,0.5,0.4,1.0,2.888888888888889,3.5,3.4444444444444446,3.4444444444444446,0.375,3.111111111111111,2.5,2.25,3.0,2.25,,,,,,,-1.9572904447107305e-06,-1.0,,,,
2,240612_094301,OFFLINERATING,9.0,3,1.0,,,,,,,,,,,,,,,,,T1,cue2.png,Easy,20.0,1.8856199000001648,,,,,,,,,,,,,,,,,,,,,,8,24,Female,,,,,,,,,,,,,,,,1.1428571428571428,0.5,0.4,1.0,2.888888888888889,3.5,3.4444444444444446,3.4444444444444446,0.375,3.111111111111111,2.5,2.25,3.0,2.25,,,,,,,,,-0.00011129343575850582,0.5207493157731595,,
3,240612_094309,OFFLINERATING,9.0,4,3.0,,,,,,,,,,,,,,,,,T1,cue1.png,Hard,40.0,1.2518568999948911,,,,,,,,,,,,,,,,,,,,,,8,24,Female,,,,,,,,,,,,,,,,1.1428571428571428,0.5,0.4,1.0,2.888888888888889,3.5,3.4444444444444446,3.4444444444444446,0.375,3.111111111111111,2.5,2.25,3.0,2.25,,,,,,,,,-4.6729606350266566e-05,0.5696152667578424,1.4480000000000002,0.6196000518057533
4,240612_094653,OFFLINERATING,9.0,5,1.0,,,,,,,,,,,,,,,,,T2,cue2.png,Easy,47.0,1.3853797000047052,,,,,,,,,,,,,,,,,,,,,,8,24,Female,,,,,,,,,,,,,,,,1.1428571428571428,0.5,0.4,1.0,2.888888888888889,3.5,3.4444444444444446,3.4444444444444446,0.375,3.111111111111111,2.5,2.25,3.0,2.25,,,,,,,,,,,-0.10250000000000004,-1.4107413648722746
5,240612_094700,OFFLINERATING,9.0,6,3.0,,,,,,,,,,,,,,,,,T2,cue1.png,Hard,56.0,0.8348636000009719,,,,,,,,,,,,,,,,,,,,,,8,24,Female,,,,,,,,,,,,,,,,1.1428571428571428,0.5,0.4,1.0,2.888888888888889,3.5,3.4444444444444446,3.4444444444444446,0.375,3.111111111111111,2.5,2.25,3.0,2.25,,,,,,,,,-0.0030857298480293383,-1.730490507844458,,
6,240612_100201,OFFLINERATING,9.0,7,1.0,,,,,,,,,,,,,,,,,T3,cue2.png,Easy,35.0,1.8151178999978583,,,,,,,,,,,,,,,,,,,,,,8,24,Female,,,,,,,,,,,,,,,,1.1428571428571428,0.5,0.4,1.0,2.888888888888889,3.5,3.4444444444444446,3.4444444444444446,0.375,3.111111111111111,2.5,2.25,3.0,2.25,,,,,,,0.00011871738789843772,1.0,4.643215636410732e-05,0.6401259253134561,,
7,240612_100209,OFFLINERATING,9.0,8,3.0,,,,,,,,,,,,,,,,,T3,cue1.png,Hard,37.0,1.4519204000025638,,,,,,,,,,,,,,,,,,,,,,8,24,Female,,,,,,,,,,,,,,,,1.1428571428571428,0.5,0.4,1.0,2.888888888888889,3.5,3.4444444444444446,3.4444444444444446,0.375,3.111111111111111,2.5,2.25,3.0,2.25,,,,,,,,,,,,
