,END,Phase,Block,TrialN,NbackLevel,ISI,Letter_Resp,Letter_RT,Letter_Accuracy,Trial_A_measure,Trial_ACC,Trial_RT,TrialCountCali,CaliEnd_A_measure,ISI_calibrated,TrialIndex,TrialNumber_total,TrialNumber_valid,CueLearning,TrialDemandLearning,CueMapping,OfflineRatingTimePoint,CueFigure,TrialDemand,OfflineRating,OfflineRatingRT,PhaseType,CueLeft,CueDemandLeft,CueRight,CueDemandRight,Choice,ChoiceDemand,TaskDemand,ChoiceRT,CueCheck,CueDemandCheck,CorrectAnswer,Answer,AnswerDemand,AnswerRT,AnswerACC,DemandRatingQuesIndex,QuesTLX,DemandLevel,DemandRating,DemandRatingRT,PID,Age,Gender,BAI_bis,BAI_bas_d,BAI_bas_rr,BAI_bas_fs,NFC,BFI_ext,BFI_agr,BFI_con,BFI_neu,BFI_open,UPPS_lps,UPPS_lpm,UPPS_pu,UPPS_ss,Task_A_measure,Task_ACC,Task_RT,Task_RT_z,cue_i_on_zyg_values,cue_i_on_zyg_zvalues,cue_e_on_zyg_values,cue_e_on_zyg_zvalues,cue_i_on_cor_values,cue_i_on_cor_zvalues,cue_e_on_cor_values,cue_e_on_cor_zvalues,cue_i_on_scr_values,cue_i_on_scr_zvalues,cue_e_on_scr_values,cue_e_on_scr_zvalues,cue_e_true_zyg_values,cue_e_true_zyg_zvalues,cue_e_true_cor_values,cue_e_true_cor_zvalues,cue_e_true_scr_values,cue_e_true_scr_zvalues,cue_e_false_zyg_values,cue_e_false_zyg_zvalues,cue_e_false_cor_values,cue_e_false_cor_zvalues,cue_e_false_scr_values,cue_e_false_scr_zvalues,OfflineRating_z,cue_i_off_zyg_values,cue_i_off_zyg_zvalues,cue_i_off_cor_values,cue_i_off_cor_zvalues,cue_i_off_scr_values,cue_i_off_scr_zvalues,DemandRating_z
0,240612_092522,PRACTICE,0.0,1,1.0,2583.0,,,,,,,,,,49.0,1.0,1.0,cue2.png,Easy,B,,,,,,,,,,,,,,,,,,,,,,,,,,,8,24,Female,1.1428571428571428,0.5,0.4,1.0,2.888888888888889,3.5,3.4444444444444446,3.4444444444444446,0.375,3.111111111111111,2.5,2.25,3.0,2.25,,,,,,,,,,,,,,,,,,,,,,,,,,,,,,,,,,,,
0,240612_092737,LEARNING,1.0,1,1.0,2583.0,,,,,,,,,,1.0,1.0,1.0,cue2.png,Easy,B,,,,,,,,,,,,,,,,,,,,,,,,,,,8,24,Female,1.1428571428571428,0.5,0.4,1.0,2.888888888888889,3.5,3.4444444444444446,3.4444444444444446,0.375,3.111111111111111,2.5,2.25,3.0,2.25,1.0,1.0,0.8337642166673808,2.625395510752314,-0.0008605090160311731,-0.686209599922561,0.0012626213224961333,0.6063927040271087,,,-0.0006815119664613078,-0.49022203440879447,1.279,-0.4459141436366053,,,,,,,,,,,,,,,,,,,,,,
1,240612_092756,LEARNING,1.0,2,3.0,2583.0,,,,,,,,,,2.0,2.0,2.0,cue1.png,Hard,B,,,,,,,,,,,,,,,,,,,,,,,,,,,8,24,Female,1.1428571428571428,0.5,0.4,1.0,2.888888888888889,3.5,3.4444444444444446,3.4444444444444446,0.375,3.111111111111111,2.5,2.25,3.0,2.25,1.0,1.0,0.5760878166668894,-0.22135513659950934,0.004833306718648254,1.822469087699895,,,-0.000822302028999653,-0.4167856063181972,-0.0012005456396594017,-0.7371466963460463,1.1130000000000002,-0.7485378061209729,1.162,-0.9749864162269131,,,,,,,,,,,,,,,,,,,,
2,240612_092814,LEARNING,1.0,3,1.0,2583.0,,,,,,,,,,3.0,3.0,3.0,cue2.png,Easy,B,,,,,,,,,,,,,,,,,,,,,,,,,,,8,24,Female,1.1428571428571428,0.5,0.4,1.0,2.888888888888889,3.5,3.4444444444444446,3.4444444444444446,0.375,3.111111111111111,2.5,2.25,3.0,2.25,1.0,1.0,0.640335133333186,0.4884347017793599,,,0.0003777133593967606,0.11596324684736382,,,-0.003565129285450294,-1.8620718168332282,,,1.5749999999999997,-0.2506119997713196,,,,,,,,,,,,,,,,,,,,
3,240612_092832,LEARNING,1.0,4,3.0,2583.0,,,,,,,,,,4.0,4.0,4.0,cue1.png,Hard,B,,,,,,,,,,,,,,,,,,,,,,,,,,,8,24,Female,1.1428571428571428,0.5,0.4,1.0,2.888888888888889,3.5,3.4444444444444446,3.4444444444444446,0.375,3.111111111111111,2.5,2.25,3.0,2.25,1.0,1.0,0.539075683333067,-0.6302568230858537,0.0038407033376636705,1.3851309188562182,-0.0019886680699923026,-1.195521346229104,-0.001498965043273721,-0.8942021246062186,-0.001764066540667895,-1.0052356762357786,1.579,0.10099608976887928,1.5830000000000002,-0.2365805340772637,,,,,,,,,,,,,,,,,,,,
4,240612_092850,LEARNING,1.0,5,3.0,2583.0,,,,,,,,,,5.0,5.0,5.0,cue1.png,Hard,B,,,,,,,,,,,,,,,,,,,,,,,,,,,8,24,Female,1.1428571428571428,0.5,0.4,1.0,2.888888888888889,3.5,3.4444444444444446,3.4444444444444446,0.375,3.111111111111111,2.5,2.25,3.0,2.25,1.0,1.0,0.551127800001268,-0.49710776121175265,,,-0.0011193633331494177,-0.7137394344465327,0.0011849479351030093,0.999420494769976,0.00013094770014892513,-0.10370312653281731,1.5019999999999998,-0.0393775368051954,,,,,,,,,,,,,,,,,,,,,,
5,240612_092909,LEARNING,1.0,6,1.0,2583.0,,,,,,,,,,6.0,6.0,6.0,cue2.png,Easy,B,,,,,,,,,,,,,,,,,,,,,,,,,,,8,24,Female,1.1428571428571428,0.5,0.4,1.0,2.888888888888889,3.5,3.4444444444444446,3.4444444444444446,0.375,3.111111111111111,2.5,2.25,3.0,2.25,1.0,1.0,0.6919481833332005,1.0586440166373097,0.0028638020529809186,0.9547110480711656,-0.0032660235535085505,-1.9034511903818288,-0.00016863288582199838,0.044407690588956654,-0.0016787161827497314,-0.9646311656549739,0.08299999999999996,-2.626262940813137,1.637,-0.14186814064239217,,,,,,,,,,,,,,,,,,,,
6,240612_092928,LEARNING,1.0,7,3.0,2583.0,,,,,,,,,,7.0,7.0,7.0,cue1.png,Hard,B,,,,,,,,,,,,,,,,,,,,,,,,,,,8,24,Female,1.1428571428571428,0.5,0.4,1.0,2.888888888888889,3.5,3.4444444444444446,3.4444444444444446,0.375,3.111111111111111,2.5,2.25,3.0,2.25,1.0,1.0,0.6228657499996189,0.29543690177293835,0.001410962070645024,0.3145939684099902,-2.6861279624649376e-05,-0.10825817377248861,0.0009390728802094045,0.825944465838333,-0.0014769365027593618,-0.8686366631009692,,,1.2109999999999999,-0.8890436888508257,,,,,,,,,,,,,,,,,,,,
7,240612_092947,LEARNING,1.0,8,3.0,2583.0,,,,,,,,,,8.0,8.0,8.0,cue1.png,Hard,B,,,,,,,,,,,,,,,,,,,,,,,,,,,8,24,Female,1.1428571428571428,0.5,0.4,1.0,2.888888888888889,3.5,3.4444444444444446,3.4444444444444446,0.375,3.111111111111111,2.5,2.25,3.0,2.25,0.6875,0.75,0.7642744500008121,1.8576882692587027,-0.0006045214116503338,-0.573422204381406,0.002797728819568365,1.4571726358347141,-0.005203062548862051,-3.5076113064490926,,,2.687,2.1209178851464685,2.894,2.0628259065360135,,,,,,,,,,,,,,,,,,,,
8,240612_093005,LEARNING,1.0,9,1.0,2583.0,,,,,,,,,,9.0,9.0,9.0,cue2.png,Easy,B,,,,,,,,,,,,,,,,,,,,,,,,,,,8,24,Female,1.1428571428571428,0.5,0.4,1.0,2.888888888888889,3.5,3.4444444444444446,3.4444444444444446,0.375,3.111111111111111,2.5,2.25,3.0,2.25,1.0,1.0,0.634540533334075,0.4244172702311749,,,0.00045735892636555083,0.1601040318827567,0.0012618146390636154,1.053653448844639,0.0016882074900045289,0.6371463925152714,,,0.5709999999999997,-2.011560944375233,,,,,,,,,,,,,,,,,,,,
9,240612_093025,LEARNING,1.0,10,1.0,2583.0,,,,,,,,,,10.0,10.0,10.0,cue2.png,Easy,B,,,,,,,,,,,,,,,,,,,,,,,,,,,8,24,Female,1.1428571428571428,0.5,0.4,1.0,2.888888888888889,3.5,3.4444444444444446,3.4444444444444446,0.375,3.111111111111111,2.5,2.25,3.0,2.25,0.6875,0.75,0.7504396166659717,1.704844156441672,0.009110507481079177,3.7069913299703687,-0.0012747448089430518,-0.7998542124878081,0.0005350539955766885,0.5408907756630387,0.0009389657255166745,0.28070271851336487,,,,,,,,,,,,,,,,,,,,,,,,
10,240612_093044,LEARNING,1.0,11,3.0,2583.0,,,,,,,,,,11.0,11.0,11.0,cue1.png,Hard,B,,,,,,,,,,,,,,,,,,,,,,,,,,,8,24,Female,1.1428571428571428,0.5,0.4,1.0,2.888888888888889,3.5,3.4444444444444446,3.4444444444444446,0.375,3.111111111111111,2.5,2.25,3.0,2.25,1.0,1.0,0.7344053499994819,1.5277012011203681,-0.0013320449358702672,-0.8939669576719311,,,0.002487750549368807,1.9186069657293443,,,,,0.6950000000000001,-1.7940732261173784,,,,,,,,,,,,,,,,,,,,
11,240612_093102,LEARNING,1.0,12,1.0,2583.0,,,,,,,,,,12.0,12.0,12.0,cue2.png,Easy,B,,,,,,,,,,,,,,,,,,,,,,,,,,,8,24,Female,1.1428571428571428,0.5,0.4,1.0,2.888888888888889,3.5,3.4444444444444446,3.4444444444444446,0.375,3.111111111111111,2.5,2.25,3.0,2.25,0.6875,0.75,0.5458578333333813,-0.5553291622531379,0.002311634521499878,0.7114276362482892,-0.0032634208822189302,-1.9020087503530203,-0.00010772977886334793,0.08737760125906338,-0.001094935745190235,-0.68690393015258,2.519,1.8146481544393978,2.475,1.3279278908098782,,,,,,,,,,,,,,,,,,,,
12,240612_093120,LEARNING,1.0,13,1.0,2583.0,,,,,,,,,,13.0,13.0,13.0,cue2.png,Easy,B,,,,,,,,,,,,,,,,,,,,,,,,,,,8,24,Female,1.1428571428571428,0.5,0.4,1.0,2.888888888888889,3.5,3.4444444444444446,3.4444444444444446,0.375,3.111111111111111,2.5,2.25,3.0,2.25,1.0,1.0,0.5541423166675182,-0.46380406218815473,0.00047248024398941933,-0.09889840067252678,0.0016068777085730427,0.7971848311123068,0.00031510768563054823,0.3857086550362212,0.0019164947507431104,0.7457515901995101,,,,,,,,,,,,,,,,,,,,,,,,
13,240612_093138,LEARNING,1.0,14,1.0,2583.0,,,,,,,,,,14.0,14.0,14.0,cue2.png,Easy,B,,,,,,,,,,,,,,,,,,,,,,,,,,,8,24,Female,1.1428571428571428,0.5,0.4,1.0,2.888888888888889,3.5,3.4444444444444446,3.4444444444444446,0.375,3.111111111111111,2.5,2.25,3.0,2.25,1.0,1.0,0.5279058333326248,-0.7536588021554195,0.001726585546279141,0.4536567557450311,-0.00226528978751618,-1.3488293109288514,-0.0021922898034457943,-1.3833742620834446,,,,,,,,,,,,,,,,,,,,,,,,,,
14,240612_093156,LEARNING,1.0,15,3.0,2583.0,,,,,,,,,,15.0,15.0,15.0,cue1.png,Hard,B,,,,,,,,,,,,,,,,,,,,,,,,,,,8,24,Female,1.1428571428571428,0.5,0.4,1.0,2.888888888888889,3.5,3.4444444444444446,3.4444444444444446,0.375,3.111111111111111,2.5,2.25,3.0,2.25,0.6875,0.75,0.6565558999997544,0.667638066963398,0.0001816611307799347,-0.22703245791260934,,,,,,,,,,,,,,,,,,,,,,,,,,,,,,
15,240612_093215,LEARNING,1.0,16,1.0,2583.0,,,,,,,,,,16.0,16.0,16.0,cue2.png,Easy,B,,,,,,,,,,,,,,,,,,,,,,,,,,,8,24,Female,1.1428571428571428,0.5,0.4,1.0,2.888888888888889,3.5,3.4444444444444446,3.4444444444444446,0.375,3.111111111111111,2.5,2.25,3.0,2.25,0.6875,0.75,0.6143481166679218,0.2013360132132259,0.0003538248031808894,-0.15117764352083196,,,,,,,,,,,,,,,,,,,,,,,,,,,,,,
16,240612_093233,LEARNING,1.0,17,1.0,2583.0,,,,,,,,,,17.0,17.0,17.0,cue2.png,Easy,B,,,,,,,,,,,,,,,,,,,,,,,,,,,8,24,Female,1.1428571428571428,0.5,0.4,1.0,2.888888888888889,3.5,3.4444444444444446,3.4444444444444446,0.375,3.111111111111111,2.5,2.25,3.0,2.25,1.0,1.0,0.6020072833331748,0.06499727484027054,0.0005039962279224505,-0.08501254962000787,0.00040712022173264653,0.1322609773844869,0.0007123034899488038,0.6659483518662109,,,,,,,,,,,,,,,,,,,,,,,,,,
17,240612_093251,LEARNING,1.0,18,3.0,2583.0,,,,,,,,,,18.0,18.0,18.0,cue1.png,Hard,B,,,,,,,,,,,,,,,,,,,,,,,,,,,8,24,Female,1.1428571428571428,0.5,0.4,1.0,2.888888888888889,3.5,3.4444444444444446,3.4444444444444446,0.375,3.111111111111111,2.5,2.25,3.0,2.25,1.0,1.0,0.5302077500006513,-0.7282277469061139,,,0.0014051772038058993,0.6853993424617517,,,-0.00017284649131139689,-0.24822993066602603,,,,,,,,,,,,,,,,,,,,,,,,
18,240612_093309,LEARNING,1.0,19,3.0,2583.0,,,,,,,,,,19.0,19.0,19.0,cue1.png,Hard,B,,,,,,,,,,,,,,,,,,,,,,,,,,,8,24,Female,1.1428571428571428,0.5,0.4,1.0,2.888888888888889,3.5,3.4444444444444446,3.4444444444444446,0.375,3.111111111111111,2.5,2.25,3.0,2.25,1.0,1.0,0.5278895666657869,-0.7538385126153251,6.394853726299958e-05,-0.2788962849806496,8.352400247207872e-06,-0.0887422166051816,-0.0004937433625436197,-0.18497253055688165,0.0003215873789898056,-0.013008359159517067,,,,,,,,,,,,,,,,,,,,,,,,
19,240612_093327,LEARNING,1.0,20,3.0,2583.0,,,,,,,,,,20.0,20.0,20.0,cue1.png,Hard,B,,,,,,,,,,,,,,,,,,,,,,,,,,,8,24,Female,1.1428571428571428,0.5,0.4,1.0,2.888888888888889,3.5,3.4444444444444446,3.4444444444444446,0.375,3.111111111111111,2.5,2.25,3.0,2.25,0.6875,0.75,0.5698921500006691,-0.2898034620682177,-0.0006109361354791425,-0.5762485130830209,,,-0.0015855180224687779,-0.9552691862056916,,,2.035,0.9322996445452161,2.443,1.2718020280336577,,,,,,,,,,,,,,,,,,,,
20,240612_093345,LEARNING,1.0,21,1.0,2583.0,,,,,,,,,,21.0,21.0,21.0,cue2.png,Easy,B,,,,,,,,,,,,,,,,,,,,,,,,,,,8,24,Female,1.1428571428571428,0.5,0.4,1.0,2.888888888888889,3.5,3.4444444444444446,3.4444444444444446,0.375,3.111111111111111,2.5,2.25,3.0,2.25,1.0,1.0,0.4899011999987124,-1.1735254043955832,-0.0004051126093352381,-0.48556326482259615,-4.6858239643394854e-05,-0.11934079327213605,-8.745282943740593e-06,0.15721566305579313,,,2.146,1.134656430905245,1.5119999999999998,-0.3611097921120033,,,,,,,,,,,,,,,,,,,,
21,240612_093405,LEARNING,1.0,22,3.0,2583.0,,,,,,,,,,22.0,22.0,22.0,cue1.png,Hard,B,,,,,,,,,,,,,,,,,,,,,,,,,,,8,24,Female,1.1428571428571428,0.5,0.4,1.0,2.888888888888889,3.5,3.4444444444444446,3.4444444444444446,0.375,3.111111111111111,2.5,2.25,3.0,2.25,0.1875,0.5833333333333334,0.532116260001203,-0.7071429596320848,,,0.00035638720074376504,0.1041439652406243,,,-0.00015647933474723184,-0.24044343277547767,1.4170000000000003,-0.1943354362700818,1.8200000000000003,0.1791016371091184,,,,,,,,,,,,,,,,,,,,
22,240612_093423,LEARNING,1.0,23,3.0,2583.0,,,,,,,,,,23.0,23.0,23.0,cue1.png,Hard,B,,,,,,,,,,,,,,,,,,,,,,,,,,,8,24,Female,1.1428571428571428,0.5,0.4,1.0,2.888888888888889,3.5,3.4444444444444446,3.4444444444444446,0.375,3.111111111111111,2.5,2.25,3.0,2.25,1.0,1.0,0.5805763166645193,-0.17176720276518376,-0.00018270040090932185,-0.3875690912938046,0.0013498938935836082,0.6547604907912837,0.002686032244004181,2.0585037153612484,-0.004732220948943043,-2.417303065476597,1.359,-0.300071414728476,1.4560000000000002,-0.4593300519703882,,,,,,,,,,,,,,,,,,,,
23,240612_093442,LEARNING,1.0,24,3.0,2583.0,,,,,,,,,,24.0,24.0,24.0,cue1.png,Hard,B,,,,,,,,,,,,,,,,,,,,,,,,,,,8,24,Female,1.1428571428571428,0.5,0.4,1.0,2.888888888888889,3.5,3.4444444444444446,3.4444444444444446,0.375,3.111111111111111,2.5,2.25,3.0,2.25,1.0,1.0,0.6878914499999761,1.0138261433572253,-0.00021279363968209524,-0.4008280849579262,0.000147949099283483,-0.011375602010985116,-0.0002807150204725698,-0.034671350763068466,0.0001244393640760285,-0.10679939709783066,2.1020000000000003,1.0544429300057745,1.946,0.4000972217904854,,,,,,,,,,,,,,,,,,,,
24,240612_093502,LEARNING,1.0,25,1.0,2583.0,,,,,,,,,,25.0,25.0,25.0,cue2.png,Easy,B,,,,,,,,,,,,,,,,,,,,,,,,,,,8,24,Female,1.1428571428571428,0.5,0.4,1.0,2.888888888888889,3.5,3.4444444444444446,3.4444444444444446,0.375,3.111111111111111,2.5,2.25,3.0,2.25,1.0,1.0,0.8806421333344284,3.1432921424119002,8.399792411147846e-05,-0.2700625833242491,0.0032307481293256807,1.6971585257670663,0.00010387369769502414,0.23667347365799682,0.005712426152070388,2.5516249398694537,1.0099999999999998,-0.93631031959019,1.2060000000000002,-0.8978133549096097,,,,,,,,,,,,,,,,,,,,
25,240612_093521,LEARNING,1.0,26,1.0,2583.0,,,,,,,,,,26.0,26.0,26.0,cue2.png,Easy,B,,,,,,,,,,,,,,,,,,,,,,,,,,,8,24,Female,1.1428571428571428,0.5,0.4,1.0,2.888888888888889,3.5,3.4444444444444446,3.4444444444444446,0.375,3.111111111111111,2.5,2.25,3.0,2.25,1.0,1.0,0.6178970500004652,0.24054382681900166,,,,,,,,,1.862,0.6169147432813866,1.496,-0.3891727235001131,,,,,,,,,,,,,,,,,,,,
26,240612_093539,LEARNING,1.0,27,3.0,2583.0,,,,,,,,,,27.0,27.0,27.0,cue1.png,Hard,B,,,,,,,,,,,,,,,,,,,,,,,,,,,8,24,Female,1.1428571428571428,0.5,0.4,1.0,2.888888888888889,3.5,3.4444444444444446,3.4444444444444446,0.375,3.111111111111111,2.5,2.25,3.0,2.25,1.0,1.0,0.5987674000001183,0.029203775801533195,,,,,-0.0002806782545890889,-0.034645410760862104,,,1.4370000000000003,-0.15787475404304946,1.8900000000000001,0.3018769619321001,,,,,,,,,,,,,,,,,,,,
27,240612_093557,LEARNING,1.0,28,1.0,2583.0,,,,,,,,,,28.0,28.0,28.0,cue2.png,Easy,B,,,,,,,,,,,,,,,,,,,,,,,,,,,8,24,Female,1.1428571428571428,0.5,0.4,1.0,2.888888888888889,3.5,3.4444444444444446,3.4444444444444446,0.375,3.111111111111111,2.5,2.25,3.0,2.25,1.0,1.0,0.6159453666659829,0.21898207030636468,,,0.0004752727198171214,0.17003212877513063,-0.000679787454679474,-0.3162350952928058,0.00019889325075758083,-0.07137876497298555,0.9089999999999998,-1.120436764836703,1.4749999999999999,-0.42600532094700794,,,,,,,,,,,,,,,,,,,,
28,240612_093616,LEARNING,1.0,29,1.0,2583.0,,,,,,,,,,29.0,29.0,29.0,cue2.png,Easy,B,,,,,,,,,,,,,,,,,,,,,,,,,,,8,24,Female,1.1428571428571428,0.5,0.4,1.0,2.888888888888889,3.5,3.4444444444444446,3.4444444444444446,0.375,3.111111111111111,2.5,2.25,3.0,2.25,1.0,1.0,0.5900013999974666,-0.06764101162248873,,,0.0018082804030901075,0.908805268791033,-0.00013307284025509264,0.06949691932850671,0.0025249931552518666,1.035238131403815,0.9969999999999999,-0.9600097630377608,1.023,-1.2187831326611203,,,,,,,,,,,,,,,,,,,,
29,240612_093634,LEARNING,1.0,30,3.0,2583.0,,,,,,,,,,30.0,30.0,30.0,cue1.png,Hard,B,,,,,,,,,,,,,,,,,,,,,,,,,,,8,24,Female,1.1428571428571428,0.5,0.4,1.0,2.888888888888889,3.5,3.4444444444444446,3.4444444444444446,0.375,3.111111111111111,2.5,2.25,3.0,2.25,1.0,1.0,0.5964918666662319,0.004064197666711964,-0.00023349231627164437,-0.40994786178981824,-0.0007296243607807507,-0.49774016601290405,,,0.0011230068721919534,0.36825830550510363,1.6829999999999998,0.290591637349447,2.032,0.5509354780015777,,,,,,,,,,,,,,,,,,,,
30,240612_093652,LEARNING,1.0,31,3.0,2583.0,,,,,,,,,,31.0,31.0,31.0,cue1.png,Hard,B,,,,,,,,,,,,,,,,,,,,,,,,,,,8,24,Female,1.1428571428571428,0.5,0.4,1.0,2.888888888888889,3.5,3.4444444444444446,3.4444444444444446,0.375,3.111111111111111,2.5,2.25,3.0,2.25,0.6875,0.75,0.6328358000027947,0.40558376155760156,,,,,-0.0008295140377691575,-0.4218740063695779,0.001172290352176978,0.3917043886068237,,,0.6170000000000002,-1.9308800166344153,,,,,,,,,,,,,,,,,,,,
31,240612_093711,LEARNING,1.0,32,1.0,2583.0,,,,,,,,,,32.0,32.0,32.0,cue2.png,Easy,B,,,,,,,,,,,,,,,,,,,,,,,,,,,8,24,Female,1.1428571428571428,0.5,0.4,1.0,2.888888888888889,3.5,3.4444444444444446,3.4444444444444446,0.375,3.111111111111111,2.5,2.25,3.0,2.25,1.0,1.0,0.5943713500006803,-0.01936279134108139,,,-0.0001888964651501927,-0.19806053898455028,0.0011815284440813726,0.9970078884010313,0.001957645284190614,0.7653285118613621,0.3740000000000001,-2.0957600144098163,2.048,0.5789984093896879,,,,,,,,,,,,,,,,,,,,
32,240612_093729,LEARNING,1.0,33,1.0,2583.0,,,,,,,,,,33.0,33.0,33.0,cue2.png,Easy,B,,,,,,,,,,,,,,,,,,,,,,,,,,,8,24,Female,1.1428571428571428,0.5,0.4,1.0,2.888888888888889,3.5,3.4444444444444446,3.4444444444444446,0.375,3.111111111111111,2.5,2.25,3.0,2.25,1.0,1.0,0.5323872333343994,-0.7041493074711173,-0.0007704637270311869,-0.6465359069262792,-0.0003742964351201956,-0.30081202323503026,0.0021284180159117424,1.6650815277907451,0.0023039713401586106,0.930089390983209,1.346,-0.3237708581760468,1.1210000000000002,-1.046897677908945,,,,,,,,,,,,,,,,,,,,
33,240612_093746,LEARNING,1.0,34,1.0,2583.0,,,,,,,,,,34.0,34.0,34.0,cue2.png,Easy,B,,,,,,,,,,,,,,,,,,,,,,,,,,,8,24,Female,1.1428571428571428,0.5,0.4,1.0,2.888888888888889,3.5,3.4444444444444446,3.4444444444444446,0.375,3.111111111111111,2.5,2.25,3.0,2.25,1.0,1.0,0.4720135499992466,-1.3711441200229553,0.00010195286561465438,-0.2621516882083113,0.0013006102318384363,0.6274467355925404,0.000647643464073689,0.6203277641075787,4.921114002929064e-05,-0.14258841185755514,1.496,-0.0503157414733047,2.2270000000000003,0.8929524542941709,,,,,,,,,,,,,,,,,,,,
34,240612_093804,LEARNING,1.0,35,3.0,2583.0,,,,,,,,,,35.0,35.0,35.0,cue1.png,Hard,B,,,,,,,,,,,,,,,,,,,,,,,,,,,8,24,Female,1.1428571428571428,0.5,0.4,1.0,2.888888888888889,3.5,3.4444444444444446,3.4444444444444446,0.375,3.111111111111111,2.5,2.25,3.0,2.25,0.6875,0.75,0.5219472166681953,-0.8194882527638317,-0.00047148600972693206,-0.514807192400637,0.0004399398544794103,0.1504501172092196,0.00027604974336046736,0.3581515011550073,-0.00037156830325075184,-0.3427696855346,,,1.8980000000000001,0.31590842762615523,,,,,,,,,,,,,,,,,,,,
35,240612_093822,LEARNING,1.0,36,3.0,2583.0,,,,,,,,,,36.0,36.0,36.0,cue1.png,Hard,B,,,,,,,,,,,,,,,,,,,,,,,,,,,8,24,Female,1.1428571428571428,0.5,0.4,1.0,2.888888888888889,3.5,3.4444444444444446,3.4444444444444446,0.375,3.111111111111111,2.5,2.25,3.0,2.25,1.0,1.0,0.5936021666651262,-0.027860555041663466,-0.0016803501995863671,-1.0474292459840229,0.004329752095219111,2.3062432452035617,0.0003593759490895009,0.41694192738213665,-2.5881308290973647e-05,-0.17831283278244764,1.869,0.6296759820608477,2.59,1.5296302101619197,,,,,,,,,,,,,,,,,,,,
36,240612_093842,LEARNING,1.0,37,1.0,2583.0,,,,,,,,,,37.0,37.0,37.0,cue2.png,Easy,B,,,,,,,,,,,,,,,,,,,,,,,,,,,8,24,Female,1.1428571428571428,0.5,0.4,1.0,2.888888888888889,3.5,3.4444444444444446,3.4444444444444446,0.375,3.111111111111111,2.5,2.25,3.0,2.25,1.0,1.0,0.798336799999864,2.234001415941676,0.003155540155873092,1.0832500094982707,-0.0008564599146021405,-0.5680343597659454,-0.0006116717084390447,-0.2681763397162452,0.0001449608843573395,-0.09703650555617302,1.229,-0.5370658492041858,2.205,0.854365923635519,,,,,,,,,,,,,,,,,,,,
37,240612_093900,LEARNING,1.0,38,3.0,2583.0,,,,,,,,,,38.0,38.0,38.0,cue1.png,Hard,B,,,,,,,,,,,,,,,,,,,,,,,,,,,8,24,Female,1.1428571428571428,0.5,0.4,1.0,2.888888888888889,3.5,3.4444444444444446,3.4444444444444446,0.375,3.111111111111111,2.5,2.25,3.0,2.25,1.0,1.0,0.5793070833351521,-0.18578940581524767,0.0014088277761391673,0.31365360444504115,-0.002546739782368056,-1.504813180386863,,,8.65246230598556e-05,-0.12483692547276488,1.5230000000000001,-0.0010938204668108486,,,,,,,,,,,,,,,,,,,,,,
38,240612_093918,LEARNING,1.0,39,3.0,2583.0,,,,,,,,,,39.0,39.0,39.0,cue1.png,Hard,B,,,,,,,,,,,,,,,,,,,,,,,,,,,8,24,Female,1.1428571428571428,0.5,0.4,1.0,2.888888888888889,3.5,3.4444444444444446,3.4444444444444446,0.375,3.111111111111111,2.5,2.25,3.0,2.25,1.0,1.0,0.6045289499985907,0.09285607841003773,-0.0009633436598232587,-0.7315182455218863,0.0012726783306760987,0.6119664509795911,-0.0026380904190945256,-1.6979068629261298,-0.002236106635819287,-1.229803651176395,1.2269999999999999,-0.5407119174268894,2.37,1.1437649035754052,,,,,,,,,,,,,,,,,,,,
39,240612_093936,LEARNING,1.0,40,3.0,2583.0,,,,,,,,,,40.0,40.0,40.0,cue1.png,Hard,B,,,,,,,,,,,,,,,,,,,,,,,,,,,8,24,Female,1.1428571428571428,0.5,0.4,1.0,2.888888888888889,3.5,3.4444444444444446,3.4444444444444446,0.375,3.111111111111111,2.5,2.25,3.0,2.25,1.0,1.0,0.5055551500008733,-1.000584101652377,-9.499453045436809e-05,-0.34892613931880423,-0.00021877208224484277,-0.21461806054116642,-0.00045896617830299725,-0.1604356460726142,,,1.5090000000000001,-0.02661629802573348,2.041,0.5667208769073895,,,,,,,,,,,,,,,,,,,,
40,240612_093954,LEARNING,1.0,41,1.0,2583.0,,,,,,,,,,41.0,41.0,41.0,cue2.png,Easy,B,,,,,,,,,,,,,,,,,,,,,,,,,,,8,24,Female,1.1428571428571428,0.5,0.4,1.0,2.888888888888889,3.5,3.4444444444444446,3.4444444444444446,0.375,3.111111111111111,2.5,2.25,3.0,2.25,1.0,1.0,0.5209089666677755,-0.8309586041844603,0.0011901596783490897,0.21730907519592302,-0.0022740152787714372,-1.3536651109423967,-0.0003338085071921187,-0.07213121932203155,0.001144083829611055,0.378285440263644,2.4690000000000003,1.7234964488718172,1.7990000000000002,0.14226903966222357,,,,,,,,,,,,,,,,,,,,
41,240612_094012,LEARNING,1.0,42,3.0,2583.0,,,,,,,,,,42.0,42.0,42.0,cue1.png,Hard,B,,,,,,,,,,,,,,,,,,,,,,,,,,,8,24,Female,1.1428571428571428,0.5,0.4,1.0,2.888888888888889,3.5,3.4444444444444446,3.4444444444444446,0.375,3.111111111111111,2.5,2.25,3.0,2.25,1.0,1.0,0.5234083666667478,-0.8033457977145935,0.0057178179889792345,2.212182186303731,-0.0016458242639497394,-1.005512092491594,-0.00035038976571205756,-0.08383005100698089,0.0043888255579109465,1.9219362585186612,1.496,-0.0503157414733047,,,,,,,,,,,,,,,,,,,,,,
42,240612_094029,LEARNING,1.0,43,3.0,2583.0,,,,,,,,,,43.0,43.0,43.0,cue1.png,Hard,B,,,,,,,,,,,,,,,,,,,,,,,,,,,8,24,Female,1.1428571428571428,0.5,0.4,1.0,2.888888888888889,3.5,3.4444444444444446,3.4444444444444446,0.375,3.111111111111111,2.5,2.25,3.0,2.25,1.0,1.0,0.4401369833321951,-1.7233092263136727,-0.004129589681983876,-2.1265570535367955,,,0.0001814923555840276,0.2914369654136555,0.00018130858135929906,-0.0797444814393079,1.4279999999999997,-0.17428206104521504,,,,,,,,,,,,,,,,,,,,,,
43,240612_094047,LEARNING,1.0,44,1.0,2583.0,,,,,,,,,,44.0,44.0,44.0,cue2.png,Easy,B,,,,,,,,,,,,,,,,,,,,,,,,,,,8,24,Female,1.1428571428571428,0.5,0.4,1.0,2.888888888888889,3.5,3.4444444444444446,3.4444444444444446,0.375,3.111111111111111,2.5,2.25,3.0,2.25,1.0,1.0,0.5785442999998244,-0.19421646375935633,0.0012907797928856032,0.26164200563243883,,,-0.0013625905615915939,-0.797983728071183,-1.9513669741065207e-06,-0.16692842176064,1.185,-0.6172793501036569,1.452,-0.4663457848174161,,,,,,,,,,,,,,,,,,,,
44,240612_094105,LEARNING,1.0,45,1.0,2583.0,,,,,,,,,,45.0,45.0,45.0,cue2.png,Easy,B,,,,,,,,,,,,,,,,,,,,,,,,,,,8,24,Female,1.1428571428571428,0.5,0.4,1.0,2.888888888888889,3.5,3.4444444444444446,3.4444444444444446,0.375,3.111111111111111,2.5,2.25,3.0,2.25,1.0,1.0,0.5297191333326433,-0.7336258734553676,-0.00024959951705793085,-0.41704464770856514,0.0039192316559864505,2.0787265716402397,-0.002588580294234687,-1.6629752190620901,0.00017384195464390483,-0.08329664842329222,1.5310000000000001,0.013490452424002083,2.566,1.4875358130797545,,,,,,,,,,,,,,,,,,,,
45,240612_094123,LEARNING,1.0,46,1.0,2583.0,,,,,,,,,,46.0,46.0,46.0,cue2.png,Easy,B,,,,,,,,,,,,,,,,,,,,,,,,,,,8,24,Female,1.1428571428571428,0.5,0.4,1.0,2.888888888888889,3.5,3.4444444444444446,3.4444444444444446,0.375,3.111111111111111,2.5,2.25,3.0,2.25,1.0,1.0,0.5125076000016028,-0.9237750048929524,-0.0006996302880440527,-0.6153268992873915,0.0009392340939488927,0.4271665815727499,-0.0007542137744656922,-0.36874624739034834,6.415377029969378e-05,-0.13547961695945526,1.8360000000000003,0.5695158563862449,,,,,,,,,,,,,,,,,,,,,,
46,240612_094141,LEARNING,1.0,47,3.0,2583.0,,,,,,,,,,47.0,47.0,47.0,cue1.png,Hard,B,,,,,,,,,,,,,,,,,,,,,,,,,,,8,24,Female,1.1428571428571428,0.5,0.4,1.0,2.888888888888889,3.5,3.4444444444444446,3.4444444444444446,0.375,3.111111111111111,2.5,2.25,3.0,2.25,1.0,1.0,0.5934538666660956,-0.02949893992379464,-0.0006808377817152109,-0.6070469755401173,0.002111875728498868,1.0770624173887637,0.0007492647469916867,0.6920261990024144,3.4025664772753365e-05,-0.14981273763390196,1.351,-0.3146556876192889,1.3459999999999999,-0.6522627052636462,,,,,,,,,,,,,,,,,,,,
47,240612_094159,LEARNING,1.0,48,3.0,2583.0,,,,,,,,,,48.0,48.0,48.0,cue1.png,Hard,B,,,,,,,,,,,,,,,,,,,,,,,,,,,8,24,Female,1.1428571428571428,0.5,0.4,1.0,2.888888888888889,3.5,3.4444444444444446,3.4444444444444446,0.375,3.111111111111111,2.5,2.25,3.0,2.25,1.0,1.0,0.5057259666658259,-0.9986969577325941,7.010821100697853e-05,-0.2761823506061826,,,-0.0007381569106215818,-0.3574173999886561,-0.00042743375148223024,-0.3693470689123179,2.4850000000000003,1.7526649946534432,2.252,0.9368007845880921,,,,,,,,,,,,,,,,,,,,
48,240612_094217,LEARNING,1.0,49,1.0,2583.0,,,,,,,,,,49.0,49.0,49.0,cue2.png,Easy,B,,,,,,,,,,,,,,,,,,,,,,,,,,,8,24,Female,1.1428571428571428,0.5,0.4,1.0,2.888888888888889,3.5,3.4444444444444446,3.4444444444444446,0.375,3.111111111111111,2.5,2.25,3.0,2.25,1.0,1.0,0.5524866499993853,-0.4820954934534826,-2.6291499062706426e-05,-0.31865578308343123,,,,,,,,,,,,,,,,,,,,,,,,,,,,,,
49,240612_094235,LEARNING,1.0,50,1.0,2583.0,,,,,,,,,,50.0,50.0,50.0,cue2.png,Easy,B,,,,,,,,,,,,,,,,,,,,,,,,,,,8,24,Female,1.1428571428571428,0.5,0.4,1.0,2.888888888888889,3.5,3.4444444444444446,3.4444444444444446,0.375,3.111111111111111,2.5,2.25,3.0,2.25,1.0,1.0,0.5565207333335517,-0.43752785224541196,,,-0.0015169061381363827,-0.9340637056539058,-0.0008914581609213556,-0.4655784012897779,0.006464897343157085,2.9096049786822538,1.253,-0.49331303053174735,1.4920000000000002,-0.3961884563471403,,,,,,,,,,,,,,,,,,,,
0,240612_094407,TrueCHOICE,9.0,1,3.0,2583.0,,,,,,,,,,,1.0,1.0,,,B,,,,,,True,cue2.png,Easy,cue1.png,Hard,Right,Hard,Hard,0.016624200005026,,,,,,,,,,,,,8,24,Female,1.1428571428571428,0.5,0.4,1.0,2.888888888888889,3.5,3.4444444444444446,3.4444444444444446,0.375,3.111111111111111,2.5,2.25,3.0,2.25,1.0,1.0,0.5734813166648868,1.1157278347283572,,,,,,,,,,,,,0.0008985306798965083,0.8294611866757863,-2.7366153932404172e-05,-0.13836174506058108,1.727,0.05337775030909833,,,,,,,,,,,,,,
1,240612_094423,TrueCHOICE,9.0,2,3.0,2583.0,,,,,,,,,,,2.0,2.0,,,B,,,,,,True,cue2.png,Easy,cue1.png,Hard,Right,Hard,Hard,0.0161028000002261,,,,,,,,,,,,,8,24,Female,1.1428571428571428,0.5,0.4,1.0,2.888888888888889,3.5,3.4444444444444446,3.4444444444444446,0.375,3.111111111111111,2.5,2.25,3.0,2.25,1.0,1.0,0.4465418666647262,-0.4738512198651685,,,,,,,,,,,,,0.0018833754565025966,2.3476441792623914,-0.0001911503186700879,-0.6600442226361641,1.573,-0.5278466419455156,,,,,,,,,,,,,,
2,240612_094438,TrueCHOICE,9.0,3,3.0,2583.0,,,,,,,,,,,3.0,3.0,,,B,,,,,,True,cue1.png,Hard,cue2.png,Easy,Left,Hard,Hard,0.0154362000030232,,,,,,,,,,,,,8,24,Female,1.1428571428571428,0.5,0.4,1.0,2.888888888888889,3.5,3.4444444444444446,3.4444444444444446,0.375,3.111111111111111,2.5,2.25,3.0,2.25,1.0,1.0,0.4885129666666519,0.05172519835018544,,,,,,,,,,,,,0.00018135975276886316,-0.27609039892017184,,,,,,,,,,,,,,,,,,
3,240612_094455,TrueCHOICE,9.0,4,3.0,2583.0,,,,,,,,,,,4.0,4.0,,,B,,,,,,True,cue2.png,Easy,cue1.png,Hard,Right,Hard,Hard,0.0166398000001208,,,,,,,,,,,,,8,24,Female,1.1428571428571428,0.5,0.4,1.0,2.888888888888889,3.5,3.4444444444444446,3.4444444444444446,0.375,3.111111111111111,2.5,2.25,3.0,2.25,1.0,1.0,0.6590596333323143,2.1873686816182936,,,,,,,,,,,,,,,0.00025278947137664584,0.7539850880538355,1.4709999999999999,-0.9128134472050651,,,,,,,,,,,,,,
4,240612_094510,TrueCHOICE,9.0,5,3.0,2583.0,,,,,,,,,,,5.0,5.0,,,B,,,,,,True,cue1.png,Hard,cue2.png,Easy,Left,Hard,Hard,0.0154607999938889,,,,,,,,,,,,,8,24,Female,1.1428571428571428,0.5,0.4,1.0,2.888888888888889,3.5,3.4444444444444446,3.4444444444444446,0.375,3.111111111111111,2.5,2.25,3.0,2.25,1.0,1.0,0.3958964999995563,-1.1080497614774203,,,,,,,,,,,,,-1.8962074119577635e-05,-0.5848956013744778,,,1.4660000000000002,-0.9316843690315123,,,,,,,,,,,,,,
5,240612_094526,TrueCHOICE,9.0,6,3.0,2583.0,,,,,,,,,,,6.0,6.0,,,B,,,,,,True,cue1.png,Hard,cue2.png,Easy,Left,Hard,Hard,0.0158441000021412,,,,,,,,,,,,,8,24,Female,1.1428571428571428,0.5,0.4,1.0,2.888888888888889,3.5,3.4444444444444446,3.4444444444444446,0.375,3.111111111111111,2.5,2.25,3.0,2.25,1.0,1.0,0.4887587166667799,0.054802563604795636,,,,,,,,,,,,,9.403992304886236e-05,-0.4106978858515739,,,1.8760000000000001,0.6157312207372634,,,,,,,,,,,,,,
6,240612_094540,TrueCHOICE,9.0,7,3.0,2583.0,,,,,,,,,,,7.0,7.0,,,B,,,,,,True,cue2.png,Easy,cue1.png,Hard,Right,Hard,Hard,0.0166228000016417,,,,,,,,,,,,,8,24,Female,1.1428571428571428,0.5,0.4,1.0,2.888888888888889,3.5,3.4444444444444446,3.4444444444444446,0.375,3.111111111111111,2.5,2.25,3.0,2.25,1.0,1.0,0.3738306999997197,-1.3843652292263802,,,,,,,,,,,,,-8.218744607473233e-05,-0.6823603863663471,0.0004957440154942858,1.5278396833166397,1.604,-0.41084692662153444,,,,,,,,,,,,,,
7,240612_094556,TrueCHOICE,9.0,8,3.0,2583.0,,,,,,,,,,,8.0,8.0,,,B,,,,,,True,cue1.png,Hard,cue2.png,Easy,Left,Hard,Hard,0.0174470000056317,,,,,,,,,,,,,8,24,Female,1.1428571428571428,0.5,0.4,1.0,2.888888888888889,3.5,3.4444444444444446,3.4444444444444446,0.375,3.111111111111111,2.5,2.25,3.0,2.25,0.6875,0.75,0.4716386166680119,-0.15958116320790008,,,,,,,,,,,,,,,5.8895619454362585e-05,0.13639775768222603,,,,,,,,,,,,,,,,
8,240612_094612,TrueCHOICE,9.0,9,3.0,2583.0,,,,,,,,,,,9.0,9.0,,,B,,,,,,True,cue2.png,Easy,cue1.png,Hard,Right,Hard,Hard,0.0153907999992952,,,,,,,,,,,,,8,24,Female,1.1428571428571428,0.5,0.4,1.0,2.888888888888889,3.5,3.4444444444444446,3.4444444444444446,0.375,3.111111111111111,2.5,2.25,3.0,2.25,1.0,1.0,0.5141754333332452,0.37307935186487046,,,,,,,,,,,,,-3.526655962006291e-05,-0.6100297069489772,-0.0004924744336108266,-1.6198165613559559,2.273,2.114082413757273,,,,,,,,,,,,,,
9,240612_094627,TrueCHOICE,9.0,10,3.0,2583.0,,,,,,,,,,,10.0,10.0,,,B,,,,,,True,cue1.png,Hard,cue2.png,Easy,Left,Hard,Hard,0.0161360999991302,,,,,,,,,,,,,8,24,Female,1.1428571428571428,0.5,0.4,1.0,2.888888888888889,3.5,3.4444444444444446,3.4444444444444446,0.375,3.111111111111111,2.5,2.25,3.0,2.25,1.0,1.0,0.4319275833319504,-0.6568562563896391,,,,,,,,,,,,,-3.721374808040613e-05,-0.6130313864766297,,,,,,,,,,,,,,,,,,
0,240612_094840,FalseCHOICE,9.0,1,2.0,2583.0,,,,,,,,,,,1.0,1.0,,,B,,,,,,False,cue2.png,Easy,cue1.png,Hard,Right,Hard,Mid,0.0164647999990847,,,,,,,,,,,,,8,24,Female,1.1428571428571428,0.5,0.4,1.0,2.888888888888889,3.5,3.4444444444444446,3.4444444444444446,0.375,3.111111111111111,2.5,2.25,3.0,2.25,0.6875,0.75,1.2168856166669382,5.64864133204136,,,,,,,,,,,,,,,,,,,0.0010005144437801533,0.43966435112428837,-0.003086096174051112,-0.9943331638220337,,,,,,,,,,
1,240612_094857,FalseCHOICE,9.0,2,2.0,2583.0,,,,,,,,,,,2.0,2.0,,,B,,,,,,False,cue1.png,Hard,cue2.png,Easy,Left,Hard,Mid,0.0160709999981918,,,,,,,,,,,,,8,24,Female,1.1428571428571428,0.5,0.4,1.0,2.888888888888889,3.5,3.4444444444444446,3.4444444444444446,0.375,3.111111111111111,2.5,2.25,3.0,2.25,0.6875,0.75,0.6505484500012244,0.8031701745766981,,,,,,,,,,,,,,,,,,,0.0014187458711095932,0.7701083856445509,-0.0011807529987429089,-0.2207651005115397,1.4609999999999999,-0.1375372192993969,,,,,,,,
2,240612_094913,FalseCHOICE,9.0,3,2.0,2583.0,,,,,,,,,,,3.0,3.0,,,B,,,,,,False,cue1.png,Hard,cue2.png,Easy,Left,Hard,Mid,0.0161112999994657,,,,,,,,,,,,,8,24,Female,1.1428571428571428,0.5,0.4,1.0,2.888888888888889,3.5,3.4444444444444446,3.4444444444444446,0.375,3.111111111111111,2.5,2.25,3.0,2.25,1.0,1.0,0.5602443166656789,0.030545492263543802,,,,,,,,,,,,,,,,,,,0.0002803535644571682,-0.129333698560047,0.0003465952628325516,0.39933727895428084,1.466,-0.1276875486464451,,,,,,,,
3,240612_094929,FalseCHOICE,9.0,4,2.0,2583.0,,,,,,,,,,,4.0,4.0,,,B,,,,,,False,cue1.png,Hard,cue2.png,Easy,Left,Hard,Mid,0.0161946000007446,,,,,,,,,,,,,8,24,Female,1.1428571428571428,0.5,0.4,1.0,2.888888888888889,3.5,3.4444444444444446,3.4444444444444446,0.375,3.111111111111111,2.5,2.25,3.0,2.25,1.0,1.0,0.6822413500000645,1.0743284913527464,,,,,,,,,,,,,,,,,,,-0.00023282147881620828,-0.534792544149837,0.0002873811642621193,0.3752963942751224,1.104,-0.8408037039201389,,,,,,,,
4,240612_094945,FalseCHOICE,9.0,5,2.0,2583.0,,,,,,,,,,,5.0,5.0,,,B,,,,,,False,cue2.png,Easy,cue1.png,Hard,Right,Hard,Mid,0.0161671999958343,,,,,,,,,,,,,8,24,Female,1.1428571428571428,0.5,0.4,1.0,2.888888888888889,3.5,3.4444444444444446,3.4444444444444446,0.375,3.111111111111111,2.5,2.25,3.0,2.25,0.6875,0.75,0.5459616999990734,-0.09165381088056786,,,,,,,,,,,,,,,,,,,0.0011139537384129562,0.5292925706747743,0.00017820265888795778,0.33096999362881213,1.57,0.07718560093494785,,,,,,,,
5,240612_095002,FalseCHOICE,9.0,6,2.0,2583.0,,,,,,,,,,,6.0,6.0,,,B,,,,,,False,cue1.png,Hard,cue2.png,Easy,Left,Hard,Mid,0.0162263000020175,,,,,,,,,,,,,8,24,Female,1.1428571428571428,0.5,0.4,1.0,2.888888888888889,3.5,3.4444444444444446,3.4444444444444446,0.375,3.111111111111111,2.5,2.25,3.0,2.25,0.125,0.5,0.586870133333529,0.2583508250259649,,,,,,,,,,,,,,,,,,,0.00016830297226049385,-0.21786470636183056,-0.00031461685404306477,0.13088559879636655,1.5870000000000002,0.11067448115498346,,,,,,,,
6,240612_095017,FalseCHOICE,9.0,7,2.0,2583.0,,,,,,,,,,,7.0,7.0,,,B,,,,,,False,cue1.png,Hard,cue2.png,Easy,Left,Hard,Mid,0.0160356999986106,,,,,,,,,,,,,8,24,Female,1.1428571428571428,0.5,0.4,1.0,2.888888888888889,3.5,3.4444444444444446,3.4444444444444446,0.375,3.111111111111111,2.5,2.25,3.0,2.25,0.6875,0.75,0.5505097166630245,-0.05274186078097028,,,,,,,,,,,,,,,,,,,-0.0013766198914143607,-1.4385059846969197,-0.0008326773128958702,-0.07944660331083944,,,,,,,,,,
7,240612_095033,FalseCHOICE,9.0,8,2.0,2583.0,,,,,,,,,,,8.0,8.0,,,B,,,,,,False,cue2.png,Easy,cue1.png,Hard,Right,Hard,Mid,0.0165338000006158,,,,,,,,,,,,,8,24,Female,1.1428571428571428,0.5,0.4,1.0,2.888888888888889,3.5,3.4444444444444446,3.4444444444444446,0.375,3.111111111111111,2.5,2.25,3.0,2.25,0.6875,0.75,0.5453317833331918,-0.09704325592459652,,,,,,,,,,,,,,,,,,,-0.0003711828092846678,-0.6441116274945111,-0.0003639825348319336,0.11084316519346862,,,,,,,,,,
8,240612_095050,FalseCHOICE,9.0,9,2.0,2583.0,,,,,,,,,,,9.0,9.0,,,B,,,,,,False,cue2.png,Easy,cue1.png,Hard,Right,Hard,Mid,0.0168188000025111,,,,,,,,,,,,,8,24,Female,1.1428571428571428,0.5,0.4,1.0,2.888888888888889,3.5,3.4444444444444446,3.4444444444444446,0.375,3.111111111111111,2.5,2.25,3.0,2.25,1.0,1.0,0.6600453999999445,0.8844242401956058,,,,,,,,,,,,,,,,,,,0.001263758004168997,0.6476527003304043,-0.00014621861009674834,0.19925517395878756,,,,,,,,,,
9,240612_095106,FalseCHOICE,9.0,10,2.0,2583.0,,,,,,,,,,,10.0,10.0,,,B,,,,,,False,cue1.png,Hard,cue2.png,Easy,Left,Hard,Mid,0.0160424999994575,,,,,,,,,,,,,8,24,Female,1.1428571428571428,0.5,0.4,1.0,2.888888888888889,3.5,3.4444444444444446,3.4444444444444446,0.375,3.111111111111111,2.5,2.25,3.0,2.25,0.6875,0.75,0.585460766666074,0.24629255666676333,,,,,,,,,,,,,,,,,,,0.00038310740582192613,-0.048148039892938144,-0.0010248429335155919,-0.15746571761218384,1.3219999999999998,-0.41135806345145076,,,,,,,,
10,240612_095122,FalseCHOICE,9.0,11,2.0,2583.0,,,,,,,,,,,11.0,11.0,,,B,,,,,,False,cue2.png,Easy,cue1.png,Hard,Right,Hard,Mid,0.015209600001981,,,,,,,,,,,,,8,24,Female,1.1428571428571428,0.5,0.4,1.0,2.888888888888889,3.5,3.4444444444444446,3.4444444444444446,0.375,3.111111111111111,2.5,2.25,3.0,2.25,0.6875,0.75,0.4665587999988929,-0.7710096512099115,,,,,,,,,,,,,,,,,,,,,-0.0004692421149274295,0.06810784560665593,1.234,-0.5847122669433982,,,,,,,,
11,240612_095138,FalseCHOICE,9.0,12,2.0,2583.0,,,,,,,,,,,12.0,12.0,,,B,,,,,,False,cue1.png,Hard,cue2.png,Easy,Left,Hard,Mid,0.0165729999935138,,,,,,,,,,,,,8,24,Female,1.1428571428571428,0.5,0.4,1.0,2.888888888888889,3.5,3.4444444444444446,3.4444444444444446,0.375,3.111111111111111,2.5,2.25,3.0,2.25,0.6875,0.75,0.4891362666652033,-0.5778412173168899,,,,,,,,,,,,,,,,,,,0.0002913935693155279,-0.12061100698755052,0.0004066121632080493,0.42370410063293334,,,,,,,,,,
12,240612_095153,FalseCHOICE,9.0,13,2.0,2583.0,,,,,,,,,,,13.0,13.0,,,B,,,,,,False,cue2.png,Easy,cue1.png,Hard,Right,Hard,Mid,0.0165347000001929,,,,,,,,,,,,,8,24,Female,1.1428571428571428,0.5,0.4,1.0,2.888888888888889,3.5,3.4444444444444446,3.4444444444444446,0.375,3.111111111111111,2.5,2.25,3.0,2.25,1.0,1.0,0.5305260666670316,-0.22371810139490717,,,,,,,,,,,,,,,,,,,,,0.0011601683657499794,0.7296474182201594,0.6950000000000001,-1.646506763331578,,,,,,,,
13,240612_095209,FalseCHOICE,9.0,14,2.0,2583.0,,,,,,,,,,,14.0,14.0,,,B,,,,,,False,cue1.png,Hard,cue2.png,Easy,Left,Hard,Mid,0.0160255000009783,,,,,,,,,,,,,8,24,Female,1.1428571428571428,0.5,0.4,1.0,2.888888888888889,3.5,3.4444444444444446,3.4444444444444446,0.375,3.111111111111111,2.5,2.25,3.0,2.25,1.0,1.0,0.5341142166677552,-0.19301858463967864,,,,,,,,,,,,,,,,,,,-0.00041011571709514147,-0.6748724605927005,-0.0006493080460192903,-0.0049988027851225955,,,,,,,,,,
14,240612_095225,FalseCHOICE,9.0,15,2.0,2583.0,,,,,,,,,,,15.0,15.0,,,B,,,,,,False,cue2.png,Easy,cue1.png,Hard,Right,Hard,Mid,0.0180508000048575,,,,,,,,,,,,,8,24,Female,1.1428571428571428,0.5,0.4,1.0,2.888888888888889,3.5,3.4444444444444446,3.4444444444444446,0.375,3.111111111111111,2.5,2.25,3.0,2.25,1.0,1.0,0.4521766666669767,-0.8940603996764078,,,,,,,,,,,,,,,,,,,-0.0003135365513763401,-0.5985654040558344,8.757963984250706e-05,0.2941771081041351,,,,,,,,,,
15,240612_095240,FalseCHOICE,9.0,16,2.0,2583.0,,,,,,,,,,,16.0,16.0,,,B,,,,,,False,cue2.png,Easy,cue1.png,Hard,Right,Hard,Mid,0.0141619999994873,,,,,,,,,,,,,8,24,Female,1.1428571428571428,0.5,0.4,1.0,2.888888888888889,3.5,3.4444444444444446,3.4444444444444446,0.375,3.111111111111111,2.5,2.25,3.0,2.25,0.6875,0.75,0.4961755833331456,-0.5176141866884946,,,,,,,,,,,,,,,,,,,,,0.000315341472443823,0.38664826082073117,,,,,,,,,,
16,240612_095255,FalseCHOICE,9.0,17,2.0,2583.0,,,,,,,,,,,17.0,17.0,,,B,,,,,,False,cue1.png,Hard,cue2.png,Easy,Left,Hard,Mid,0.0129952999996021,,,,,,,,,,,,,8,24,Female,1.1428571428571428,0.5,0.4,1.0,2.888888888888889,3.5,3.4444444444444446,3.4444444444444446,0.375,3.111111111111111,2.5,2.25,3.0,2.25,1.0,1.0,0.4772699333334458,-0.6793672680304772,,,,,,,,,,,,,,,,,,,-5.1620257157275126e-05,-0.3916257258948965,0.0032386376158430683,1.5735045528724754,,,,,,,,,,
17,240612_095310,FalseCHOICE,9.0,18,2.0,2583.0,,,,,,,,,,,18.0,18.0,,,B,,,,,,False,cue1.png,Hard,cue2.png,Easy,Left,Hard,Mid,0.016689199997927,,,,,,,,,,,,,8,24,Female,1.1428571428571428,0.5,0.4,1.0,2.888888888888889,3.5,3.4444444444444446,3.4444444444444446,0.375,3.111111111111111,2.5,2.25,3.0,2.25,1.0,1.0,0.4860918666696913,-0.6038885142952751,,,,,,,,,,,,,,,,,,,-0.0019580445004596086,-1.8978887116456984,,,,,,,,,,,,
18,240612_095327,FalseCHOICE,9.0,19,2.0,2583.0,,,,,,,,,,,19.0,19.0,,,B,,,,,,False,cue2.png,Easy,cue1.png,Hard,Right,Hard,Mid,0.016471700000693,,,,,,,,,,,,,8,24,Female,1.1428571428571428,0.5,0.4,1.0,2.888888888888889,3.5,3.4444444444444446,3.4444444444444446,0.375,3.111111111111111,2.5,2.25,3.0,2.25,0.6875,0.75,0.5515840666666918,-0.04354993013929893,,,,,,,,,,,,,,,,,,,0.0014187485785196949,0.7701105247652832,0.0023344047549282276,1.2063866120918316,,,,,,,,,,
19,240612_095342,FalseCHOICE,9.0,20,2.0,2583.0,,,,,,,,,,,20.0,20.0,,,B,,,,,,False,cue2.png,Easy,cue1.png,Hard,Right,Hard,Mid,0.0161547000025166,,,,,,,,,,,,,8,24,Female,1.1428571428571428,0.5,0.4,1.0,2.888888888888889,3.5,3.4444444444444446,3.4444444444444446,0.375,3.111111111111111,2.5,2.25,3.0,2.25,1.0,1.0,0.5405692999981208,-0.13779014134243775,,,,,,,,,,,,,,,,,,,-0.0012472606917709054,-1.3362994716535455,-0.0008950420793551236,-0.10476665705963047,2.282,1.4797787019152522,,,,,,,,
20,240612_095357,FalseCHOICE,9.0,21,2.0,2583.0,,,,,,,,,,,21.0,21.0,,,B,,,,,,False,cue2.png,Easy,cue1.png,Hard,Right,Hard,Mid,0.0171087000053375,,,,,,,,,,,,,8,24,Female,1.1428571428571428,0.5,0.4,1.0,2.888888888888889,3.5,3.4444444444444446,3.4444444444444446,0.375,3.111111111111111,2.5,2.25,3.0,2.25,1.0,1.0,0.4323206833335765,-1.0639443490409384,,,,,,,,,,,,,,,,,,,-0.001111793059283308,-1.2292666948200413,0.0003433310376341728,0.3980120056924125,1.378,-0.301041752138393,,,,,,,,
21,240612_095414,FalseCHOICE,9.0,22,2.0,2583.0,,,,,,,,,,,22.0,22.0,,,B,,,,,,False,cue1.png,Hard,cue2.png,Easy,Left,Hard,Mid,0.0163363000028766,,,,,,,,,,,,,8,24,Female,1.1428571428571428,0.5,0.4,1.0,2.888888888888889,3.5,3.4444444444444446,3.4444444444444446,0.375,3.111111111111111,2.5,2.25,3.0,2.25,1.0,1.0,0.5629351666660417,0.05356788392924566,,,,,,,,,,,,,,,,,,,0.00011572056475111538,-0.2594099890612603,,,,,,,,,,,,
22,240612_095430,FalseCHOICE,9.0,23,2.0,2583.0,,,,,,,,,,,23.0,23.0,,,B,,,,,,False,cue2.png,Easy,cue1.png,Hard,Right,Hard,Mid,0.0156037999986438,,,,,,,,,,,,,8,24,Female,1.1428571428571428,0.5,0.4,1.0,2.888888888888889,3.5,3.4444444444444446,3.4444444444444446,0.375,3.111111111111111,2.5,2.25,3.0,2.25,1.0,1.0,0.6067875666655406,0.4287605286821492,,,,,,,,,,,,,,,,,,,0.00021244267958015275,-0.18298998864301474,0.00022790195676992368,0.35114787554986016,1.552,0.04172678658432215,,,,,,,,
23,240612_095446,FalseCHOICE,9.0,24,2.0,2583.0,,,,,,,,,,,24.0,24.0,,,B,,,,,,False,cue1.png,Hard,cue2.png,Easy,Left,Hard,Mid,0.0166489000039291,,,,,,,,,,,,,8,24,Female,1.1428571428571428,0.5,0.4,1.0,2.888888888888889,3.5,3.4444444444444446,3.4444444444444446,0.375,3.111111111111111,2.5,2.25,3.0,2.25,1.0,1.0,0.5560265333321391,-0.005541045392857494,,,,,,,,,,,,,,,,,,,,,-0.0008255324656134926,-0.07654580006106051,1.184,-0.683208973472914,,,,,,,,
24,240612_095501,FalseCHOICE,9.0,25,2.0,2583.0,,,,,,,,,,,25.0,25.0,,,B,,,,,,False,cue1.png,Hard,cue2.png,Easy,Left,Hard,Mid,0.0159911000009742,,,,,,,,,,,,,8,24,Female,1.1428571428571428,0.5,0.4,1.0,2.888888888888889,3.5,3.4444444444444446,3.4444444444444446,0.375,3.111111111111111,2.5,2.25,3.0,2.25,1.0,1.0,0.474906283331317,-0.6995901998558515,,,,,,,,,,,,,,,,,,,,,-0.0006562116973726044,-0.007801680647946552,1.464,-0.13162741690762575,,,,,,,,
25,240612_095517,FalseCHOICE,9.0,26,2.0,2583.0,,,,,,,,,,,26.0,26.0,,,B,,,,,,False,cue2.png,Easy,cue1.png,Hard,Right,Hard,Mid,0.0167322000052081,,,,,,,,,,,,,8,24,Female,1.1428571428571428,0.5,0.4,1.0,2.888888888888889,3.5,3.4444444444444446,3.4444444444444446,0.375,3.111111111111111,2.5,2.25,3.0,2.25,1.0,1.0,0.5492598000018916,-0.06343590575494085,,,,,,,,,,,,,,,,,,,-0.0007027925390082242,-0.9061159863628158,,,1.9740000000000002,0.8730389896934354,,,,,,,,
26,240612_095534,FalseCHOICE,9.0,27,2.0,2583.0,,,,,,,,,,,27.0,27.0,,,B,,,,,,False,cue2.png,Easy,cue1.png,Hard,Right,Hard,Mid,0.0165926999980001,,,,,,,,,,,,,8,24,Female,1.1428571428571428,0.5,0.4,1.0,2.888888888888889,3.5,3.4444444444444446,3.4444444444444446,0.375,3.111111111111111,2.5,2.25,3.0,2.25,0.6875,0.75,0.7535058666665767,1.6840538994364924,,,,,,,,,,,,,,,,,,,0.002518834158819051,1.6392865209185856,-0.001646212294379701,-0.40974126530000454,1.0280000000000002,-0.9905186978450026,,,,,,,,
27,240612_095550,FalseCHOICE,9.0,28,2.0,2583.0,,,,,,,,,,,28.0,28.0,,,B,,,,,,False,cue1.png,Hard,cue2.png,Easy,Left,Hard,Mid,0.0161860000007436,,,,,,,,,,,,,8,24,Female,1.1428571428571428,0.5,0.4,1.0,2.888888888888889,3.5,3.4444444444444446,3.4444444444444446,0.375,3.111111111111111,2.5,2.25,3.0,2.25,1.0,1.0,0.5608954500009228,0.03611646302317691,,,,,,,,,,,,,,,,,,,0.0002924794731797749,-0.11975303594435519,-0.0006630060387199412,-0.010560178720966667,0.7329999999999999,-1.5716492663691464,,,,,,,,
28,240612_095605,FalseCHOICE,9.0,29,2.0,2583.0,,,,,,,,,,,29.0,29.0,,,B,,,,,,False,cue2.png,Easy,cue1.png,Hard,Right,Hard,Mid,0.0163730999993276,,,,,,,,,,,,,8,24,Female,1.1428571428571428,0.5,0.4,1.0,2.888888888888889,3.5,3.4444444444444446,3.4444444444444446,0.375,3.111111111111111,2.5,2.25,3.0,2.25,0.6875,0.75,0.5351235833307632,-0.18438263888018291,,,,,,,,,,,,,,,,,,,-0.00017713513088156614,-0.4907948426936821,0.00037532448716183064,0.41100132494495556,2.0229999999999997,0.9695657620923599,,,,,,,,
29,240612_095621,FalseCHOICE,9.0,30,2.0,2583.0,,,,,,,,,,,30.0,30.0,,,B,,,,,,False,cue2.png,Easy,cue1.png,Hard,Right,Hard,Mid,0.0166313000008813,,,,,,,,,,,,,8,24,Female,1.1428571428571428,0.5,0.4,1.0,2.888888888888889,3.5,3.4444444444444446,3.4444444444444446,0.375,3.111111111111111,2.5,2.25,3.0,2.25,1.0,1.0,0.5271024999989701,-0.2530094750185304,,,,,,,,,,,,,,,,,,,0.0012398316514122061,0.628748524269811,-0.000238546012930798,0.16177030974829137,1.292,-0.4704560873691598,,,,,,,,
30,240612_095637,FalseCHOICE,9.0,31,2.0,2583.0,,,,,,,,,,,31.0,31.0,,,B,,,,,,False,cue1.png,Hard,cue2.png,Easy,Left,Hard,Mid,0.0146643000043695,,,,,,,,,,,,,8,24,Female,1.1428571428571428,0.5,0.4,1.0,2.888888888888889,3.5,3.4444444444444446,3.4444444444444446,0.375,3.111111111111111,2.5,2.25,3.0,2.25,1.0,1.0,0.5348206499996498,-0.1869744778145516,,,,,,,,,,,,,,,,,,,,,,,,,,,,,,,,
31,240612_095653,FalseCHOICE,9.0,32,2.0,2583.0,,,,,,,,,,,32.0,32.0,,,B,,,,,,False,cue2.png,Easy,cue1.png,Hard,Right,Hard,Mid,0.0166418000007979,,,,,,,,,,,,,8,24,Female,1.1428571428571428,0.5,0.4,1.0,2.888888888888889,3.5,3.4444444444444446,3.4444444444444446,0.375,3.111111111111111,2.5,2.25,3.0,2.25,1.0,1.0,0.5754240166655412,0.16042006673538778,,,,,,,,,,,,,,,,,,,0.0032308994290598187,2.2018882417949484,-0.008706986509150135,-3.2764109054865407,1.5270000000000001,-0.007521566680435556,,,,,,,,
32,240612_095709,FalseCHOICE,9.0,33,2.0,2583.0,,,,,,,,,,,33.0,33.0,,,B,,,,,,False,cue1.png,Hard,cue2.png,Easy,Left,Hard,Mid,0.0145910999999614,,,,,,,,,,,,,8,24,Female,1.1428571428571428,0.5,0.4,1.0,2.888888888888889,3.5,3.4444444444444446,3.4444444444444446,0.375,3.111111111111111,2.5,2.25,3.0,2.25,1.0,1.0,0.6266886999995526,0.5990307727110612,,,,,,,,,,,,,,,,,,,-0.0005633432274654883,-0.7959372907743625,,,0.599,-1.8356204398682483,,,,,,,,
33,240612_095724,FalseCHOICE,9.0,34,2.0,2583.0,,,,,,,,,,,34.0,34.0,,,B,,,,,,False,cue1.png,Hard,cue2.png,Easy,Left,Hard,Mid,0.015229000004183,,,,,,,,,,,,,8,24,Female,1.1428571428571428,0.5,0.4,1.0,2.888888888888889,3.5,3.4444444444444446,3.4444444444444446,0.375,3.111111111111111,2.5,2.25,3.0,2.25,1.0,1.0,0.4833547833331977,-0.6273064694343294,,,,,,,,,,,,,,,,,,,0.0004033230872702424,-0.0321756597659514,,,1.686,0.30569796008342415,,,,,,,,
34,240612_095740,FalseCHOICE,9.0,35,2.0,2583.0,,,,,,,,,,,35.0,35.0,,,B,,,,,,False,cue1.png,Hard,cue2.png,Easy,Left,Hard,Mid,0.016500999998243,,,,,,,,,,,,,8,24,Female,1.1428571428571428,0.5,0.4,1.0,2.888888888888889,3.5,3.4444444444444446,3.4444444444444446,0.375,3.111111111111111,2.5,2.25,3.0,2.25,1.0,1.0,0.4512411333319808,-0.9020646417752584,,,,,,,,,,,,,,,,,,,-0.0016794355990665203,-1.6777602291510747,-0.009296769591794174,-3.5158624452021843,1.203,-0.6457802249916977,,,,,,,,
35,240612_095754,FalseCHOICE,9.0,36,2.0,2583.0,,,,,,,,,,,36.0,36.0,,,B,,,,,,False,cue2.png,Easy,cue1.png,Hard,Right,Hard,Mid,0.016594000000623,,,,,,,,,,,,,8,24,Female,1.1428571428571428,0.5,0.4,1.0,2.888888888888889,3.5,3.4444444444444446,3.4444444444444446,0.375,3.111111111111111,2.5,2.25,3.0,2.25,0.6875,0.75,0.4328330500005298,-1.059560639030548,,,,,,,,,,,,,,,,,,,-0.0001743249233121624,-0.4885745018335925,-0.006757537960984203,-2.484936090098368,2.232,1.3812819953857367,,,,,,,,
36,240612_095811,FalseCHOICE,9.0,37,2.0,2583.0,,,,,,,,,,,37.0,37.0,,,B,,,,,,False,cue1.png,Hard,cue2.png,Easy,Left,Hard,Mid,0.0125257999970926,,,,,,,,,,,,,8,24,Female,1.1428571428571428,0.5,0.4,1.0,2.888888888888889,3.5,3.4444444444444446,3.4444444444444446,0.375,3.111111111111111,2.5,2.25,3.0,2.25,1.0,1.0,0.6680301666662368,0.9527403579746848,,,,,,,,,,,,,,,,,,,,,,,1.9980000000000002,0.920317408827603,,,,,,,,
37,240612_095826,FalseCHOICE,9.0,38,2.0,2583.0,,,,,,,,,,,38.0,38.0,,,B,,,,,,False,cue2.png,Easy,cue1.png,Hard,Right,Hard,Mid,0.0167360999985248,,,,,,,,,,,,,8,24,Female,1.1428571428571428,0.5,0.4,1.0,2.888888888888889,3.5,3.4444444444444446,3.4444444444444446,0.375,3.111111111111111,2.5,2.25,3.0,2.25,1.0,1.0,0.5278629666657556,-0.24650306944070682,,,,,,,,,,,,,,,,,,,,,0.0025768641880653856,1.3048249808612438,1.6690000000000003,0.27220907986338944,,,,,,,,
38,240612_095841,FalseCHOICE,9.0,39,2.0,2583.0,,,,,,,,,,,39.0,39.0,,,B,,,,,,False,cue2.png,Easy,cue1.png,Hard,Right,Hard,Mid,0.0165311000018846,,,,,,,,,,,,,8,24,Female,1.1428571428571428,0.5,0.4,1.0,2.888888888888889,3.5,3.4444444444444446,3.4444444444444446,0.375,3.111111111111111,2.5,2.25,3.0,2.25,1.0,1.0,0.4074550000016946,-1.2766903217353307,,,,,,,,,,,,,,,,,,,0.0012455359795668182,0.6332555055401419,,,,,,,,,,,,
39,240612_095857,FalseCHOICE,9.0,40,2.0,2583.0,,,,,,,,,,,40.0,40.0,,,B,,,,,,False,cue1.png,Hard,cue2.png,Easy,Left,Hard,Mid,0.0160612000036053,,,,,,,,,,,,,8,24,Female,1.1428571428571428,0.5,0.4,1.0,2.888888888888889,3.5,3.4444444444444446,3.4444444444444446,0.375,3.111111111111111,2.5,2.25,3.0,2.25,1.0,1.0,0.5166757333342199,-0.3422188720233405,,,,,,,,,,,,,,,,,,,0.002751035775546859,1.8227486761746154,0.0007493539733105198,0.562857047825039,2.324,1.562515935400045,,,,,,,,
40,240612_095912,FalseCHOICE,9.0,41,2.0,2583.0,,,,,,,,,,,41.0,41.0,,,B,,,,,,False,cue1.png,Hard,cue2.png,Easy,Left,Hard,Mid,0.0153745999996317,,,,,,,,,,,,,8,24,Female,1.1428571428571428,0.5,0.4,1.0,2.888888888888889,3.5,3.4444444444444446,3.4444444444444446,0.375,3.111111111111111,2.5,2.25,3.0,2.25,0.6875,0.75,0.49464189999829,-0.5307360843867848,,,,,,,,,,,,,,,,,,,0.003612705075058984,2.5035523201550838,,,1.4879999999999998,-0.08434899777345857,,,,,,,,
41,240612_095928,FalseCHOICE,9.0,42,2.0,2583.0,,,,,,,,,,,42.0,42.0,,,B,,,,,,False,cue2.png,Easy,cue1.png,Hard,Right,Hard,Mid,0.0156224999955156,,,,,,,,,,,,,8,24,Female,1.1428571428571428,0.5,0.4,1.0,2.888888888888889,3.5,3.4444444444444446,3.4444444444444446,0.375,3.111111111111111,2.5,2.25,3.0,2.25,1.0,1.0,0.5313444833360942,-0.21671588681648143,,,,,,,,,,,,,,,,,,,0.0016223135681294925,0.9309469231279316,0.0005065726720150927,0.46428800079721116,,,,,,,,,,
42,240612_095945,FalseCHOICE,9.0,43,2.0,2583.0,,,,,,,,,,,43.0,43.0,,,B,,,,,,False,cue1.png,Hard,cue2.png,Easy,Left,Hard,Mid,0.0168081000010715,,,,,,,,,,,,,8,24,Female,1.1428571428571428,0.5,0.4,1.0,2.888888888888889,3.5,3.4444444444444446,3.4444444444444446,0.375,3.111111111111111,2.5,2.25,3.0,2.25,0.6875,0.75,0.6755240499999976,1.0168565729936014,,,,,,,,,,,,,,,,,,,,,-0.0001733004450118654,0.1882599669757763,1.863,0.65437630119791,,,,,,,,
43,240612_100000,FalseCHOICE,9.0,44,2.0,2583.0,,,,,,,,,,,44.0,44.0,,,B,,,,,,False,cue2.png,Easy,cue1.png,Hard,Right,Hard,Mid,0.016494600000442,,,,,,,,,,,,,8,24,Female,1.1428571428571428,0.5,0.4,1.0,2.888888888888889,3.5,3.4444444444444446,3.4444444444444446,0.375,3.111111111111111,2.5,2.25,3.0,2.25,0.6875,0.75,0.5449390500010244,-0.100403406283076,,,,,,,,,,,,,,,,,,,,,,,1.9580000000000002,0.8415200436039904,,,,,,,,
44,240612_100016,FalseCHOICE,9.0,45,2.0,2583.0,,,,,,,,,,,45.0,45.0,,,B,,,,,,False,cue1.png,Hard,cue2.png,Easy,Left,Hard,Mid,0.0160488999972585,,,,,,,,,,,,,8,24,Female,1.1428571428571428,0.5,0.4,1.0,2.888888888888889,3.5,3.4444444444444446,3.4444444444444446,0.375,3.111111111111111,2.5,2.25,3.0,2.25,1.0,1.0,0.5942457999990438,0.32145560111762594,,,,,,,,,,,,,,,,,,,0.000943575286504776,0.39467680685387946,,,2.3089999999999997,1.53296692344119,,,,,,,,
45,240612_100032,FalseCHOICE,9.0,46,2.0,2583.0,,,,,,,,,,,46.0,46.0,,,B,,,,,,False,cue1.png,Hard,cue2.png,Easy,Left,Hard,Mid,0.0169445999999879,,,,,,,,,,,,,8,24,Female,1.1428571428571428,0.5,0.4,1.0,2.888888888888889,3.5,3.4444444444444446,3.4444444444444446,0.375,3.111111111111111,2.5,2.25,3.0,2.25,1.0,1.0,0.5060510666674721,-0.4331214631326223,,,,,,,,,,,,,,,,,,,0.0005927951572736552,0.11752594357988147,5.7439663777443875e-05,0.28194029784600183,0.2769999999999999,-2.46993922991833,,,,,,,,
46,240612_100048,FalseCHOICE,9.0,47,2.0,2583.0,,,,,,,,,,,47.0,47.0,,,B,,,,,,False,cue2.png,Easy,cue1.png,Hard,Right,Hard,Mid,0.0156631000063498,,,,,,,,,,,,,8,24,Female,1.1428571428571428,0.5,0.4,1.0,2.888888888888889,3.5,3.4444444444444446,3.4444444444444446,0.375,3.111111111111111,2.5,2.25,3.0,2.25,1.0,1.0,0.5698469000005085,0.11270333625602927,,,,,,,,,,,,,,,,,,,-0.0006964689290242798,-0.9011197114315652,-7.657926693964597e-05,0.22752870101384975,1.823,0.5755789359742973,,,,,,,,
47,240612_100106,FalseCHOICE,9.0,48,2.0,2583.0,,,,,,,,,,,48.0,48.0,,,B,,,,,,False,cue2.png,Easy,cue1.png,Hard,Right,Hard,Mid,0.017507900003693,,,,,,,,,,,,,8,24,Female,1.1428571428571428,0.5,0.4,1.0,2.888888888888889,3.5,3.4444444444444446,3.4444444444444446,0.375,3.111111111111111,2.5,2.25,3.0,2.25,0.6875,0.5833333333333334,0.4958449999976437,-0.5204425937074858,,,,,,,,,,,,,,,,,,,0.00031196663235805253,-0.1043562601895377,0.00012355281557467016,0.3087821935516719,,,,,,,,,,
48,240612_100121,FalseCHOICE,9.0,49,2.0,2583.0,,,,,,,,,,,49.0,49.0,,,B,,,,,,False,cue1.png,Hard,cue2.png,Easy,Left,Hard,Mid,0.0161653999966802,,,,,,,,,,,,,8,24,Female,1.1428571428571428,0.5,0.4,1.0,2.888888888888889,3.5,3.4444444444444446,3.4444444444444446,0.375,3.111111111111111,2.5,2.25,3.0,2.25,0.6875,0.75,0.5041702166672621,-0.4492136516096577,,,,,,,,,,,,,,,,,,,-1.8497834589158765e-05,-0.3654557486256563,-0.0004057366657934077,0.09389101576356054,,,,,,,,,,
49,240612_100137,FalseCHOICE,9.0,50,2.0,2583.0,,,,,,,,,,,50.0,50.0,,,B,,,,,,False,cue2.png,Easy,cue1.png,Hard,Right,Hard,Mid,0.0165620999978273,,,,,,,,,,,,,8,24,Female,1.1428571428571428,0.5,0.4,1.0,2.888888888888889,3.5,3.4444444444444446,3.4444444444444446,0.375,3.111111111111111,2.5,2.25,3.0,2.25,1.0,1.0,0.525548350000463,-0.26630648152876174,,,,,,,,,,,,,,,,,,,0.0024145241369514714,1.5568713263290386,0.00025110226897844326,0.3605671868927841,2.212,1.3418833127739305,,,,,,,,
0,240612_092656,OFFLINERATING,9.0,1,1.0,,,,,,,,,,,,,,,,,T0,cue2.png,Easy,34.0,2.328686399996513,,,,,,,,,,,,,,,,,,,,,,8,24,Female,1.1428571428571428,0.5,0.4,1.0,2.888888888888889,3.5,3.4444444444444446,3.4444444444444446,0.375,3.111111111111111,2.5,2.25,3.0,2.25,,,,,,,,,,,,,,,,,,,,,,,,,,,,,-0.5897678246195885,,,,,1.579,0.7911413130665216,
1,240612_092704,OFFLINERATING,9.0,2,3.0,,,,,,,,,,,,,,,,,T0,cue1.png,Hard,67.0,1.8186191999993755,,,,,,,,,,,,,,,,,,,,,,8,24,Female,1.1428571428571428,0.5,0.4,1.0,2.888888888888889,3.5,3.4444444444444446,3.4444444444444446,0.375,3.111111111111111,2.5,2.25,3.0,2.25,,,,,,,,,,,,,,,,,,,,,,,,,,,,,1.8430244519362142,-1.9572904447107305e-06,-1.0,,,,,
2,240612_094301,OFFLINERATING,9.0,3,1.0,,,,,,,,,,,,,,,,,T1,cue2.png,Easy,20.0,1.8856199000001648,,,,,,,,,,,,,,,,,,,,,,8,24,Female,1.1428571428571428,0.5,0.4,1.0,2.888888888888889,3.5,3.4444444444444446,3.4444444444444446,0.375,3.111111111111111,2.5,2.25,3.0,2.25,,,,,,,,,,,,,,,,,,,,,,,,,,,,,-1.6218615177038684,,,-0.00011129343575850582,0.5207493157731595,,,
3,240612_094309,OFFLINERATING,9.0,4,3.0,,,,,,,,,,,,,,,,,T1,cue1.png,Hard,40.0,1.2518568999948911,,,,,,,,,,,,,,,,,,,,,,8,24,Female,1.1428571428571428,0.5,0.4,1.0,2.888888888888889,3.5,3.4444444444444446,3.4444444444444446,0.375,3.111111111111111,2.5,2.25,3.0,2.25,,,,,,,,,,,,,,,,,,,,,,,,,,,,,-0.14744195615489714,,,-4.6729606350266566e-05,0.5696152667578424,1.4480000000000002,0.6196000518057533,
4,240612_094653,OFFLINERATING,9.0,5,1.0,,,,,,,,,,,,,,,,,T2,cue2.png,Easy,47.0,1.3853797000047052,,,,,,,,,,,,,,,,,,,,,,8,24,Female,1.1428571428571428,0.5,0.4,1.0,2.888888888888889,3.5,3.4444444444444446,3.4444444444444446,0.375,3.111111111111111,2.5,2.25,3.0,2.25,,,,,,,,,,,,,,,,,,,,,,,,,,,,,0.3686048903872428,,,,,-0.10250000000000004,-1.4107413648722746,
5,240612_094700,OFFLINERATING,9.0,6,3.0,,,,,,,,,,,,,,,,,T2,cue1.png,Hard,56.0,0.8348636000009719,,,,,,,,,,,,,,,,,,,,,,8,24,Female,1.1428571428571428,0.5,0.4,1.0,2.888888888888889,3.5,3.4444444444444446,3.4444444444444446,0.375,3.111111111111111,2.5,2.25,3.0,2.25,,,,,,,,,,,,,,,,,,,,,,,,,,,,,1.03209369308428,,,-0.0030857298480293383,-1.730490507844458,,,
6,240612_100201,OFFLINERATING,9.0,7,1.0,,,,,,,,,,,,,,,,,T3,cue2.png,Easy,35.0,1.8151178999978583,,,,,,,,,,,,,,,,,,,,,,8,24,Female,1.1428571428571428,0.5,0.4,1.0,2.888888888888889,3.5,3.4444444444444446,3.4444444444444446,0.375,3.111111111111111,2.5,2.25,3.0,2.25,,,,,,,,,,,,,,,,,,,,,,,,,,,,,-0.51604684654214,0.00011871738789843772,1.0,4.643215636410732e-05,0.6401259253134561,,,
7,240612_100209,OFFLINERATING,9.0,8,3.0,,,,,,,,,,,,,,,,,T3,cue1.png,Hard,37.0,1.4519204000025638,,,,,,,,,,,,,,,,,,,,,,8,24,Female,1.1428571428571428,0.5,0.4,1.0,2.888888888888889,3.5,3.4444444444444446,3.4444444444444446,0.375,3.111111111111111,2.5,2.25,3.0,2.25,,,,,,,,,,,,,,,,,,,,,,,,,,,,,-0.3686048903872428,,,,,,,
0,240612_094725,LEARNINGCHECK,9.0,1,,,,,,,,,,,,1.0,1.0,1.0,,,B,,,,,,,,,,,,,,,cue2.png,Easy,Left,Left,Easy,0.0139001999996253,1.0,,,,,,8,24,Female,1.1428571428571428,0.5,0.4,1.0,2.888888888888889,3.5,3.4444444444444446,3.4444444444444446,0.375,3.111111111111111,2.5,2.25,3.0,2.25,,,,,,,,,,,,,,,,,,,,,,,,,,,,,,,,,,,,
1,240612_094730,LEARNINGCHECK,9.0,2,,,,,,,,,,,,2.0,2.0,2.0,,,B,,,,,,,,,,,,,,,cue1.png,Hard,Right,Right,Hard,0.015942999998515,1.0,,,,,,8,24,Female,1.1428571428571428,0.5,0.4,1.0,2.888888888888889,3.5,3.4444444444444446,3.4444444444444446,0.375,3.111111111111111,2.5,2.25,3.0,2.25,,,,,,,,,,,,,,,,,,,,,,,,,,,,,,,,,,,,
2,240612_100227,LEARNINGCHECK,9.0,1,,,,,,,,,,,,1.0,1.0,1.0,,,B,,,,,,,,,,,,,,,cue2.png,Easy,Middle,Middle,Mid,0.0155366000035428,1.0,,,,,,8,24,Female,1.1428571428571428,0.5,0.4,1.0,2.888888888888889,3.5,3.4444444444444446,3.4444444444444446,0.375,3.111111111111111,2.5,2.25,3.0,2.25,,,,,,,,,,,,,,,,,,,,,,,,,,,,,,,,,,,,
3,240612_100231,LEARNINGCHECK,9.0,2,,,,,,,,,,,,2.0,2.0,2.0,,,B,,,,,,,,,,,,,,,cue1.png,Hard,Middle,Middle,Mid,0.0142312999960267,1.0,,,,,,8,24,Female,1.1428571428571428,0.5,0.4,1.0,2.888888888888889,3.5,3.4444444444444446,3.4444444444444446,0.375,3.111111111111111,2.5,2.25,3.0,2.25,,,,,,,,,,,,,,,,,,,,,,,,,,,,,,,,,,,,
0,240612_100250,DEMANDRATING,9.0,-1,,,,,,,,,,,,,,,,,,,,,,,,,,,,,,,,,,,,,,,1.0,MentalDemand,1.0,33.0,4.579249700000219,8,24,Female,1.1428571428571428,0.5,0.4,1.0,2.888888888888889,3.5,3.4444444444444446,3.4444444444444446,0.375,3.111111111111111,2.5,2.25,3.0,2.25,,,,,,,,,,,,,,,,,,,,,,,,,,,,,,,,,,,,-1.9122101992139586
1,240612_100301,DEMANDRATING,9.0,-1,,,,,,,,,,,,,,,,,,,,,,,,,,,,,,,,,,,,,,,2.0,Effort,1.0,55.0,9.674847099995532,8,24,Female,1.1428571428571428,0.5,0.4,1.0,2.888888888888889,3.5,3.4444444444444446,3.4444444444444446,0.375,3.111111111111111,2.5,2.25,3.0,2.25,,,,,,,,,,,,,,,,,,,,,,,,,,,,,,,,,,,,-0.545359587501454
2,240612_100309,DEMANDRATING,9.0,-1,,,,,,,,,,,,,,,,,,,,,,,,,,,,,,,,,,,,,,,3.0,Frustration,1.0,47.0,6.249211800000921,8,24,Female,1.1428571428571428,0.5,0.4,1.0,2.888888888888889,3.5,3.4444444444444446,3.4444444444444446,0.375,3.111111111111111,2.5,2.25,3.0,2.25,,,,,,,,,,,,,,,,,,,,,,,,,,,,,,,,,,,,-1.0423961735787284
3,240612_100314,DEMANDRATING,9.0,-1,,,,,,,,,,,,,,,,,,,,,,,,,,,,,,,,,,,,,,,4.0,MentalDemand,2.0,79.0,3.56049570000323,8,24,Female,1.1428571428571428,0.5,0.4,1.0,2.888888888888889,3.5,3.4444444444444446,3.4444444444444446,0.375,3.111111111111111,2.5,2.25,3.0,2.25,,,,,,,,,,,,,,,,,,,,,,,,,,,,,,,,,,,,0.9457501707303694
4,240612_100318,DEMANDRATING,9.0,-1,,,,,,,,,,,,,,,,,,,,,,,,,,,,,,,,,,,,,,,5.0,Effort,2.0,87.0,2.155604999999923,8,24,Female,1.1428571428571428,0.5,0.4,1.0,2.888888888888889,3.5,3.4444444444444446,3.4444444444444446,0.375,3.111111111111111,2.5,2.25,3.0,2.25,,,,,,,,,,,,,,,,,,,,,,,,,,,,,,,,,,,,1.4427867568076438
5,240612_100322,DEMANDRATING,9.0,-1,,,,,,,,,,,,,,,,,,,,,,,,,,,,,,,,,,,,,,,6.0,Frustration,2.0,77.0,2.736637800000608,8,24,Female,1.1428571428571428,0.5,0.4,1.0,2.888888888888889,3.5,3.4444444444444446,3.4444444444444446,0.375,3.111111111111111,2.5,2.25,3.0,2.25,,,,,,,,,,,,,,,,,,,,,,,,,,,,,,,,,,,,0.8214910242110508
6,240612_100327,DEMANDRATING,9.0,-1,,,,,,,,,,,,,,,,,,,,,,,,,,,,,,,,,,,,,,,7.0,MentalDemand,3.0,59.0,3.084016900000279,8,24,Female,1.1428571428571428,0.5,0.4,1.0,2.888888888888889,3.5,3.4444444444444446,3.4444444444444446,0.375,3.111111111111111,2.5,2.25,3.0,2.25,,,,,,,,,,,,,,,,,,,,,,,,,,,,,,,,,,,,-0.2968412944628167
7,240612_100330,DEMANDRATING,9.0,-1,,,,,,,,,,,,,,,,,,,,,,,,,,,,,,,,,,,,,,,8.0,Effort,3.0,66.0,2.181095899999491,8,24,Female,1.1428571428571428,0.5,0.4,1.0,2.888888888888889,3.5,3.4444444444444446,3.4444444444444446,0.375,3.111111111111111,2.5,2.25,3.0,2.25,,,,,,,,,,,,,,,,,,,,,,,,,,,,,,,,,,,,0.13806571835479842
8,240612_100334,DEMANDRATING,9.0,-1,,,,,,,,,,,,,,,,,,,,,,,,,,,,,,,,,,,,,,,9.0,Frustration,3.0,71.0,2.2584694999968637,8,24,Female,1.1428571428571428,0.5,0.4,1.0,2.888888888888889,3.5,3.4444444444444446,3.4444444444444446,0.375,3.111111111111111,2.5,2.25,3.0,2.25,,,,,,,,,,,,,,,,,,,,,,,,,,,,,,,,,,,,0.44871358465309497
