,END,Phase,Block,TrialN,NbackLevel,ISI,Letter_Resp,Letter_RT,Letter_Accuracy,Trial_A_measure,Trial_ACC,Trial_RT,TrialCountCali,CaliEnd_A_measure,ISI_calibrated,TrialIndex,TrialNumber_total,TrialNumber_valid,CueLearning,TrialDemandLearning,CueMapping,OfflineRatingTimePoint,CueFigure,TrialDemand,OfflineRating,OfflineRatingRT,PhaseType,CueLeft,CueDemandLeft,CueRight,CueDemandRight,Choice,ChoiceDemand,TaskDemand,ChoiceRT,CueCheck,CueDemandCheck,CorrectAnswer,Answer,AnswerDemand,AnswerRT,AnswerACC,DemandRatingQuesIndex,QuesTLX,DemandLevel,DemandRating,DemandRatingRT,PID,Age,Gender,BAI_bis,BAI_bas_d,BAI_bas_rr,BAI_bas_fs,NFC,BFI_ext,BFI_agr,BFI_con,BFI_neu,BFI_open,UPPS_lps,UPPS_lpm,UPPS_pu,UPPS_ss,Task_A_measure,Task_ACC,Task_RT,Task_RT_z,cue_i_on_zyg_values,cue_i_on_zyg_zvalues,cue_e_on_zyg_values,cue_e_on_zyg_zvalues,cue_i_on_cor_values,cue_i_on_cor_zvalues,cue_e_on_cor_values,cue_e_on_cor_zvalues,cue_i_on_scr_values,cue_i_on_scr_zvalues,cue_e_on_scr_values,cue_e_on_scr_zvalues,cue_e_true_zyg_values,cue_e_true_zyg_zvalues,cue_e_true_cor_values,cue_e_true_cor_zvalues,cue_e_true_scr_values,cue_e_true_scr_zvalues,cue_e_false_zyg_values,cue_e_false_zyg_zvalues,cue_e_false_cor_values,cue_e_false_cor_zvalues,cue_e_false_scr_values,cue_e_false_scr_zvalues,OfflineRating_z,cue_i_off_zyg_values,cue_i_off_zyg_zvalues,cue_i_off_cor_values,cue_i_off_cor_zvalues,cue_i_off_scr_values,cue_i_off_scr_zvalues,DemandRating_z
0,240613_092803,PRACTICE,0.0,1,3.0,583.0,,,,,,,,,,31.0,1.0,1.0,cue1.png,Hard,B,,,,,,,,,,,,,,,,,,,,,,,,,,,10,26,Female,0.14285714285714285,1.75,1.0,1.5,2.2777777777777777,2.0,2.111111111111111,2.7777777777777777,2.5,2.4444444444444446,2.25,1.75,2.0,2.25,,,,,,,,,,,,,,,,,,,,,,,,,,,,,,,,,,,,
0,240613_093045,LEARNING,1.0,1,1.0,583.0,,,,,,,,,,1.0,1.0,1.0,cue2.png,Easy,B,,,,,,,,,,,,,,,,,,,,,,,,,,,10,26,Female,0.14285714285714285,1.75,1.0,1.5,2.2777777777777777,2.0,2.111111111111111,2.7777777777777777,2.5,2.4444444444444446,2.25,1.75,2.0,2.25,0.8920454545454546,0.9090909090909092,0.4215531533331765,2.2059190827397357,0.012331390865845584,-0.5350602021560645,0.01467621453382115,0.3462986994197225,0.004961205020470165,-1.0163639024367341,0.006581357214680669,0.1117082042395403,,,8.586638283156001e+45,5.398445596367126,,,,,,,,,,,,,,,,,,,,
1,240613_093109,LEARNING,1.0,2,3.0,583.0,,,,,,,,,,2.0,2.0,2.0,cue1.png,Hard,B,,,,,,,,,,,,,,,,,,,,,,,,,,,10,26,Female,0.14285714285714285,1.75,1.0,1.5,2.2777777777777777,2.0,2.111111111111111,2.7777777777777777,2.5,2.4444444444444446,2.25,1.75,2.0,2.25,0.7386363636363636,0.8181818181818181,0.3771720199981549,0.5298720225471122,0.010788975869696226,-1.1077180430044649,0.017316197127068597,1.1274587371068467,0.006907206482375862,-0.23198136093852642,0.008691821349925877,1.0189692276774576,4.615219099064146e+45,-0.18183715605614104,1.636858086577316e+45,0.8951703402676888,,,,,,,,,,,,,,,,,,,,
2,240613_093133,LEARNING,1.0,3,1.0,583.0,,,,,,,,,,3.0,3.0,3.0,cue2.png,Easy,B,,,,,,,,,,,,,,,,,,,,,,,,,,,10,26,Female,0.14285714285714285,1.75,1.0,1.5,2.2777777777777777,2.0,2.111111111111111,2.7777777777777777,2.5,2.4444444444444446,2.25,1.75,2.0,2.25,0.905,0.9,0.3579626399984894,-0.19556742564193103,,,0.009152615887347674,-1.2881115189977064,0.006752166407908376,-0.29447397979081974,0.006380649770345926,0.02542668998978929,-4.127936305243141e+45,-0.18321696842613025,-8.555837058949683e+44,-0.7198665578537964,,,,,,,,,,,,,,,,,,,,
3,240613_093157,LEARNING,1.0,4,3.0,583.0,,,,,,,,,,4.0,4.0,4.0,cue1.png,Hard,B,,,,,,,,,,,,,,,,,,,,,,,,,,,10,26,Female,0.14285714285714285,1.75,1.0,1.5,2.2777777777777777,2.0,2.111111111111111,2.7777777777777777,2.5,2.4444444444444446,2.25,1.75,2.0,2.25,0.0151515151515151,0.7272727272727273,0.3886045533348806,0.9616199850186502,0.013945509998969229,0.06421948583600605,0.013327844758077623,-0.05267839517556271,0.00608389544933515,-0.5638366103727038,0.00649134515428546,0.0730131927147769,-4.550399195266858e+45,-0.18328363995312025,-9.76151386828763e+44,-0.7979912522868288,,,,,,,,,,,,,,,,,,,,
4,240613_093222,LEARNING,1.0,5,3.0,583.0,,,,,,,,,,5.0,5.0,5.0,cue1.png,Hard,B,,,,,,,,,,,,,,,,,,,,,,,,,,,10,26,Female,0.14285714285714285,1.75,1.0,1.5,2.2777777777777777,2.0,2.111111111111111,2.7777777777777777,2.5,2.4444444444444446,2.25,1.75,2.0,2.25,0.5875,0.7,0.4002639800038499,1.4019365412575797,,,0.01458169990047941,0.3183322064844797,0.007900313652208226,0.1683142920207263,0.0047581317760605,-0.6720726474584636,3.5863159988192695e+49,5.477225431099952,,,,,,,,,,,,,,,,,,,,,,
5,240613_093246,LEARNING,1.0,6,1.0,583.0,,,,,,,,,,6.0,6.0,6.0,cue2.png,Easy,B,,,,,,,,,,,,,,,,,,,,,,,,,,,10,26,Female,0.14285714285714285,1.75,1.0,1.5,2.2777777777777777,2.0,2.111111111111111,2.7777777777777777,2.5,2.4444444444444446,2.25,1.75,2.0,2.25,1.0,1.0,0.3553537333287143,-0.29409240744411874,0.012279595889768515,-0.5542903051057487,,,,,0.007876092274022162,0.6682979303580725,-7.631580508091511e+44,-0.18268595159718867,-1.4452156266672725e+44,-0.2591169420997411,,,,,,,,,,,,,,,,,,,,
6,240613_093309,LEARNING,1.0,7,3.0,583.0,,,,,,,,,,7.0,7.0,7.0,cue1.png,Hard,B,,,,,,,,,,,,,,,,,,,,,,,,,,,10,26,Female,0.14285714285714285,1.75,1.0,1.5,2.2777777777777777,2.0,2.111111111111111,2.7777777777777777,2.5,2.4444444444444446,2.25,1.75,2.0,2.25,0.77,0.8,0.3624244999955408,-0.02706593031963904,0.013609643344066441,-0.0604789084935186,0.017764985283399662,1.260253314620279,0.010217024787466694,1.1021202545361317,0.007642694996084927,0.5679634827298699,4.838150349130254e+44,-0.18248915892804826,,,,,,,,,,,,,,,,,,,,,,
7,240613_093333,LEARNING,1.0,8,3.0,583.0,,,,,,,,,,8.0,8.0,8.0,cue1.png,Hard,B,,,,,,,,,,,,,,,,,,,,,,,,,,,10,26,Female,0.14285714285714285,1.75,1.0,1.5,2.2777777777777777,2.0,2.111111111111111,2.7777777777777777,2.5,2.4444444444444446,2.25,1.75,2.0,2.25,0.5875,0.7,0.3430283866648096,-0.7595573356592588,0.012390488462639303,-0.5131188295269672,0.011759714345647711,-0.5166817621694526,0.006973881288982221,-0.20510648171383047,0.004094092568075086,-0.9575344477224864,,,,,,,,,,,,,,,,,,,,,,,,
8,240613_093357,LEARNING,1.0,9,1.0,583.0,,,,,,,,,,9.0,9.0,9.0,cue2.png,Easy,B,,,,,,,,,,,,,,,,,,,,,,,,,,,10,26,Female,0.14285714285714285,1.75,1.0,1.5,2.2777777777777777,2.0,2.111111111111111,2.7777777777777777,2.5,2.4444444444444446,2.25,1.75,2.0,2.25,0.8920454545454546,0.9090909090909092,0.3573089599997426,-0.22025355593824084,,,0.01017253608220742,-0.9863213102696816,,,0.006956811776952921,0.2731112267940935,,,,,,,,,,,,,,,,,,,,,,,,
9,240613_093420,LEARNING,1.0,10,1.0,583.0,,,,,,,,,,10.0,10.0,10.0,cue2.png,Easy,B,,,,,,,,,,,,,,,,,,,,,,,,,,,10,26,Female,0.14285714285714285,1.75,1.0,1.5,2.2777777777777777,2.0,2.111111111111111,2.7777777777777777,2.5,2.4444444444444446,2.25,1.75,2.0,2.25,0.8920454545454546,0.9090909090909092,0.3330222266648585,-1.1374385160504121,,,,,0.0070802672219268305,-0.1622250810076709,,,,,,,,,,,,,,,,,,,,,,,,,,
10,240613_093445,LEARNING,1.0,11,3.0,583.0,,,,,,,,,,11.0,11.0,11.0,cue1.png,Hard,B,,,,,,,,,,,,,,,,,,,,,,,,,,,10,26,Female,0.14285714285714285,1.75,1.0,1.5,2.2777777777777777,2.0,2.111111111111111,2.7777777777777777,2.5,2.4444444444444446,2.25,1.75,2.0,2.25,0.5875,0.7,0.4100268399963776,1.7706295321739718,0.01946459114192626,2.1133081543741112,0.013427721877106403,-0.023125164686784938,,,0.005062008654771096,-0.5414399381060906,,,2.005594068115793e+44,-0.03551352627265056,,,,,,,,,,,,,,,,,,,,
11,240613_093509,LEARNING,1.0,12,1.0,583.0,,,,,,,,,,12.0,12.0,12.0,cue2.png,Easy,B,,,,,,,,,,,,,,,,,,,,,,,,,,,10,26,Female,0.14285714285714285,1.75,1.0,1.5,2.2777777777777777,2.0,2.111111111111111,2.7777777777777777,2.5,2.4444444444444446,2.25,1.75,2.0,2.25,0.905,0.9,0.3464998066638751,-0.6284596631368602,0.015163575728287026,0.5164550335348805,0.015017956197934102,0.44741865827875127,0.00792763789431435,0.17932798285666482,,,1.69847096014246e+45,-0.18229746643335845,,,,,,,,,,,,,,,,,,,,,,
12,240613_093533,LEARNING,1.0,13,1.0,583.0,,,,,,,,,,13.0,13.0,13.0,cue2.png,Easy,B,,,,,,,,,,,,,,,,,,,,,,,,,,,10,26,Female,0.14285714285714285,1.75,1.0,1.5,2.2777777777777777,2.0,2.111111111111111,2.7777777777777777,2.5,2.4444444444444446,2.25,1.75,2.0,2.25,0.8920454545454546,0.9090909090909092,0.3762696066696662,0.4957925141471171,,,,,0.0055398486007507235,-0.7831277353489617,0.005583616118303741,-0.31720768829223583,,,,,,,,,,,,,,,,,,,,,,,,
13,240613_093557,LEARNING,1.0,14,1.0,583.0,,,,,,,,,,14.0,14.0,14.0,cue2.png,Easy,B,,,,,,,,,,,,,,,,,,,,,,,,,,,10,26,Female,0.14285714285714285,1.75,1.0,1.5,2.2777777777777777,2.0,2.111111111111111,2.7777777777777777,2.5,2.4444444444444446,2.25,1.75,2.0,2.25,0.7386363636363636,0.8181818181818181,0.3570621066707342,-0.2295759360870336,0.011944669192524217,-0.6786397180492372,0.016479644506125504,0.8799262425462215,0.00843066906652903,0.3820867561867615,0.004615025892843219,-0.7335920013766069,,,-2.056503000022163e+44,-0.29872676032320483,,,,,,,,,,,,,,,,,,,,
14,240613_093621,LEARNING,1.0,15,3.0,583.0,,,,,,,,,,15.0,15.0,15.0,cue1.png,Hard,B,,,,,,,,,,,,,,,,,,,,,,,,,,,10,26,Female,0.14285714285714285,1.75,1.0,1.5,2.2777777777777777,2.0,2.111111111111111,2.7777777777777777,2.5,2.4444444444444446,2.25,1.75,2.0,2.25,0.7386363636363636,0.8181818181818181,0.4000923133319399,1.3954535743036751,0.015600553871568335,0.678693445800152,0.012291813092696809,-0.35923592204864785,0.0060056148584261716,-0.5953894791907136,0.004000810440445217,-0.9976352185285764,,,,,,,,,,,,,,,,,,,,,,,,
15,240613_093645,LEARNING,1.0,16,1.0,583.0,,,,,,,,,,16.0,16.0,16.0,cue2.png,Easy,B,,,,,,,,,,,,,,,,,,,,,,,,,,,10,26,Female,0.14285714285714285,1.75,1.0,1.5,2.2777777777777777,2.0,2.111111111111111,2.7777777777777777,2.5,2.4444444444444446,2.25,1.75,2.0,2.25,0.8920454545454546,0.9090909090909092,0.379594453338844,0.6213548661357565,,,0.013055178884468208,-0.13335911051418833,0.005539350910067173,-0.7833283415103061,,,,,,,,,,,,,,,,,,,,,,,,,,
16,240613_093709,LEARNING,1.0,17,1.0,583.0,,,,,,,,,,17.0,17.0,17.0,cue2.png,Easy,B,,,,,,,,,,,,,,,,,,,,,,,,,,,10,26,Female,0.14285714285714285,1.75,1.0,1.5,2.2777777777777777,2.0,2.111111111111111,2.7777777777777777,2.5,2.4444444444444446,2.25,1.75,2.0,2.25,1.0,1.0,0.3905759533323968,1.036069619852411,,,,,,,,,,,,,,,,,,,,,,,,,,,,,,,,
17,240613_093734,LEARNING,1.0,18,3.0,583.0,,,,,,,,,,18.0,18.0,18.0,cue1.png,Hard,B,,,,,,,,,,,,,,,,,,,,,,,,,,,10,26,Female,0.14285714285714285,1.75,1.0,1.5,2.2777777777777777,2.0,2.111111111111111,2.7777777777777777,2.5,2.4444444444444446,2.25,1.75,2.0,2.25,0.8920454545454546,0.9090909090909092,0.3745763533341232,0.4318470476405485,0.01051496032808571,-1.2094527569493676,0.014379291636882964,0.2584404302191332,,,0.0060665376166625165,-0.10960603066432771,,,,,,,,,,,,,,,,,,,,,,,,
18,240613_093758,LEARNING,1.0,19,3.0,583.0,,,,,,,,,,19.0,19.0,19.0,cue1.png,Hard,B,,,,,,,,,,,,,,,,,,,,,,,,,,,10,26,Female,0.14285714285714285,1.75,1.0,1.5,2.2777777777777777,2.0,2.111111111111111,2.7777777777777777,2.5,2.4444444444444446,2.25,1.75,2.0,2.25,0.0151515151515151,0.7272727272727273,0.4051092866672358,1.5849188442915434,,,0.02019965410460305,1.9806618479914844,,,,,,,,,,,,,,,,,,,,,,,,,,,,
19,240613_093822,LEARNING,1.0,20,3.0,583.0,,,,,,,,,,20.0,20.0,20.0,cue1.png,Hard,B,,,,,,,,,,,,,,,,,,,,,,,,,,,10,26,Female,0.14285714285714285,1.75,1.0,1.5,2.2777777777777777,2.0,2.111111111111111,2.7777777777777777,2.5,2.4444444444444446,2.25,1.75,2.0,2.25,0.905,0.9,0.3772007533349096,0.5309571328401207,0.015261439906177987,0.5527894110839524,0.012764564158992076,-0.21935081761333067,0.006231779749091211,-0.5042282980661208,,,,,9.46858344417793e+43,-0.10411682382190064,,,,,,,,,,,,,,,,,,,,
20,240613_093846,LEARNING,1.0,21,1.0,583.0,,,,,,,,,,21.0,21.0,21.0,cue2.png,Easy,B,,,,,,,,,,,,,,,,,,,,,,,,,,,10,26,Female,0.14285714285714285,1.75,1.0,1.5,2.2777777777777777,2.0,2.111111111111111,2.7777777777777777,2.5,2.4444444444444446,2.25,1.75,2.0,2.25,1.0,1.0,0.3679662866634317,0.18221883901732702,0.015953640187977344,0.8097850444248316,0.015066127033168866,0.46167221114824974,0.01058220835144896,1.2493162446919004,0.004986310078803061,-0.5739817692410567,5.76730499406088e+44,-0.18247449535393317,2.403302575223603e+43,-0.1498979904409801,,,,,,,,,,,,,,,,,,,,
21,240613_093912,LEARNING,1.0,22,3.0,583.0,,,,,,,,,,22.0,22.0,22.0,cue1.png,Hard,B,,,,,,,,,,,,,,,,,,,,,,,,,,,10,26,Female,0.14285714285714285,1.75,1.0,1.5,2.2777777777777777,2.0,2.111111111111111,2.7777777777777777,2.5,2.4444444444444446,2.25,1.75,2.0,2.25,0.675,0.7333333333333334,0.4163153928571513,2.0081158184209364,0.01830713340884866,1.6835747506194463,0.0216086723451035,2.3975845749316056,,,,,2.201001780965108e+44,-0.182530777429008,-3.375595407624248e+43,-0.18734373341065425,,,,,,,,,,,,,,,,,,,,
22,240613_093936,LEARNING,1.0,23,3.0,583.0,,,,,,,,,,23.0,23.0,23.0,cue1.png,Hard,B,,,,,,,,,,,,,,,,,,,,,,,,,,,10,26,Female,0.14285714285714285,1.75,1.0,1.5,2.2777777777777777,2.0,2.111111111111111,2.7777777777777777,2.5,2.4444444444444446,2.25,1.75,2.0,2.25,0.0151515151515151,0.7272727272727273,0.3732949333362436,0.38345440736916125,0.015325973110584309,0.5767488808703667,,,0.005452878393834616,-0.8181831622183106,0.005743610644853462,-0.24842812673617118,-1.794792623218285e+44,-0.18259383757482345,-8.34537887491671e+43,-0.21954662657186216,,,,,,,,,,,,,,,,,,,,
23,240613_093959,LEARNING,1.0,24,3.0,583.0,,,,,,,,,,24.0,24.0,24.0,cue1.png,Hard,B,,,,,,,,,,,,,,,,,,,,,,,,,,,10,26,Female,0.14285714285714285,1.75,1.0,1.5,2.2777777777777777,2.0,2.111111111111111,2.7777777777777777,2.5,2.4444444444444446,2.25,1.75,2.0,2.25,0.7386363636363636,0.8181818181818181,0.3110677466708391,-1.966546267181168,0.015793526195198526,0.7503389591473676,,,0.01037764209059956,1.1668609091071562,0.0051034159322798445,-0.5236394892176282,,,,,,,,,,,,,,,,,,,,,,,,
24,240613_094022,LEARNING,1.0,25,1.0,583.0,,,,,,,,,,25.0,25.0,25.0,cue2.png,Easy,B,,,,,,,,,,,,,,,,,,,,,,,,,,,10,26,Female,0.14285714285714285,1.75,1.0,1.5,2.2777777777777777,2.0,2.111111111111111,2.7777777777777777,2.5,2.4444444444444446,2.25,1.75,2.0,2.25,0.8920454545454546,0.9090909090909092,0.3488764066656585,-0.5387077089410529,,,,,0.006788194999041644,-0.27995179240662454,0.004946946257188391,-0.5909037630755569,,,-9.772419016531484e+43,-0.22879347233880898,,,,,,,,,,,,,,,,,,,,
25,240613_094047,LEARNING,1.0,26,1.0,583.0,,,,,,,,,,26.0,26.0,26.0,cue2.png,Easy,B,,,,,,,,,,,,,,,,,,,,,,,,,,,10,26,Female,0.14285714285714285,1.75,1.0,1.5,2.2777777777777777,2.0,2.111111111111111,2.7777777777777777,2.5,2.4444444444444446,2.25,1.75,2.0,2.25,0.8920454545454546,0.9090909090909092,0.3804137466688795,0.6522953598558173,0.015135909130338097,0.5061831584010107,,,0.012550524635707293,2.042693310301565,,,,,-6.085101340900321e+43,-0.20490062108256005,,,,,,,,,,,,,,,,,,,,
26,240613_094111,LEARNING,1.0,27,3.0,583.0,,,,,,,,,,27.0,27.0,27.0,cue1.png,Hard,B,,,,,,,,,,,,,,,,,,,,,,,,,,,10,26,Female,0.14285714285714285,1.75,1.0,1.5,2.2777777777777777,2.0,2.111111111111111,2.7777777777777777,2.5,2.4444444444444446,2.25,1.75,2.0,2.25,0.7386363636363636,0.8181818181818181,0.3777733199996874,0.552580029849554,0.016042721101229975,0.842858428417732,0.009684007852085584,-1.1308748128682606,0.007215446208295466,-0.10773794985148662,0.0053912985379367395,-0.39988250937778697,4.2167475248202394e+44,-0.18249896567703167,,,,,,,,,,,,,,,,,,,,,,
27,240613_094135,LEARNING,1.0,28,1.0,583.0,,,,,,,,,,28.0,28.0,28.0,cue2.png,Easy,B,,,,,,,,,,,,,,,,,,,,,,,,,,,10,26,Female,0.14285714285714285,1.75,1.0,1.5,2.2777777777777777,2.0,2.111111111111111,2.7777777777777777,2.5,2.4444444444444446,2.25,1.75,2.0,2.25,0.7386363636363636,0.8181818181818181,0.3810435466604152,0.6760796651450592,,,0.011673495966585198,-0.5421934274395435,0.0046812997291608375,-1.1291864403812848,,,-7.807393521905251e+43,-0.18257783416206808,3.083113503850823e+43,-0.1454929939560265,,,,,,,,,,,,,,,,,,,,
28,240613_094159,LEARNING,1.0,29,1.0,583.0,,,,,,,,,,29.0,29.0,29.0,cue2.png,Easy,B,,,,,,,,,,,,,,,,,,,,,,,,,,,10,26,Female,0.14285714285714285,1.75,1.0,1.5,2.2777777777777777,2.0,2.111111111111111,2.7777777777777777,2.5,2.4444444444444446,2.25,1.75,2.0,2.25,1.0,1.0,0.3744801466683081,0.4282138168667162,0.012511330742098778,-0.4682532913863095,0.009732948983497098,-1.1163933325146949,0.006165684448372927,-0.5308695935498999,0.006137619410579031,-0.07904889395704723,2.0612969972024417e+44,-0.18253298219810873,6.673696509316846e+43,-0.1222269579863618,,,,,,,,,,,,,,,,,,,,
29,240613_094223,LEARNING,1.0,30,3.0,583.0,,,,,,,,,,30.0,30.0,30.0,cue1.png,Hard,B,,,,,,,,,,,,,,,,,,,,,,,,,,,10,26,Female,0.14285714285714285,1.75,1.0,1.5,2.2777777777777777,2.0,2.111111111111111,2.7777777777777777,2.5,2.4444444444444446,2.25,1.75,2.0,2.25,0.905,0.9,0.3513045333325862,-0.4470098577131732,0.021539638845740894,2.883718414058109,,,0.010298731573261215,1.1350541333403097,,,4.326894435442468e+44,-0.18249722737932603,,,,,,,,,,,,,,,,,,,,,,
30,240613_094246,LEARNING,1.0,31,3.0,583.0,,,,,,,,,,31.0,31.0,31.0,cue1.png,Hard,B,,,,,,,,,,,,,,,,,,,,,,,,,,,10,26,Female,0.14285714285714285,1.75,1.0,1.5,2.2777777777777777,2.0,2.111111111111111,2.7777777777777777,2.5,2.4444444444444446,2.25,1.75,2.0,2.25,0.075,0.6,0.3394614866682483,-0.8942607964318592,0.015153937537708448,0.5128766286177906,,,0.007659212762638097,0.07113279847071749,0.017760263784658593,4.917374430079783,,,,,,,,,,,,,,,,,,,,,,,,
31,240613_094310,LEARNING,1.0,32,1.0,583.0,,,,,,,,,,32.0,32.0,32.0,cue2.png,Easy,B,,,,,,,,,,,,,,,,,,,,,,,,,,,10,26,Female,0.14285714285714285,1.75,1.0,1.5,2.2777777777777777,2.0,2.111111111111111,2.7777777777777777,2.5,2.4444444444444446,2.25,1.75,2.0,2.25,0.8920454545454546,0.9090909090909092,0.3358563466676666,-1.0304083854072335,,,0.015395076085607348,0.5590068886030354,,,0.006163536763036291,-0.0679073619487609,4.629324167824304e+44,-0.18249245454541774,6.151940149067164e+43,-0.12560780233016075,,,,,,,,,,,,,,,,,,,,
32,240613_094333,LEARNING,1.0,33,1.0,583.0,,,,,,,,,,33.0,33.0,33.0,cue2.png,Easy,B,,,,,,,,,,,,,,,,,,,,,,,,,,,10,26,Female,0.14285714285714285,1.75,1.0,1.5,2.2777777777777777,2.0,2.111111111111111,2.7777777777777777,2.5,2.4444444444444446,2.25,1.75,2.0,2.25,0.905,0.9,0.3509266600051584,-0.46128018908979124,0.014849901152015784,0.3999959702964079,0.012778544657673354,-0.21521404530858657,0.00562806260697276,-0.7475709653512561,0.00626130499573903,-0.025878073044831074,2.7452083278068572e+44,-0.1825221889630545,2.797396467036081e+43,-0.14734436540338144,,,,,,,,,,,,,,,,,,,,
33,240613_094358,LEARNING,1.0,34,1.0,583.0,,,,,,,,,,34.0,34.0,34.0,cue2.png,Easy,B,,,,,,,,,,,,,,,,,,,,,,,,,,,10,26,Female,0.14285714285714285,1.75,1.0,1.5,2.2777777777777777,2.0,2.111111111111111,2.7777777777777777,2.5,2.4444444444444446,2.25,1.75,2.0,2.25,1.0,1.0,0.380957599998995,0.6728339019483582,0.011716539912120946,-0.7633380783972493,,,0.005680010182745309,-0.7266322495759657,0.0055419969993061105,-0.335099205075575,,,-2.1050659053163056e+43,-0.1791110355294977,,,,,,,,,,,,,,,,,,,,
34,240613_094422,LEARNING,1.0,35,3.0,583.0,,,,,,,,,,35.0,35.0,35.0,cue1.png,Hard,B,,,,,,,,,,,,,,,,,,,,,,,,,,,10,26,Female,0.14285714285714285,1.75,1.0,1.5,2.2777777777777777,2.0,2.111111111111111,2.7777777777777777,2.5,2.4444444444444446,2.25,1.75,2.0,2.25,0.0151515151515151,0.7272727272727273,0.3698580466695906,0.25366088113414326,0.010121824636482838,-1.3554136279703224,,,0.009047247522335917,0.630613484283476,0.006338196607296514,0.007176628539722841,-2.1470149638209226e+44,-0.1825993962172137,-6.17449389207499e+43,-0.20547986136411983,,,,,,,,,,,,,,,,,,,,
35,240613_094446,LEARNING,1.0,36,3.0,583.0,,,,,,,,,,36.0,36.0,36.0,cue1.png,Hard,B,,,,,,,,,,,,,,,,,,,,,,,,,,,10,26,Female,0.14285714285714285,1.75,1.0,1.5,2.2777777777777777,2.0,2.111111111111111,2.7777777777777777,2.5,2.4444444444444446,2.25,1.75,2.0,2.25,0.0151515151515151,0.7272727272727273,0.378710813333358,0.5879843295547371,,,0.008731049355059726,-1.4128513294388798,,,0.004816526167917655,-0.6469696595258106,-3.966177454420547e+44,-0.1826281055651719,-8.195703135834274e+43,-0.2185767670465492,,,,,,,,,,,,,,,,,,,,
36,240613_094509,LEARNING,1.0,37,1.0,583.0,,,,,,,,,,37.0,37.0,37.0,cue2.png,Easy,B,,,,,,,,,,,,,,,,,,,,,,,,,,,10,26,Female,0.14285714285714285,1.75,1.0,1.5,2.2777777777777777,2.0,2.111111111111111,2.7777777777777777,2.5,2.4444444444444446,2.25,1.75,2.0,2.25,0.905,0.9,0.3470020399991578,-0.6094928941096467,0.01186393869388919,-0.7086128142356493,0.008241793196616465,-1.5576202230466463,,,0.0045410686360482354,-0.7653852620958568,-4.648248701510765e+44,-0.18263886976071037,-7.977530309674112e+43,-0.2171630643655867,,,,,,,,,,,,,,,,,,,,
37,240613_094533,LEARNING,1.0,38,3.0,583.0,,,,,,,,,,38.0,38.0,38.0,cue1.png,Hard,B,,,,,,,,,,,,,,,,,,,,,,,,,,,10,26,Female,0.14285714285714285,1.75,1.0,1.5,2.2777777777777777,2.0,2.111111111111111,2.7777777777777777,2.5,2.4444444444444446,2.25,1.75,2.0,2.25,0.5875,0.7,0.3452276466685968,-0.6765026007537397,0.015992162524749838,0.8240873678952625,,,0.007767376534567853,0.1147307998006907,0.005533089382240558,-0.33892847354800365,-3.703832956993463e+44,-0.18262396534157974,,,,,,,,,,,,,,,,,,,,,,
38,240613_094557,LEARNING,1.0,39,3.0,583.0,,,,,,,,,,39.0,39.0,39.0,cue1.png,Hard,B,,,,,,,,,,,,,,,,,,,,,,,,,,,10,26,Female,0.14285714285714285,1.75,1.0,1.5,2.2777777777777777,2.0,2.111111111111111,2.7777777777777777,2.5,2.4444444444444446,2.25,1.75,2.0,2.25,0.5875,0.7,0.3692332333341862,0.2300648961900776,0.012131641571119171,-0.6092218253992177,0.01230621341724597,-0.3549749249889315,0.014728719083313904,2.9206668011425263,,,-1.2370492679785578e+44,-0.18258503547597865,-6.889661963842467e+41,-0.1659171926998541,,,,,,,,,,,,,,,,,,,,
39,240613_094621,LEARNING,1.0,40,3.0,583.0,,,,,,,,,,40.0,40.0,40.0,cue1.png,Hard,B,,,,,,,,,,,,,,,,,,,,,,,,,,,10,26,Female,0.14285714285714285,1.75,1.0,1.5,2.2777777777777777,2.0,2.111111111111111,2.7777777777777777,2.5,2.4444444444444446,2.25,1.75,2.0,2.25,0.0151515151515151,0.7272727272727273,0.369957053331503,0.25739985335427945,,,0.012350628343536642,-0.34183273019422505,0.004896050944868122,-1.0426258145730434,0.005712892239726152,-0.2616335687092212,1.160126099723039e+44,-0.18254720414309672,3.790717770075896e+43,-0.14090790393437302,,,,,,,,,,,,,,,,,,,,
40,240613_094645,LEARNING,1.0,41,1.0,583.0,,,,,,,,,,41.0,41.0,41.0,cue2.png,Easy,B,,,,,,,,,,,,,,,,,,,,,,,,,,,10,26,Female,0.14285714285714285,1.75,1.0,1.5,2.2777777777777777,2.0,2.111111111111111,2.7777777777777777,2.5,2.4444444444444446,2.25,1.75,2.0,2.25,0.8920454545454546,0.9090909090909092,0.3396712066722102,-0.8863407509149845,0.010268414385115809,-1.3009887363865156,0.01025731385105988,-0.9612359156609417,0.004745021205178455,-1.1035019718517651,0.00421281032954632,-0.9064992294622453,3.5144685125795375e+44,-0.18251004878402752,7.594142582802907e+43,-0.11626270888774394,,,,,,,,,,,,,,,,,,,,
41,240613_094707,LEARNING,1.0,42,3.0,583.0,,,,,,,,,,42.0,42.0,42.0,cue1.png,Hard,B,,,,,,,,,,,,,,,,,,,,,,,,,,,10,26,Female,0.14285714285714285,1.75,1.0,1.5,2.2777777777777777,2.0,2.111111111111111,2.7777777777777777,2.5,2.4444444444444446,2.25,1.75,2.0,2.25,0.5875,0.7,0.2948836133291479,-2.577737714329319,0.009925976190347862,-1.4281269694362462,0.01059351732645943,-0.861754684161383,,,0.006312458664034263,-0.003887777794092325,4.615274306849301e+44,-0.18249267627511453,8.254663592008005e+43,-0.11198270602038496,,,,,,,,,,,,,,,,,,,,
42,240613_094731,LEARNING,1.0,43,3.0,583.0,,,,,,,,,,43.0,43.0,43.0,cue1.png,Hard,B,,,,,,,,,,,,,,,,,,,,,,,,,,,10,26,Female,0.14285714285714285,1.75,1.0,1.5,2.2777777777777777,2.0,2.111111111111111,2.7777777777777777,2.5,2.4444444444444446,2.25,1.75,2.0,2.25,0.7386363636363636,0.8181818181818181,0.3541533266621021,-0.33942559101614256,0.013412841103085221,-0.1335463687268468,0.00824468771236089,-1.5567637476919285,0.00501033928942893,-0.9965591574172772,,,3.7889947442805276e+44,-0.18250571631282153,5.679918379054839e+43,-0.12866637957593205,,,,,,,,,,,,,,,,,,,,
43,240613_094755,LEARNING,1.0,44,1.0,583.0,,,,,,,,,,44.0,44.0,44.0,cue2.png,Easy,B,,,,,,,,,,,,,,,,,,,,,,,,,,,10,26,Female,0.14285714285714285,1.75,1.0,1.5,2.2777777777777777,2.0,2.111111111111111,2.7777777777777777,2.5,2.4444444444444446,2.25,1.75,2.0,2.25,0.7386363636363636,0.8181818181818181,0.3548574200035849,-0.31283560814695277,0.011066323687051075,-1.004746143323152,0.017804196976182067,1.2718558939289557,0.004922995532807811,-1.0317651524504887,0.007493892435671699,0.5039952015370686,1.3915405422000003e+44,-0.18254355204616424,2.912556772556821e+42,-0.16358350029354027,,,,,,,,,,,,,,,,,,,,
44,240613_094818,LEARNING,1.0,45,1.0,583.0,,,,,,,,,,45.0,45.0,45.0,cue2.png,Easy,B,,,,,,,,,,,,,,,,,,,,,,,,,,,10,26,Female,0.14285714285714285,1.75,1.0,1.5,2.2777777777777777,2.0,2.111111111111111,2.7777777777777777,2.5,2.4444444444444446,2.25,1.75,2.0,2.25,0.77,0.8,0.3319269133363074,-1.1788028649607893,0.012375017510672642,-0.5188627842805295,0.011398861706647017,-0.6234565802316183,,,0.0069683116867299225,0.2780548881145993,-2.3395861682565185e+44,-0.18260243530456485,-4.880736340786157e+43,-0.19709665181890434,,,,,,,,,,,,,,,,,,,,
45,240613_094842,LEARNING,1.0,46,1.0,583.0,,,,,,,,,,46.0,46.0,46.0,cue2.png,Easy,B,,,,,,,,,,,,,,,,,,,,,,,,,,,10,26,Female,0.14285714285714285,1.75,1.0,1.5,2.2777777777777777,2.0,2.111111111111111,2.7777777777777777,2.5,2.4444444444444446,2.25,1.75,2.0,2.25,1.0,1.0,0.3252514333308985,-1.4309013986773977,0.016750275016502496,1.1055544592624411,0.014720090984324473,0.35928156143419937,0.010653564328077684,1.2780779817176857,0.00656143670720556,0.10314463772474117,-4.910052729029655e+44,-0.1826430014548068,-8.982759354013228e+43,-0.22367668487449624,,,,,,,,,,,,,,,,,,,,
46,240613_094905,LEARNING,1.0,47,3.0,583.0,,,,,,,,,,47.0,47.0,47.0,cue1.png,Hard,B,,,,,,,,,,,,,,,,,,,,,,,,,,,10,26,Female,0.14285714285714285,1.75,1.0,1.5,2.2777777777777777,2.0,2.111111111111111,2.7777777777777777,2.5,2.4444444444444446,2.25,1.75,2.0,2.25,0.7386363636363636,0.8181818181818181,0.3344716066688609,-1.0827028905206946,0.012973125013247966,-0.29680130804028726,0.021248419934939,2.2909873621239214,0.012371024696326562,1.970341556509792,,,-3.7556469568330826e+44,-0.18262478305091479,-5.734119219025709e+43,-0.20262634900479085,,,,,,,,,,,,,,,,,,,,
47,240613_094929,LEARNING,1.0,48,3.0,583.0,,,,,,,,,,48.0,48.0,48.0,cue1.png,Hard,B,,,,,,,,,,,,,,,,,,,,,,,,,,,10,26,Female,0.14285714285714285,1.75,1.0,1.5,2.2777777777777777,2.0,2.111111111111111,2.7777777777777777,2.5,2.4444444444444446,2.25,1.75,2.0,2.25,0.8920454545454546,0.9090909090909092,0.3385700266653051,-0.9279266540820793,0.010146879740046667,-1.3461113315423734,0.012499497438216045,-0.2977829747497541,,,0.010850263076919511,1.946855192456397,1.8922216496283537e+44,-0.18253565048255815,,,,,,,,,,,,,,,,,,,,,,
48,240613_094953,LEARNING,1.0,49,1.0,583.0,,,,,,,,,,49.0,49.0,49.0,cue2.png,Easy,B,,,,,,,,,,,,,,,,,,,,,,,,,,,10,26,Female,0.14285714285714285,1.75,1.0,1.5,2.2777777777777777,2.0,2.111111111111111,2.7777777777777777,2.5,2.4444444444444446,2.25,1.75,2.0,2.25,0.8920454545454546,0.9090909090909092,0.3780941666608365,0.5646967574493708,0.01315734434108179,-0.22840555022982206,0.015847774750981033,0.6929585697272724,,,0.0053599304761686745,-0.4133672302729146,,,1.1342128308671137e+44,-0.09197674458080762,,,,,,,,,,,,,,,,,,,,
49,240613_095016,LEARNING,1.0,50,1.0,583.0,,,,,,,,,,50.0,50.0,50.0,cue2.png,Easy,B,,,,,,,,,,,,,,,,,,,,,,,,,,,10,26,Female,0.14285714285714285,1.75,1.0,1.5,2.2777777777777777,2.0,2.111111111111111,2.7777777777777777,2.5,2.4444444444444446,2.25,1.75,2.0,2.25,0.905,0.9,0.321751486667199,-1.5630763765501592,,,0.013166821665600832,-0.10032446879339658,0.005605434453797611,-0.7566917849623332,0.006357412830149854,0.015437432275440694,-3.0651705632001454e+44,-0.18261388620846988,-2.87530155086971e+43,-0.18410196045931632,,,,,,,,,,,,,,,,,,,,
0,240613_095135,TrueCHOICE,9.0,1,3.0,583.0,,,,,,,,,,,1.0,1.0,,,B,,,,,,True,cue2.png,Easy,cue1.png,Hard,Right,Hard,Hard,0.0164147999894339,,,,,,,,,,,,,10,26,Female,0.14285714285714285,1.75,1.0,1.5,2.2777777777777777,2.0,2.111111111111111,2.7777777777777777,2.5,2.4444444444444446,2.25,1.75,2.0,2.25,0.5875,0.7,0.3610883533372543,0.2999406553041867,,,,,,,,,,,,,0.00938440638481025,-1.2450772803735624,,,28468308.469828486,2.359387620595583,,,,,,,,,,,,,,
1,240613_095157,TrueCHOICE,9.0,2,3.0,583.0,,,,,,,,,,,2.0,2.0,,,B,,,,,,True,cue2.png,Easy,cue1.png,Hard,Right,Hard,Hard,0.0162202999927103,,,,,,,,,,,,,10,26,Female,0.14285714285714285,1.75,1.0,1.5,2.2777777777777777,2.0,2.111111111111111,2.7777777777777777,2.5,2.4444444444444446,2.25,1.75,2.0,2.25,0.7386363636363636,0.8181818181818181,0.325487586663803,-1.4645279960623638,,,,,,,,,,,,,0.010862783457288614,-0.7915423961448286,0.0060247827515526094,0.6180480656313802,7717082.182636341,0.20590292732468196,,,,,,,,,,,,,,
2,240613_095219,TrueCHOICE,9.0,3,3.0,583.0,,,,,,,,,,,3.0,3.0,,,B,,,,,,True,cue1.png,Hard,cue2.png,Easy,Left,Hard,Hard,0.0159833000216167,,,,,,,,,,,,,10,26,Female,0.14285714285714285,1.75,1.0,1.5,2.2777777777777777,2.0,2.111111111111111,2.7777777777777777,2.5,2.4444444444444446,2.25,1.75,2.0,2.25,0.8920454545454546,0.9090909090909092,0.3668229800008703,0.5841639999319577,,,,,,,,,,,,,,,0.004930845527231874,-0.41095856181131074,2976682.0032751975,-0.2860380830498984,,,,,,,,,,,,,,
3,240613_095241,TrueCHOICE,9.0,4,3.0,583.0,,,,,,,,,,,4.0,4.0,,,B,,,,,,True,cue2.png,Easy,cue1.png,Hard,Right,Hard,Hard,0.0164409000135492,,,,,,,,,,,,,10,26,Female,0.14285714285714285,1.75,1.0,1.5,2.2777777777777777,2.0,2.111111111111111,2.7777777777777777,2.5,2.4444444444444446,2.25,1.75,2.0,2.25,0.1590909090909091,0.6363636363636364,0.3484876133346309,-0.3245855219713666,,,,,,,,,,,,,0.012968273688110842,-0.14562243035432584,,,1063618.4773494303,-0.4845686644873313,,,,,,,,,,,,,,
4,240613_095304,TrueCHOICE,9.0,5,3.0,583.0,,,,,,,,,,,5.0,5.0,,,B,,,,,,True,cue1.png,Hard,cue2.png,Easy,Left,Hard,Hard,0.0160125000111293,,,,,,,,,,,,,10,26,Female,0.14285714285714285,1.75,1.0,1.5,2.2777777777777777,2.0,2.111111111111111,2.7777777777777777,2.5,2.4444444444444446,2.25,1.75,2.0,2.25,0.5875,0.7,0.3922645266691688,1.8451146965912049,,,,,,,,,,,,,0.013929807940255477,0.14935598472438955,0.0049713379192439285,-0.37286959398476666,,,,,,,,,,,,,,,,
5,240613_095326,TrueCHOICE,9.0,6,3.0,583.0,,,,,,,,,,,6.0,6.0,,,B,,,,,,True,cue1.png,Hard,cue2.png,Easy,Left,Hard,Hard,0.0165313000034075,,,,,,,,,,,,,10,26,Female,0.14285714285714285,1.75,1.0,1.5,2.2777777777777777,2.0,2.111111111111111,2.7777777777777777,2.5,2.4444444444444446,2.25,1.75,2.0,2.25,0.7386363636363636,0.8181818181818181,0.3679769333296765,0.6413569950293638,,,,,,,,,,,,,0.017468232782763552,1.2348700468497416,0.007533520024992602,2.0372343031264712,-65115.49711785578,-0.601704457001453,,,,,,,,,,,,,,
6,240613_095349,TrueCHOICE,9.0,7,3.0,583.0,,,,,,,,,,,7.0,7.0,,,B,,,,,,True,cue2.png,Easy,cue1.png,Hard,Right,Hard,Hard,0.0163858000014442,,,,,,,,,,,,,10,26,Female,0.14285714285714285,1.75,1.0,1.5,2.2777777777777777,2.0,2.111111111111111,2.7777777777777777,2.5,2.4444444444444446,2.25,1.75,2.0,2.25,0.905,0.9,0.3711846066677632,0.8003378142008509,,,,,,,,,,,,,,,0.005568362236202889,0.18871837033072056,-184711.73796489873,-0.6141157078100767,,,,,,,,,,,,,,
7,240613_095411,TrueCHOICE,9.0,8,3.0,583.0,,,,,,,,,,,8.0,8.0,,,B,,,,,,True,cue1.png,Hard,cue2.png,Easy,Left,Hard,Hard,0.0161229000077582,,,,,,,,,,,,,10,26,Female,0.14285714285714285,1.75,1.0,1.5,2.2777777777777777,2.0,2.111111111111111,2.7777777777777777,2.5,2.4444444444444446,2.25,1.75,2.0,2.25,0.905,0.9,0.3539164666668511,-0.05551711663523069,,,,,,,,,,,,,0.018693327945268262,1.610703386691994,,,,,,,,,,,,,,,,,,
8,240613_095434,TrueCHOICE,9.0,9,3.0,583.0,,,,,,,,,,,9.0,9.0,,,B,,,,,,True,cue2.png,Easy,cue1.png,Hard,Right,Hard,Hard,0.0166809999791439,,,,,,,,,,,,,10,26,Female,0.14285714285714285,1.75,1.0,1.5,2.2777777777777777,2.0,2.111111111111111,2.7777777777777777,2.5,2.4444444444444446,2.25,1.75,2.0,2.25,0.8920454545454546,0.9090909090909092,0.3371560133333939,-0.886209746399046,,,,,,,,,,,,,,,0.004306303707368666,-0.9984307288302264,,,,,,,,,,,,,,,,
9,240613_095457,TrueCHOICE,9.0,10,1.0,583.0,,,,,,,,,,,10.0,10.0,,,B,,,,,,True,cue1.png,Hard,cue2.png,Easy,Right,Easy,Easy,0.0165231999999377,,,,,,,,,,,,,10,26,Female,0.14285714285714285,1.75,1.0,1.5,2.2777777777777777,2.0,2.111111111111111,2.7777777777777777,2.5,2.4444444444444446,2.25,1.75,2.0,2.25,1.0,1.0,0.3259809866683402,-1.4400737799895622,,,,,,,,,,,,,0.010793857870768066,-0.8126873113934057,0.004238997632562653,-1.061741854462272,154981.2862766279,-0.5788636355715059,,,,,,,,,,,,,,
0,240613_095640,FalseCHOICE,9.0,1,2.0,583.0,,,,,,,,,,,2.0,1.0,,,B,,,,,,False,cue2.png,Easy,cue1.png,Hard,Left,Easy,Mid,0.0161808999837376,,,,,,,,,,,,,10,26,Female,0.14285714285714285,1.75,1.0,1.5,2.2777777777777777,2.0,2.111111111111111,2.7777777777777777,2.5,2.4444444444444446,2.25,1.75,2.0,2.25,0.8920454545454546,0.9090909090909092,0.3568455333336411,0.08865008433220645,,,,,,,,,,,,,,,,,,,0.006577504596357038,-1.8357654108531496,0.005760677456449604,-0.24542678003323495,,,,,,,,,,
1,240613_095703,FalseCHOICE,9.0,2,2.0,583.0,,,,,,,,,,,3.0,2.0,,,B,,,,,,False,cue1.png,Hard,cue2.png,Easy,Right,Easy,Mid,0.0164555000083055,,,,,,,,,,,,,10,26,Female,0.14285714285714285,1.75,1.0,1.5,2.2777777777777777,2.0,2.111111111111111,2.7777777777777777,2.5,2.4444444444444446,2.25,1.75,2.0,2.25,0.0151515151515151,0.7272727272727273,0.3640483266712787,0.4020113112531086,,,,,,,,,,,,,,,,,,,0.01277613499230572,-0.2954248215900258,0.005078998747664595,-0.3552746644878818,5.094432842952167e+44,3.256000960962708,,,,,,,,
2,240613_095725,FalseCHOICE,9.0,3,2.0,583.0,,,,,,,,,,,4.0,3.0,,,B,,,,,,False,cue1.png,Hard,cue2.png,Easy,Right,Easy,Mid,0.0165060000144876,,,,,,,,,,,,,10,26,Female,0.14285714285714285,1.75,1.0,1.5,2.2777777777777777,2.0,2.111111111111111,2.7777777777777777,2.5,2.4444444444444446,2.25,1.75,2.0,2.25,0.7386363636363636,0.8181818181818181,0.3557774533284828,0.042182714635901786,,,,,,,,,,,,,,,,,,,0.017792352286639525,0.9510897484795227,0.007739928168152518,0.073516001491263,-4.443490704985084e+44,-2.8531493168923796,,,,,,,,
3,240613_095747,FalseCHOICE,9.0,4,2.0,583.0,,,,,,,,,,,5.0,4.0,,,B,,,,,,False,cue1.png,Hard,cue2.png,Easy,Right,Easy,Mid,0.0160610000020824,,,,,,,,,,,,,10,26,Female,0.14285714285714285,1.75,1.0,1.5,2.2777777777777777,2.0,2.111111111111111,2.7777777777777777,2.5,2.4444444444444446,2.25,1.75,2.0,2.25,0.905,0.9,0.357636433331451,0.12305859531785378,,,,,,,,,,,,,,,,,,,0.00983014394016395,-1.0274945375365987,0.005218213799093357,-0.33284110643976417,-4.795566051373159e+44,-3.0786576457652615,,,,,,,,
4,240613_095809,FalseCHOICE,9.0,5,2.0,583.0,,,,,,,,,,,6.0,5.0,,,B,,,,,,False,cue2.png,Easy,cue1.png,Hard,Right,Hard,Mid,0.015484200004721,,,,,,,,,,,,,10,26,Female,0.14285714285714285,1.75,1.0,1.5,2.2777777777777777,2.0,2.111111111111111,2.7777777777777777,2.5,2.4444444444444446,2.25,1.75,2.0,2.25,0.5875,0.7,0.3887848533321327,1.4781866200325788,,,,,,,,,,,,,,,,,,,0.014602244442121394,0.1583577604181628,0.004889211466356909,-0.38585759318930213,,,,,,,,,,
5,240613_095831,FalseCHOICE,9.0,6,2.0,583.0,,,,,,,,,,,7.0,6.0,,,B,,,,,,False,cue1.png,Hard,cue2.png,Easy,Left,Hard,Mid,0.0158868000144138,,,,,,,,,,,,,10,26,Female,0.14285714285714285,1.75,1.0,1.5,2.2777777777777777,2.0,2.111111111111111,2.7777777777777777,2.5,2.4444444444444446,2.25,1.75,2.0,2.25,0.7386363636363636,0.8181818181818181,0.3941534133259362,1.711748582398766,,,,,,,,,,,,,,,,,,,0.016487456202426445,0.6268270848114951,,,-5.628199284829997e+43,-0.3675348292758352,,,,,,,,
6,240613_095853,FalseCHOICE,9.0,7,2.0,583.0,,,,,,,,,,,8.0,7.0,,,B,,,,,,False,cue1.png,Hard,cue2.png,Easy,Left,Hard,Mid,0.0160865999932866,,,,,,,,,,,,,10,26,Female,0.14285714285714285,1.75,1.0,1.5,2.2777777777777777,2.0,2.111111111111111,2.7777777777777777,2.5,2.4444444444444446,2.25,1.75,2.0,2.25,0.905,0.9,0.3449326666634685,-0.42962530424569206,,,,,,,,,,,,,,,,,,,0.017472735091558073,0.871665858496961,0.006534190048207079,-0.12078049035369738,2.2926170854812047e+43,0.1398026146271504,,,,,,,,
7,240613_095915,FalseCHOICE,9.0,8,2.0,583.0,,,,,,,,,,,9.0,8.0,,,B,,,,,,False,cue2.png,Easy,cue1.png,Hard,Right,Hard,Mid,0.014173200004734,,,,,,,,,,,,,10,26,Female,0.14285714285714285,1.75,1.0,1.5,2.2777777777777777,2.0,2.111111111111111,2.7777777777777777,2.5,2.4444444444444446,2.25,1.75,2.0,2.25,1.0,1.0,0.3680605266650673,0.5765641345495772,,,,,,,,,,,,,,,,,,,0.013153398401441557,-0.2016760247081345,0.004738926349401943,-0.41007501695473864,,,,,,,,,,
8,240613_095937,FalseCHOICE,9.0,9,2.0,583.0,,,,,,,,,,,10.0,9.0,,,B,,,,,,False,cue2.png,Easy,cue1.png,Hard,Right,Hard,Mid,0.0166761000000406,,,,,,,,,,,,,10,26,Female,0.14285714285714285,1.75,1.0,1.5,2.2777777777777777,2.0,2.111111111111111,2.7777777777777777,2.5,2.4444444444444446,2.25,1.75,2.0,2.25,1.0,1.0,0.3638828533352353,0.39481230870304274,,,,,,,,,,,,,,,,,,,0.015648271985238632,0.4182923877841923,0.006794428972764692,-0.07884475883238033,,,,,,,,,,
9,240613_095958,FalseCHOICE,9.0,10,2.0,583.0,,,,,,,,,,,11.0,10.0,,,B,,,,,,False,cue1.png,Hard,cue2.png,Easy,Left,Hard,Mid,0.0160335999971721,,,,,,,,,,,,,10,26,Female,0.14285714285714285,1.75,1.0,1.5,2.2777777777777777,2.0,2.111111111111111,2.7777777777777777,2.5,2.4444444444444446,2.25,1.75,2.0,2.25,0.905,0.9,0.3256514666699028,-1.268463821924548,,,,,,,,,,,,,,,,,,,0.01660452582355247,0.655918525609116,0.006280930311835832,-0.16159157319873457,2.1987979104003754e+44,1.4013133170686203,,,,,,,,
10,240613_100019,FalseCHOICE,9.0,11,2.0,583.0,,,,,,,,,,,12.0,11.0,,,B,,,,,,False,cue2.png,Easy,cue1.png,Hard,Left,Easy,Mid,0.0159162000054493,,,,,,,,,,,,,10,26,Female,0.14285714285714285,1.75,1.0,1.5,2.2777777777777777,2.0,2.111111111111111,2.7777777777777777,2.5,2.4444444444444446,2.25,1.75,2.0,2.25,1.0,1.0,0.3316264866637842,-1.0085175054898052,,,,,,,,,,,,,,,,,,,0.007577902084246497,-1.5871697118742045,0.0049042354690375396,-0.383436577409816,2.1514630195605365e+44,1.3709947723588567,,,,,,,,
11,240613_100041,FalseCHOICE,9.0,12,2.0,583.0,,,,,,,,,,,13.0,12.0,,,B,,,,,,False,cue1.png,Hard,cue2.png,Easy,Left,Hard,Mid,0.0159900000144261,,,,,,,,,,,,,10,26,Female,0.14285714285714285,1.75,1.0,1.5,2.2777777777777777,2.0,2.111111111111111,2.7777777777777777,2.5,2.4444444444444446,2.25,1.75,2.0,2.25,1.0,1.0,0.3579690066651286,0.13752736916671796,,,,,,,,,,,,,,,,,,,0.013913553362512876,-0.012779854768213514,,,1.486785236734861e+44,0.9452609696894317,,,,,,,,
12,240613_100104,FalseCHOICE,9.0,13,2.0,583.0,,,,,,,,,,,14.0,13.0,,,B,,,,,,False,cue2.png,Easy,cue1.png,Hard,Right,Hard,Mid,0.0164876999915577,,,,,,,,,,,,,10,26,Female,0.14285714285714285,1.75,1.0,1.5,2.2777777777777777,2.0,2.111111111111111,2.7777777777777777,2.5,2.4444444444444446,2.25,1.75,2.0,2.25,0.7386363636363636,0.8181818181818181,0.3855494599964004,1.337429169730761,,,,,,,,,,,,,,,,,,,0.011981510848254549,-0.49288647748912023,0.0065691806703228155,-0.11514198974390659,5.75018072408314e+42,0.02978841252938677,,,,,,,,
13,240613_100124,FalseCHOICE,9.0,14,2.0,583.0,,,,,,,,,,,15.0,14.0,,,B,,,,,,False,cue1.png,Hard,cue2.png,Easy,Left,Hard,Mid,0.0161496000073384,,,,,,,,,,,,,10,26,Female,0.14285714285714285,1.75,1.0,1.5,2.2777777777777777,2.0,2.111111111111111,2.7777777777777777,2.5,2.4444444444444446,2.25,1.75,2.0,2.25,1.0,1.0,0.2661370600011044,-3.8576686788448233,,,,,,,,,,,,,,,,,,,0.01235739014777974,-0.3994816275885915,0.005678706016840774,-0.2586359196332979,,,,,,,,,,
14,240613_100146,FalseCHOICE,9.0,15,2.0,583.0,,,,,,,,,,,16.0,15.0,,,B,,,,,,False,cue2.png,Easy,cue1.png,Hard,Right,Hard,Mid,0.0164310999971348,,,,,,,,,,,,,10,26,Female,0.14285714285714285,1.75,1.0,1.5,2.2777777777777777,2.0,2.111111111111111,2.7777777777777777,2.5,2.4444444444444446,2.25,1.75,2.0,2.25,1.0,1.0,0.3726119333296083,0.7745754212491246,,,,,,,,,,,,,,,,,,,0.011381756411036248,-0.6419236105696484,0.005471950028301062,-0.29195324001711453,-1.1593579674426798e+44,-0.7496243383964879,,,,,,,,
15,240613_100208,FalseCHOICE,9.0,16,2.0,583.0,,,,,,,,,,,17.0,16.0,,,B,,,,,,False,cue2.png,Easy,cue1.png,Hard,Left,Easy,Mid,0.0139467999979387,,,,,,,,,,,,,10,26,Female,0.14285714285714285,1.75,1.0,1.5,2.2777777777777777,2.0,2.111111111111111,2.7777777777777777,2.5,2.4444444444444446,2.25,1.75,2.0,2.25,0.905,0.9,0.3312790333312781,-1.0236336413371194,,,,,,,,,,,,,,,,,,,,,0.043392441952910234,5.818675948948157,,,,,,,,,,
16,240613_100229,FalseCHOICE,9.0,17,2.0,583.0,,,,,,,,,,,18.0,17.0,,,B,,,,,,False,cue1.png,Hard,cue2.png,Easy,Right,Easy,Mid,0.0166228000016417,,,,,,,,,,,,,10,26,Female,0.14285714285714285,1.75,1.0,1.5,2.2777777777777777,2.0,2.111111111111111,2.7777777777777777,2.5,2.4444444444444446,2.25,1.75,2.0,2.25,0.8920454545454546,0.9090909090909092,0.3484245733338563,-0.2777081094529155,,,,,,,,,,,,,,,,,,,0.007917226825875383,-1.5028485571859354,0.003987709214285907,-0.5311285455381032,,,,,,,,,,
17,240613_100251,FalseCHOICE,9.0,18,2.0,583.0,,,,,,,,,,,19.0,18.0,,,B,,,,,,False,cue1.png,Hard,cue2.png,Easy,Right,Easy,Mid,0.0164328999817371,,,,,,,,,,,,,10,26,Female,0.14285714285714285,1.75,1.0,1.5,2.2777777777777777,2.0,2.111111111111111,2.7777777777777777,2.5,2.4444444444444446,2.25,1.75,2.0,2.25,0.905,0.8333333333333334,0.331563378571965,-1.0112630554666127,,,,,,,,,,,,,,,,,,,0.007552591033585014,-1.593459430118457,0.011607583366251662,0.6967623136262676,,,,,,,,,,
18,240613_100312,FalseCHOICE,9.0,19,2.0,583.0,,,,,,,,,,,20.0,19.0,,,B,,,,,,False,cue2.png,Easy,cue1.png,Hard,Left,Easy,Mid,0.0167566000018268,,,,,,,,,,,,,10,26,Female,0.14285714285714285,1.75,1.0,1.5,2.2777777777777777,2.0,2.111111111111111,2.7777777777777777,2.5,2.4444444444444446,2.25,1.75,2.0,2.25,0.8920454545454546,0.9090909090909092,0.319983533329408,-1.5150501756385206,,,,,,,,,,,,,,,,,,,0.011282811819773288,-0.6665110371905353,0.004548668304435212,-0.44073380601582374,,,,,,,,,,
19,240613_100334,FalseCHOICE,9.0,20,2.0,583.0,,,,,,,,,,,21.0,20.0,,,B,,,,,,False,cue2.png,Easy,cue1.png,Hard,Left,Easy,Mid,0.0161353000148665,,,,,,,,,,,,,10,26,Female,0.14285714285714285,1.75,1.0,1.5,2.2777777777777777,2.0,2.111111111111111,2.7777777777777777,2.5,2.4444444444444446,2.25,1.75,2.0,2.25,0.77,0.8,0.3717950333297873,0.7390357668100666,,,,,,,,,,,,,,,,,,,0.007774814007308851,-1.5382377046035272,,,,,,,,,,,,
20,240613_100356,FalseCHOICE,9.0,21,2.0,583.0,,,,,,,,,,,22.0,21.0,,,B,,,,,,False,cue2.png,Easy,cue1.png,Hard,Left,Easy,Mid,0.0144273999903816,,,,,,,,,,,,,10,26,Female,0.14285714285714285,1.75,1.0,1.5,2.2777777777777777,2.0,2.111111111111111,2.7777777777777777,2.5,2.4444444444444446,2.25,1.75,2.0,2.25,0.77,0.8,0.3449081199961559,-0.43069321962592444,,,,,,,,,,,,,,,,,,,0.016458783488223248,0.6197020035160542,0.005453359477163321,-0.2949489808067405,4.994443158417678e+43,0.3128576975415618,,,,,,,,
21,240613_100418,FalseCHOICE,9.0,22,2.0,583.0,,,,,,,,,,,23.0,22.0,,,B,,,,,,False,cue1.png,Hard,cue2.png,Easy,Right,Easy,Mid,0.0169000999885611,,,,,,,,,,,,,10,26,Female,0.14285714285714285,1.75,1.0,1.5,2.2777777777777777,2.0,2.111111111111111,2.7777777777777777,2.5,2.4444444444444446,2.25,1.75,2.0,2.25,1.0,1.0,0.3736100800005564,0.818000305289724,,,,,,,,,,,,,,,,,,,0.018568734988111422,1.1440184619999372,0.004199408433381545,-0.4970146571935417,1.5299302172606832e+43,0.09095163915551854,,,,,,,,
22,240613_100440,FalseCHOICE,9.0,23,2.0,583.0,,,,,,,,,,,24.0,23.0,,,B,,,,,,False,cue2.png,Easy,cue1.png,Hard,Left,Easy,Mid,0.0160718999977689,,,,,,,,,,,,,10,26,Female,0.14285714285714285,1.75,1.0,1.5,2.2777777777777777,2.0,2.111111111111111,2.7777777777777777,2.5,2.4444444444444446,2.25,1.75,2.0,2.25,0.905,0.8333333333333334,0.357688428574225,0.1253206750841258,,,,,,,,,,,,,,,,,,,0.013548602719957881,-0.10346896702316043,,,-2.430794959109369e+43,-0.16273738644965852,,,,,,,,
23,240613_100502,FalseCHOICE,9.0,24,2.0,583.0,,,,,,,,,,,25.0,24.0,,,B,,,,,,False,cue1.png,Hard,cue2.png,Easy,Right,Easy,Mid,0.0163486000092234,,,,,,,,,,,,,10,26,Female,0.14285714285714285,1.75,1.0,1.5,2.2777777777777777,2.0,2.111111111111111,2.7777777777777777,2.5,2.4444444444444446,2.25,1.75,2.0,2.25,0.77,0.7333333333333334,0.3197947857136439,-1.5232617376925321,,,,,,,,,,,,,,,,,,,0.015087870295451925,0.2790342914095019,0.006542835021306441,-0.11938741177592442,-5.025065787328088e+43,-0.32890343162068864,,,,,,,,
24,240613_100523,FalseCHOICE,9.0,25,2.0,583.0,,,,,,,,,,,26.0,25.0,,,B,,,,,,False,cue1.png,Hard,cue2.png,Easy,Left,Hard,Mid,0.0161101999983657,,,,,,,,,,,,,10,26,Female,0.14285714285714285,1.75,1.0,1.5,2.2777777777777777,2.0,2.111111111111111,2.7777777777777777,2.5,2.4444444444444446,2.25,1.75,2.0,2.25,0.5875,0.7,0.3423863733303733,-0.5404031046845602,,,,,,,,,,,,,,,,,,,0.017618353075751964,0.9078514797153392,,,,,,,,,,,,
25,240613_100545,FalseCHOICE,9.0,26,2.0,583.0,,,,,,,,,,,27.0,26.0,,,B,,,,,,False,cue2.png,Easy,cue1.png,Hard,Right,Hard,Mid,0.0164976000087335,,,,,,,,,,,,,10,26,Female,0.14285714285714285,1.75,1.0,1.5,2.2777777777777777,2.0,2.111111111111111,2.7777777777777777,2.5,2.4444444444444446,2.25,1.75,2.0,2.25,0.77,0.8,0.3671519333360872,0.5370353146883193,,,,,,,,,,,,,,,,,,,0.01618917219835943,0.5527044271849585,0.009898136434839921,0.4212965750266922,-5.038464232138871e+43,-0.3297616174975961,,,,,,,,
26,240613_100607,FalseCHOICE,9.0,27,2.0,583.0,,,,,,,,,,,28.0,27.0,,,B,,,,,,False,cue2.png,Easy,cue1.png,Hard,Left,Easy,Mid,0.0161704999918583,,,,,,,,,,,,,10,26,Female,0.14285714285714285,1.75,1.0,1.5,2.2777777777777777,2.0,2.111111111111111,2.7777777777777777,2.5,2.4444444444444446,2.25,1.75,2.0,2.25,0.8920454545454546,0.9090909090909092,0.3629832133301534,0.3556730078006432,,,,,,,,,,,,,,,,,,,0.020062323132174067,1.515170522210774,,,6.58967377300484e+42,0.035165462541689056,,,,,,,,
27,240613_100629,FalseCHOICE,9.0,28,2.0,583.0,,,,,,,,,,,29.0,28.0,,,B,,,,,,False,cue1.png,Hard,cue2.png,Easy,Right,Easy,Mid,0.0162917000125162,,,,,,,,,,,,,10,26,Female,0.14285714285714285,1.75,1.0,1.5,2.2777777777777777,2.0,2.111111111111111,2.7777777777777777,2.5,2.4444444444444446,2.25,1.75,2.0,2.25,1.0,1.0,0.3660435266656956,0.4888135126901602,,,,,,,,,,,,,,,,,,,,,0.004705855795145113,-0.4154041116969379,-3.0935806310178006e+42,-0.02685690116835565,,,,,,,,
28,240613_100651,FalseCHOICE,9.0,29,2.0,583.0,,,,,,,,,,,30.0,29.0,,,B,,,,,,False,cue2.png,Easy,cue1.png,Hard,Left,Easy,Mid,0.0158013000036589,,,,,,,,,,,,,10,26,Female,0.14285714285714285,1.75,1.0,1.5,2.2777777777777777,2.0,2.111111111111111,2.7777777777777777,2.5,2.4444444444444446,2.25,1.75,2.0,2.25,0.8920454545454546,0.9090909090909092,0.3403825399989728,-0.6275809038852548,,,,,,,,,,,,,,,,,,,,,,,2.436247670082395e+43,0.1490023195882435,,,,,,,,
29,240613_100712,FalseCHOICE,9.0,30,2.0,583.0,,,,,,,,,,,31.0,30.0,,,B,,,,,,False,cue2.png,Easy,cue1.png,Hard,Left,Easy,Mid,0.0160702999855857,,,,,,,,,,,,,10,26,Female,0.14285714285714285,1.75,1.0,1.5,2.2777777777777777,2.0,2.111111111111111,2.7777777777777777,2.5,2.4444444444444446,2.25,1.75,2.0,2.25,0.905,0.9,0.3209725000041847,-1.4720246720505528,,,,,,,,,,,,,,,,,,,0.014452770731064097,0.12121400293266664,0.007267158212671624,-0.0026676591893766443,4.63584482187836e+43,0.2898890595953986,,,,,,,,
30,240613_100733,FalseCHOICE,9.0,31,2.0,583.0,,,,,,,,,,,32.0,31.0,,,B,,,,,,False,cue1.png,Hard,cue2.png,Easy,Right,Easy,Mid,0.0164290999819058,,,,,,,,,,,,,10,26,Female,0.14285714285714285,1.75,1.0,1.5,2.2777777777777777,2.0,2.111111111111111,2.7777777777777777,2.5,2.4444444444444446,2.25,1.75,2.0,2.25,0.905,0.9,0.3535891133341162,-0.05302214178716499,,,,,,,,,,,,,,,,,,,0.01900094173653961,1.2514205097155897,0.01612872752331185,1.425313923889602,5.176695613887212e+43,0.32453117797339304,,,,,,,,
31,240613_100755,FalseCHOICE,9.0,32,2.0,583.0,,,,,,,,,,,33.0,32.0,,,B,,,,,,False,cue2.png,Easy,cue1.png,Hard,Left,Easy,Mid,0.0137433999916538,,,,,,,,,,,,,10,26,Female,0.14285714285714285,1.75,1.0,1.5,2.2777777777777777,2.0,2.111111111111111,2.7777777777777777,2.5,2.4444444444444446,2.25,1.75,2.0,2.25,0.7386363636363636,0.8181818181818181,0.3503112999955192,-0.19562509612062148,,,,,,,,,,,,,,,,,,,0.012568722004663677,-0.3469663111123211,0.006103721262148417,-0.19014760548126872,,,,,,,,,,
32,240613_100817,FalseCHOICE,9.0,33,2.0,583.0,,,,,,,,,,,34.0,33.0,,,B,,,,,,False,cue1.png,Hard,cue2.png,Easy,Right,Easy,Mid,0.0159205000090878,,,,,,,,,,,,,10,26,Female,0.14285714285714285,1.75,1.0,1.5,2.2777777777777777,2.0,2.111111111111111,2.7777777777777777,2.5,2.4444444444444446,2.25,1.75,2.0,2.25,0.77,0.8,0.3691956066720498,0.625946373768188,,,,,,,,,,,,,,,,,,,,,0.006802357516288582,-0.07756712800471623,2.6299835282527624e+43,0.16141132523631205,,,,,,,,
33,240613_100839,FalseCHOICE,9.0,34,2.0,583.0,,,,,,,,,,,35.0,34.0,,,B,,,,,,False,cue1.png,Hard,cue2.png,Easy,Right,Easy,Mid,0.0167658999853301,,,,,,,,,,,,,10,26,Female,0.14285714285714285,1.75,1.0,1.5,2.2777777777777777,2.0,2.111111111111111,2.7777777777777777,2.5,2.4444444444444446,2.25,1.75,2.0,2.25,0.7386363636363636,0.8181818181818181,0.3799856666650157,1.0953734806487696,,,,,,,,,,,,,,,,,,,0.008104443263737998,-1.4563258481685497,0.006533731427762898,-0.12085439391693271,9.757234774449939e+41,-0.0007925379975387117,,,,,,,,
34,240613_100901,FalseCHOICE,9.0,35,2.0,583.0,,,,,,,,,,,36.0,35.0,,,B,,,,,,False,cue1.png,Hard,cue2.png,Easy,Right,Easy,Mid,0.0154298999987076,,,,,,,,,,,,,10,26,Female,0.14285714285714285,1.75,1.0,1.5,2.2777777777777777,2.0,2.111111111111111,2.7777777777777777,2.5,2.4444444444444446,2.25,1.75,2.0,2.25,0.905,0.9,0.3820675066672265,1.1859450001642464,,,,,,,,,,,,,,,,,,,,,,,-2.2788282408402007e+43,-0.15300374249169665,,,,,,,,
35,240613_100922,FalseCHOICE,9.0,36,2.0,583.0,,,,,,,,,,,37.0,36.0,,,B,,,,,,False,cue2.png,Easy,cue1.png,Hard,Right,Hard,Mid,0.016792800015537,,,,,,,,,,,,,10,26,Female,0.14285714285714285,1.75,1.0,1.5,2.2777777777777777,2.0,2.111111111111111,2.7777777777777777,2.5,2.4444444444444446,2.25,1.75,2.0,2.25,0.77,0.8,0.3595611799973994,0.20679568848167412,,,,,,,,,,,,,,,,,,,0.0185855767825745,1.148203596126415,0.009753368103133214,0.3979681436570897,-4.1668394092707483e+43,-0.273933040113352,,,,,,,,
36,240613_100944,FalseCHOICE,9.0,37,2.0,583.0,,,,,,,,,,,38.0,37.0,,,B,,,,,,False,cue1.png,Hard,cue2.png,Easy,Left,Hard,Mid,0.016057400003774,,,,,,,,,,,,,10,26,Female,0.14285714285714285,1.75,1.0,1.5,2.2777777777777777,2.0,2.111111111111111,2.7777777777777777,2.5,2.4444444444444446,2.25,1.75,2.0,2.25,0.8920454545454546,0.9090909090909092,0.3458135800048088,-0.39130071647625897,,,,,,,,,,,,,,,,,,,,,0.004649816075871294,-0.42443453105480994,-4.725952461528327e+43,-0.309744877368962,,,,,,,,
37,240613_101006,FalseCHOICE,9.0,38,2.0,583.0,,,,,,,,,,,39.0,38.0,,,B,,,,,,False,cue2.png,Easy,cue1.png,Hard,Right,Hard,Mid,0.0165470000065397,,,,,,,,,,,,,10,26,Female,0.14285714285714285,1.75,1.0,1.5,2.2777777777777777,2.0,2.111111111111111,2.7777777777777777,2.5,2.4444444444444446,2.25,1.75,2.0,2.25,0.0151515151515151,0.7272727272727273,0.3899596666645569,1.5292974780003885,,,,,,,,,,,,,,,,,,,0.01963171440267481,1.408165577284192,0.004518977771192184,-0.44551823337587726,-3.5644044300335954e+43,-0.23534638336045507,,,,,,,,
38,240613_101028,FalseCHOICE,9.0,39,2.0,583.0,,,,,,,,,,,40.0,39.0,,,B,,,,,,False,cue2.png,Easy,cue1.png,Hard,Left,Easy,Mid,0.0164451999880839,,,,,,,,,,,,,10,26,Female,0.14285714285714285,1.75,1.0,1.5,2.2777777777777777,2.0,2.111111111111111,2.7777777777777777,2.5,2.4444444444444446,2.25,1.75,2.0,2.25,0.7386363636363636,0.8181818181818181,0.3472306866664439,-0.329648762664487,,,,,,,,,,,,,,,,,,,0.012436613701931418,-0.37979481803703735,0.008341364829261587,0.17043342608569007,-1.293620647409298e+43,-0.08990005736669887,,,,,,,,
39,240613_101049,FalseCHOICE,9.0,40,2.0,583.0,,,,,,,,,,,41.0,40.0,,,B,,,,,,False,cue1.png,Hard,cue2.png,Easy,Right,Easy,Mid,0.0164854000031482,,,,,,,,,,,,,10,26,Female,0.14285714285714285,1.75,1.0,1.5,2.2777777777777777,2.0,2.111111111111111,2.7777777777777777,2.5,2.4444444444444446,2.25,1.75,2.0,2.25,0.905,0.9,0.3507470733408506,-0.17666655271234114,,,,,,,,,,,,,,,,,,,0.021193358761855283,1.7962293976422583,0.005878748388423238,-0.2264004529296513,1.3568408046710346e+43,0.07986506221137316,,,,,,,,
40,240613_101111,FalseCHOICE,9.0,41,2.0,583.0,,,,,,,,,,,42.0,41.0,,,B,,,,,,False,cue1.png,Hard,cue2.png,Easy,Right,Easy,Mid,0.016079199995147,,,,,,,,,,,,,10,26,Female,0.14285714285714285,1.75,1.0,1.5,2.2777777777777777,2.0,2.111111111111111,2.7777777777777777,2.5,2.4444444444444446,2.25,1.75,2.0,2.25,1.0,1.0,0.3771389933322401,0.9715274939063324,,,,,,,,,,,,,,,,,,,,,0.0057020528002507355,-0.25487374438364674,3.5112800276414824e+43,0.2178593846808407,,,,,,,,
41,240613_101132,FalseCHOICE,9.0,42,2.0,583.0,,,,,,,,,,,43.0,42.0,,,B,,,,,,False,cue2.png,Easy,cue1.png,Hard,Left,Easy,Mid,0.0150507999933324,,,,,,,,,,,,,10,26,Female,0.14285714285714285,1.75,1.0,1.5,2.2777777777777777,2.0,2.111111111111111,2.7777777777777777,2.5,2.4444444444444446,2.25,1.75,2.0,2.25,1.0,1.0,0.3747312400004982,0.8667769474461163,,,,,,,,,,,,,,,,,,,,,,,4.691850317705077e+43,0.2934762763378226,,,,,,,,
42,240613_101153,FalseCHOICE,9.0,43,2.0,583.0,,,,,,,,,,,44.0,43.0,,,B,,,,,,False,cue1.png,Hard,cue2.png,Easy,Left,Hard,Mid,0.0145609999890439,,,,,,,,,,,,,10,26,Female,0.14285714285714285,1.75,1.0,1.5,2.2777777777777777,2.0,2.111111111111111,2.7777777777777777,2.5,2.4444444444444446,2.25,1.75,2.0,2.25,1.0,1.0,0.3233879533324701,-1.3669391332823462,,,,,,,,,,,,,,,,,,,0.012067988647015707,-0.4713970104628236,0.007214350376146919,-0.01117728263823696,,,,,,,,,,
43,240613_101215,FalseCHOICE,9.0,44,2.0,583.0,,,,,,,,,,,45.0,44.0,,,B,,,,,,False,cue2.png,Easy,cue1.png,Hard,Right,Hard,Mid,0.0161350999842397,,,,,,,,,,,,,10,26,Female,0.14285714285714285,1.75,1.0,1.5,2.2777777777777777,2.0,2.111111111111111,2.7777777777777777,2.5,2.4444444444444446,2.25,1.75,2.0,2.25,0.8920454545454546,0.9090909090909092,0.3699202733366595,0.6574733695441418,,,,,,,,,,,,,,,,,,,,,,,,,,,,,,,,
44,240613_101236,FalseCHOICE,9.0,45,2.0,583.0,,,,,,,,,,,46.0,45.0,,,B,,,,,,False,cue1.png,Hard,cue2.png,Easy,Left,Hard,Mid,0.0161417000053916,,,,,,,,,,,,,10,26,Female,0.14285714285714285,1.75,1.0,1.5,2.2777777777777777,2.0,2.111111111111111,2.7777777777777777,2.5,2.4444444444444446,2.25,1.75,2.0,2.25,0.075,0.6,0.3553976600038974,0.025659610808034104,,,,,,,,,,,,,,,,,,,0.02159958183310912,1.8971745814938996,0.005319970215306963,-0.3164437525152537,,,,,,,,,,
45,240613_101258,FalseCHOICE,9.0,46,2.0,583.0,,,,,,,,,,,47.0,46.0,,,B,,,,,,False,cue1.png,Hard,cue2.png,Easy,Right,Easy,Mid,0.016620900016278,,,,,,,,,,,,,10,26,Female,0.14285714285714285,1.75,1.0,1.5,2.2777777777777777,2.0,2.111111111111111,2.7777777777777777,2.5,2.4444444444444446,2.25,1.75,2.0,2.25,0.8920454545454546,0.9090909090909092,0.3528897399955895,-0.0834487384092441,,,,,,,,,,,,,,,,,,,,,0.004599867279252882,-0.4324834396812321,-4.929739249697712e+43,-0.3227976567009733,,,,,,,,
46,240613_101319,FalseCHOICE,9.0,47,2.0,583.0,,,,,,,,,,,48.0,47.0,,,B,,,,,,False,cue2.png,Easy,cue1.png,Hard,Left,Easy,Mid,0.014030599995749,,,,,,,,,,,,,10,26,Female,0.14285714285714285,1.75,1.0,1.5,2.2777777777777777,2.0,2.111111111111111,2.7777777777777777,2.5,2.4444444444444446,2.25,1.75,2.0,2.25,0.7386363636363636,0.8181818181818181,0.3741407133328417,0.8410857811954634,,,,,,,,,,,,,,,,,,,0.013221120225579119,-0.1848473596910682,0.0062608527314798774,-0.16482693862624032,-3.7518610308226807e+43,-0.2473531953152865,,,,,,,,
47,240613_101340,FalseCHOICE,9.0,48,2.0,583.0,,,,,,,,,,,49.0,48.0,,,B,,,,,,False,cue2.png,Easy,cue1.png,Hard,Left,Easy,Mid,0.0166194000048562,,,,,,,,,,,,,10,26,Female,0.14285714285714285,1.75,1.0,1.5,2.2777777777777777,2.0,2.111111111111111,2.7777777777777777,2.5,2.4444444444444446,2.25,1.75,2.0,2.25,0.5875,0.7,0.3266085866702876,-1.2268238242775407,,,,,,,,,,,,,,,,,,,,,0.003887250671369026,-0.5473167560140973,2.127386186638486e+43,0.12921938457186707,,,,,,,,
48,240613_101402,FalseCHOICE,9.0,49,2.0,583.0,,,,,,,,,,,50.0,49.0,,,B,,,,,,False,cue1.png,Hard,cue2.png,Easy,Left,Hard,Mid,0.0161053000192623,,,,,,,,,,,,,10,26,Female,0.14285714285714285,1.75,1.0,1.5,2.2777777777777777,2.0,2.111111111111111,2.7777777777777777,2.5,2.4444444444444446,2.25,1.75,2.0,2.25,1.0,1.0,0.3709503666711195,0.7022881096037683,,,,,,,,,,,,,,,,,,,0.010578006248386488,-0.8416530540230653,0.00514108877086841,-0.34526927982971123,6.146667694112253e+43,0.38665901086737786,,,,,,,,
49,240613_101423,FalseCHOICE,9.0,50,2.0,583.0,,,,,,,,,,,51.0,50.0,,,B,,,,,,False,cue2.png,Easy,cue1.png,Hard,Left,Easy,Mid,0.0165331000171136,,,,,,,,,,,,,10,26,Female,0.14285714285714285,1.75,1.0,1.5,2.2777777777777777,2.0,2.111111111111111,2.7777777777777777,2.5,2.4444444444444446,2.25,1.75,2.0,2.25,1.0,1.0,0.3541314999960984,-0.029425331230884366,,,,,,,,,,,,,,,,,,,0.010975294915038533,-0.7429280422368587,0.007249532568659777,-0.005507911762767197,-1.200754757166407e+43,-0.08395188975632509,,,,,,,,
0,240613_093003,OFFLINERATING,9.0,1,1.0,,,,,,,,,,,,,,,,,T0,cue2.png,Easy,76.0,1.2562535000033677,,,,,,,,,,,,,,,,,,,,,,10,26,Female,0.14285714285714285,1.75,1.0,1.5,2.2777777777777777,2.0,2.111111111111111,2.7777777777777777,2.5,2.4444444444444446,2.25,1.75,2.0,2.25,,,,,,,,,,,,,,,,,,,,,,,,,,,,,-0.4001967424117751,0.01626485189816452,0.2597126969479248,,,,,
1,240613_093009,OFFLINERATING,9.0,2,3.0,,,,,,,,,,,,,,,,,T0,cue1.png,Hard,78.0,0.568041299993638,,,,,,,,,,,,,,,,,,,,,,10,26,Female,0.14285714285714285,1.75,1.0,1.5,2.2777777777777777,2.0,2.111111111111111,2.7777777777777777,2.5,2.4444444444444446,2.25,1.75,2.0,2.25,,,,,,,,,,,,,,,,,,,,,,,,,,,,,-0.12179900856010548,,,,,10797198.53859009,-1.0,
2,240613_095036,OFFLINERATING,9.0,3,1.0,,,,,,,,,,,,,,,,,T1,cue2.png,Easy,72.0,0.8733221000002231,,,,,,,,,,,,,,,,,,,,,,10,26,Female,0.14285714285714285,1.75,1.0,1.5,2.2777777777777777,2.0,2.111111111111111,2.7777777777777777,2.5,2.4444444444444446,2.25,1.75,2.0,2.25,,,,,,,,,,,,,,,,,,,,,,,,,,,,,-0.9569922101151144,0.02118582198122049,1.074058925240524,0.00799220023780353,0.555735434714908,,,
3,240613_095043,OFFLINERATING,9.0,4,3.0,,,,,,,,,,,,,,,,,T1,cue1.png,Hard,80.0,0.6015030999842566,,,,,,,,,,,,,,,,,,,,,,10,26,Female,0.14285714285714285,1.75,1.0,1.5,2.2777777777777777,2.0,2.111111111111111,2.7777777777777777,2.5,2.4444444444444446,2.25,1.75,2.0,2.25,,,,,,,,,,,,,,,,,,,,,,,,,,,,,0.15659872529156418,0.006635669137989176,-1.3337716221884486,0.00414049905408301,-1.0077777978426288,,,
4,240613_095515,OFFLINERATING,9.0,5,1.0,,,,,,,,,,,,,,,,,T2,cue2.png,Easy,80.0,0.985219700000016,,,,,,,,,,,,,,,,,,,,,,10,26,Female,0.14285714285714285,1.75,1.0,1.5,2.2777777777777777,2.0,2.111111111111111,2.7777777777777777,2.5,2.4444444444444446,2.25,1.75,2.0,2.25,,,,,,,,,,,,,,,,,,,,,,,,,,,,,0.15659872529156418,,,,,10778397279.922401,1.0000000000000002,
5,240613_095522,OFFLINERATING,9.0,6,3.0,,,,,,,,,,,,,,,,,T2,cue1.png,Hard,87.0,0.7183407999982592,,,,,,,,,,,,,,,,,,,,,,10,26,Female,0.14285714285714285,1.75,1.0,1.5,2.2777777777777777,2.0,2.111111111111111,2.7777777777777777,2.5,2.4444444444444446,2.25,1.75,2.0,2.25,,,,,,,,,,,,,,,,,,,,,,,,,,,,,1.130990793772408,,,0.004385560761351541,-0.9083003971224146,,,
6,240613_101440,OFFLINERATING,9.0,7,1.0,,,,,,,,,,,,,,,,,T3,cue2.png,Easy,91.0,1.473153099999763,,,,,,,,,,,,,,,,,,,,,,10,26,Female,0.14285714285714285,1.75,1.0,1.5,2.2777777777777777,2.0,2.111111111111111,2.7777777777777777,2.5,2.4444444444444446,2.25,1.75,2.0,2.25,,,,,,,,,,,,,,,,,,,,,,,,,,,,,1.6877862614757473,,,0.009974343352208027,1.3603427602501357,,,
7,240613_101448,OFFLINERATING,9.0,8,3.0,,,,,,,,,,,,,,,,,T3,cue1.png,Hard,67.0,1.2519727000035346,,,,,,,,,,,,,,,,,,,,,,10,26,Female,0.14285714285714285,1.75,1.0,1.5,2.2777777777777777,2.0,2.111111111111111,2.7777777777777777,2.5,2.4444444444444446,2.25,1.75,2.0,2.25,,,,,,,,,,,,,,,,,,,,,,,,,,,,,-1.6529865447442886,,,,,,,
0,240613_095540,LEARNINGCHECK,9.0,1,,,,,,,,,,,,1.0,1.0,1.0,,,B,,,,,,,,,,,,,,,cue2.png,Easy,Left,Left,Easy,0.0137032000056933,1.0,,,,,,10,26,Female,0.14285714285714285,1.75,1.0,1.5,2.2777777777777777,2.0,2.111111111111111,2.7777777777777777,2.5,2.4444444444444446,2.25,1.75,2.0,2.25,,,,,,,,,,,,,,,,,,,,,,,,,,,,,,,,,,,,
1,240613_095545,LEARNINGCHECK,9.0,2,,,,,,,,,,,,2.0,2.0,2.0,,,B,,,,,,,,,,,,,,,cue1.png,Hard,Right,Right,Hard,0.016066000011051,1.0,,,,,,10,26,Female,0.14285714285714285,1.75,1.0,1.5,2.2777777777777777,2.0,2.111111111111111,2.7777777777777777,2.5,2.4444444444444446,2.25,1.75,2.0,2.25,,,,,,,,,,,,,,,,,,,,,,,,,,,,,,,,,,,,
2,240613_101503,LEARNINGCHECK,9.0,1,,,,,,,,,,,,1.0,1.0,1.0,,,B,,,,,,,,,,,,,,,cue2.png,Easy,Middle,Middle,Mid,0.0158978000108618,1.0,,,,,,10,26,Female,0.14285714285714285,1.75,1.0,1.5,2.2777777777777777,2.0,2.111111111111111,2.7777777777777777,2.5,2.4444444444444446,2.25,1.75,2.0,2.25,,,,,,,,,,,,,,,,,,,,,,,,,,,,,,,,,,,,
3,240613_101509,LEARNINGCHECK,9.0,2,,,,,,,,,,,,2.0,2.0,2.0,,,B,,,,,,,,,,,,,,,cue1.png,Hard,Middle,Middle,Mid,0.0144360999984201,1.0,,,,,,10,26,Female,0.14285714285714285,1.75,1.0,1.5,2.2777777777777777,2.0,2.111111111111111,2.7777777777777777,2.5,2.4444444444444446,2.25,1.75,2.0,2.25,,,,,,,,,,,,,,,,,,,,,,,,,,,,,,,,,,,,
0,240613_101523,DEMANDRATING,9.0,-1,,,,,,,,,,,,,,,,,,,,,,,,,,,,,,,,,,,,,,,1.0,MentalDemand,1.0,75.0,4.586460400023498,10,26,Female,0.14285714285714285,1.75,1.0,1.5,2.2777777777777777,2.0,2.111111111111111,2.7777777777777777,2.5,2.4444444444444446,2.25,1.75,2.0,2.25,,,,,,,,,,,,,,,,,,,,,,,,,,,,,,,,,,,,-0.23690177073967172
1,240613_101528,DEMANDRATING,9.0,-1,,,,,,,,,,,,,,,,,,,,,,,,,,,,,,,,,,,,,,,2.0,Effort,1.0,75.0,3.741729200002737,10,26,Female,0.14285714285714285,1.75,1.0,1.5,2.2777777777777777,2.0,2.111111111111111,2.7777777777777777,2.5,2.4444444444444446,2.25,1.75,2.0,2.25,,,,,,,,,,,,,,,,,,,,,,,,,,,,,,,,,,,,-0.23690177073967172
2,240613_101533,DEMANDRATING,9.0,-1,,,,,,,,,,,,,,,,,,,,,,,,,,,,,,,,,,,,,,,3.0,Frustration,1.0,68.0,3.712401299999328,10,26,Female,0.14285714285714285,1.75,1.0,1.5,2.2777777777777777,2.0,2.111111111111111,2.7777777777777777,2.5,2.4444444444444446,2.25,1.75,2.0,2.25,,,,,,,,,,,,,,,,,,,,,,,,,,,,,,,,,,,,-0.6891687876063172
3,240613_101537,DEMANDRATING,9.0,-1,,,,,,,,,,,,,,,,,,,,,,,,,,,,,,,,,,,,,,,4.0,MentalDemand,2.0,91.0,1.9924553000018927,10,26,Female,0.14285714285714285,1.75,1.0,1.5,2.2777777777777777,2.0,2.111111111111111,2.7777777777777777,2.5,2.4444444444444446,2.25,1.75,2.0,2.25,,,,,,,,,,,,,,,,,,,,,,,,,,,,,,,,,,,,0.7968514106698036
4,240613_101540,DEMANDRATING,9.0,-1,,,,,,,,,,,,,,,,,,,,,,,,,,,,,,,,,,,,,,,5.0,Effort,2.0,96.0,1.5426121999917086,10,26,Female,0.14285714285714285,1.75,1.0,1.5,2.2777777777777777,2.0,2.111111111111111,2.7777777777777777,2.5,2.4444444444444446,2.25,1.75,2.0,2.25,,,,,,,,,,,,,,,,,,,,,,,,,,,,,,,,,,,,1.1198992798602647
5,240613_101542,DEMANDRATING,9.0,-1,,,,,,,,,,,,,,,,,,,,,,,,,,,,,,,,,,,,,,,6.0,Frustration,2.0,100.0,1.0994962000113446,10,26,Female,0.14285714285714285,1.75,1.0,1.5,2.2777777777777777,2.0,2.111111111111111,2.7777777777777777,2.5,2.4444444444444446,2.25,1.75,2.0,2.25,,,,,,,,,,,,,,,,,,,,,,,,,,,,,,,,,,,,1.3783375752126334
6,240613_101546,DEMANDRATING,9.0,-1,,,,,,,,,,,,,,,,,,,,,,,,,,,,,,,,,,,,,,,7.0,MentalDemand,3.0,74.0,1.6876048000121957,10,26,Female,0.14285714285714285,1.75,1.0,1.5,2.2777777777777777,2.0,2.111111111111111,2.7777777777777777,2.5,2.4444444444444446,2.25,1.75,2.0,2.25,,,,,,,,,,,,,,,,,,,,,,,,,,,,,,,,,,,,-0.30151134457776396
7,240613_101549,DEMANDRATING,9.0,-1,,,,,,,,,,,,,,,,,,,,,,,,,,,,,,,,,,,,,,,8.0,Effort,3.0,83.0,1.688471200002823,10,26,Female,0.14285714285714285,1.75,1.0,1.5,2.2777777777777777,2.0,2.111111111111111,2.7777777777777777,2.5,2.4444444444444446,2.25,1.75,2.0,2.25,,,,,,,,,,,,,,,,,,,,,,,,,,,,,,,,,,,,0.2799748199650659
8,240613_101551,DEMANDRATING,9.0,-1,,,,,,,,,,,,,,,,,,,,,,,,,,,,,,,,,,,,,,,9.0,Frustration,3.0,46.0,1.0519486000121103,10,26,Female,0.14285714285714285,1.75,1.0,1.5,2.2777777777777777,2.0,2.111111111111111,2.7777777777777777,2.5,2.4444444444444446,2.25,1.75,2.0,2.25,,,,,,,,,,,,,,,,,,,,,,,,,,,,,,,,,,,,-2.1105794120443457
