,END,Phase,Block,TrialN,NbackLevel,ISI,Letter_Resp,Letter_RT,Letter_Accuracy,Trial_A_measure,Trial_ACC,Trial_RT,TrialCountCali,CaliEnd_A_measure,ISI_calibrated,TrialIndex,TrialNumber_total,TrialNumber_valid,CueLearning,TrialDemandLearning,CueMapping,OfflineRatingTimePoint,CueFigure,TrialDemand,OfflineRating,OfflineRatingRT,PhaseType,CueLeft,CueDemandLeft,CueRight,CueDemandRight,Choice,ChoiceDemand,TaskDemand,ChoiceRT,CueCheck,CueDemandCheck,CorrectAnswer,Answer,AnswerDemand,AnswerRT,AnswerACC,DemandRatingQuesIndex,QuesTLX,DemandLevel,DemandRating,DemandRatingRT,PID,Age,Gender,BAI_bis,BAI_bas_d,BAI_bas_rr,BAI_bas_fs,NFC,BFI_ext,BFI_agr,BFI_con,BFI_neu,BFI_open,UPPS_lps,UPPS_lpm,UPPS_pu,UPPS_ss,Task_A_measure,Task_ACC,Task_RT,Task_RT_z,Task_RT_log,Task_RT_log_z,cue_i_on_zyg_values,cue_i_on_zyg_zvalues,cue_e_on_zyg_values,cue_e_on_zyg_zvalues,cue_i_on_cor_values,cue_i_on_cor_zvalues,cue_e_on_cor_values,cue_e_on_cor_zvalues,cue_i_on_scr_values,cue_i_on_scr_zvalues,cue_e_on_scr_values,cue_e_on_scr_zvalues,cue_e_true_zyg_values,cue_e_true_zyg_zvalues,cue_e_true_cor_values,cue_e_true_cor_zvalues,cue_e_true_scr_values,cue_e_true_scr_zvalues,cue_e_false_zyg_values,cue_e_false_zyg_zvalues,cue_e_false_cor_values,cue_e_false_cor_zvalues,cue_e_false_scr_values,cue_e_false_scr_zvalues,OfflineRating_z,cue_i_off_zyg_values,cue_i_off_zyg_zvalues,cue_i_off_cor_values,cue_i_off_cor_zvalues,cue_i_off_scr_values,cue_i_off_scr_zvalues,DemandRating_z
0,240613_143511,PRACTICE,0.0,1,1.0,917.0,,,,,,,,,,19.0,1.0,1.0,cue1.png,Easy,A,,,,,,,,,,,,,,,,,,,,,,,,,,,11,21,Female,0.7142857142857143,0.75,0.4,1.75,2.1666666666666665,1.0,2.0,3.2222222222222223,2.0,2.5555555555555554,2.25,1.5,3.0,1.25,,,,,,,,,,,,,,,,,,,,,,,,,,,,,,,,,,,,,,
0,240613_143730,LEARNING,1.0,1,1.0,917.0,,,,,,,,,,1.0,1.0,1.0,cue1.png,Easy,A,,,,,,,,,,,,,,,,,,,,,,,,,,,11,21,Female,0.7142857142857143,0.75,0.4,1.75,2.1666666666666665,1.0,2.0,3.2222222222222223,2.0,2.5555555555555554,2.25,1.5,3.0,1.25,1.0,1.0,0.5491826666717922,-0.8462373740553282,-0.5993241666355581,-0.8323181494996585,,,,,,,,,1.186,-0.5579467666768881,,,,,,,,,,,,,,,,,,,,,,
1,240613_143757,LEARNING,1.0,2,3.0,917.0,,,,,,,,,,2.0,2.0,2.0,cue2.png,Hard,A,,,,,,,,,,,,,,,,,,,,,,,,,,,11,21,Female,0.7142857142857143,0.75,0.4,1.75,2.1666666666666665,1.0,2.0,3.2222222222222223,2.0,2.5555555555555554,2.25,1.5,3.0,1.25,0.6111111111111112,0.7777777777777778,0.7980740250034918,0.9682837564283225,-0.22555392267229396,0.990466778166827,0.00020126877496641016,0.6343958754919656,,,-6.58968996424137e-05,-0.7003524466903973,,,1.975,0.6293615450887179,1.955,0.8673446566333585,,,,,,,,,,,,,,,,,,,,
2,240613_143822,LEARNING,1.0,3,1.0,917.0,,,,,,,,,,3.0,3.0,3.0,cue1.png,Easy,A,,,,,,,,,,,,,,,,,,,,,,,,,,,11,21,Female,0.7142857142857143,0.75,0.4,1.75,2.1666666666666665,1.0,2.0,3.2222222222222223,2.0,2.5555555555555554,2.25,1.5,3.0,1.25,0.8518518518518517,0.8888888888888888,0.6365799666721917,-0.20907484394210005,-0.45164523388443023,-0.1121245623956907,,,0.00022588461692144056,0.7344304237575857,3.3278431224298324e-05,-0.37401611991431094,0.0006958655177798406,2.717251131640449,1.577,0.03044049555422963,1.5870000000000002,0.14468413641181635,,,,,,,,,,,,,,,,,,,,
3,240613_143851,LEARNING,1.0,4,3.0,917.0,,,,,,,,,,4.0,4.0,4.0,cue2.png,Hard,A,,,,,,,,,,,,,,,,,,,,,,,,,,,11,21,Female,0.7142857142857143,0.75,0.4,1.75,2.1666666666666665,1.0,2.0,3.2222222222222223,2.0,2.5555555555555554,2.25,1.5,3.0,1.25,0.2222222222222222,0.7222222222222222,0.9243387999973492,1.888806283999493,-0.0786766078824486,1.7067510729684465,,,0.00011829538617203665,0.48639213416167676,,,-5.395873803192182e-07,-0.15199999881264717,,,1.5799999999999998,0.1309378765162972,,,,,,,,,,,,,,,,,,,,
4,240613_143919,LEARNING,1.0,5,3.0,917.0,,,,,,,,,,5.0,5.0,5.0,cue2.png,Hard,A,,,,,,,,,,,,,,,,,,,,,,,,,,,11,21,Female,0.7142857142857143,0.75,0.4,1.75,2.1666666666666665,1.0,2.0,3.2222222222222223,2.0,2.5555555555555554,2.25,1.5,3.0,1.25,0.6111111111111112,0.6111111111111112,0.7839462099975207,0.8652861311683319,-0.24341487068252202,0.9033633574084902,,,,,,,9.578078743751337e-05,0.24484853415175847,1.4469999999999998,-0.16518698293693498,,,,,,,,,,,,,,,,,,,,,,
5,240613_143943,LEARNING,1.0,6,1.0,917.0,,,,,,,,,,6.0,6.0,6.0,cue1.png,Easy,A,,,,,,,,,,,,,,,,,,,,,,,,,,,11,21,Female,0.7142857142857143,0.75,0.4,1.75,2.1666666666666665,1.0,2.0,3.2222222222222223,2.0,2.5555555555555554,2.25,1.5,3.0,1.25,1.0,1.0,0.5279561166704904,-1.000987718795298,-0.6387421110963952,-1.0245497040529161,-0.0008507098081153943,-1.3717037949780408,-0.0003564714536807511,-0.6081445038799773,,,-0.00018523657990996258,-0.9129680771340858,1.709,0.22907762756064295,,,,,,,,,,,,,,,,,,,,,,
6,240613_144010,LEARNING,1.0,7,3.0,917.0,,,,,,,,,,7.0,7.0,7.0,cue2.png,Hard,A,,,,,,,,,,,,,,,,,,,,,,,,,,,11,21,Female,0.7142857142857143,0.75,0.4,1.75,2.1666666666666665,1.0,2.0,3.2222222222222223,2.0,2.5555555555555554,2.25,1.5,3.0,1.25,0.8518518518518517,0.8888888888888888,0.7703211083304874,0.7659534944486937,-0.2609478272588399,0.8178594696568362,0.00029000044224770536,0.8036051838904223,0.0001837686124780205,0.6373353740579438,0.00015999684039138705,0.042950678392352074,,,,,1.1649999999999998,-0.6840189601465835,,,,,,,,,,,,,,,,,,,,
7,240613_144037,LEARNING,1.0,8,3.0,917.0,,,,,,,,,,8.0,8.0,8.0,cue2.png,Hard,A,,,,,,,,,,,,,,,,,,,,,,,,,,,11,21,Female,0.7142857142857143,0.75,0.4,1.75,2.1666666666666665,1.0,2.0,3.2222222222222223,2.0,2.5555555555555554,2.25,1.5,3.0,1.25,0.6111111111111112,0.7777777777777778,0.8079111166734947,1.0400002307059737,-0.21330323062890033,1.0502103697738046,0.00017078723231259097,0.5762682542108307,,,-3.857594142875516e-05,-0.6104528610824521,-1.2545801773053856e-05,-0.2014666726833011,2.985,2.149236570289303,,,,,,,,,,,,,,,,,,,,,,
8,240613_144101,LEARNING,1.0,9,1.0,917.0,,,,,,,,,,9.0,9.0,9.0,cue1.png,Easy,A,,,,,,,,,,,,,,,,,,,,,,,,,,,11,21,Female,0.7142857142857143,0.75,0.4,1.75,2.1666666666666665,1.0,2.0,3.2222222222222223,2.0,2.5555555555555554,2.25,1.5,3.0,1.25,1.0,1.0,0.5760033750023771,-0.6507032971528806,-0.551641758924285,-0.5997828541017212,-0.00020998081108022882,-0.14984790315246552,,,-8.658746234092244e-06,-0.5120103602916992,,,2.759,1.8091457230662018,,,,,,,,,,,,,,,,,,,,,,
9,240613_144125,LEARNING,1.0,10,1.0,917.0,,,,,,,,,,10.0,10.0,10.0,cue1.png,Easy,A,,,,,,,,,,,,,,,,,,,,,,,,,,,11,21,Female,0.7142857142857143,0.75,0.4,1.75,2.1666666666666665,1.0,2.0,3.2222222222222223,2.0,2.5555555555555554,2.25,1.5,3.0,1.25,1.0,1.0,0.5676554250045834,-0.7115633116136088,-0.5662406904638866,-0.6709782282659524,0.00034745294919640447,0.9131658319026819,-0.0002484652530752021,-0.35914492392804587,,,2.2843426373475844e-05,-0.05565989712564565,,,,,,,,,,,,,,,,,,,,,,,,
10,240613_144151,LEARNING,1.0,11,3.0,917.0,,,,,,,,,,11.0,11.0,11.0,cue2.png,Hard,A,,,,,,,,,,,,,,,,,,,,,,,,,,,11,21,Female,0.7142857142857143,0.75,0.4,1.75,2.1666666666666665,1.0,2.0,3.2222222222222223,2.0,2.5555555555555554,2.25,1.5,3.0,1.25,0.7222222222222222,0.8055555555555555,0.6220555636365052,-0.3149637602651444,-0.4747258596273848,-0.22468305897174123,-0.00011079350503571082,0.039300074924995106,-3.701803266716302e-05,0.12832958002094508,1.8192226072435286e-05,-0.4236572628399244,0.0007169784877364498,2.804238450467314,,,0.6900000000000002,-1.6168008816281931,,,,,,,,,,,,,,,,,,,,
11,240613_144214,LEARNING,1.0,12,1.0,917.0,,,,,,,,,,12.0,12.0,12.0,cue1.png,Easy,A,,,,,,,,,,,,,,,,,,,,,,,,,,,11,21,Female,0.7142857142857143,0.75,0.4,1.75,2.1666666666666665,1.0,2.0,3.2222222222222223,2.0,2.5555555555555554,2.25,1.5,3.0,1.25,1.0,1.0,0.5464953499928621,-0.8658290261355954,-0.6042294801064785,-0.8562401486547113,-9.81429312719097e-05,0.0634244366439109,1.1844810581907589e-05,0.24097892215186864,0.0007085629503172154,1.8480069130686338,,,1.658,0.15233146292180128,1.4460000000000002,-0.13220481291219854,,,,,,,,,,,,,,,,,,,,
12,240613_144239,LEARNING,1.0,13,1.0,917.0,,,,,,,,,,13.0,13.0,13.0,cue1.png,Easy,A,,,,,,,,,,,,,,,,,,,,,,,,,,,11,21,Female,0.7142857142857143,0.75,0.4,1.75,2.1666666666666665,1.0,2.0,3.2222222222222223,2.0,2.5555555555555554,2.25,1.5,3.0,1.25,1.0,1.0,0.569843233335026,-0.6956132823653233,-0.5623939852178143,-0.6522187992933096,,,,,-5.063416334298229e-06,-0.5001799308613818,5.279156373469386e-05,0.06772909922422662,0.8150000000000002,-1.1162374937555186,,,,,,,,,,,,,,,,,,,,,,
13,240613_144302,LEARNING,1.0,14,1.0,917.0,,,,,,,,,,14.0,14.0,14.0,cue1.png,Easy,A,,,,,,,,,,,,,,,,,,,,,,,,,,,11,21,Female,0.7142857142857143,0.75,0.4,1.75,2.1666666666666665,1.0,2.0,3.2222222222222223,2.0,2.5555555555555554,2.25,1.5,3.0,1.25,1.0,1.0,0.5106711166639192,-1.12700253089068,-0.6720295032938411,-1.1868840732510988,0.0003503809029553038,0.918749374348643,-5.650106487954318e-05,0.08341302143566542,-4.76062714979816e-05,-0.6401671531207368,-6.456744871629607e-05,-0.4158004967663424,,,,,,,,,,,,,,,,,,,,,,,,
14,240613_144328,LEARNING,1.0,15,3.0,917.0,,,,,,,,,,15.0,15.0,15.0,cue2.png,Hard,A,,,,,,,,,,,,,,,,,,,,,,,,,,,11,21,Female,0.7142857142857143,0.75,0.4,1.75,2.1666666666666665,1.0,2.0,3.2222222222222223,2.0,2.5555555555555554,2.25,1.5,3.0,1.25,0.6111111111111112,0.7777777777777778,0.6975555416599187,0.2354623629751774,-0.3601731388369311,0.333962195037694,0.0001468781850209257,0.5306742348415868,-0.0008805901733870891,-1.8164579184814473,6.509714125461832e-05,-0.26931668646343376,0.00011605745860201241,0.3283902273838673,,,,,,,,,,,,,,,,,,,,,,,,
15,240613_144353,LEARNING,1.0,16,1.0,917.0,,,,,,,,,,16.0,16.0,16.0,cue1.png,Easy,A,,,,,,,,,,,,,,,,,,,,,,,,,,,11,21,Female,0.7142857142857143,0.75,0.4,1.75,2.1666666666666665,1.0,2.0,3.2222222222222223,2.0,2.5555555555555554,2.25,1.5,3.0,1.25,1.0,1.0,0.6474867916695075,-0.12955957046385594,-0.43465688458251756,-0.029276589466889616,-0.00048374669238749734,-0.6719133264499044,,,0.001289008477523874,3.7579623383427276,-0.00037968195674095706,-1.7141003680230218,,,,,,,,,,,,,,,,,,,,,,,,
16,240613_144418,LEARNING,1.0,17,1.0,917.0,,,,,,,,,,17.0,17.0,17.0,cue1.png,Easy,A,,,,,,,,,,,,,,,,,,,,,,,,,,,11,21,Female,0.7142857142857143,0.75,0.4,1.75,2.1666666666666665,1.0,2.0,3.2222222222222223,2.0,2.5555555555555554,2.25,1.5,3.0,1.25,1.0,1.0,0.6364349333404485,-0.21013219702513386,-0.451873091912438,-0.1132357695765952,-0.00015902339497052276,-0.052673248354635833,-0.00034536195373145165,-0.5825324482262999,0.00021644834364012303,0.22870429322969033,-6.0185510066842855e-06,-0.17457381750262352,,,,,,,,,,,,,,,,,,,,,,,,
17,240613_144444,LEARNING,1.0,18,3.0,917.0,,,,,,,,,,18.0,18.0,18.0,cue2.png,Hard,A,,,,,,,,,,,,,,,,,,,,,,,,,,,11,21,Female,0.7142857142857143,0.75,0.4,1.75,2.1666666666666665,1.0,2.0,3.2222222222222223,2.0,2.5555555555555554,2.25,1.5,3.0,1.25,0.8518518518518517,0.8888888888888888,0.7061564166676059,0.29816630555761997,-0.3479185126746654,0.39372497236825305,-0.0001267798289073434,0.008814512227550841,-0.00035369235044558755,-0.6017375056306266,-2.7883525981626123e-05,-0.5752694787747137,-2.3550322556367687e-05,-0.24680627956392012,,,,,,,,,,,,,,,,,,,,,,,,
18,240613_144510,LEARNING,1.0,19,3.0,917.0,,,,,,,,,,19.0,19.0,19.0,cue2.png,Hard,A,,,,,,,,,,,,,,,,,,,,,,,,,,,11,21,Female,0.7142857142857143,0.75,0.4,1.75,2.1666666666666665,1.0,2.0,3.2222222222222223,2.0,2.5555555555555554,2.25,1.5,3.0,1.25,0.875,0.875,0.7861119166579252,0.8810750300842033,-0.2406561090835806,0.9168171546082206,-0.00018298806383304327,-0.09837333681764092,0.0009273257624822359,2.3515463821599436,2.1484922803934395e-05,-0.41282264754643805,,,,,,,,,,,,,,,,,,,,,,,,,,
19,240613_144537,LEARNING,1.0,20,3.0,917.0,,,,,,,,,,20.0,20.0,20.0,cue2.png,Hard,A,,,,,,,,,,,,,,,,,,,,,,,,,,,11,21,Female,0.7142857142857143,0.75,0.4,1.75,2.1666666666666665,1.0,2.0,3.2222222222222223,2.0,2.5555555555555554,2.25,1.5,3.0,1.25,0.8518518518518517,0.8888888888888888,0.7783083916729083,0.8241840995493649,-0.2506324430205606,0.8681650443148125,,,,,,,,,2.7699999999999996,1.825698817400069,1.355,-0.310906191553939,,,,,,,,,,,,,,,,,,,,
20,240613_144602,LEARNING,1.0,21,1.0,917.0,,,,,,,,,,21.0,21.0,21.0,cue1.png,Easy,A,,,,,,,,,,,,,,,,,,,,,,,,,,,11,21,Female,0.7142857142857143,0.75,0.4,1.75,2.1666666666666665,1.0,2.0,3.2222222222222223,2.0,2.5555555555555554,2.25,1.5,3.0,1.25,1.0,1.0,0.6091905333353983,-0.4087551617912684,-0.4956241975838422,-0.3265990783862106,-0.0007324096045681914,-1.1461079480955536,9.303771924529334e-05,0.4281626212257152,0.00022745280148391,0.26491445073075387,,,1.1789999999999998,-0.5684805539802587,1.1260000000000001,-0.7606052652787573,,,,,,,,,,,,,,,,,,,,
21,240613_144630,LEARNING,1.0,22,3.0,917.0,,,,,,,,,,22.0,22.0,22.0,cue2.png,Hard,A,,,,,,,,,,,,,,,,,,,,,,,,,,,11,21,Female,0.7142857142857143,0.75,0.4,1.75,2.1666666666666665,1.0,2.0,3.2222222222222223,2.0,2.5555555555555554,2.25,1.5,3.0,1.25,0.9375,0.9166666666666666,0.9235443000030832,1.8830140498398658,-0.07953651080944923,1.702557539320682,0.0007817077612379941,1.7412800628830896,0.00022291261550713617,0.7275787143221154,-0.0001563769629231099,-0.9980770041932442,-3.854122423832106e-06,-0.16565617874306077,2.3649999999999998,1.2162439805622107,2.077,1.1069223290981087,,,,,,,,,,,,,,,,,,,,
22,240613_144700,LEARNING,1.0,23,3.0,917.0,,,,,,,,,,23.0,23.0,23.0,cue2.png,Hard,A,,,,,,,,,,,,,,,,,,,,,,,,,,,11,21,Female,0.7142857142857143,0.75,0.4,1.75,2.1666666666666665,1.0,2.0,3.2222222222222223,2.0,2.5555555555555554,2.25,1.5,3.0,1.25,0.6875,0.6666666666666666,0.9550066818218592,2.112387849750711,-0.04603694185377951,1.8659266420299936,-0.000273648856261053,-0.2712614437994129,-5.435400036417695e-05,0.08836290541879316,,,,,2.098,0.8144552362765116,1.9369999999999998,0.8319971311877391,,,,,,,,,,,,,,,,,,,,
23,240613_144728,LEARNING,1.0,24,3.0,917.0,,,,,,,,,,24.0,24.0,24.0,cue2.png,Hard,A,,,,,,,,,,,,,,,,,,,,,,,,,,,11,21,Female,0.7142857142857143,0.75,0.4,1.75,2.1666666666666665,1.0,2.0,3.2222222222222223,2.0,2.5555555555555554,2.25,1.5,3.0,1.25,0.1666666666666666,0.5833333333333334,0.8431987727261995,1.297261864786248,-0.1705525566915924,1.2586948207408757,-5.538072195253752e-05,0.14497101506649754,-0.0004869202228961573,-0.9088836147622261,5.510797658723598e-05,-0.30218602278554907,1.4597946012091887e-05,-0.08963201144923143,,,,,,,,,,,,,,,,,,,,,,,,
24,240613_144753,LEARNING,1.0,25,1.0,917.0,,,,,,,,,,25.0,25.0,25.0,cue1.png,Easy,A,,,,,,,,,,,,,,,,,,,,,,,,,,,11,21,Female,0.7142857142857143,0.75,0.4,1.75,2.1666666666666665,1.0,2.0,3.2222222222222223,2.0,2.5555555555555554,2.25,1.5,3.0,1.25,1.0,1.0,0.6490086833388583,-0.11846434959779528,-0.4323091828007448,-0.017827429209788748,-0.0006428393406111409,-0.9752994545597328,-3.905712094542588e-05,0.1236286265393329,-0.00012580445130204974,-0.8974781853585019,4.6179769876220425e-05,0.04048791896552535,0.609,-1.4262318058261334,2.102,1.1560161144392458,,,,,,,,,,,,,,,,,,,,
25,240613_144816,LEARNING,1.0,26,1.0,917.0,,,,,,,,,,26.0,26.0,26.0,cue1.png,Easy,A,,,,,,,,,,,,,,,,,,,,,,,,,,,11,21,Female,0.7142857142857143,0.75,0.4,1.75,2.1666666666666665,1.0,2.0,3.2222222222222223,2.0,2.5555555555555554,2.25,1.5,3.0,1.25,1.0,1.0,0.5232018000024254,-1.0356486572587276,-0.6477880384734579,-1.0686644519387751,-0.000604969835662438,-0.9030831541328755,0.0004455077748280684,1.2407538918535226,0.0009091100331305984,2.5079068879821107,6.6932937890141e-05,0.1259928217056197,,,1.6509999999999998,0.2703642268851273,,,,,,,,,,,,,,,,,,,,
26,240613_144843,LEARNING,1.0,27,3.0,917.0,,,,,,,,,,27.0,27.0,27.0,cue2.png,Hard,A,,,,,,,,,,,,,,,,,,,,,,,,,,,11,21,Female,0.7142857142857143,0.75,0.4,1.75,2.1666666666666665,1.0,2.0,3.2222222222222223,2.0,2.5555555555555554,2.25,1.5,3.0,1.25,0.6111111111111112,0.7777777777777778,0.8055578333345087,1.0228438200807626,-0.21622028088596762,1.0359846379834738,-7.921633351052042e-05,0.09951703600179045,1.952154324047061e-05,0.258677009823395,7.7730217225732e-05,-0.2277475626473797,,,0.8220000000000001,-1.1057037064521484,,,,,,,,,,,,,,,,,,,,,,
27,240613_144907,LEARNING,1.0,28,1.0,917.0,,,,,,,,,,28.0,28.0,28.0,cue1.png,Easy,A,,,,,,,,,,,,,,,,,,,,,,,,,,,11,21,Female,0.7142857142857143,0.75,0.4,1.75,2.1666666666666665,1.0,2.0,3.2222222222222223,2.0,2.5555555555555554,2.25,1.5,3.0,1.25,1.0,1.0,0.4971784250010387,-1.2253698438158993,-0.6988063132857998,-1.3174679451687592,-0.001001477507015223,-1.659214430598032,-0.00045516104018995286,-0.8356653818355577,0.0004417127287732782,0.9699365266429051,-0.0003338700395323466,-1.5253511841571177,1.6629999999999998,0.15985559670992283,2.229,1.4054125439722243,,,,,,,,,,,,,,,,,,,,
28,240613_144932,LEARNING,1.0,29,1.0,917.0,,,,,,,,,,29.0,29.0,29.0,cue1.png,Easy,A,,,,,,,,,,,,,,,,,,,,,,,,,,,11,21,Female,0.7142857142857143,0.75,0.4,1.75,2.1666666666666665,1.0,2.0,3.2222222222222223,2.0,2.5555555555555554,2.25,1.5,3.0,1.25,1.0,1.0,0.6514185416720769,-0.10089548382275425,-0.42860292220356905,0.0002470859867718543,-7.546320507491669e-05,0.10667416813259807,-0.0008171220434584504,-1.670137266482198,-4.068095774343965e-05,-0.6173794151552698,0.00014549755318200071,0.4496860421738103,1.486,-0.10649873938958544,2.129,1.2090374026076744,,,,,,,,,,,,,,,,,,,,
29,240613_144959,LEARNING,1.0,30,3.0,917.0,,,,,,,,,,30.0,30.0,30.0,cue2.png,Hard,A,,,,,,,,,,,,,,,,,,,,,,,,,,,11,21,Female,0.7142857142857143,0.75,0.4,1.75,2.1666666666666665,1.0,2.0,3.2222222222222223,2.0,2.5555555555555554,2.25,1.5,3.0,1.25,0.6111111111111112,0.7777777777777778,0.7805381583287575,0.8404400223753158,-0.24777165062688697,0.8821164204358172,0.0006412464346723908,1.4734234491946674,-0.0010136929765436646,-2.123315690448191,,,,,1.022,-0.8047383549272801,2.133,1.2168924082622565,,,,,,,,,,,,,,,,,,,,
30,240613_145025,LEARNING,1.0,31,3.0,917.0,,,,,,,,,,31.0,31.0,31.0,cue2.png,Hard,A,,,,,,,,,,,,,,,,,,,,,,,,,,,11,21,Female,0.7142857142857143,0.75,0.4,1.75,2.1666666666666665,1.0,2.0,3.2222222222222223,2.0,2.5555555555555554,2.25,1.5,3.0,1.25,0.9166666666666666,0.9166666666666666,0.7307708818222057,0.4776159555492906,-0.31365529952194393,0.560818178734737,0.0005759786191967958,1.3489591823135738,0.0003294647642693802,0.9732260950838028,3.5005119320560656e-05,-0.3683344544648703,1.6182906378396384e-05,-0.0831018334119859,,,0.6619999999999997,-1.671785921210268,,,,,,,,,,,,,,,,,,,,
31,240613_145049,LEARNING,1.0,32,1.0,917.0,,,,,,,,,,32.0,32.0,32.0,cue1.png,Easy,A,,,,,,,,,,,,,,,,,,,,,,,,,,,11,21,Female,0.7142857142857143,0.75,0.4,1.75,2.1666666666666665,1.0,2.0,3.2222222222222223,2.0,2.5555555555555554,2.25,1.5,3.0,1.25,1.0,1.0,0.5383274083360448,-0.9253767052040698,-0.6192883382409721,-0.9296784709362479,,,-0.00039796190637996203,-0.7037973945121493,0.0005523856342375269,1.3341056111038316,,,0.42800000000000016,-1.698605448956139,1.025,-0.9589441580569527,,,,,,,,,,,,,,,,,,,,
32,240613_145112,LEARNING,1.0,33,1.0,917.0,,,,,,,,,,33.0,33.0,33.0,cue1.png,Easy,A,,,,,,,,,,,,,,,,,,,,,,,,,,,11,21,Female,0.7142857142857143,0.75,0.4,1.75,2.1666666666666665,1.0,2.0,3.2222222222222223,2.0,2.5555555555555554,2.25,1.5,3.0,1.25,1.0,1.0,0.5029077666670977,-1.1836005691150493,-0.6873484921630865,-1.2615909887130357,0.0006470862092272595,1.484559768886482,,,6.5292342788131e-05,-0.2686743760131344,9.00353590431056e-06,-0.11268147993679829,0.254,-1.9604453047827748,1.5820000000000003,0.13486537934358908,,,,,,,,,,,,,,,,,,,,
33,240613_145136,LEARNING,1.0,34,1.0,917.0,,,,,,,,,,34.0,34.0,34.0,cue1.png,Easy,A,,,,,,,,,,,,,,,,,,,,,,,,,,,11,21,Female,0.7142857142857143,0.75,0.4,1.75,2.1666666666666665,1.0,2.0,3.2222222222222223,2.0,2.5555555555555554,2.25,1.5,3.0,1.25,1.0,1.0,0.5178851416688607,-1.0744092994701713,-0.6580017955393216,-1.118474416041571,0.0014272687899691836,2.9723505312684813,0.0010183969635511655,2.561503687247447,,,1.4191027219913159e-05,-0.0913085531572261,1.566,0.013887401220362021,2.1209999999999996,1.1933273912985096,,,,,,,,,,,,,,,,,,,,
34,240613_145202,LEARNING,1.0,35,3.0,917.0,,,,,,,,,,35.0,35.0,35.0,cue2.png,Hard,A,,,,,,,,,,,,,,,,,,,,,,,,,,,11,21,Female,0.7142857142857143,0.75,0.4,1.75,2.1666666666666665,1.0,2.0,3.2222222222222223,2.0,2.5555555555555554,2.25,1.5,3.0,1.25,0.6111111111111112,0.7777777777777778,0.7426568666681609,0.5642697100394368,-0.2975211623793269,0.6395003704807359,-0.0010280780414652592,-1.7099410558856059,-0.00011982633240199478,-0.06257827281437998,-0.0001408238501473761,-0.9468995021994415,-4.625387683252283e-05,-0.3403469476168631,1.113,-0.667799119983465,0.756,-1.4871932883275907,,,,,,,,,,,,,,,,,,,,
35,240613_145228,LEARNING,1.0,36,3.0,917.0,,,,,,,,,,36.0,36.0,36.0,cue2.png,Hard,A,,,,,,,,,,,,,,,,,,,,,,,,,,,11,21,Female,0.7142857142857143,0.75,0.4,1.75,2.1666666666666665,1.0,2.0,3.2222222222222223,2.0,2.5555555555555554,2.25,1.5,3.0,1.25,0.875,0.875,0.7299585083334629,0.47169341620903704,-0.3147675843544008,0.5553938410282993,,,,,2.126492930012644e-06,-0.476521541636324,0.00015263310865455898,0.47908516698542414,1.0549999999999997,-0.7550790719256772,0.8919999999999999,-1.2201230960718035,,,,,,,,,,,,,,,,,,,,
36,240613_145252,LEARNING,1.0,37,1.0,917.0,,,,,,,,,,37.0,37.0,37.0,cue1.png,Easy,A,,,,,,,,,,,,,,,,,,,,,,,,,,,11,21,Female,0.7142857142857143,0.75,0.4,1.75,2.1666666666666665,1.0,2.0,3.2222222222222223,2.0,2.5555555555555554,2.25,1.5,3.0,1.25,0.875,0.875,0.5288013166621871,-0.9948258606468345,-0.6371425005419602,-1.0167487994708837,,,-0.0003062827568345392,-0.4924385132704018,0.0006337354872673084,1.6017872209306958,-0.00016397071615951043,-0.8253508222433228,,,2.003,0.9616047244883423,,,,,,,,,,,,,,,,,,,,
37,240613_145319,LEARNING,1.0,38,3.0,917.0,,,,,,,,,,38.0,38.0,38.0,cue2.png,Hard,A,,,,,,,,,,,,,,,,,,,,,,,,,,,11,21,Female,0.7142857142857143,0.75,0.4,1.75,2.1666666666666665,1.0,2.0,3.2222222222222223,2.0,2.5555555555555554,2.25,1.5,3.0,1.25,0.6875,0.75,0.8054169000000305,1.0218163576766266,-0.2163952474225886,1.0351313695091915,-0.000480689540847048,-0.666083406719119,-0.0003444473147151423,-0.580423821780857,7.737120646636973e-05,-0.2289288871910894,-2.37506784011611e-06,-0.1595623419735084,1.6769999999999998,0.18092317131666363,2.013,0.9812422386247969,,,,,,,,,,,,,,,,,,,,
38,240613_145347,LEARNING,1.0,39,3.0,917.0,,,,,,,,,,39.0,39.0,39.0,cue2.png,Hard,A,,,,,,,,,,,,,,,,,,,,,,,,,,,11,21,Female,0.7142857142857143,0.75,0.4,1.75,2.1666666666666665,1.0,2.0,3.2222222222222223,2.0,2.5555555555555554,2.25,1.5,3.0,1.25,0.8518518518518517,0.8888888888888888,0.8737411583327533,1.5199285111091518,-0.13497110470391085,1.4322167514861417,-9.610978003045736e-05,0.06730161066730642,-0.00011688068049625806,-0.05578731004464281,-5.7654619978933074e-05,-0.6732312337220591,0.00021681895540180077,0.7435365789208065,2.508,1.4314342069024921,,,,,,,,,,,,,,,,,,,,,,
39,240613_145412,LEARNING,1.0,40,3.0,917.0,,,,,,,,,,40.0,40.0,40.0,cue2.png,Hard,A,,,,,,,,,,,,,,,,,,,,,,,,,,,11,21,Female,0.7142857142857143,0.75,0.4,1.75,2.1666666666666665,1.0,2.0,3.2222222222222223,2.0,2.5555555555555554,2.25,1.5,3.0,1.25,0.8518518518518517,0.8055555555555555,0.6012899363651575,-0.46635378732020955,-0.5086780375390725,-0.39025942348554643,,,,,0.0003330935311029624,0.6125251656187093,-0.0006703419210856618,-2.9116453387505152,1.362,-0.2930972573350037,1.511,-0.004560971025241886,,,,,,,,,,,,,,,,,,,,
40,240613_145437,LEARNING,1.0,41,1.0,917.0,,,,,,,,,,41.0,41.0,41.0,cue1.png,Easy,A,,,,,,,,,,,,,,,,,,,,,,,,,,,11,21,Female,0.7142857142857143,0.75,0.4,1.75,2.1666666666666665,1.0,2.0,3.2222222222222223,2.0,2.5555555555555554,2.25,1.5,3.0,1.25,1.0,1.0,0.606918150006095,-0.4253217778249379,-0.49936134049738395,-0.34482419899267885,-0.00031331957435578803,-0.3469126174801683,-0.00016531509227368357,-0.16744893798990193,,,,,1.0750000000000002,-0.7249825367731897,1.7800000000000002,0.5236881592453971,,,,,,,,,,,,,,,,,,,,
41,240613_145504,LEARNING,1.0,42,3.0,917.0,,,,,,,,,,42.0,42.0,42.0,cue2.png,Hard,A,,,,,,,,,,,,,,,,,,,,,,,,,,,11,21,Female,0.7142857142857143,0.75,0.4,1.75,2.1666666666666665,1.0,2.0,3.2222222222222223,2.0,2.5555555555555554,2.25,1.5,3.0,1.25,0.6111111111111112,0.7777777777777778,0.8028078500040768,1.0027953021450924,-0.2196398838266489,1.0193080811961164,,,-0.0004736571711763211,-0.8783067192821133,7.074773225963435e-05,-0.2507234224271465,-1.0026143589143832e-06,-0.15390771125174382,1.73,0.26067898947075396,,,,,,,,,,,,,,,,,,,,,,
42,240613_145532,LEARNING,1.0,43,3.0,917.0,,,,,,,,,,43.0,43.0,43.0,cue2.png,Hard,A,,,,,,,,,,,,,,,,,,,,,,,,,,,11,21,Female,0.7142857142857143,0.75,0.4,1.75,2.1666666666666665,1.0,2.0,3.2222222222222223,2.0,2.5555555555555554,2.25,1.5,3.0,1.25,0.9166666666666666,0.9166666666666666,0.8929224545400675,1.659768108239128,-0.11325553889739146,1.5381181887652515,,,,,7.06336019259254e-05,-0.2510989681757799,0.00027032076199110314,0.9639687927287944,1.4609999999999999,-0.14411940833019418,0.9380000000000002,-1.1297905310441103,,,,,,,,,,,,,,,,,,,,
43,240613_145555,LEARNING,1.0,44,1.0,917.0,,,,,,,,,,44.0,44.0,44.0,cue1.png,Easy,A,,,,,,,,,,,,,,,,,,,,,,,,,,,11,21,Female,0.7142857142857143,0.75,0.4,1.75,2.1666666666666665,1.0,2.0,3.2222222222222223,2.0,2.5555555555555554,2.25,1.5,3.0,1.25,1.0,1.0,0.4851815749983264,-1.3128318512358321,-0.7232320766680504,-1.4365863449317173,-0.0009069707608746333,-1.4789921757547635,0.0006501418324740956,1.7125211988418427,-6.0821760332348696e-05,-0.6836527058793542,0.00019805122931435774,0.6662118739560925,0.904,-0.9823079123269524,2.1849999999999996,1.3190074817718216,,,,,,,,,,,,,,,,,,,,
44,240613_145618,LEARNING,1.0,45,1.0,917.0,,,,,,,,,,45.0,45.0,45.0,cue1.png,Easy,A,,,,,,,,,,,,,,,,,,,,,,,,,,,11,21,Female,0.7142857142857143,0.75,0.4,1.75,2.1666666666666665,1.0,2.0,3.2222222222222223,2.0,2.5555555555555554,2.25,1.5,3.0,1.25,0.8518518518518517,0.8888888888888888,0.4921334583268617,-1.262149741254846,-0.7090053425113787,-1.3672060852413608,-0.00023900311955735339,-0.2051927974388837,-0.00028055161623603397,-0.43311744499108,,,-0.00010567871404063445,-0.5851825757203541,2.676,1.6842451021833817,1.469,-0.08703853039835234,,,,,,,,,,,,,,,,,,,,
45,240613_145642,LEARNING,1.0,46,1.0,917.0,,,,,,,,,,46.0,46.0,46.0,cue1.png,Easy,A,,,,,,,,,,,,,,,,,,,,,,,,,,,11,21,Female,0.7142857142857143,0.75,0.4,1.75,2.1666666666666665,1.0,2.0,3.2222222222222223,2.0,2.5555555555555554,2.25,1.5,3.0,1.25,0.875,0.875,0.5038803666611784,-1.1765099121609586,-0.6854164068227053,-1.2521686869265984,-0.0002524963962597061,-0.23092417484663597,,,0.0002266440572732246,0.2622532787164028,-5.3698346445362876e-05,-0.3710188262317573,1.2289999999999999,-0.4932392160990415,0.783,-1.4341720001591622,,,,,,,,,,,,,,,,,,,,
46,240613_145707,LEARNING,1.0,47,3.0,917.0,,,,,,,,,,47.0,47.0,47.0,cue2.png,Hard,A,,,,,,,,,,,,,,,,,,,,,,,,,,,11,21,Female,0.7142857142857143,0.75,0.4,1.75,2.1666666666666665,1.0,2.0,3.2222222222222223,2.0,2.5555555555555554,2.25,1.5,3.0,1.25,0.8518518518518517,0.8888888888888888,0.7026003333303379,0.2722409845642163,-0.35296706472647243,0.3691044341226295,-0.0009322903269068606,-1.5272760228696862,-0.0001351924941503874,-0.09800371875518113,5.1034679099688524e-05,-0.315589204084122,3.7332147630594545e-06,-0.13439567298382923,1.5020000000000002,-0.08242151126759562,,,,,,,,,,,,,,,,,,,,,,
47,240613_145733,LEARNING,1.0,48,3.0,917.0,,,,,,,,,,48.0,48.0,48.0,cue2.png,Hard,A,,,,,,,,,,,,,,,,,,,,,,,,,,,11,21,Female,0.7142857142857143,0.75,0.4,1.75,2.1666666666666665,1.0,2.0,3.2222222222222223,2.0,2.5555555555555554,2.25,1.5,3.0,1.25,0.6875,0.6666666666666666,0.5877728727328676,-0.5648987820009599,-0.5314146765677865,-0.501140382033458,-0.00033584115048238775,-0.3898607603156232,,,-0.00012202491378409102,-0.8850416209453142,-4.3793486574825007e-05,-0.330209920366565,1.7209999999999996,0.24713554865213438,0.863,-1.2770718870675228,,,,,,,,,,,,,,,,,,,,
48,240613_145755,LEARNING,1.0,49,1.0,917.0,,,,,,,,,,49.0,49.0,49.0,cue1.png,Easy,A,,,,,,,,,,,,,,,,,,,,,,,,,,,11,21,Female,0.7142857142857143,0.75,0.4,1.75,2.1666666666666665,1.0,2.0,3.2222222222222223,2.0,2.5555555555555554,2.25,1.5,3.0,1.25,1.0,1.0,0.4667737666629061,-1.447032401284657,-0.7619105783860497,-1.6252118203272938,-0.00019321306760620386,-0.11787219071997075,0.0002580371613219437,0.8085555203281968,,,0.00016867876453980843,0.5451946999949865,,,,,,,,,,,,,,,,,,,,,,,,
49,240613_145818,LEARNING,1.0,50,1.0,917.0,,,,,,,,,,50.0,50.0,50.0,cue1.png,Easy,A,,,,,,,,,,,,,,,,,,,,,,,,,,,11,21,Female,0.7142857142857143,0.75,0.4,1.75,2.1666666666666665,1.0,2.0,3.2222222222222223,2.0,2.5555555555555554,2.25,1.5,3.0,1.25,1.0,1.0,0.4692221666652282,-1.4291825507720937,-0.7566789197867277,-1.5996983167898693,-0.00010775279552525854,0.045098640071676424,-0.0003561809284110245,-0.6074747213145157,0.00014048764475287643,-0.021244310294744124,0.00041889445775038095,1.5761056673067924,2.101,0.8189697165493849,1.168,-0.6781277059056467,,,,,,,,,,,,,,,,,,,,
0,240613_150039,TrueCHOICE,9.0,1,1.0,917.0,,,,,,,,,,,1.0,1.0,,,A,,,,,,True,cue1.png,Easy,cue2.png,Hard,Left,Easy,Easy,0.0160235000075772,,,,,,,,,,,,,11,21,Female,0.7142857142857143,0.75,0.4,1.75,2.1666666666666665,1.0,2.0,3.2222222222222223,2.0,2.5555555555555554,2.25,1.5,3.0,1.25,0.8518518518518517,0.8888888888888888,0.6022421416685878,0.7165184449372816,-0.5070956858602265,0.7775259510044235,,,,,,,,,,,,,3.232473126660697e-05,0.6489551030673102,,,0.8080000000000003,-2.184286730724113,,,,,,,,,,,,,,
1,240613_150101,TrueCHOICE,9.0,2,1.0,917.0,,,,,,,,,,,2.0,2.0,,,A,,,,,,True,cue1.png,Easy,cue2.png,Hard,Left,Easy,Easy,0.0161366999964229,,,,,,,,,,,,,11,21,Female,0.7142857142857143,0.75,0.4,1.75,2.1666666666666665,1.0,2.0,3.2222222222222223,2.0,2.5555555555555554,2.25,1.5,3.0,1.25,,,,,,,,,,,,,,,,,,,0.00012636260716726707,1.6413488231770728,-5.419138632953811e-05,0.37970840906933984,1.5849999999999997,0.7268466994176287,,,,,,,,,,,,,,
2,240613_150128,TrueCHOICE,9.0,3,1.0,917.0,,,,,,,,,,,4.0,3.0,,,A,,,,,,True,cue2.png,Hard,cue1.png,Easy,Right,Easy,Easy,0.0155086000158917,,,,,,,,,,,,,11,21,Female,0.7142857142857143,0.75,0.4,1.75,2.1666666666666665,1.0,2.0,3.2222222222222223,2.0,2.5555555555555554,2.25,1.5,3.0,1.25,1.0,1.0,0.4504593083329382,-0.9407891155931569,-0.797487531578409,-0.9666492414113587,,,,,,,,,,,,,-0.00012706661094042098,-1.033122097540858,-4.2419966592622486e-05,0.5029931650433352,1.583,0.7193534344751797,,,,,,,,,,,,,,
3,240613_150150,TrueCHOICE,9.0,4,3.0,917.0,,,,,,,,,,,5.0,4.0,,,A,,,,,,True,cue1.png,Easy,cue2.png,Hard,Right,Hard,Hard,0.0168007000174839,,,,,,,,,,,,,11,21,Female,0.7142857142857143,0.75,0.4,1.75,2.1666666666666665,1.0,2.0,3.2222222222222223,2.0,2.5555555555555554,2.25,1.5,3.0,1.25,0.8518518518518517,0.8888888888888888,0.601234291670456,0.7055137918742385,-0.5087705840232829,0.7674660410279538,,,,,,,,,,,,,,,,,,,,,,,,,,,,,,,,
4,240613_150211,TrueCHOICE,9.0,5,1.0,917.0,,,,,,,,,,,6.0,5.0,,,A,,,,,,True,cue2.png,Hard,cue1.png,Easy,Right,Easy,Easy,0.0169041999906767,,,,,,,,,,,,,11,21,Female,0.7142857142857143,0.75,0.4,1.75,2.1666666666666665,1.0,2.0,3.2222222222222223,2.0,2.5555555555555554,2.25,1.5,3.0,1.25,1.0,1.0,0.7087222583310601,1.8791683870465805,-0.3442915663908023,1.755373334078807,,,,,,,,,,,,,,,-0.0002514993128362201,-1.6867423772217116,,,,,,,,,,,,,,,,
5,240613_150231,TrueCHOICE,9.0,6,1.0,917.0,,,,,,,,,,,7.0,6.0,,,A,,,,,,True,cue2.png,Hard,cue1.png,Easy,Right,Easy,Easy,0.0165750999876763,,,,,,,,,,,,,11,21,Female,0.7142857142857143,0.75,0.4,1.75,2.1666666666666665,1.0,2.0,3.2222222222222223,2.0,2.5555555555555554,2.25,1.5,3.0,1.25,1.0,1.0,0.430322283335651,-1.1606640714176641,-0.8432208548970691,-1.2413364586156213,,,,,,,,,,,,,-7.767561884192533e-05,-0.5118926469701446,-4.125662538916313e-05,0.5151771020355065,1.451,0.22479794827349392,,,,,,,,,,,,,,
6,240613_150252,TrueCHOICE,9.0,7,1.0,917.0,,,,,,,,,,,8.0,7.0,,,A,,,,,,True,cue1.png,Easy,cue2.png,Hard,Left,Easy,Easy,0.0154976999911013,,,,,,,,,,,,,11,21,Female,0.7142857142857143,0.75,0.4,1.75,2.1666666666666665,1.0,2.0,3.2222222222222223,2.0,2.5555555555555554,2.25,1.5,3.0,1.25,,,,,,,,,,,,,,,,,,,,,2.903549970138114e-05,1.2513625140215017,1.454,0.2360378456871682,,,,,,,,,,,,,,
7,240613_150313,TrueCHOICE,9.0,8,1.0,917.0,,,,,,,,,,,9.0,8.0,,,A,,,,,,True,cue2.png,Hard,cue1.png,Easy,Right,Easy,Easy,0.0164727000228595,,,,,,,,,,,,,11,21,Female,0.7142857142857143,0.75,0.4,1.75,2.1666666666666665,1.0,2.0,3.2222222222222223,2.0,2.5555555555555554,2.25,1.5,3.0,1.25,1.0,1.0,0.4662664500016641,-0.7681918934815956,-0.7629980271415798,-0.7594955663876769,,,,,,,,,,,,,-9.979195626623081e-05,-0.7452891817333805,,,1.465,0.2772508028706425,,,,,,,,,,,,,,
8,240613_150335,TrueCHOICE,9.0,9,3.0,917.0,,,,,,,,,,,10.0,9.0,,,A,,,,,,True,cue1.png,Easy,cue2.png,Hard,Right,Hard,Hard,0.0155993999796919,,,,,,,,,,,,,11,21,Female,0.7142857142857143,0.75,0.4,1.75,2.1666666666666665,1.0,2.0,3.2222222222222223,2.0,2.5555555555555554,2.25,1.5,3.0,1.25,0.8518518518518517,0.8888888888888888,0.5645402166701388,0.3048534102735398,-0.5717436549360363,0.3892320454947001,,,,,,,,,,,,,,,,,,,,,,,,,,,,,,,,
9,240613_150355,TrueCHOICE,9.0,10,1.0,917.0,,,,,,,,,,,11.0,10.0,,,A,,,,,,True,cue2.png,Hard,cue1.png,Easy,Right,Easy,Easy,0.0165547000069636,,,,,,,,,,,,,11,21,Female,0.7142857142857143,0.75,0.4,1.75,2.1666666666666665,1.0,2.0,3.2222222222222223,2.0,2.5555555555555554,2.25,1.5,3.0,1.25,0.8518518518518517,0.8888888888888888,0.4691772583367613,-0.7364089536392242,-0.7567746323954627,-0.7221161051912274,,,,,,,,,,,,,,,-0.00018234741388916537,-0.9624988129479711,,,,,,,,,,,,,,,,
0,240613_150550,FalseCHOICE,9.0,1,2.0,917.0,,,,,,,,,,,1.0,1.0,,,A,,,,,,False,cue1.png,Easy,cue2.png,Hard,Left,Easy,Mid,0.0160359000146854,,,,,,,,,,,,,11,21,Female,0.7142857142857143,0.75,0.4,1.75,2.1666666666666665,1.0,2.0,3.2222222222222223,2.0,2.5555555555555554,2.25,1.5,3.0,1.25,1.0,1.0,0.4991361916642442,-1.9175765037111288,-0.6948762912821512,-2.0885072402012006,,,,,,,,,,,,,,,,,,,,,,,1.6030000000000002,0.6155351951342216,,,,,,,,
1,240613_150614,FalseCHOICE,9.0,2,2.0,917.0,,,,,,,,,,,2.0,2.0,,,A,,,,,,False,cue2.png,Hard,cue1.png,Easy,Left,Hard,Mid,0.0160504999803379,,,,,,,,,,,,,11,21,Female,0.7142857142857143,0.75,0.4,1.75,2.1666666666666665,1.0,2.0,3.2222222222222223,2.0,2.5555555555555554,2.25,1.5,3.0,1.25,,,,,,,,,,,,,,,,,,,,,,,,,-0.0002174324825255699,-0.5557233067776213,,,,,,,,,,,,
2,240613_150639,FalseCHOICE,9.0,3,2.0,917.0,,,,,,,,,,,3.0,3.0,,,A,,,,,,False,cue2.png,Hard,cue1.png,Easy,Left,Hard,Mid,0.0150161999918054,,,,,,,,,,,,,11,21,Female,0.7142857142857143,0.75,0.4,1.75,2.1666666666666665,1.0,2.0,3.2222222222222223,2.0,2.5555555555555554,2.25,1.5,3.0,1.25,,,,,,,,,,,,,,,,,,,,,,,,,,,-4.0633227929061464e-05,-0.4510701550590647,,,,,,,,,,
3,240613_150704,FalseCHOICE,9.0,4,2.0,917.0,,,,,,,,,,,4.0,4.0,,,A,,,,,,False,cue2.png,Hard,cue1.png,Easy,Right,Easy,Mid,0.0155267000081948,,,,,,,,,,,,,11,21,Female,0.7142857142857143,0.75,0.4,1.75,2.1666666666666665,1.0,2.0,3.2222222222222223,2.0,2.5555555555555554,2.25,1.5,3.0,1.25,0.875,0.875,0.7552436833332953,0.8435575408571964,-0.2807148224268686,0.8432225794721749,,,,,,,,,,,,,,,,,,,-0.0002222845648938935,-0.563905719746911,-0.0002151877355649431,-1.3272793037003672,1.4560000000000002,0.31334298467008764,,,,,,,,
4,240613_150727,FalseCHOICE,9.0,5,2.0,917.0,,,,,,,,,,,5.0,5.0,,,A,,,,,,False,cue1.png,Easy,cue2.png,Hard,Right,Hard,Mid,0.0165682999941054,,,,,,,,,,,,,11,21,Female,0.7142857142857143,0.75,0.4,1.75,2.1666666666666665,1.0,2.0,3.2222222222222223,2.0,2.5555555555555554,2.25,1.5,3.0,1.25,,,,,,,,,,,,,,,,,,,,,,,,,9.745008777268215e-05,-0.024714343732783795,-5.9717435138405706e-05,-0.5468669189345361,2.226,1.8962545632917411,,,,,,,,
5,240613_150753,FalseCHOICE,9.0,6,2.0,917.0,,,,,,,,,,,6.0,6.0,,,A,,,,,,False,cue2.png,Hard,cue1.png,Easy,Left,Hard,Mid,0.014548500010278,,,,,,,,,,,,,11,21,Female,0.7142857142857143,0.75,0.4,1.75,2.1666666666666665,1.0,2.0,3.2222222222222223,2.0,2.5555555555555554,2.25,1.5,3.0,1.25,0.8518518518518517,0.8888888888888888,0.8521765083326803,1.8886051550357112,-0.15996160420488464,1.6979998518760886,,,,,,,,,,,,,,,,,,,,,-4.432744366733143e-05,-0.4696139650744381,1.959,1.3473748340813756,,,,,,,,
6,240613_150817,FalseCHOICE,9.0,7,2.0,917.0,,,,,,,,,,,7.0,7.0,,,A,,,,,,False,cue2.png,Hard,cue1.png,Easy,Right,Easy,Mid,0.0165026999893598,,,,,,,,,,,,,11,21,Female,0.7142857142857143,0.75,0.4,1.75,2.1666666666666665,1.0,2.0,3.2222222222222223,2.0,2.5555555555555554,2.25,1.5,3.0,1.25,1.0,1.0,0.4531901250011287,-2.4129280767977535,-0.7914435395601006,-2.772078993418039,,,,,,,,,,,,,,,,,,,0.00019224715843520115,0.13514872567913352,3.1646953659648404e-06,-0.23121824975826213,,,,,,,,,,
7,240613_150841,FalseCHOICE,9.0,8,2.0,917.0,,,,,,,,,,,8.0,8.0,,,A,,,,,,False,cue1.png,Easy,cue2.png,Hard,Left,Easy,Mid,0.0167111000046134,,,,,,,,,,,,,11,21,Female,0.7142857142857143,0.75,0.4,1.75,2.1666666666666665,1.0,2.0,3.2222222222222223,2.0,2.5555555555555554,2.25,1.5,3.0,1.25,,,,,,,,,,,,,,,,,,,,,,,,,1.2533818702566146e-05,-0.1679147118631916,0.0001248811674164664,0.37976045136735664,,,,,,,,,,
8,240613_150905,FalseCHOICE,9.0,9,2.0,917.0,,,,,,,,,,,9.0,9.0,,,A,,,,,,False,cue1.png,Easy,cue2.png,Hard,Right,Hard,Mid,0.0163774999964516,,,,,,,,,,,,,11,21,Female,0.7142857142857143,0.75,0.4,1.75,2.1666666666666665,1.0,2.0,3.2222222222222223,2.0,2.5555555555555554,2.25,1.5,3.0,1.25,1.0,1.0,0.753532766670105,0.8251118865916103,-0.2829827759020757,0.8271683896624035,,,,,,,,,,,,,,,,,,,0.00016863638780728,0.09533219720013085,2.490807262180367e-05,-0.12207328219508189,1.3090000000000002,0.011150774205953673,,,,,,,,
9,240613_150928,FalseCHOICE,9.0,10,2.0,917.0,,,,,,,,,,,10.0,10.0,,,A,,,,,,False,cue2.png,Hard,cue1.png,Easy,Right,Easy,Mid,0.0166067999962251,,,,,,,,,,,,,11,21,Female,0.7142857142857143,0.75,0.4,1.75,2.1666666666666665,1.0,2.0,3.2222222222222223,2.0,2.5555555555555554,2.25,1.5,3.0,1.25,,,,,,,,,,,,,,,,,,,,,,,,,0.00039195044738494014,0.47192264200419703,0.00020480350008521275,0.7809456170417264,0.5150000000000001,-1.6210983081649466,,,,,,,,
10,240613_150954,FalseCHOICE,9.0,11,2.0,917.0,,,,,,,,,,,11.0,11.0,,,A,,,,,,False,cue1.png,Easy,cue2.png,Hard,Right,Hard,Mid,0.0164090000034775,,,,,,,,,,,,,11,21,Female,0.7142857142857143,0.75,0.4,1.75,2.1666666666666665,1.0,2.0,3.2222222222222223,2.0,2.5555555555555554,2.25,1.5,3.0,1.25,0.1666666666666666,0.5833333333333334,0.7967447818188124,1.290987232072245,-0.2272208750392887,1.2218908345410853,,,,,,,,,,,,,,,,,,,0.0004377778616156975,0.5492046830096778,0.00014327826171845956,0.47210812290070175,,,,,,,,,,
11,240613_151020,FalseCHOICE,9.0,12,2.0,917.0,,,,,,,,,,,12.0,12.0,,,A,,,,,,False,cue2.png,Hard,cue1.png,Easy,Right,Easy,Mid,0.0171609999961219,,,,,,,,,,,,,11,21,Female,0.7142857142857143,0.75,0.4,1.75,2.1666666666666665,1.0,2.0,3.2222222222222223,2.0,2.5555555555555554,2.25,1.5,3.0,1.25,,,,,,,,,,,,,,,,,,,,,,,,,-0.0006350714231846905,-1.2600176746636773,-1.2062383263600727e-06,-0.2531589726945533,0.6869999999999999,-1.2675128646286815,,,,,,,,
12,240613_151045,FalseCHOICE,9.0,13,2.0,917.0,,,,,,,,,,,13.0,13.0,,,A,,,,,,False,cue1.png,Easy,cue2.png,Hard,Right,Hard,Mid,0.0163195999921299,,,,,,,,,,,,,11,21,Female,0.7142857142857143,0.75,0.4,1.75,2.1666666666666665,1.0,2.0,3.2222222222222223,2.0,2.5555555555555554,2.25,1.5,3.0,1.25,1.0,0.9166666666666666,0.822962427273689,1.5736436782469108,-0.19484473272061767,1.45107222638805,,,,,,,,,,,,,,,,,,,,,0.00039209810432112944,1.7211060743413564,0.254,-2.157643661438001,,,,,,,,
13,240613_151110,FalseCHOICE,9.0,14,2.0,917.0,,,,,,,,,,,14.0,14.0,,,A,,,,,,False,cue2.png,Hard,cue1.png,Easy,Left,Hard,Mid,0.0150273999897763,,,,,,,,,,,,,11,21,Female,0.7142857142857143,0.75,0.4,1.75,2.1666666666666665,1.0,2.0,3.2222222222222223,2.0,2.5555555555555554,2.25,1.5,3.0,1.25,1.0,1.0,0.8185403083310424,1.5259681374726095,-0.20023263679703038,1.4129328043649976,,,,,,,,,,,,,,,,,,,-0.0007537649078217757,-1.460178973326917,-7.463930296816362e-05,-0.6217700382199104,,,,,,,,,,
14,240613_151134,FalseCHOICE,9.0,15,2.0,917.0,,,,,,,,,,,15.0,15.0,,,A,,,,,,False,cue1.png,Easy,cue2.png,Hard,Right,Hard,Mid,0.0162181000050622,,,,,,,,,,,,,11,21,Female,0.7142857142857143,0.75,0.4,1.75,2.1666666666666665,1.0,2.0,3.2222222222222223,2.0,2.5555555555555554,2.25,1.5,3.0,1.25,,,,,,,,,,,,,,,,,,,,,,,,,0.0006610525152031801,0.9257286746786528,4.842296205984434e-05,-0.004035876378673197,,,,,,,,,,
15,240613_151200,FalseCHOICE,9.0,16,2.0,917.0,,,,,,,,,,,16.0,16.0,,,A,,,,,,False,cue1.png,Easy,cue2.png,Hard,Right,Hard,Mid,0.0164050000021234,,,,,,,,,,,,,11,21,Female,0.7142857142857143,0.75,0.4,1.75,2.1666666666666665,1.0,2.0,3.2222222222222223,2.0,2.5555555555555554,2.25,1.5,3.0,1.25,0.8518518518518517,0.8888888888888888,0.7857078416612543,1.171996291907649,-0.24117025837256073,1.1231471653213436,,,,,,,,,,,,,,,,,,,-0.0008515478362841247,-1.625077307957183,6.617747417121895e-05,0.08508623311219275,,,,,,,,,,
16,240613_151225,FalseCHOICE,9.0,17,2.0,917.0,,,,,,,,,,,17.0,17.0,,,A,,,,,,False,cue2.png,Hard,cue1.png,Easy,Left,Hard,Mid,0.0158664000045973,,,,,,,,,,,,,11,21,Female,0.7142857142857143,0.75,0.4,1.75,2.1666666666666665,1.0,2.0,3.2222222222222223,2.0,2.5555555555555554,2.25,1.5,3.0,1.25,0.8518518518518517,0.8055555555555555,0.6684484363623514,-0.09219529384658237,-0.4027960187548567,-0.020955067679313148,,,,,,,,,,,,,,,,,,,0.0008322031150251536,1.2143521524719316,3.297719316137622e-05,-0.08156881551576052,,,,,,,,,,
17,240613_151249,FalseCHOICE,9.0,18,2.0,917.0,,,,,,,,,,,18.0,18.0,,,A,,,,,,False,cue2.png,Hard,cue1.png,Easy,Right,Easy,Mid,0.0165006000024732,,,,,,,,,,,,,11,21,Female,0.7142857142857143,0.75,0.4,1.75,2.1666666666666665,1.0,2.0,3.2222222222222223,2.0,2.5555555555555554,2.25,1.5,3.0,1.25,0.8518518518518517,0.8888888888888888,0.7226771250013068,0.49245249375817757,-0.32479273333014946,0.5312077362246284,,,,,,,,,,,,,,,,,,,-0.0009307792835806412,-1.758690955195944,-0.00022201712916022302,-1.3615607280468474,,,,,,,,,,
18,240613_151313,FalseCHOICE,9.0,19,2.0,917.0,,,,,,,,,,,19.0,19.0,,,A,,,,,,False,cue1.png,Easy,cue2.png,Hard,Right,Hard,Mid,0.0169049999967683,,,,,,,,,,,,,11,21,Female,0.7142857142857143,0.75,0.4,1.75,2.1666666666666665,1.0,2.0,3.2222222222222223,2.0,2.5555555555555554,2.25,1.5,3.0,1.25,1.0,1.0,0.729716224996082,0.5683421075763093,-0.31509955329799305,0.5998229674441827,,,,,,,,,,,,,,,,,,,3.8066593567124066e-05,-0.12485697039581177,0.0008275354919947586,3.9068658573884876,0.762,-1.1133331654122864,,,,,,,,
19,240613_151337,FalseCHOICE,9.0,20,2.0,917.0,,,,,,,,,,,20.0,20.0,,,A,,,,,,False,cue1.png,Easy,cue2.png,Hard,Right,Hard,Mid,0.0165086999768391,,,,,,,,,,,,,11,21,Female,0.7142857142857143,0.75,0.4,1.75,2.1666666666666665,1.0,2.0,3.2222222222222223,2.0,2.5555555555555554,2.25,1.5,3.0,1.25,1.0,1.0,0.6405399583284938,-0.3930808647027032,-0.4454437734421905,-0.322846246751455,,,,,,,,,,,,,,,,,,,0.000834156983855582,1.2176471010001677,7.032671841905721e-05,0.10591414422799741,1.5799999999999998,0.5682534207078598,,,,,,,,
20,240613_151401,FalseCHOICE,9.0,21,2.0,917.0,,,,,,,,,,,21.0,21.0,,,A,,,,,,False,cue1.png,Easy,cue2.png,Hard,Right,Hard,Mid,0.0156114000128582,,,,,,,,,,,,,11,21,Female,0.7142857142857143,0.75,0.4,1.75,2.1666666666666665,1.0,2.0,3.2222222222222223,2.0,2.5555555555555554,2.25,1.5,3.0,1.25,1.0,1.0,0.6471326249957201,-0.3220043168799937,-0.43520402095026167,-0.2503619864226599,,,,,,,,,,,,,,,,,,,0.0006783151180780704,0.9548398345734919,-4.9368583808523814e-05,-0.4949189152078925,1.4429999999999998,0.2866185034725785,,,,,,,,
21,240613_151430,FalseCHOICE,9.0,22,2.0,917.0,,,,,,,,,,,23.0,22.0,,,A,,,,,,False,cue2.png,Hard,cue1.png,Easy,Left,Hard,Mid,0.0159593999851495,,,,,,,,,,,,,11,21,Female,0.7142857142857143,0.75,0.4,1.75,2.1666666666666665,1.0,2.0,3.2222222222222223,2.0,2.5555555555555554,2.25,1.5,3.0,1.25,0.8518518518518517,0.8888888888888888,0.7224483499982549,0.489986035454455,-0.32510934944261966,0.5289665019039093,,,,,,,,,,,,,,,,,,,0.00043195574622307414,0.5393864340845753,,,1.879,1.1829164882505543,,,,,,,,
22,240613_151455,FalseCHOICE,9.0,23,2.0,917.0,,,,,,,,,,,24.0,23.0,,,A,,,,,,False,cue1.png,Easy,cue2.png,Hard,Right,Hard,Mid,0.0166232000046875,,,,,,,,,,,,,11,21,Female,0.7142857142857143,0.75,0.4,1.75,2.1666666666666665,1.0,2.0,3.2222222222222223,2.0,2.5555555555555554,2.25,1.5,3.0,1.25,1.0,1.0,0.789210324997839,1.2097571005359038,-0.23672242205326705,1.1546321182947357,,,,,,,,,,,,,,,,,,,0.00025062326295277864,0.2335925191768645,0.00019770726944915058,0.7453247540322384,1.0510000000000002,-0.5192273910984446,,,,,,,,
23,240613_151520,FalseCHOICE,9.0,24,2.0,917.0,,,,,,,,,,,25.0,24.0,,,A,,,,,,False,cue2.png,Hard,cue1.png,Easy,Right,Easy,Mid,0.0170333000132814,,,,,,,,,,,,,11,21,Female,0.7142857142857143,0.75,0.4,1.75,2.1666666666666665,1.0,2.0,3.2222222222222223,2.0,2.5555555555555554,2.25,1.5,3.0,1.25,1.0,1.0,0.7109337083311402,0.36584492224110277,-0.34117609075340755,0.4152346650529203,,,,,,,,,,,,,,,,,,,0.00011428307638635272,0.003672326955988801,,,1.0360000000000003,-0.5500633309417234,,,,,,,,
24,240613_151544,FalseCHOICE,9.0,25,2.0,917.0,,,,,,,,,,,26.0,25.0,,,A,,,,,,False,cue2.png,Hard,cue1.png,Easy,Right,Easy,Mid,0.0154550000152084,,,,,,,,,,,,,11,21,Female,0.7142857142857143,0.75,0.4,1.75,2.1666666666666665,1.0,2.0,3.2222222222222223,2.0,2.5555555555555554,2.25,1.5,3.0,1.25,0.6875,0.75,0.7075870083353948,0.3297636376406879,-0.3458946770468055,0.3818331509495149,,,,,,,,,,,,,,,,,,,0.0005953596935622425,0.8149461786325787,0.0001714186749016272,0.6133642142591201,0.5389999999999999,-1.5717608044157008,,,,,,,,
25,240613_151609,FalseCHOICE,9.0,26,2.0,917.0,,,,,,,,,,,27.0,26.0,,,A,,,,,,False,cue1.png,Easy,cue2.png,Hard,Left,Easy,Mid,0.01567000002251,,,,,,,,,,,,,11,21,Female,0.7142857142857143,0.75,0.4,1.75,2.1666666666666665,1.0,2.0,3.2222222222222223,2.0,2.5555555555555554,2.25,1.5,3.0,1.25,0.8518518518518517,0.8888888888888888,0.7731393583332343,1.036493550541419,-0.2572959641944394,1.0089979356695586,,,,,,,,,,,,,,,,,,,0.0002621309725839259,0.2529987916563753,0.0006026522581611443,2.778022211184364,1.671,0.7553247890904193,,,,,,,,
26,240613_151633,FalseCHOICE,9.0,27,2.0,917.0,,,,,,,,,,,28.0,27.0,,,A,,,,,,False,cue1.png,Easy,cue2.png,Hard,Right,Hard,Mid,0.016602799994871,,,,,,,,,,,,,11,21,Female,0.7142857142857143,0.75,0.4,1.75,2.1666666666666665,1.0,2.0,3.2222222222222223,2.0,2.5555555555555554,2.25,1.5,3.0,1.25,0.875,0.875,0.7297788083330184,0.5690168281052237,-0.31501379303770355,0.6004300396402724,,,,,,,,,,,,,,,,,,,0.0007485051443904623,1.0732062879879505,5.604904426941915e-05,0.03424467615944161,0.714,-1.2120081729107792,,,,,,,,
27,240613_151656,FalseCHOICE,9.0,28,2.0,917.0,,,,,,,,,,,29.0,28.0,,,A,,,,,,False,cue2.png,Hard,cue1.png,Easy,Right,Easy,Mid,0.0164321999764069,,,,,,,,,,,,,11,21,Female,0.7142857142857143,0.75,0.4,1.75,2.1666666666666665,1.0,2.0,3.2222222222222223,2.0,2.5555555555555554,2.25,1.5,3.0,1.25,1.0,1.0,0.6280939500017363,-0.5272631843452632,-0.46506552178959587,-0.4617429550889365,,,,,,,,,,,,,,,,,,,,,-5.126723134754596e-05,-0.5044495332725188,0.7929999999999997,-1.049605556402844,,,,,,,,
28,240613_151718,FalseCHOICE,9.0,29,2.0,917.0,,,,,,,,,,,30.0,29.0,,,A,,,,,,False,cue1.png,Easy,cue2.png,Hard,Left,Easy,Mid,0.0157442000054288,,,,,,,,,,,,,11,21,Female,0.7142857142857143,0.75,0.4,1.75,2.1666666666666665,1.0,2.0,3.2222222222222223,2.0,2.5555555555555554,2.25,1.5,3.0,1.25,1.0,1.0,0.5890940499957651,-0.9477270721428119,-0.5291694306654665,-0.9155160734054634,,,,,,,,,,,,,,,,,,,,,-3.935771252919218e-06,-0.2668603760794359,2.308,2.0648243677683324,,,,,,,,
29,240613_151744,FalseCHOICE,9.0,30,2.0,917.0,,,,,,,,,,,31.0,30.0,,,A,,,,,,False,cue1.png,Easy,cue2.png,Hard,Right,Hard,Mid,0.0165514000109396,,,,,,,,,,,,,11,21,Female,0.7142857142857143,0.75,0.4,1.75,2.1666666666666665,1.0,2.0,3.2222222222222223,2.0,2.5555555555555554,2.25,1.5,3.0,1.25,0.7222222222222222,0.8055555555555555,0.7851920454572379,1.1664354141305582,-0.24182694722559586,1.1184986539617248,,,,,,,,,,,,,,,,,,,,,,,,,,,,,,,,
30,240613_151808,FalseCHOICE,9.0,31,2.0,917.0,,,,,,,,,,,32.0,31.0,,,A,,,,,,False,cue2.png,Hard,cue1.png,Easy,Right,Easy,Mid,0.0167354999866802,,,,,,,,,,,,,11,21,Female,0.7142857142857143,0.75,0.4,1.75,2.1666666666666665,1.0,2.0,3.2222222222222223,2.0,2.5555555555555554,2.25,1.5,3.0,1.25,0.8518518518518517,0.8888888888888888,0.6529940583350253,-0.2588113074227104,-0.4261872487746287,-0.18653485171220902,,,,,,,,,,,,,,,,,,,0.0002543838108286581,0.23993419958858045,,,1.0350000000000001,-0.552119060264609,,,,,,,,
31,240613_151830,FalseCHOICE,9.0,32,2.0,917.0,,,,,,,,,,,33.0,32.0,,,A,,,,,,False,cue1.png,Easy,cue2.png,Hard,Right,Hard,Mid,0.0141607999976258,,,,,,,,,,,,,11,21,Female,0.7142857142857143,0.75,0.4,1.75,2.1666666666666665,1.0,2.0,3.2222222222222223,2.0,2.5555555555555554,2.25,1.5,3.0,1.25,0.6111111111111112,0.7777777777777778,0.6243501666661663,-0.5676254851743534,-0.4710439034775313,-0.5040621981521627,,,,,,,,,,,,,,,,,,,-0.0009328793929568079,-1.7622325195990252,0.00023460669594711075,0.9305483584811898,1.2000000000000002,-0.21292372198854018,,,,,,,,
32,240613_151853,FalseCHOICE,9.0,33,2.0,917.0,,,,,,,,,,,34.0,33.0,,,A,,,,,,False,cue2.png,Hard,cue1.png,Easy,Right,Easy,Mid,0.0166612000029999,,,,,,,,,,,,,11,21,Female,0.7142857142857143,0.75,0.4,1.75,2.1666666666666665,1.0,2.0,3.2222222222222223,2.0,2.5555555555555554,2.25,1.5,3.0,1.25,0.6111111111111112,0.7777777777777778,0.6675048166653141,-0.10236860214629308,-0.40420867275576877,-0.03095483871258117,,,,,,,,,,,,,,,,,,,-0.00023510273620054763,-0.5855219173256795,4.837927168666869e-05,-0.004255188415941858,1.3210000000000002,0.03581952608057687,,,,,,,,
33,240613_151916,FalseCHOICE,9.0,34,2.0,917.0,,,,,,,,,,,35.0,34.0,,,A,,,,,,False,cue2.png,Hard,cue1.png,Easy,Right,Easy,Mid,0.0167243000178132,,,,,,,,,,,,,11,21,Female,0.7142857142857143,0.75,0.4,1.75,2.1666666666666665,1.0,2.0,3.2222222222222223,2.0,2.5555555555555554,2.25,1.5,3.0,1.25,0.8518518518518517,0.8888888888888888,0.6514956583317447,-0.27496578706903674,-0.42848454655034857,-0.2027967613784136,,,,,,,,,,,,,,,,,,,-0.0006695780195113046,-1.318208612054231,7.282753127207638e-05,0.11846744422885468,1.1350000000000002,-0.34654612797608225,,,,,,,,
34,240613_151938,FalseCHOICE,9.0,35,2.0,917.0,,,,,,,,,,,36.0,35.0,,,A,,,,,,False,cue2.png,Hard,cue1.png,Easy,Right,Easy,Mid,0.0165266999974846,,,,,,,,,,,,,11,21,Female,0.7142857142857143,0.75,0.4,1.75,2.1666666666666665,1.0,2.0,3.2222222222222223,2.0,2.5555555555555554,2.25,1.5,3.0,1.25,1.0,1.0,0.6032975833319748,-0.7945966065239141,-0.5053446992918696,-0.7468676580742726,,,,,,,,,,,,,,,,,,,0.0010543752452005836,1.5890168801835136,5.4409461434284934e-05,0.02601448205241454,1.7180000000000002,0.851944067266027,,,,,,,,
35,240613_152002,FalseCHOICE,9.0,36,2.0,917.0,,,,,,,,,,,37.0,36.0,,,A,,,,,,False,cue1.png,Easy,cue2.png,Hard,Right,Hard,Mid,0.0147221999941393,,,,,,,,,,,,,11,21,Female,0.7142857142857143,0.75,0.4,1.75,2.1666666666666665,1.0,2.0,3.2222222222222223,2.0,2.5555555555555554,2.25,1.5,3.0,1.25,1.0,1.0,0.6476793833329187,-0.3161096316087734,-0.4343594838805105,-0.2443837516099128,,,,,,,,,,,,,,,,,,,6.456468551160801e-05,-0.08017134580636687,-0.0001548725662322615,-1.0245159784393167,1.449,0.29895287940989057,,,,,,,,
36,240613_152025,FalseCHOICE,9.0,37,2.0,917.0,,,,,,,,,,,38.0,37.0,,,A,,,,,,False,cue2.png,Hard,cue1.png,Easy,Left,Hard,Mid,0.0159740000090096,,,,,,,,,,,,,11,21,Female,0.7142857142857143,0.75,0.4,1.75,2.1666666666666665,1.0,2.0,3.2222222222222223,2.0,2.5555555555555554,2.25,1.5,3.0,1.25,0.8518518518518517,0.8888888888888888,0.5939550583352684,-0.8953197976438789,-0.5209516218500415,-0.8573445703365127,,,,,,,,,,,,,,,,,,,0.0010797451140014446,1.6317999015230837,6.257778452277213e-05,0.06701691456547341,1.343,0.08104557118405228,,,,,,,,
37,240613_152047,FalseCHOICE,9.0,38,2.0,917.0,,,,,,,,,,,39.0,38.0,,,A,,,,,,False,cue1.png,Easy,cue2.png,Hard,Left,Easy,Mid,0.0153640000207815,,,,,,,,,,,,,11,21,Female,0.7142857142857143,0.75,0.4,1.75,2.1666666666666665,1.0,2.0,3.2222222222222223,2.0,2.5555555555555554,2.25,1.5,3.0,1.25,1.0,1.0,0.5941139250013899,-0.8936070318145136,-0.5206841850777723,-0.8554514624085684,,,,,,,,,,,,,,,,,,,-0.001142911143551432,-2.1164240583180622,-9.881929184000918e-05,-0.7431460356118036,,,,,,,,,,
38,240613_152109,FalseCHOICE,9.0,39,2.0,917.0,,,,,,,,,,,40.0,39.0,,,A,,,,,,False,cue1.png,Easy,cue2.png,Hard,Left,Easy,Mid,0.0159585000074002,,,,,,,,,,,,,11,21,Female,0.7142857142857143,0.75,0.4,1.75,2.1666666666666665,1.0,2.0,3.2222222222222223,2.0,2.5555555555555554,2.25,1.5,3.0,1.25,1.0,1.0,0.578427391667598,-1.0627259472625568,-0.5474422516040137,-1.0448641129108232,,,,,,,,,,,,,,,,,,,0.0004123124903604499,0.5062606090617527,-8.213643063792551e-05,-0.6594032792157841,1.5790000000000002,0.5661976913849752,,,,,,,,
39,240613_152132,FalseCHOICE,9.0,40,2.0,917.0,,,,,,,,,,,41.0,40.0,,,A,,,,,,False,cue2.png,Hard,cue1.png,Easy,Right,Easy,Mid,0.0164713999838568,,,,,,,,,,,,,11,21,Female,0.7142857142857143,0.75,0.4,1.75,2.1666666666666665,1.0,2.0,3.2222222222222223,2.0,2.5555555555555554,2.25,1.5,3.0,1.25,0.8518518518518517,0.8888888888888888,0.6303478166616211,-0.5029639031099948,-0.46148352200305826,-0.4363870096957511,,,,,,,,,,,,,,,,,,,,,-0.00021353078928082643,-1.318961950498703,1.4549999999999998,0.3112872553472017,,,,,,,,
40,240613_152154,FalseCHOICE,9.0,41,2.0,917.0,,,,,,,,,,,42.0,41.0,,,A,,,,,,False,cue2.png,Hard,cue1.png,Easy,Right,Easy,Mid,0.015643100021407,,,,,,,,,,,,,11,21,Female,0.7142857142857143,0.75,0.4,1.75,2.1666666666666665,1.0,2.0,3.2222222222222223,2.0,2.5555555555555554,2.25,1.5,3.0,1.25,1.0,1.0,0.5966096916672541,-0.8666997896112234,-0.5164921622006254,-0.8257773391550152,,,,,,,,,,,,,,,,,,,0.0010673612369534588,1.6109160853642628,0.00021598816720027345,0.8370891551459763,,,,,,,,,,
41,240613_152217,FalseCHOICE,9.0,42,2.0,917.0,,,,,,,,,,,43.0,42.0,,,A,,,,,,False,cue1.png,Easy,cue2.png,Hard,Right,Hard,Mid,0.0155563000007532,,,,,,,,,,,,,11,21,Female,0.7142857142857143,0.75,0.4,1.75,2.1666666666666665,1.0,2.0,3.2222222222222223,2.0,2.5555555555555554,2.25,1.5,3.0,1.25,1.0,1.0,0.681268700005603,0.046021929613114125,-0.3837984838319062,0.11352301350926244,,,,,,,,,,,,,,,,,,,0.0005705417580256153,0.7730939217682641,-1.193158924902302e-05,-0.30699688686878407,,,,,,,,,,
42,240613_152240,FalseCHOICE,9.0,43,2.0,917.0,,,,,,,,,,,44.0,43.0,,,A,,,,,,False,cue2.png,Hard,cue1.png,Easy,Right,Easy,Mid,0.0165665000095032,,,,,,,,,,,,,11,21,Female,0.7142857142857143,0.75,0.4,1.75,2.1666666666666665,1.0,2.0,3.2222222222222223,2.0,2.5555555555555554,2.25,1.5,3.0,1.25,1.0,1.0,0.7094774416618748,0.35014468851394975,-0.34322657758535274,0.4007198590119897,,,,,,,,,,,,,,,,,,,-0.00018695452213736072,-0.5043261458419263,,,1.659,0.7306560372157961,,,,,,,,
43,240613_152306,FalseCHOICE,9.0,44,2.0,917.0,,,,,,,,,,,45.0,44.0,,,A,,,,,,False,cue1.png,Easy,cue2.png,Hard,Right,Hard,Mid,0.0170469000004231,,,,,,,,,,,,,11,21,Female,0.7142857142857143,0.75,0.4,1.75,2.1666666666666665,1.0,2.0,3.2222222222222223,2.0,2.5555555555555554,2.25,1.5,3.0,1.25,0.8518518518518517,0.8055555555555555,0.735889845453626,0.6349008541107362,-0.30667483795763506,0.6594591022441046,,,,,,,,,,,,,,,,,,,-0.0004523946146588473,-0.9519567280835968,-9.18594637946326e-05,-0.7082098710353483,1.435,0.2701726688894968,,,,,,,,
44,240613_152332,FalseCHOICE,9.0,45,2.0,917.0,,,,,,,,,,,46.0,45.0,,,A,,,,,,False,cue2.png,Hard,cue1.png,Easy,Right,Easy,Mid,0.0165519999864045,,,,,,,,,,,,,11,21,Female,0.7142857142857143,0.75,0.4,1.75,2.1666666666666665,1.0,2.0,3.2222222222222223,2.0,2.5555555555555554,2.25,1.5,3.0,1.25,0.8518518518518517,0.8055555555555555,0.8251885727222543,1.5976440928624176,-0.1921433457696116,1.4701945670071104,,,,,,,,,,,,,,,,,,,-0.00046203018845552765,-0.9682058842222515,,,1.8180000000000003,1.0575169995545537,,,,,,,,
45,240613_152354,FalseCHOICE,9.0,46,2.0,917.0,,,,,,,,,,,47.0,46.0,,,A,,,,,,False,cue2.png,Hard,cue1.png,Easy,Right,Easy,Mid,0.0170098999806214,,,,,,,,,,,,,11,21,Female,0.7142857142857143,0.75,0.4,1.75,2.1666666666666665,1.0,2.0,3.2222222222222223,2.0,2.5555555555555554,2.25,1.5,3.0,1.25,0.8518518518518517,0.8888888888888888,0.5973466750025788,-0.8587542595363982,-0.5152576389810205,-0.8170385046468258,,,,,,,,,,,,,,,,,,,,,-8.08362853635591e-05,-0.6528769557229588,,,,,,,,,,
46,240613_152415,FalseCHOICE,9.0,47,2.0,917.0,,,,,,,,,,,48.0,47.0,,,A,,,,,,False,cue1.png,Easy,cue2.png,Hard,Right,Hard,Mid,0.0168591999972704,,,,,,,,,,,,,11,21,Female,0.7142857142857143,0.75,0.4,1.75,2.1666666666666665,1.0,2.0,3.2222222222222223,2.0,2.5555555555555554,2.25,1.5,3.0,1.25,1.0,1.0,0.5362100250034322,-1.5178778352795004,-0.6232293569667055,-1.5813392160937525,,,,,,,,,,,,,,,,,,,0.0008782241211638814,1.2919606613355978,2.800680102530524e-05,-0.10651863274445604,,,,,,,,,,
47,240613_152438,FalseCHOICE,9.0,48,2.0,917.0,,,,,,,,,,,49.0,48.0,,,A,,,,,,False,cue1.png,Easy,cue2.png,Hard,Right,Hard,Mid,0.0169695999938994,,,,,,,,,,,,,11,21,Female,0.7142857142857143,0.75,0.4,1.75,2.1666666666666665,1.0,2.0,3.2222222222222223,2.0,2.5555555555555554,2.25,1.5,3.0,1.25,0.8518518518518517,0.8888888888888888,0.6436569416667529,-0.35947619052651386,-0.44058939408767867,-0.2884834926571044,,,,,,,,,,,,,,,,,,,-0.0001609794412494826,-0.460522512143772,4.717185141732243e-06,-0.22342523562689945,0.7509999999999999,-1.1359461879640247,,,,,,,,
48,240613_152501,FalseCHOICE,9.0,49,2.0,917.0,,,,,,,,,,,50.0,49.0,,,A,,,,,,False,cue2.png,Hard,cue1.png,Easy,Right,Easy,Mid,0.0167429999855812,,,,,,,,,,,,,11,21,Female,0.7142857142857143,0.75,0.4,1.75,2.1666666666666665,1.0,2.0,3.2222222222222223,2.0,2.5555555555555554,2.25,1.5,3.0,1.25,1.0,1.0,0.6309367250044792,-0.49661479218005383,-0.4605496987994924,-0.4297767440431694,,,,,,,,,,,,,,,,,,,0.00020917116065931243,0.16368887911818128,,,,,,,,,,,,
49,240613_152524,FalseCHOICE,9.0,50,2.0,917.0,,,,,,,,,,,51.0,50.0,,,A,,,,,,False,cue1.png,Easy,cue2.png,Hard,Right,Hard,Mid,0.0169833000109065,,,,,,,,,,,,,11,21,Female,0.7142857142857143,0.75,0.4,1.75,2.1666666666666665,1.0,2.0,3.2222222222222223,2.0,2.5555555555555554,2.25,1.5,3.0,1.25,0.8518518518518517,0.8888888888888888,0.5290212333347881,-1.5953812979320179,-0.6367267093002819,-1.6768830879859271,,,,,,,,,,,,,,,,,,,,,-0.00017332143988875491,-1.117123566171552,1.335,0.06459973660097015,,,,,,,,
0,240613_143649,OFFLINERATING,9.0,1,1.0,,,,,,,,,,,,,,,,,T0,cue1.png,Easy,50.0,2.443202399997972,,,,,,,,,,,,,,,,,,,,,,11,21,Female,0.7142857142857143,0.75,0.4,1.75,2.1666666666666665,1.0,2.0,3.2222222222222223,2.0,2.5555555555555554,2.25,1.5,3.0,1.25,,,,,,,,,,,,,,,,,,,,,,,,,,,,,,,0.10206863588227368,-0.0009992828880408576,-1.4016204652376352,,,,,
1,240613_143657,OFFLINERATING,9.0,2,3.0,,,,,,,,,,,,,,,,,T0,cue2.png,Hard,38.0,1.4023270000179764,,,,,,,,,,,,,,,,,,,,,,11,21,Female,0.7142857142857143,0.75,0.4,1.75,2.1666666666666665,1.0,2.0,3.2222222222222223,2.0,2.5555555555555554,2.25,1.5,3.0,1.25,,,,,,,,,,,,,,,,,,,,,,,,,,,,,,,-0.4422974221565193,-0.00026724901243802566,0.8638901319635142,,,1.139,-1.4111921352377192,
2,240613_145931,OFFLINERATING,9.0,3,1.0,,,,,,,,,,,,,,,,,T1,cue1.png,Easy,76.0,1.3432661000115331,,,,,,,,,,,,,,,,,,,,,,11,21,Female,0.7142857142857143,0.75,0.4,1.75,2.1666666666666665,1.0,2.0,3.2222222222222223,2.0,2.5555555555555554,2.25,1.5,3.0,1.25,,,,,,,,,,,,,,,,,,,,,,,,,,,,,,,1.2815284282996584,,,-5.148233257021989e-05,-1.0,1.592,0.785612116524092,
3,240613_145939,OFFLINERATING,9.0,4,3.0,,,,,,,,,,,,,,,,,T1,cue2.png,Hard,5.0,1.3112437000090722,,,,,,,,,,,,,,,,,,,,,,11,21,Female,0.7142857142857143,0.75,0.4,1.75,2.1666666666666665,1.0,2.0,3.2222222222222223,2.0,2.5555555555555554,2.25,1.5,3.0,1.25,,,,,,,,,,,,,,,,,,,,,,,,,,,,,,,-1.9393040817632,,,,,,,
4,240613_150419,OFFLINERATING,9.0,5,1.0,,,,,,,,,,,,,,,,,T2,cue1.png,Easy,71.0,0.8018411000084598,,,,,,,,,,,,,,,,,,,,,,11,21,Female,0.7142857142857143,0.75,0.4,1.75,2.1666666666666665,1.0,2.0,3.2222222222222223,2.0,2.5555555555555554,2.25,1.5,3.0,1.25,,,,,,,,,,,,,,,,,,,,,,,,,,,,,,,1.0547092374501614,-0.00037263806768914835,0.5377303332741211,,,,,
5,240613_150426,OFFLINERATING,9.0,6,3.0,,,,,,,,,,,,,,,,,T2,cue2.png,Hard,27.0,0.5517375999770593,,,,,,,,,,,,,,,,,,,,,,11,21,Female,0.7142857142857143,0.75,0.4,1.75,2.1666666666666665,1.0,2.0,3.2222222222222223,2.0,2.5555555555555554,2.25,1.5,3.0,1.25,,,,,,,,,,,,,,,,,,,,,,,,,,,,,,,-0.9412996420254128,,,,,1.559,0.6255800187136283,
6,240613_152628,OFFLINERATING,9.0,7,1.0,,,,,,,,,,,,,,,,,T3,cue1.png,Easy,57.0,1.025101899984293,,,,,,,,,,,,,,,,,,,,,,11,21,Female,0.7142857142857143,0.75,0.4,1.75,2.1666666666666665,1.0,2.0,3.2222222222222223,2.0,2.5555555555555554,2.25,1.5,3.0,1.25,,,,,,,,,,,,,,,,,,,,,,,,,,,,,,,0.4196155030715696,,,,,,,
7,240613_152635,OFFLINERATING,9.0,8,3.0,,,,,,,,,,,,,,,,,T3,cue2.png,Hard,58.0,0.5680249000142794,,,,,,,,,,,,,,,,,,,,,,11,21,Female,0.7142857142857143,0.75,0.4,1.75,2.1666666666666665,1.0,2.0,3.2222222222222223,2.0,2.5555555555555554,2.25,1.5,3.0,1.25,,,,,,,,,,,,,,,,,,,,,,,,,,,,,,,0.46497934124146895,,,9.43362298279609e-05,1.0,,,
0,240613_150446,LEARNINGCHECK,9.0,1,,,,,,,,,,,,1.0,1.0,1.0,,,A,,,,,,,,,,,,,,,cue1.png,Easy,Left,Left,Easy,0.0151940999785438,1.0,,,,,,11,21,Female,0.7142857142857143,0.75,0.4,1.75,2.1666666666666665,1.0,2.0,3.2222222222222223,2.0,2.5555555555555554,2.25,1.5,3.0,1.25,,,,,,,,,,,,,,,,,,,,,,,,,,,,,,,,,,,,,,
1,240613_152652,LEARNINGCHECK,9.0,1,,,,,,,,,,,,1.0,1.0,1.0,,,A,,,,,,,,,,,,,,,cue1.png,Easy,Middle,Middle,Mid,0.0138453999825287,1.0,,,,,,11,21,Female,0.7142857142857143,0.75,0.4,1.75,2.1666666666666665,1.0,2.0,3.2222222222222223,2.0,2.5555555555555554,2.25,1.5,3.0,1.25,,,,,,,,,,,,,,,,,,,,,,,,,,,,,,,,,,,,,,
2,240613_150452,LEARNINGCHECK,9.0,2,,,,,,,,,,,,2.0,2.0,2.0,,,A,,,,,,,,,,,,,,,cue2.png,Hard,Right,Right,Hard,0.0163563000096473,1.0,,,,,,11,21,Female,0.7142857142857143,0.75,0.4,1.75,2.1666666666666665,1.0,2.0,3.2222222222222223,2.0,2.5555555555555554,2.25,1.5,3.0,1.25,,,,,,,,,,,,,,,,,,,,,,,,,,,,,,,,,,,,,,
3,240613_152656,LEARNINGCHECK,9.0,2,,,,,,,,,,,,2.0,2.0,2.0,,,A,,,,,,,,,,,,,,,cue2.png,Hard,Middle,Middle,Mid,0.0147601999924518,1.0,,,,,,11,21,Female,0.7142857142857143,0.75,0.4,1.75,2.1666666666666665,1.0,2.0,3.2222222222222223,2.0,2.5555555555555554,2.25,1.5,3.0,1.25,,,,,,,,,,,,,,,,,,,,,,,,,,,,,,,,,,,,,,
0,240613_152714,DEMANDRATING,9.0,-1,,,,,,,,,,,,,,,,,,,,,,,,,,,,,,,,,,,,,,,1.0,MentalDemand,1.0,20.0,5.61865069999476,11,21,Female,0.7142857142857143,0.75,0.4,1.75,2.1666666666666665,1.0,2.0,3.2222222222222223,2.0,2.5555555555555554,2.25,1.5,3.0,1.25,,,,,,,,,,,,,,,,,,,,,,,,,,,,,,,,,,,,,,-1.2374182604592578
1,240613_152720,DEMANDRATING,9.0,-1,,,,,,,,,,,,,,,,,,,,,,,,,,,,,,,,,,,,,,,2.0,Effort,1.0,15.0,4.306960399990203,11,21,Female,0.7142857142857143,0.75,0.4,1.75,2.1666666666666665,1.0,2.0,3.2222222222222223,2.0,2.5555555555555554,2.25,1.5,3.0,1.25,,,,,,,,,,,,,,,,,,,,,,,,,,,,,,,,,,,,,,-1.4036386238045313
2,240613_152726,DEMANDRATING,9.0,-1,,,,,,,,,,,,,,,,,,,,,,,,,,,,,,,,,,,,,,,3.0,Frustration,1.0,25.0,4.856724899989786,11,21,Female,0.7142857142857143,0.75,0.4,1.75,2.1666666666666665,1.0,2.0,3.2222222222222223,2.0,2.5555555555555554,2.25,1.5,3.0,1.25,,,,,,,,,,,,,,,,,,,,,,,,,,,,,,,,,,,,,,-1.0711978971139844
3,240613_152731,DEMANDRATING,9.0,-1,,,,,,,,,,,,,,,,,,,,,,,,,,,,,,,,,,,,,,,4.0,MentalDemand,2.0,50.0,3.0088287999969907,11,21,Female,0.7142857142857143,0.75,0.4,1.75,2.1666666666666665,1.0,2.0,3.2222222222222223,2.0,2.5555555555555554,2.25,1.5,3.0,1.25,,,,,,,,,,,,,,,,,,,,,,,,,,,,,,,,,,,,,,-0.24009608038761715
4,240613_152734,DEMANDRATING,9.0,-1,,,,,,,,,,,,,,,,,,,,,,,,,,,,,,,,,,,,,,,5.0,Effort,2.0,67.0,2.276538400008576,11,21,Female,0.7142857142857143,0.75,0.4,1.75,2.1666666666666665,1.0,2.0,3.2222222222222223,2.0,2.5555555555555554,2.25,1.5,3.0,1.25,,,,,,,,,,,,,,,,,,,,,,,,,,,,,,,,,,,,,,0.32505315498631254
5,240613_152738,DEMANDRATING,9.0,-1,,,,,,,,,,,,,,,,,,,,,,,,,,,,,,,,,,,,,,,6.0,Frustration,2.0,67.0,2.059651700023096,11,21,Female,0.7142857142857143,0.75,0.4,1.75,2.1666666666666665,1.0,2.0,3.2222222222222223,2.0,2.5555555555555554,2.25,1.5,3.0,1.25,,,,,,,,,,,,,,,,,,,,,,,,,,,,,,,,,,,,,,0.32505315498631254
6,240613_152742,DEMANDRATING,9.0,-1,,,,,,,,,,,,,,,,,,,,,,,,,,,,,,,,,,,,,,,7.0,MentalDemand,3.0,100.0,2.7054424000089057,11,21,Female,0.7142857142857143,0.75,0.4,1.75,2.1666666666666665,1.0,2.0,3.2222222222222223,2.0,2.5555555555555554,2.25,1.5,3.0,1.25,,,,,,,,,,,,,,,,,,,,,,,,,,,,,,,,,,,,,,1.4221075530651173
7,240613_152747,DEMANDRATING,9.0,-1,,,,,,,,,,,,,,,,,,,,,,,,,,,,,,,,,,,,,,,8.0,Effort,3.0,74.0,3.4942717000085395,11,21,Female,0.7142857142857143,0.75,0.4,1.75,2.1666666666666665,1.0,2.0,3.2222222222222223,2.0,2.5555555555555554,2.25,1.5,3.0,1.25,,,,,,,,,,,,,,,,,,,,,,,,,,,,,,,,,,,,,,0.5577616636696954
8,240613_152751,DEMANDRATING,9.0,-1,,,,,,,,,,,,,,,,,,,,,,,,,,,,,,,,,,,,,,,9.0,Frustration,3.0,97.0,1.9836696999846024,11,21,Female,0.7142857142857143,0.75,0.4,1.75,2.1666666666666665,1.0,2.0,3.2222222222222223,2.0,2.5555555555555554,2.25,1.5,3.0,1.25,,,,,,,,,,,,,,,,,,,,,,,,,,,,,,,,,,,,,,1.3223753350579532
