,END,Phase,Block,TrialN,NbackLevel,ISI,Letter_Resp,Letter_RT,Letter_Accuracy,Trial_A_measure,Trial_ACC,Trial_RT,TrialCountCali,CaliEnd_A_measure,ISI_calibrated,TrialIndex,TrialNumber_total,TrialNumber_valid,CueLearning,TrialDemandLearning,CueMapping,OfflineRatingTimePoint,CueFigure,TrialDemand,OfflineRating,OfflineRatingRT,PhaseType,CueLeft,CueDemandLeft,CueRight,CueDemandRight,Choice,ChoiceDemand,TaskDemand,ChoiceRT,CueCheck,CueDemandCheck,CorrectAnswer,Answer,AnswerDemand,AnswerRT,AnswerACC,DemandRatingQuesIndex,QuesTLX,DemandLevel,DemandRating,DemandRatingRT,PID,Age,Gender,Task_A_measure,Task_ACC,Task_RT,cue_i_on_zyg_values,cue_i_on_zyg_zvalues,cue_e_on_zyg_values,cue_e_on_zyg_zvalues,cue_i_on_cor_values,cue_i_on_cor_zvalues,cue_e_on_cor_values,cue_e_on_cor_zvalues,cue_i_on_scr_values,cue_i_on_scr_zvalues,cue_e_on_scr_values,cue_e_on_scr_zvalues,BAI_bis,BAI_bas_d,BAI_bas_rr,BAI_bas_fs,NFC,BFI_ext,BFI_agr,BFI_con,BFI_neu,BFI_open,UPPS_lps,UPPS_lpm,UPPS_pu,UPPS_ss,cue_e_true_zyg_values,cue_e_true_zyg_zvalues,cue_e_true_cor_values,cue_e_true_cor_zvalues,cue_e_true_scr_values,cue_e_true_scr_zvalues,cue_i_off_zyg_values,cue_i_off_zyg_zvalues,cue_i_off_cor_values,cue_i_off_cor_zvalues,cue_i_off_scr_values,cue_i_off_scr_zvalues
0,240613_143730,LEARNING,1.0,1,1.0,917.0,,,,,,,,,,1.0,1.0,1.0,cue1.png,Easy,A,,,,,,,,,,,,,,,,,,,,,,,,,,,11,21,Female,1.0,1.0,0.5491826666717922,,,,,,,,,1.186,-0.5579467666768881,,,0.7142857142857143,0.75,0.4,1.75,2.1666666666666665,1.0,2.0,3.2222222222222223,2.0,2.5555555555555554,2.25,1.5,3.0,1.25,,,,,,,,,,,,
1,240613_143757,LEARNING,1.0,2,3.0,917.0,,,,,,,,,,2.0,2.0,2.0,cue2.png,Hard,A,,,,,,,,,,,,,,,,,,,,,,,,,,,11,21,Female,0.6111111111111112,0.7777777777777778,0.7980740250034918,0.00020126877496641016,0.6343958754919656,,,-6.58968996424137e-05,-0.7003524466903973,,,1.975,0.6293615450887179,1.955,0.8673446566333585,0.7142857142857143,0.75,0.4,1.75,2.1666666666666665,1.0,2.0,3.2222222222222223,2.0,2.5555555555555554,2.25,1.5,3.0,1.25,,,,,,,,,,,,
2,240613_143822,LEARNING,1.0,3,1.0,917.0,,,,,,,,,,3.0,3.0,3.0,cue1.png,Easy,A,,,,,,,,,,,,,,,,,,,,,,,,,,,11,21,Female,0.8518518518518517,0.8888888888888888,0.6365799666721917,,,0.00022588461692144056,0.7344304237575857,3.3278431224298324e-05,-0.37401611991431094,0.0006958655177798406,2.717251131640449,1.577,0.03044049555422963,1.5870000000000002,0.14468413641181635,0.7142857142857143,0.75,0.4,1.75,2.1666666666666665,1.0,2.0,3.2222222222222223,2.0,2.5555555555555554,2.25,1.5,3.0,1.25,,,,,,,,,,,,
3,240613_143851,LEARNING,1.0,4,3.0,917.0,,,,,,,,,,4.0,4.0,4.0,cue2.png,Hard,A,,,,,,,,,,,,,,,,,,,,,,,,,,,11,21,Female,0.2222222222222222,0.7222222222222222,0.9243387999973492,,,0.00011829538617203665,0.48639213416167676,,,-5.395873803192182e-07,-0.15199999881264717,,,1.5799999999999998,0.1309378765162972,0.7142857142857143,0.75,0.4,1.75,2.1666666666666665,1.0,2.0,3.2222222222222223,2.0,2.5555555555555554,2.25,1.5,3.0,1.25,,,,,,,,,,,,
4,240613_143919,LEARNING,1.0,5,3.0,917.0,,,,,,,,,,5.0,5.0,5.0,cue2.png,Hard,A,,,,,,,,,,,,,,,,,,,,,,,,,,,11,21,Female,0.6111111111111112,0.6111111111111112,0.7839462099975207,,,,,,,9.578078743751337e-05,0.24484853415175847,1.4469999999999998,-0.16518698293693498,,,0.7142857142857143,0.75,0.4,1.75,2.1666666666666665,1.0,2.0,3.2222222222222223,2.0,2.5555555555555554,2.25,1.5,3.0,1.25,,,,,,,,,,,,
5,240613_143943,LEARNING,1.0,6,1.0,917.0,,,,,,,,,,6.0,6.0,6.0,cue1.png,Easy,A,,,,,,,,,,,,,,,,,,,,,,,,,,,11,21,Female,1.0,1.0,0.5279561166704904,-0.0008507098081153943,-1.3717037949780408,-0.0003564714536807511,-0.6081445038799773,,,-0.00018523657990996258,-0.9129680771340858,1.709,0.22907762756064295,,,0.7142857142857143,0.75,0.4,1.75,2.1666666666666665,1.0,2.0,3.2222222222222223,2.0,2.5555555555555554,2.25,1.5,3.0,1.25,,,,,,,,,,,,
6,240613_144010,LEARNING,1.0,7,3.0,917.0,,,,,,,,,,7.0,7.0,7.0,cue2.png,Hard,A,,,,,,,,,,,,,,,,,,,,,,,,,,,11,21,Female,0.8518518518518517,0.8888888888888888,0.7703211083304874,0.00029000044224770536,0.8036051838904223,0.0001837686124780205,0.6373353740579438,0.00015999684039138705,0.042950678392352074,,,,,1.1649999999999998,-0.6840189601465835,0.7142857142857143,0.75,0.4,1.75,2.1666666666666665,1.0,2.0,3.2222222222222223,2.0,2.5555555555555554,2.25,1.5,3.0,1.25,,,,,,,,,,,,
7,240613_144037,LEARNING,1.0,8,3.0,917.0,,,,,,,,,,8.0,8.0,8.0,cue2.png,Hard,A,,,,,,,,,,,,,,,,,,,,,,,,,,,11,21,Female,0.6111111111111112,0.7777777777777778,0.8079111166734947,0.00017078723231259097,0.5762682542108307,,,-3.857594142875516e-05,-0.6104528610824521,-1.2545801773053856e-05,-0.2014666726833011,2.985,2.149236570289303,,,0.7142857142857143,0.75,0.4,1.75,2.1666666666666665,1.0,2.0,3.2222222222222223,2.0,2.5555555555555554,2.25,1.5,3.0,1.25,,,,,,,,,,,,
8,240613_144101,LEARNING,1.0,9,1.0,917.0,,,,,,,,,,9.0,9.0,9.0,cue1.png,Easy,A,,,,,,,,,,,,,,,,,,,,,,,,,,,11,21,Female,1.0,1.0,0.5760033750023771,-0.00020998081108022882,-0.14984790315246552,,,-8.658746234092244e-06,-0.5120103602916992,,,2.759,1.8091457230662018,,,0.7142857142857143,0.75,0.4,1.75,2.1666666666666665,1.0,2.0,3.2222222222222223,2.0,2.5555555555555554,2.25,1.5,3.0,1.25,,,,,,,,,,,,
9,240613_144125,LEARNING,1.0,10,1.0,917.0,,,,,,,,,,10.0,10.0,10.0,cue1.png,Easy,A,,,,,,,,,,,,,,,,,,,,,,,,,,,11,21,Female,1.0,1.0,0.5676554250045834,0.00034745294919640447,0.9131658319026819,-0.0002484652530752021,-0.35914492392804587,,,2.2843426373475844e-05,-0.05565989712564565,,,,,0.7142857142857143,0.75,0.4,1.75,2.1666666666666665,1.0,2.0,3.2222222222222223,2.0,2.5555555555555554,2.25,1.5,3.0,1.25,,,,,,,,,,,,
10,240613_144151,LEARNING,1.0,11,3.0,917.0,,,,,,,,,,11.0,11.0,11.0,cue2.png,Hard,A,,,,,,,,,,,,,,,,,,,,,,,,,,,11,21,Female,0.7222222222222222,0.8055555555555555,0.6220555636365052,-0.00011079350503571082,0.039300074924995106,-3.701803266716302e-05,0.12832958002094508,1.8192226072435286e-05,-0.4236572628399244,0.0007169784877364498,2.804238450467314,,,0.6900000000000002,-1.6168008816281931,0.7142857142857143,0.75,0.4,1.75,2.1666666666666665,1.0,2.0,3.2222222222222223,2.0,2.5555555555555554,2.25,1.5,3.0,1.25,,,,,,,,,,,,
11,240613_144214,LEARNING,1.0,12,1.0,917.0,,,,,,,,,,12.0,12.0,12.0,cue1.png,Easy,A,,,,,,,,,,,,,,,,,,,,,,,,,,,11,21,Female,1.0,1.0,0.5464953499928621,-9.81429312719097e-05,0.0634244366439109,1.1844810581907589e-05,0.24097892215186864,0.0007085629503172154,1.8480069130686338,,,1.658,0.15233146292180128,1.4460000000000002,-0.13220481291219854,0.7142857142857143,0.75,0.4,1.75,2.1666666666666665,1.0,2.0,3.2222222222222223,2.0,2.5555555555555554,2.25,1.5,3.0,1.25,,,,,,,,,,,,
12,240613_144239,LEARNING,1.0,13,1.0,917.0,,,,,,,,,,13.0,13.0,13.0,cue1.png,Easy,A,,,,,,,,,,,,,,,,,,,,,,,,,,,11,21,Female,1.0,1.0,0.569843233335026,,,,,-5.063416334298229e-06,-0.5001799308613818,5.279156373469386e-05,0.06772909922422662,0.8150000000000002,-1.1162374937555186,,,0.7142857142857143,0.75,0.4,1.75,2.1666666666666665,1.0,2.0,3.2222222222222223,2.0,2.5555555555555554,2.25,1.5,3.0,1.25,,,,,,,,,,,,
13,240613_144302,LEARNING,1.0,14,1.0,917.0,,,,,,,,,,14.0,14.0,14.0,cue1.png,Easy,A,,,,,,,,,,,,,,,,,,,,,,,,,,,11,21,Female,1.0,1.0,0.5106711166639192,0.0003503809029553038,0.918749374348643,-5.650106487954318e-05,0.08341302143566542,-4.76062714979816e-05,-0.6401671531207368,-6.456744871629607e-05,-0.4158004967663424,,,,,0.7142857142857143,0.75,0.4,1.75,2.1666666666666665,1.0,2.0,3.2222222222222223,2.0,2.5555555555555554,2.25,1.5,3.0,1.25,,,,,,,,,,,,
14,240613_144328,LEARNING,1.0,15,3.0,917.0,,,,,,,,,,15.0,15.0,15.0,cue2.png,Hard,A,,,,,,,,,,,,,,,,,,,,,,,,,,,11,21,Female,0.6111111111111112,0.7777777777777778,0.6975555416599187,0.0001468781850209257,0.5306742348415868,-0.0008805901733870891,-1.8164579184814473,6.509714125461832e-05,-0.26931668646343376,0.00011605745860201241,0.3283902273838673,,,,,0.7142857142857143,0.75,0.4,1.75,2.1666666666666665,1.0,2.0,3.2222222222222223,2.0,2.5555555555555554,2.25,1.5,3.0,1.25,,,,,,,,,,,,
15,240613_144353,LEARNING,1.0,16,1.0,917.0,,,,,,,,,,16.0,16.0,16.0,cue1.png,Easy,A,,,,,,,,,,,,,,,,,,,,,,,,,,,11,21,Female,1.0,1.0,0.6474867916695075,-0.00048374669238749734,-0.6719133264499044,,,0.001289008477523874,3.7579623383427276,-0.00037968195674095706,-1.7141003680230218,,,,,0.7142857142857143,0.75,0.4,1.75,2.1666666666666665,1.0,2.0,3.2222222222222223,2.0,2.5555555555555554,2.25,1.5,3.0,1.25,,,,,,,,,,,,
16,240613_144418,LEARNING,1.0,17,1.0,917.0,,,,,,,,,,17.0,17.0,17.0,cue1.png,Easy,A,,,,,,,,,,,,,,,,,,,,,,,,,,,11,21,Female,1.0,1.0,0.6364349333404485,-0.00015902339497052276,-0.052673248354635833,-0.00034536195373145165,-0.5825324482262999,0.00021644834364012303,0.22870429322969033,-6.0185510066842855e-06,-0.17457381750262352,,,,,0.7142857142857143,0.75,0.4,1.75,2.1666666666666665,1.0,2.0,3.2222222222222223,2.0,2.5555555555555554,2.25,1.5,3.0,1.25,,,,,,,,,,,,
17,240613_144444,LEARNING,1.0,18,3.0,917.0,,,,,,,,,,18.0,18.0,18.0,cue2.png,Hard,A,,,,,,,,,,,,,,,,,,,,,,,,,,,11,21,Female,0.8518518518518517,0.8888888888888888,0.7061564166676059,-0.0001267798289073434,0.008814512227550841,-0.00035369235044558755,-0.6017375056306266,-2.7883525981626123e-05,-0.5752694787747137,-2.3550322556367687e-05,-0.24680627956392012,,,,,0.7142857142857143,0.75,0.4,1.75,2.1666666666666665,1.0,2.0,3.2222222222222223,2.0,2.5555555555555554,2.25,1.5,3.0,1.25,,,,,,,,,,,,
18,240613_144510,LEARNING,1.0,19,3.0,917.0,,,,,,,,,,19.0,19.0,19.0,cue2.png,Hard,A,,,,,,,,,,,,,,,,,,,,,,,,,,,11,21,Female,0.875,0.875,0.7861119166579252,-0.00018298806383304327,-0.09837333681764092,0.0009273257624822359,2.3515463821599436,2.1484922803934395e-05,-0.41282264754643805,,,,,,,0.7142857142857143,0.75,0.4,1.75,2.1666666666666665,1.0,2.0,3.2222222222222223,2.0,2.5555555555555554,2.25,1.5,3.0,1.25,,,,,,,,,,,,
19,240613_144537,LEARNING,1.0,20,3.0,917.0,,,,,,,,,,20.0,20.0,20.0,cue2.png,Hard,A,,,,,,,,,,,,,,,,,,,,,,,,,,,11,21,Female,0.8518518518518517,0.8888888888888888,0.7783083916729083,,,,,,,,,2.7699999999999996,1.825698817400069,1.355,-0.310906191553939,0.7142857142857143,0.75,0.4,1.75,2.1666666666666665,1.0,2.0,3.2222222222222223,2.0,2.5555555555555554,2.25,1.5,3.0,1.25,,,,,,,,,,,,
20,240613_144602,LEARNING,1.0,21,1.0,917.0,,,,,,,,,,21.0,21.0,21.0,cue1.png,Easy,A,,,,,,,,,,,,,,,,,,,,,,,,,,,11,21,Female,1.0,1.0,0.6091905333353983,-0.0007324096045681914,-1.1461079480955536,9.303771924529334e-05,0.4281626212257152,0.00022745280148391,0.26491445073075387,,,1.1789999999999998,-0.5684805539802587,1.1260000000000001,-0.7606052652787573,0.7142857142857143,0.75,0.4,1.75,2.1666666666666665,1.0,2.0,3.2222222222222223,2.0,2.5555555555555554,2.25,1.5,3.0,1.25,,,,,,,,,,,,
21,240613_144630,LEARNING,1.0,22,3.0,917.0,,,,,,,,,,22.0,22.0,22.0,cue2.png,Hard,A,,,,,,,,,,,,,,,,,,,,,,,,,,,11,21,Female,0.9375,0.9166666666666666,0.9235443000030832,0.0007817077612379941,1.7412800628830896,0.00022291261550713617,0.7275787143221154,-0.0001563769629231099,-0.9980770041932442,-3.854122423832106e-06,-0.16565617874306077,2.3649999999999998,1.2162439805622107,2.077,1.1069223290981087,0.7142857142857143,0.75,0.4,1.75,2.1666666666666665,1.0,2.0,3.2222222222222223,2.0,2.5555555555555554,2.25,1.5,3.0,1.25,,,,,,,,,,,,
22,240613_144700,LEARNING,1.0,23,3.0,917.0,,,,,,,,,,23.0,23.0,23.0,cue2.png,Hard,A,,,,,,,,,,,,,,,,,,,,,,,,,,,11,21,Female,0.6875,0.6666666666666666,0.9550066818218592,-0.000273648856261053,-0.2712614437994129,-5.435400036417695e-05,0.08836290541879316,,,,,2.098,0.8144552362765116,1.9369999999999998,0.8319971311877391,0.7142857142857143,0.75,0.4,1.75,2.1666666666666665,1.0,2.0,3.2222222222222223,2.0,2.5555555555555554,2.25,1.5,3.0,1.25,,,,,,,,,,,,
23,240613_144728,LEARNING,1.0,24,3.0,917.0,,,,,,,,,,24.0,24.0,24.0,cue2.png,Hard,A,,,,,,,,,,,,,,,,,,,,,,,,,,,11,21,Female,0.1666666666666666,0.5833333333333334,0.8431987727261995,-5.538072195253752e-05,0.14497101506649754,-0.0004869202228961573,-0.9088836147622261,5.510797658723598e-05,-0.30218602278554907,1.4597946012091887e-05,-0.08963201144923143,,,,,0.7142857142857143,0.75,0.4,1.75,2.1666666666666665,1.0,2.0,3.2222222222222223,2.0,2.5555555555555554,2.25,1.5,3.0,1.25,,,,,,,,,,,,
24,240613_144753,LEARNING,1.0,25,1.0,917.0,,,,,,,,,,25.0,25.0,25.0,cue1.png,Easy,A,,,,,,,,,,,,,,,,,,,,,,,,,,,11,21,Female,1.0,1.0,0.6490086833388583,-0.0006428393406111409,-0.9752994545597328,-3.905712094542588e-05,0.1236286265393329,-0.00012580445130204974,-0.8974781853585019,4.6179769876220425e-05,0.04048791896552535,0.609,-1.4262318058261334,2.102,1.1560161144392458,0.7142857142857143,0.75,0.4,1.75,2.1666666666666665,1.0,2.0,3.2222222222222223,2.0,2.5555555555555554,2.25,1.5,3.0,1.25,,,,,,,,,,,,
25,240613_144816,LEARNING,1.0,26,1.0,917.0,,,,,,,,,,26.0,26.0,26.0,cue1.png,Easy,A,,,,,,,,,,,,,,,,,,,,,,,,,,,11,21,Female,1.0,1.0,0.5232018000024254,-0.000604969835662438,-0.9030831541328755,0.0004455077748280684,1.2407538918535226,0.0009091100331305984,2.5079068879821107,6.6932937890141e-05,0.1259928217056197,,,1.6509999999999998,0.2703642268851273,0.7142857142857143,0.75,0.4,1.75,2.1666666666666665,1.0,2.0,3.2222222222222223,2.0,2.5555555555555554,2.25,1.5,3.0,1.25,,,,,,,,,,,,
26,240613_144843,LEARNING,1.0,27,3.0,917.0,,,,,,,,,,27.0,27.0,27.0,cue2.png,Hard,A,,,,,,,,,,,,,,,,,,,,,,,,,,,11,21,Female,0.6111111111111112,0.7777777777777778,0.8055578333345087,-7.921633351052042e-05,0.09951703600179045,1.952154324047061e-05,0.258677009823395,7.7730217225732e-05,-0.2277475626473797,,,0.8220000000000001,-1.1057037064521484,,,0.7142857142857143,0.75,0.4,1.75,2.1666666666666665,1.0,2.0,3.2222222222222223,2.0,2.5555555555555554,2.25,1.5,3.0,1.25,,,,,,,,,,,,
27,240613_144907,LEARNING,1.0,28,1.0,917.0,,,,,,,,,,28.0,28.0,28.0,cue1.png,Easy,A,,,,,,,,,,,,,,,,,,,,,,,,,,,11,21,Female,1.0,1.0,0.4971784250010387,-0.001001477507015223,-1.659214430598032,-0.00045516104018995286,-0.8356653818355577,0.0004417127287732782,0.9699365266429051,-0.0003338700395323466,-1.5253511841571177,1.6629999999999998,0.15985559670992283,2.229,1.4054125439722243,0.7142857142857143,0.75,0.4,1.75,2.1666666666666665,1.0,2.0,3.2222222222222223,2.0,2.5555555555555554,2.25,1.5,3.0,1.25,,,,,,,,,,,,
28,240613_144932,LEARNING,1.0,29,1.0,917.0,,,,,,,,,,29.0,29.0,29.0,cue1.png,Easy,A,,,,,,,,,,,,,,,,,,,,,,,,,,,11,21,Female,1.0,1.0,0.6514185416720769,-7.546320507491669e-05,0.10667416813259807,-0.0008171220434584504,-1.670137266482198,-4.068095774343965e-05,-0.6173794151552698,0.00014549755318200071,0.4496860421738103,1.486,-0.10649873938958544,2.129,1.2090374026076744,0.7142857142857143,0.75,0.4,1.75,2.1666666666666665,1.0,2.0,3.2222222222222223,2.0,2.5555555555555554,2.25,1.5,3.0,1.25,,,,,,,,,,,,
29,240613_144959,LEARNING,1.0,30,3.0,917.0,,,,,,,,,,30.0,30.0,30.0,cue2.png,Hard,A,,,,,,,,,,,,,,,,,,,,,,,,,,,11,21,Female,0.6111111111111112,0.7777777777777778,0.7805381583287575,0.0006412464346723908,1.4734234491946674,-0.0010136929765436646,-2.123315690448191,,,,,1.022,-0.8047383549272801,2.133,1.2168924082622565,0.7142857142857143,0.75,0.4,1.75,2.1666666666666665,1.0,2.0,3.2222222222222223,2.0,2.5555555555555554,2.25,1.5,3.0,1.25,,,,,,,,,,,,
30,240613_145025,LEARNING,1.0,31,3.0,917.0,,,,,,,,,,31.0,31.0,31.0,cue2.png,Hard,A,,,,,,,,,,,,,,,,,,,,,,,,,,,11,21,Female,0.9166666666666666,0.9166666666666666,0.7307708818222057,0.0005759786191967958,1.3489591823135738,0.0003294647642693802,0.9732260950838028,3.5005119320560656e-05,-0.3683344544648703,1.6182906378396384e-05,-0.0831018334119859,,,0.6619999999999997,-1.671785921210268,0.7142857142857143,0.75,0.4,1.75,2.1666666666666665,1.0,2.0,3.2222222222222223,2.0,2.5555555555555554,2.25,1.5,3.0,1.25,,,,,,,,,,,,
31,240613_145049,LEARNING,1.0,32,1.0,917.0,,,,,,,,,,32.0,32.0,32.0,cue1.png,Easy,A,,,,,,,,,,,,,,,,,,,,,,,,,,,11,21,Female,1.0,1.0,0.5383274083360448,,,-0.00039796190637996203,-0.7037973945121493,0.0005523856342375269,1.3341056111038316,,,0.42800000000000016,-1.698605448956139,1.025,-0.9589441580569527,0.7142857142857143,0.75,0.4,1.75,2.1666666666666665,1.0,2.0,3.2222222222222223,2.0,2.5555555555555554,2.25,1.5,3.0,1.25,,,,,,,,,,,,
32,240613_145112,LEARNING,1.0,33,1.0,917.0,,,,,,,,,,33.0,33.0,33.0,cue1.png,Easy,A,,,,,,,,,,,,,,,,,,,,,,,,,,,11,21,Female,1.0,1.0,0.5029077666670977,0.0006470862092272595,1.484559768886482,,,6.5292342788131e-05,-0.2686743760131344,9.00353590431056e-06,-0.11268147993679829,0.254,-1.9604453047827748,1.5820000000000003,0.13486537934358908,0.7142857142857143,0.75,0.4,1.75,2.1666666666666665,1.0,2.0,3.2222222222222223,2.0,2.5555555555555554,2.25,1.5,3.0,1.25,,,,,,,,,,,,
33,240613_145136,LEARNING,1.0,34,1.0,917.0,,,,,,,,,,34.0,34.0,34.0,cue1.png,Easy,A,,,,,,,,,,,,,,,,,,,,,,,,,,,11,21,Female,1.0,1.0,0.5178851416688607,0.0014272687899691836,2.9723505312684813,0.0010183969635511655,2.561503687247447,,,1.4191027219913159e-05,-0.0913085531572261,1.566,0.013887401220362021,2.1209999999999996,1.1933273912985096,0.7142857142857143,0.75,0.4,1.75,2.1666666666666665,1.0,2.0,3.2222222222222223,2.0,2.5555555555555554,2.25,1.5,3.0,1.25,,,,,,,,,,,,
34,240613_145202,LEARNING,1.0,35,3.0,917.0,,,,,,,,,,35.0,35.0,35.0,cue2.png,Hard,A,,,,,,,,,,,,,,,,,,,,,,,,,,,11,21,Female,0.6111111111111112,0.7777777777777778,0.7426568666681609,-0.0010280780414652592,-1.7099410558856059,-0.00011982633240199478,-0.06257827281437998,-0.0001408238501473761,-0.9468995021994415,-4.625387683252283e-05,-0.3403469476168631,1.113,-0.667799119983465,0.756,-1.4871932883275907,0.7142857142857143,0.75,0.4,1.75,2.1666666666666665,1.0,2.0,3.2222222222222223,2.0,2.5555555555555554,2.25,1.5,3.0,1.25,,,,,,,,,,,,
35,240613_145228,LEARNING,1.0,36,3.0,917.0,,,,,,,,,,36.0,36.0,36.0,cue2.png,Hard,A,,,,,,,,,,,,,,,,,,,,,,,,,,,11,21,Female,0.875,0.875,0.7299585083334629,,,,,2.126492930012644e-06,-0.476521541636324,0.00015263310865455898,0.47908516698542414,1.0549999999999997,-0.7550790719256772,0.8919999999999999,-1.2201230960718035,0.7142857142857143,0.75,0.4,1.75,2.1666666666666665,1.0,2.0,3.2222222222222223,2.0,2.5555555555555554,2.25,1.5,3.0,1.25,,,,,,,,,,,,
36,240613_145252,LEARNING,1.0,37,1.0,917.0,,,,,,,,,,37.0,37.0,37.0,cue1.png,Easy,A,,,,,,,,,,,,,,,,,,,,,,,,,,,11,21,Female,0.875,0.875,0.5288013166621871,,,-0.0003062827568345392,-0.4924385132704018,0.0006337354872673084,1.6017872209306958,-0.00016397071615951043,-0.8253508222433228,,,2.003,0.9616047244883423,0.7142857142857143,0.75,0.4,1.75,2.1666666666666665,1.0,2.0,3.2222222222222223,2.0,2.5555555555555554,2.25,1.5,3.0,1.25,,,,,,,,,,,,
37,240613_145319,LEARNING,1.0,38,3.0,917.0,,,,,,,,,,38.0,38.0,38.0,cue2.png,Hard,A,,,,,,,,,,,,,,,,,,,,,,,,,,,11,21,Female,0.6875,0.75,0.8054169000000305,-0.000480689540847048,-0.666083406719119,-0.0003444473147151423,-0.580423821780857,7.737120646636973e-05,-0.2289288871910894,-2.37506784011611e-06,-0.1595623419735084,1.6769999999999998,0.18092317131666363,2.013,0.9812422386247969,0.7142857142857143,0.75,0.4,1.75,2.1666666666666665,1.0,2.0,3.2222222222222223,2.0,2.5555555555555554,2.25,1.5,3.0,1.25,,,,,,,,,,,,
38,240613_145347,LEARNING,1.0,39,3.0,917.0,,,,,,,,,,39.0,39.0,39.0,cue2.png,Hard,A,,,,,,,,,,,,,,,,,,,,,,,,,,,11,21,Female,0.8518518518518517,0.8888888888888888,0.8737411583327533,-9.610978003045736e-05,0.06730161066730642,-0.00011688068049625806,-0.05578731004464281,-5.7654619978933074e-05,-0.6732312337220591,0.00021681895540180077,0.7435365789208065,2.508,1.4314342069024921,,,0.7142857142857143,0.75,0.4,1.75,2.1666666666666665,1.0,2.0,3.2222222222222223,2.0,2.5555555555555554,2.25,1.5,3.0,1.25,,,,,,,,,,,,
39,240613_145412,LEARNING,1.0,40,3.0,917.0,,,,,,,,,,40.0,40.0,40.0,cue2.png,Hard,A,,,,,,,,,,,,,,,,,,,,,,,,,,,11,21,Female,0.8518518518518517,0.8055555555555555,0.6012899363651575,,,,,0.0003330935311029624,0.6125251656187093,-0.0006703419210856618,-2.9116453387505152,1.362,-0.2930972573350037,1.511,-0.004560971025241886,0.7142857142857143,0.75,0.4,1.75,2.1666666666666665,1.0,2.0,3.2222222222222223,2.0,2.5555555555555554,2.25,1.5,3.0,1.25,,,,,,,,,,,,
40,240613_145437,LEARNING,1.0,41,1.0,917.0,,,,,,,,,,41.0,41.0,41.0,cue1.png,Easy,A,,,,,,,,,,,,,,,,,,,,,,,,,,,11,21,Female,1.0,1.0,0.606918150006095,-0.00031331957435578803,-0.3469126174801683,-0.00016531509227368357,-0.16744893798990193,,,,,1.0750000000000002,-0.7249825367731897,1.7800000000000002,0.5236881592453971,0.7142857142857143,0.75,0.4,1.75,2.1666666666666665,1.0,2.0,3.2222222222222223,2.0,2.5555555555555554,2.25,1.5,3.0,1.25,,,,,,,,,,,,
41,240613_145504,LEARNING,1.0,42,3.0,917.0,,,,,,,,,,42.0,42.0,42.0,cue2.png,Hard,A,,,,,,,,,,,,,,,,,,,,,,,,,,,11,21,Female,0.6111111111111112,0.7777777777777778,0.8028078500040768,,,-0.0004736571711763211,-0.8783067192821133,7.074773225963435e-05,-0.2507234224271465,-1.0026143589143832e-06,-0.15390771125174382,1.73,0.26067898947075396,,,0.7142857142857143,0.75,0.4,1.75,2.1666666666666665,1.0,2.0,3.2222222222222223,2.0,2.5555555555555554,2.25,1.5,3.0,1.25,,,,,,,,,,,,
42,240613_145532,LEARNING,1.0,43,3.0,917.0,,,,,,,,,,43.0,43.0,43.0,cue2.png,Hard,A,,,,,,,,,,,,,,,,,,,,,,,,,,,11,21,Female,0.9166666666666666,0.9166666666666666,0.8929224545400675,,,,,7.06336019259254e-05,-0.2510989681757799,0.00027032076199110314,0.9639687927287944,1.4609999999999999,-0.14411940833019418,0.9380000000000002,-1.1297905310441103,0.7142857142857143,0.75,0.4,1.75,2.1666666666666665,1.0,2.0,3.2222222222222223,2.0,2.5555555555555554,2.25,1.5,3.0,1.25,,,,,,,,,,,,
43,240613_145555,LEARNING,1.0,44,1.0,917.0,,,,,,,,,,44.0,44.0,44.0,cue1.png,Easy,A,,,,,,,,,,,,,,,,,,,,,,,,,,,11,21,Female,1.0,1.0,0.4851815749983264,-0.0009069707608746333,-1.4789921757547635,0.0006501418324740956,1.7125211988418427,-6.0821760332348696e-05,-0.6836527058793542,0.00019805122931435774,0.6662118739560925,0.904,-0.9823079123269524,2.1849999999999996,1.3190074817718216,0.7142857142857143,0.75,0.4,1.75,2.1666666666666665,1.0,2.0,3.2222222222222223,2.0,2.5555555555555554,2.25,1.5,3.0,1.25,,,,,,,,,,,,
44,240613_145618,LEARNING,1.0,45,1.0,917.0,,,,,,,,,,45.0,45.0,45.0,cue1.png,Easy,A,,,,,,,,,,,,,,,,,,,,,,,,,,,11,21,Female,0.8518518518518517,0.8888888888888888,0.4921334583268617,-0.00023900311955735339,-0.2051927974388837,-0.00028055161623603397,-0.43311744499108,,,-0.00010567871404063445,-0.5851825757203541,2.676,1.6842451021833817,1.469,-0.08703853039835234,0.7142857142857143,0.75,0.4,1.75,2.1666666666666665,1.0,2.0,3.2222222222222223,2.0,2.5555555555555554,2.25,1.5,3.0,1.25,,,,,,,,,,,,
45,240613_145642,LEARNING,1.0,46,1.0,917.0,,,,,,,,,,46.0,46.0,46.0,cue1.png,Easy,A,,,,,,,,,,,,,,,,,,,,,,,,,,,11,21,Female,0.875,0.875,0.5038803666611784,-0.0002524963962597061,-0.23092417484663597,,,0.0002266440572732246,0.2622532787164028,-5.3698346445362876e-05,-0.3710188262317573,1.2289999999999999,-0.4932392160990415,0.783,-1.4341720001591622,0.7142857142857143,0.75,0.4,1.75,2.1666666666666665,1.0,2.0,3.2222222222222223,2.0,2.5555555555555554,2.25,1.5,3.0,1.25,,,,,,,,,,,,
46,240613_145707,LEARNING,1.0,47,3.0,917.0,,,,,,,,,,47.0,47.0,47.0,cue2.png,Hard,A,,,,,,,,,,,,,,,,,,,,,,,,,,,11,21,Female,0.8518518518518517,0.8888888888888888,0.7026003333303379,-0.0009322903269068606,-1.5272760228696862,-0.0001351924941503874,-0.09800371875518113,5.1034679099688524e-05,-0.315589204084122,3.7332147630594545e-06,-0.13439567298382923,1.5020000000000002,-0.08242151126759562,,,0.7142857142857143,0.75,0.4,1.75,2.1666666666666665,1.0,2.0,3.2222222222222223,2.0,2.5555555555555554,2.25,1.5,3.0,1.25,,,,,,,,,,,,
47,240613_145733,LEARNING,1.0,48,3.0,917.0,,,,,,,,,,48.0,48.0,48.0,cue2.png,Hard,A,,,,,,,,,,,,,,,,,,,,,,,,,,,11,21,Female,0.6875,0.6666666666666666,0.5877728727328676,-0.00033584115048238775,-0.3898607603156232,,,-0.00012202491378409102,-0.8850416209453142,-4.3793486574825007e-05,-0.330209920366565,1.7209999999999996,0.24713554865213438,0.863,-1.2770718870675228,0.7142857142857143,0.75,0.4,1.75,2.1666666666666665,1.0,2.0,3.2222222222222223,2.0,2.5555555555555554,2.25,1.5,3.0,1.25,,,,,,,,,,,,
48,240613_145755,LEARNING,1.0,49,1.0,917.0,,,,,,,,,,49.0,49.0,49.0,cue1.png,Easy,A,,,,,,,,,,,,,,,,,,,,,,,,,,,11,21,Female,1.0,1.0,0.4667737666629061,-0.00019321306760620386,-0.11787219071997075,0.0002580371613219437,0.8085555203281968,,,0.00016867876453980843,0.5451946999949865,,,,,0.7142857142857143,0.75,0.4,1.75,2.1666666666666665,1.0,2.0,3.2222222222222223,2.0,2.5555555555555554,2.25,1.5,3.0,1.25,,,,,,,,,,,,
49,240613_145818,LEARNING,1.0,50,1.0,917.0,,,,,,,,,,50.0,50.0,50.0,cue1.png,Easy,A,,,,,,,,,,,,,,,,,,,,,,,,,,,11,21,Female,1.0,1.0,0.4692221666652282,-0.00010775279552525854,0.045098640071676424,-0.0003561809284110245,-0.6074747213145157,0.00014048764475287643,-0.021244310294744124,0.00041889445775038095,1.5761056673067924,2.101,0.8189697165493849,1.168,-0.6781277059056467,0.7142857142857143,0.75,0.4,1.75,2.1666666666666665,1.0,2.0,3.2222222222222223,2.0,2.5555555555555554,2.25,1.5,3.0,1.25,,,,,,,,,,,,
0,240613_150039,TrueCHOICE,9.0,1,1.0,917.0,,,,,,,,,,,1.0,1.0,,,A,,,,,,True,cue1.png,Easy,cue2.png,Hard,Left,Easy,Easy,0.0160235000075772,,,,,,,,,,,,,11,21,Female,0.8518518518518517,0.8888888888888888,0.6022421416685878,,,,,,,,,,,,,0.7142857142857143,0.75,0.4,1.75,2.1666666666666665,1.0,2.0,3.2222222222222223,2.0,2.5555555555555554,2.25,1.5,3.0,1.25,3.232473126660697e-05,0.6489551030673102,,,0.8080000000000003,-2.184286730724113,,,,,,
1,240613_150101,TrueCHOICE,9.0,2,1.0,917.0,,,,,,,,,,,2.0,2.0,,,A,,,,,,True,cue1.png,Easy,cue2.png,Hard,Left,Easy,Easy,0.0161366999964229,,,,,,,,,,,,,11,21,Female,,,,,,,,,,,,,,,,0.7142857142857143,0.75,0.4,1.75,2.1666666666666665,1.0,2.0,3.2222222222222223,2.0,2.5555555555555554,2.25,1.5,3.0,1.25,0.00012636260716726707,1.6413488231770728,-5.419138632953811e-05,0.37970840906933984,1.5849999999999997,0.7268466994176287,,,,,,
2,240613_150128,TrueCHOICE,9.0,3,1.0,917.0,,,,,,,,,,,4.0,3.0,,,A,,,,,,True,cue2.png,Hard,cue1.png,Easy,Right,Easy,Easy,0.0155086000158917,,,,,,,,,,,,,11,21,Female,1.0,1.0,0.4504593083329382,,,,,,,,,,,,,0.7142857142857143,0.75,0.4,1.75,2.1666666666666665,1.0,2.0,3.2222222222222223,2.0,2.5555555555555554,2.25,1.5,3.0,1.25,-0.00012706661094042098,-1.033122097540858,-4.2419966592622486e-05,0.5029931650433352,1.583,0.7193534344751797,,,,,,
3,240613_150150,TrueCHOICE,9.0,4,3.0,917.0,,,,,,,,,,,5.0,4.0,,,A,,,,,,True,cue1.png,Easy,cue2.png,Hard,Right,Hard,Hard,0.0168007000174839,,,,,,,,,,,,,11,21,Female,0.8518518518518517,0.8888888888888888,0.601234291670456,,,,,,,,,,,,,0.7142857142857143,0.75,0.4,1.75,2.1666666666666665,1.0,2.0,3.2222222222222223,2.0,2.5555555555555554,2.25,1.5,3.0,1.25,,,,,,,,,,,,
4,240613_150211,TrueCHOICE,9.0,5,1.0,917.0,,,,,,,,,,,6.0,5.0,,,A,,,,,,True,cue2.png,Hard,cue1.png,Easy,Right,Easy,Easy,0.0169041999906767,,,,,,,,,,,,,11,21,Female,1.0,1.0,0.7087222583310601,,,,,,,,,,,,,0.7142857142857143,0.75,0.4,1.75,2.1666666666666665,1.0,2.0,3.2222222222222223,2.0,2.5555555555555554,2.25,1.5,3.0,1.25,,,-0.0002514993128362201,-1.6867423772217116,,,,,,,,
5,240613_150231,TrueCHOICE,9.0,6,1.0,917.0,,,,,,,,,,,7.0,6.0,,,A,,,,,,True,cue2.png,Hard,cue1.png,Easy,Right,Easy,Easy,0.0165750999876763,,,,,,,,,,,,,11,21,Female,1.0,1.0,0.430322283335651,,,,,,,,,,,,,0.7142857142857143,0.75,0.4,1.75,2.1666666666666665,1.0,2.0,3.2222222222222223,2.0,2.5555555555555554,2.25,1.5,3.0,1.25,-7.767561884192533e-05,-0.5118926469701446,-4.125662538916313e-05,0.5151771020355065,1.451,0.22479794827349392,,,,,,
6,240613_150252,TrueCHOICE,9.0,7,1.0,917.0,,,,,,,,,,,8.0,7.0,,,A,,,,,,True,cue1.png,Easy,cue2.png,Hard,Left,Easy,Easy,0.0154976999911013,,,,,,,,,,,,,11,21,Female,,,,,,,,,,,,,,,,0.7142857142857143,0.75,0.4,1.75,2.1666666666666665,1.0,2.0,3.2222222222222223,2.0,2.5555555555555554,2.25,1.5,3.0,1.25,,,2.903549970138114e-05,1.2513625140215017,1.454,0.2360378456871682,,,,,,
7,240613_150313,TrueCHOICE,9.0,8,1.0,917.0,,,,,,,,,,,9.0,8.0,,,A,,,,,,True,cue2.png,Hard,cue1.png,Easy,Right,Easy,Easy,0.0164727000228595,,,,,,,,,,,,,11,21,Female,1.0,1.0,0.4662664500016641,,,,,,,,,,,,,0.7142857142857143,0.75,0.4,1.75,2.1666666666666665,1.0,2.0,3.2222222222222223,2.0,2.5555555555555554,2.25,1.5,3.0,1.25,-9.979195626623081e-05,-0.7452891817333805,,,1.465,0.2772508028706425,,,,,,
8,240613_150335,TrueCHOICE,9.0,9,3.0,917.0,,,,,,,,,,,10.0,9.0,,,A,,,,,,True,cue1.png,Easy,cue2.png,Hard,Right,Hard,Hard,0.0155993999796919,,,,,,,,,,,,,11,21,Female,0.8518518518518517,0.8888888888888888,0.5645402166701388,,,,,,,,,,,,,0.7142857142857143,0.75,0.4,1.75,2.1666666666666665,1.0,2.0,3.2222222222222223,2.0,2.5555555555555554,2.25,1.5,3.0,1.25,,,,,,,,,,,,
9,240613_150355,TrueCHOICE,9.0,10,1.0,917.0,,,,,,,,,,,11.0,10.0,,,A,,,,,,True,cue2.png,Hard,cue1.png,Easy,Right,Easy,Easy,0.0165547000069636,,,,,,,,,,,,,11,21,Female,0.8518518518518517,0.8888888888888888,0.4691772583367613,,,,,,,,,,,,,0.7142857142857143,0.75,0.4,1.75,2.1666666666666665,1.0,2.0,3.2222222222222223,2.0,2.5555555555555554,2.25,1.5,3.0,1.25,,,-0.00018234741388916537,-0.9624988129479711,,,,,,,,
0,240613_150550,FalseCHOICE,9.0,1,2.0,917.0,,,,,,,,,,,1.0,1.0,,,A,,,,,,False,cue1.png,Easy,cue2.png,Hard,Left,Easy,Mid,0.0160359000146854,,,,,,,,,,,,,11,21,Female,1.0,1.0,0.4991361916642442,,,,,,,,,,,,,0.7142857142857143,0.75,0.4,1.75,2.1666666666666665,1.0,2.0,3.2222222222222223,2.0,2.5555555555555554,2.25,1.5,3.0,1.25,3.232473126660697e-05,0.6489551030673102,,,0.8080000000000003,-2.184286730724113,,,,,,
1,240613_150614,FalseCHOICE,9.0,2,2.0,917.0,,,,,,,,,,,2.0,2.0,,,A,,,,,,False,cue2.png,Hard,cue1.png,Easy,Left,Hard,Mid,0.0160504999803379,,,,,,,,,,,,,11,21,Female,,,,,,,,,,,,,,,,0.7142857142857143,0.75,0.4,1.75,2.1666666666666665,1.0,2.0,3.2222222222222223,2.0,2.5555555555555554,2.25,1.5,3.0,1.25,0.00012636260716726707,1.6413488231770728,-5.419138632953811e-05,0.37970840906933984,1.5849999999999997,0.7268466994176287,,,,,,
2,240613_150639,FalseCHOICE,9.0,3,2.0,917.0,,,,,,,,,,,3.0,3.0,,,A,,,,,,False,cue2.png,Hard,cue1.png,Easy,Left,Hard,Mid,0.0150161999918054,,,,,,,,,,,,,11,21,Female,,,,,,,,,,,,,,,,0.7142857142857143,0.75,0.4,1.75,2.1666666666666665,1.0,2.0,3.2222222222222223,2.0,2.5555555555555554,2.25,1.5,3.0,1.25,-0.00012706661094042098,-1.033122097540858,-4.2419966592622486e-05,0.5029931650433352,1.583,0.7193534344751797,,,,,,
3,240613_150704,FalseCHOICE,9.0,4,2.0,917.0,,,,,,,,,,,4.0,4.0,,,A,,,,,,False,cue2.png,Hard,cue1.png,Easy,Right,Easy,Mid,0.0155267000081948,,,,,,,,,,,,,11,21,Female,0.875,0.875,0.7552436833332953,,,,,,,,,,,,,0.7142857142857143,0.75,0.4,1.75,2.1666666666666665,1.0,2.0,3.2222222222222223,2.0,2.5555555555555554,2.25,1.5,3.0,1.25,,,,,,,,,,,,
4,240613_150727,FalseCHOICE,9.0,5,2.0,917.0,,,,,,,,,,,5.0,5.0,,,A,,,,,,False,cue1.png,Easy,cue2.png,Hard,Right,Hard,Mid,0.0165682999941054,,,,,,,,,,,,,11,21,Female,,,,,,,,,,,,,,,,0.7142857142857143,0.75,0.4,1.75,2.1666666666666665,1.0,2.0,3.2222222222222223,2.0,2.5555555555555554,2.25,1.5,3.0,1.25,,,-0.0002514993128362201,-1.6867423772217116,,,,,,,,
5,240613_150753,FalseCHOICE,9.0,6,2.0,917.0,,,,,,,,,,,6.0,6.0,,,A,,,,,,False,cue2.png,Hard,cue1.png,Easy,Left,Hard,Mid,0.014548500010278,,,,,,,,,,,,,11,21,Female,0.8518518518518517,0.8888888888888888,0.8521765083326803,,,,,,,,,,,,,0.7142857142857143,0.75,0.4,1.75,2.1666666666666665,1.0,2.0,3.2222222222222223,2.0,2.5555555555555554,2.25,1.5,3.0,1.25,-7.767561884192533e-05,-0.5118926469701446,-4.125662538916313e-05,0.5151771020355065,1.451,0.22479794827349392,,,,,,
6,240613_150817,FalseCHOICE,9.0,7,2.0,917.0,,,,,,,,,,,7.0,7.0,,,A,,,,,,False,cue2.png,Hard,cue1.png,Easy,Right,Easy,Mid,0.0165026999893598,,,,,,,,,,,,,11,21,Female,1.0,1.0,0.4531901250011287,,,,,,,,,,,,,0.7142857142857143,0.75,0.4,1.75,2.1666666666666665,1.0,2.0,3.2222222222222223,2.0,2.5555555555555554,2.25,1.5,3.0,1.25,,,2.903549970138114e-05,1.2513625140215017,1.454,0.2360378456871682,,,,,,
7,240613_150841,FalseCHOICE,9.0,8,2.0,917.0,,,,,,,,,,,8.0,8.0,,,A,,,,,,False,cue1.png,Easy,cue2.png,Hard,Left,Easy,Mid,0.0167111000046134,,,,,,,,,,,,,11,21,Female,,,,,,,,,,,,,,,,0.7142857142857143,0.75,0.4,1.75,2.1666666666666665,1.0,2.0,3.2222222222222223,2.0,2.5555555555555554,2.25,1.5,3.0,1.25,-9.979195626623081e-05,-0.7452891817333805,,,1.465,0.2772508028706425,,,,,,
8,240613_150905,FalseCHOICE,9.0,9,2.0,917.0,,,,,,,,,,,9.0,9.0,,,A,,,,,,False,cue1.png,Easy,cue2.png,Hard,Right,Hard,Mid,0.0163774999964516,,,,,,,,,,,,,11,21,Female,1.0,1.0,0.753532766670105,,,,,,,,,,,,,0.7142857142857143,0.75,0.4,1.75,2.1666666666666665,1.0,2.0,3.2222222222222223,2.0,2.5555555555555554,2.25,1.5,3.0,1.25,,,,,,,,,,,,
9,240613_150928,FalseCHOICE,9.0,10,2.0,917.0,,,,,,,,,,,10.0,10.0,,,A,,,,,,False,cue2.png,Hard,cue1.png,Easy,Right,Easy,Mid,0.0166067999962251,,,,,,,,,,,,,11,21,Female,,,,,,,,,,,,,,,,0.7142857142857143,0.75,0.4,1.75,2.1666666666666665,1.0,2.0,3.2222222222222223,2.0,2.5555555555555554,2.25,1.5,3.0,1.25,,,-0.00018234741388916537,-0.9624988129479711,,,,,,,,
0,240613_143649,OFFLINERATING,9.0,1,1.0,,,,,,,,,,,,,,,,,T0,cue1.png,Easy,50.0,2.443202399997972,,,,,,,,,,,,,,,,,,,,,,11,21,Female,,,,,,,,,,,,,,,,0.7142857142857143,0.75,0.4,1.75,2.1666666666666665,1.0,2.0,3.2222222222222223,2.0,2.5555555555555554,2.25,1.5,3.0,1.25,,,,,,,-0.0009992828880408576,-1.4016204652376352,,,,
1,240613_143657,OFFLINERATING,9.0,2,3.0,,,,,,,,,,,,,,,,,T0,cue2.png,Hard,38.0,1.4023270000179764,,,,,,,,,,,,,,,,,,,,,,11,21,Female,,,,,,,,,,,,,,,,0.7142857142857143,0.75,0.4,1.75,2.1666666666666665,1.0,2.0,3.2222222222222223,2.0,2.5555555555555554,2.25,1.5,3.0,1.25,,,,,,,-0.00026724901243802566,0.8638901319635142,,,1.139,-1.4111921352377192
2,240613_145931,OFFLINERATING,9.0,3,1.0,,,,,,,,,,,,,,,,,T1,cue1.png,Easy,76.0,1.3432661000115331,,,,,,,,,,,,,,,,,,,,,,11,21,Female,,,,,,,,,,,,,,,,0.7142857142857143,0.75,0.4,1.75,2.1666666666666665,1.0,2.0,3.2222222222222223,2.0,2.5555555555555554,2.25,1.5,3.0,1.25,,,,,,,,,-5.148233257021989e-05,-1.0,1.592,0.785612116524092
3,240613_145939,OFFLINERATING,9.0,4,3.0,,,,,,,,,,,,,,,,,T1,cue2.png,Hard,5.0,1.3112437000090722,,,,,,,,,,,,,,,,,,,,,,11,21,Female,,,,,,,,,,,,,,,,0.7142857142857143,0.75,0.4,1.75,2.1666666666666665,1.0,2.0,3.2222222222222223,2.0,2.5555555555555554,2.25,1.5,3.0,1.25,,,,,,,,,,,,
4,240613_150419,OFFLINERATING,9.0,5,1.0,,,,,,,,,,,,,,,,,T2,cue1.png,Easy,71.0,0.8018411000084598,,,,,,,,,,,,,,,,,,,,,,11,21,Female,,,,,,,,,,,,,,,,0.7142857142857143,0.75,0.4,1.75,2.1666666666666665,1.0,2.0,3.2222222222222223,2.0,2.5555555555555554,2.25,1.5,3.0,1.25,,,,,,,-0.00037263806768914835,0.5377303332741211,,,,
5,240613_150426,OFFLINERATING,9.0,6,3.0,,,,,,,,,,,,,,,,,T2,cue2.png,Hard,27.0,0.5517375999770593,,,,,,,,,,,,,,,,,,,,,,11,21,Female,,,,,,,,,,,,,,,,0.7142857142857143,0.75,0.4,1.75,2.1666666666666665,1.0,2.0,3.2222222222222223,2.0,2.5555555555555554,2.25,1.5,3.0,1.25,,,,,,,,,,,1.559,0.6255800187136283
6,240613_152628,OFFLINERATING,9.0,7,1.0,,,,,,,,,,,,,,,,,T3,cue1.png,Easy,57.0,1.025101899984293,,,,,,,,,,,,,,,,,,,,,,11,21,Female,,,,,,,,,,,,,,,,0.7142857142857143,0.75,0.4,1.75,2.1666666666666665,1.0,2.0,3.2222222222222223,2.0,2.5555555555555554,2.25,1.5,3.0,1.25,,,,,,,,,,,,
7,240613_152635,OFFLINERATING,9.0,8,3.0,,,,,,,,,,,,,,,,,T3,cue2.png,Hard,58.0,0.5680249000142794,,,,,,,,,,,,,,,,,,,,,,11,21,Female,,,,,,,,,,,,,,,,0.7142857142857143,0.75,0.4,1.75,2.1666666666666665,1.0,2.0,3.2222222222222223,2.0,2.5555555555555554,2.25,1.5,3.0,1.25,,,,,,,,,9.43362298279609e-05,1.0,,
