,END,Phase,Block,TrialN,NbackLevel,ISI,Letter_Resp,Letter_RT,Letter_Accuracy,Trial_A_measure,Trial_ACC,Trial_RT,TrialCountCali,CaliEnd_A_measure,ISI_calibrated,TrialIndex,TrialNumber_total,TrialNumber_valid,CueLearning,TrialDemandLearning,CueMapping,OfflineRatingTimePoint,CueFigure,TrialDemand,OfflineRating,OfflineRatingRT,PhaseType,CueLeft,CueDemandLeft,CueRight,CueDemandRight,Choice,ChoiceDemand,TaskDemand,ChoiceRT,CueCheck,CueDemandCheck,CorrectAnswer,Answer,AnswerDemand,AnswerRT,AnswerACC,DemandRatingQuesIndex,QuesTLX,DemandLevel,DemandRating,DemandRatingRT,PID,Age,Gender,Task_A_measure,Task_ACC,Task_RT,cue_i_on_zyg_values,cue_i_on_zyg_zvalues,cue_e_on_zyg_values,cue_e_on_zyg_zvalues,cue_i_on_cor_values,cue_i_on_cor_zvalues,cue_e_on_cor_values,cue_e_on_cor_zvalues,cue_i_on_scr_values,cue_i_on_scr_zvalues,cue_e_on_scr_values,cue_e_on_scr_zvalues,BAI_bis,BAI_bas_d,BAI_bas_rr,BAI_bas_fs,NFC,BFI_ext,BFI_agr,BFI_con,BFI_neu,BFI_open,UPPS_lps,UPPS_lpm,UPPS_pu,UPPS_ss,cue_e_true_zyg_values,cue_e_true_zyg_zvalues,cue_e_true_cor_values,cue_e_true_cor_zvalues,cue_e_true_scr_values,cue_e_true_scr_zvalues,cue_i_off_zyg_values,cue_i_off_zyg_zvalues,cue_i_off_cor_values,cue_i_off_cor_zvalues,cue_i_off_scr_values,cue_i_off_scr_zvalues
0,240614_092912,LEARNING,1.0,1,1.0,788.0,,,,,,,,,,1.0,1.0,1.0,cue2.png,Easy,B,,,,,,,,,,,,,,,,,,,,,,,,,,,12,24,Female,0.8819444444444444,0.8888888888888888,0.5786193230753549,-0.003232378264036326,-3.4827119639926196,0.00278698294133948,1.1701284298496701,-0.0007445083495857098,-1.2894957385369288,0.0015653027059435278,1.5212434130402788,1.3599999999999999,-0.09983467541074624,,,1.2857142857142858,0.25,0.0,0.5,2.2777777777777777,2.625,2.5555555555555554,2.7777777777777777,1.75,2.888888888888889,2.25,2.0,2.5,0.25,,,,,,,,,,,,
1,240614_092936,LEARNING,1.0,2,3.0,788.0,,,,,,,,,,2.0,2.0,2.0,cue1.png,Hard,B,,,,,,,,,,,,,,,,,,,,,,,,,,,12,24,Female,0.7083333333333333,0.7777777777777778,0.4590102307713375,-5.078357130029222e-05,-0.32042031877029625,0.0002547114487863205,-0.210706006205547,0.0003321441897404442,0.5344187844340447,,,1.46,0.07666861813311446,1.1300000000000001,-0.7671960120711957,1.2857142857142858,0.25,0.0,0.5,2.2777777777777777,2.625,2.5555555555555554,2.7777777777777777,1.75,2.888888888888889,2.25,2.0,2.5,0.25,,,,,,,,,,,,
2,240614_093002,LEARNING,1.0,3,1.0,788.0,,,,,,,,,,3.0,3.0,3.0,cue2.png,Easy,B,,,,,,,,,,,,,,,,,,,,,,,,,,,12,24,Female,1.0,1.0,0.671348246150256,0.0001856198237255688,-0.08545120636283574,0.0002004366760865314,-0.24030175665068418,-0.00011339560813861203,-0.22035258165752875,0.0010616539053785543,0.8566468025154333,1.1669999999999998,-0.4404860319503972,1.598,0.14867336628253425,1.2857142857142858,0.25,0.0,0.5,2.2777777777777777,2.625,2.5555555555555554,2.7777777777777777,1.75,2.888888888888889,2.25,2.0,2.5,0.25,,,,,,,,,,,,
3,240614_093027,LEARNING,1.0,4,3.0,788.0,,,,,,,,,,4.0,4.0,4.0,cue1.png,Hard,B,,,,,,,,,,,,,,,,,,,,,,,,,,,12,24,Female,0.7083333333333333,0.7777777777777778,0.5494086153876896,5.660537010437764e-05,-0.21368291662143232,0.0005001463061848725,-0.07687165870336754,2.0448050306203815e-05,0.006386671284607548,0.0005756258361110751,0.215301867130382,1.587,0.30082780093381734,1.591,0.13497446532425172,1.2857142857142858,0.25,0.0,0.5,2.2777777777777777,2.625,2.5555555555555554,2.7777777777777777,1.75,2.888888888888889,2.25,2.0,2.5,0.25,,,,,,,,,,,,
4,240614_093053,LEARNING,1.0,5,3.0,788.0,,,,,,,,,,5.0,5.0,5.0,cue1.png,Hard,B,,,,,,,,,,,,,,,,,,,,,,,,,,,12,24,Female,1.0,1.0,0.62788684615337,8.026560339475294e-06,-0.26196699397582607,0.00017874066816132806,-0.25213247660158566,-4.066251989187815e-05,-0.0971383309051228,0.00021174030237132348,-0.2648682277277411,,,,,1.2857142857142858,0.25,0.0,0.5,2.2777777777777777,2.625,2.5555555555555554,2.7777777777777777,1.75,2.888888888888889,2.25,2.0,2.5,0.25,,,,,,,,,,,,
5,240614_093119,LEARNING,1.0,6,1.0,788.0,,,,,,,,,,6.0,6.0,6.0,cue2.png,Easy,B,,,,,,,,,,,,,,,,,,,,,,,,,,,12,24,Female,1.0,1.0,0.6756082076910668,-0.0007031308310889105,-0.9688097236568153,0.0001494670653230299,-0.2680952195323487,0.0007178596907418833,1.1878441731410252,8.031072496677422e-05,-0.4382979104109781,,,,,1.2857142857142858,0.25,0.0,0.5,2.2777777777777777,2.625,2.5555555555555554,2.7777777777777777,1.75,2.888888888888889,2.25,2.0,2.5,0.25,,,,,,,,,,,,
6,240614_093144,LEARNING,1.0,7,3.0,788.0,,,,,,,,,,7.0,7.0,7.0,cue1.png,Hard,B,,,,,,,,,,,,,,,,,,,,,,,,,,,12,24,Female,0.8819444444444444,0.8888888888888888,0.5536172307687454,0.0005110728609186315,0.23802727528587617,-0.00019679026996248863,-0.4569075383161033,0.0015297610598000574,2.563254200197697,-0.0020373050812022885,-3.232626588638894,1.444,0.04842809116609674,,,1.2857142857142858,0.25,0.0,0.5,2.2777777777777777,2.625,2.5555555555555554,2.7777777777777777,1.75,2.888888888888889,2.25,2.0,2.5,0.25,,,,,,,,,,,,
7,240614_093210,LEARNING,1.0,8,3.0,788.0,,,,,,,,,,8.0,8.0,8.0,cue1.png,Hard,B,,,,,,,,,,,,,,,,,,,,,,,,,,,12,24,Female,0.8819444444444444,0.8888888888888888,0.6207484461505933,-8.883682205136157e-05,-0.3582426967112694,5.93324667817665e-05,-0.3172451459568259,-0.0007379676619400262,-1.2784154180515048,0.00039362706653795626,-0.02485707942583681,,,,,1.2857142857142858,0.25,0.0,0.5,2.2777777777777777,2.625,2.5555555555555554,2.7777777777777777,1.75,2.888888888888889,2.25,2.0,2.5,0.25,,,,,,,,,,,,
8,240614_093235,LEARNING,1.0,9,1.0,788.0,,,,,,,,,,9.0,9.0,9.0,cue2.png,Easy,B,,,,,,,,,,,,,,,,,,,,,,,,,,,12,24,Female,1.0,1.0,0.5065425615377115,0.0005998945023843768,0.32631002712832236,0.0018284342836877255,0.6474368468134726,0.0002429492714692968,0.38331719792613195,0.0010733024969211613,0.8720178595852025,,,,,1.2857142857142858,0.25,0.0,0.5,2.2777777777777777,2.625,2.5555555555555554,2.7777777777777777,1.75,2.888888888888889,2.25,2.0,2.5,0.25,,,,,,,,,,,,
9,240614_093301,LEARNING,1.0,10,1.0,788.0,,,,,,,,,,10.0,10.0,10.0,cue2.png,Easy,B,,,,,,,,,,,,,,,,,,,,,,,,,,,12,24,Female,1.0,1.0,0.6810971769199778,0.0001930162027432617,-0.07809970190315424,8.139746200156329e-05,-0.3052132191588941,-3.9343713096276316e-05,-0.09490419242531534,0.0006767447481626368,0.3487346999576256,,,,,1.2857142857142858,0.25,0.0,0.5,2.2777777777777777,2.625,2.5555555555555554,2.7777777777777777,1.75,2.888888888888889,2.25,2.0,2.5,0.25,,,,,,,,,,,,
10,240614_093327,LEARNING,1.0,11,3.0,788.0,,,,,,,,,,11.0,11.0,11.0,cue1.png,Hard,B,,,,,,,,,,,,,,,,,,,,,,,,,,,12,24,Female,0.8819444444444444,0.8888888888888888,0.6163194923093005,0.0002275318561995106,-0.04379345830673252,0.005218792957885718,2.4961817470654424,-0.0002958569332420233,-0.5294531025599605,0.0008648595251958984,0.596964107166974,0.16199999999999992,-2.2143441320661954,,,1.2857142857142858,0.25,0.0,0.5,2.2777777777777777,2.625,2.5555555555555554,2.7777777777777777,1.75,2.888888888888889,2.25,2.0,2.5,0.25,,,,,,,,,,,,
11,240614_093353,LEARNING,1.0,12,1.0,788.0,,,,,,,,,,12.0,12.0,12.0,cue2.png,Easy,B,,,,,,,,,,,,,,,,,,,,,,,,,,,12,24,Female,1.0,1.0,0.6624740384599695,,,,,,,-0.0008534306311751691,-1.670428990049581,,,0.688,-1.6321837582941634,1.2857142857142858,0.25,0.0,0.5,2.2777777777777777,2.625,2.5555555555555554,2.7777777777777777,1.75,2.888888888888889,2.25,2.0,2.5,0.25,,,,,,,,,,,,
12,240614_093420,LEARNING,1.0,13,1.0,788.0,,,,,,,,,,13.0,13.0,13.0,cue2.png,Easy,B,,,,,,,,,,,,,,,,,,,,,,,,,,,12,24,Female,0.8819444444444444,0.8888888888888888,0.6453270153858914,,,,,,,-0.00030936963444795715,-0.9525059175870504,1.0390000000000001,-0.6664102476865381,0.651,-1.704592234787941,1.2857142857142858,0.25,0.0,0.5,2.2777777777777777,2.625,2.5555555555555554,2.7777777777777777,1.75,2.888888888888889,2.25,2.0,2.5,0.25,,,,,,,,,,,,
13,240614_093446,LEARNING,1.0,14,1.0,788.0,,,,,,,,,,14.0,14.0,14.0,cue2.png,Easy,B,,,,,,,,,,,,,,,,,,,,,,,,,,,12,24,Female,1.0,1.0,0.6250688153825019,0.0015413275449006401,1.2620313029031591,0.0022524317918618322,0.878640476365101,-0.0006332794670245098,-1.1010672837968531,0.0005770076498722567,0.2171252582335232,,,,,1.2857142857142858,0.25,0.0,0.5,2.2777777777777777,2.625,2.5555555555555554,2.7777777777777777,1.75,2.888888888888889,2.25,2.0,2.5,0.25,,,,,,,,,,,,
14,240614_093512,LEARNING,1.0,15,3.0,788.0,,,,,,,,,,15.0,15.0,15.0,cue1.png,Hard,B,,,,,,,,,,,,,,,,,,,,,,,,,,,12,24,Female,0.8819444444444444,0.8888888888888888,0.6325792307638599,,,-0.0040401911808679485,-2.552694007085837,,,0.0009050923636092427,0.650053895152785,,,,,1.2857142857142858,0.25,0.0,0.5,2.2777777777777777,2.625,2.5555555555555554,2.7777777777777777,1.75,2.888888888888889,2.25,2.0,2.5,0.25,,,,,,,,,,,,
15,240614_093538,LEARNING,1.0,16,1.0,788.0,,,,,,,,,,16.0,16.0,16.0,cue2.png,Easy,B,,,,,,,,,,,,,,,,,,,,,,,,,,,12,24,Female,1.0,1.0,0.6973674153828492,,,0.0009551646440053999,0.17124746744360908,0.0005035251470450093,0.8247484920889415,0.0011060258357743508,0.9151983855042355,,,0.9650000000000001,-1.0900986775164212,1.2857142857142858,0.25,0.0,0.5,2.2777777777777777,2.625,2.5555555555555554,2.7777777777777777,1.75,2.888888888888889,2.25,2.0,2.5,0.25,,,,,,,,,,,,
16,240614_093605,LEARNING,1.0,17,1.0,788.0,,,,,,,,,,17.0,17.0,17.0,cue2.png,Easy,B,,,,,,,,,,,,,,,,,,,,,,,,,,,12,24,Female,1.0,1.0,0.6658277461515704,0.0011925899877730803,0.9154095707895201,0.0036332351393524656,1.6315853392056159,7.425374313244602e-06,-0.01567452952430858,,,,,,,1.2857142857142858,0.25,0.0,0.5,2.2777777777777777,2.625,2.5555555555555554,2.7777777777777777,1.75,2.888888888888889,2.25,2.0,2.5,0.25,,,,,,,,,,,,
17,240614_093631,LEARNING,1.0,18,3.0,788.0,,,,,,,,,,18.0,18.0,18.0,cue1.png,Hard,B,,,,,,,,,,,,,,,,,,,,,,,,,,,12,24,Female,0.8819444444444444,0.8888888888888888,0.618486999997493,-0.00011229385219287211,-0.38155741074683913,,,0.0004722517613311994,0.7717694851183263,0.00013557492176574258,-0.36537328945532027,,,,,1.2857142857142858,0.25,0.0,0.5,2.2777777777777777,2.625,2.5555555555555554,2.7777777777777777,1.75,2.888888888888889,2.25,2.0,2.5,0.25,,,,,,,,,,,,
18,240614_093657,LEARNING,1.0,19,3.0,788.0,,,,,,,,,,19.0,19.0,19.0,cue1.png,Hard,B,,,,,,,,,,,,,,,,,,,,,,,,,,,12,24,Female,0.8819444444444444,0.8888888888888888,0.6442631461541168,0.0001093280385575596,-0.16128012177645223,0.0031757679043455927,1.382130842196862,,,0.0008976419469815095,0.640222596771383,,,,,1.2857142857142858,0.25,0.0,0.5,2.2777777777777777,2.625,2.5555555555555554,2.7777777777777777,1.75,2.888888888888889,2.25,2.0,2.5,0.25,,,,,,,,,,,,
19,240614_093726,LEARNING,1.0,20,3.0,788.0,,,,,,,,,,20.0,20.0,20.0,cue1.png,Hard,B,,,,,,,,,,,,,,,,,,,,,,,,,,,12,24,Female,1.0,0.9230769230769232,0.8056546749988532,,,1.78062328692369e-05,-0.3398891847001958,,,,,,,2.374,1.6672943868006849,1.2857142857142858,0.25,0.0,0.5,2.2777777777777777,2.625,2.5555555555555554,2.7777777777777777,1.75,2.888888888888889,2.25,2.0,2.5,0.25,,,,,,,,,,,,
20,240614_093752,LEARNING,1.0,21,1.0,788.0,,,,,,,,,,21.0,21.0,21.0,cue2.png,Easy,B,,,,,,,,,,,,,,,,,,,,,,,,,,,12,24,Female,0.8819444444444444,0.8888888888888888,0.6698534615413967,0.00013991382836218806,-0.13087989896286478,-0.00012759321535650743,-0.4191747453851233,-0.00010781818515008881,-0.21090408976441857,0.0004005275876765137,-0.015751403100596167,0.9870000000000001,-0.7581919603293457,0.536,-1.9296456076740072,1.2857142857142858,0.25,0.0,0.5,2.2777777777777777,2.625,2.5555555555555554,2.7777777777777777,1.75,2.888888888888889,2.25,2.0,2.5,0.25,,,,,,,,,,,,
21,240614_093819,LEARNING,1.0,22,3.0,788.0,,,,,,,,,,22.0,22.0,22.0,cue1.png,Hard,B,,,,,,,,,,,,,,,,,,,,,,,,,,,12,24,Female,0.8819444444444444,0.8888888888888888,0.6979574615408917,0.0007808914085617349,0.506208807297439,0.003932068891857971,1.7945378256703115,-0.00026996666780442977,-0.48559342693540386,,,1.2719999999999998,-0.25515757372934367,1.6309999999999998,0.2132538993715787,1.2857142857142858,0.25,0.0,0.5,2.2777777777777777,2.625,2.5555555555555554,2.7777777777777777,1.75,2.888888888888889,2.25,2.0,2.5,0.25,,,,,,,,,,,,
22,240614_093844,LEARNING,1.0,23,3.0,788.0,,,,,,,,,,23.0,23.0,23.0,cue1.png,Hard,B,,,,,,,,,,,,,,,,,,,,,,,,,,,12,24,Female,0.8819444444444444,0.8888888888888888,0.526164999995112,,,0.00019330463850259546,-0.24419081954307154,,,0.0006893117469943658,0.3653176538307767,,,2.362,1.6438105565864867,1.2857142857142858,0.25,0.0,0.5,2.2777777777777777,2.625,2.5555555555555554,2.7777777777777777,1.75,2.888888888888889,2.25,2.0,2.5,0.25,,,,,,,,,,,,
23,240614_093910,LEARNING,1.0,24,3.0,788.0,,,,,,,,,,24.0,24.0,24.0,cue1.png,Hard,B,,,,,,,,,,,,,,,,,,,,,,,,,,,12,24,Female,1.0,1.0,0.6807268230790774,5.081114746148703e-05,-0.21944198514640964,0.0009073318878262213,0.14516451500431563,1.1842253121273696e-05,-0.00819206966849566,0.001225253406822612,1.0725267450891254,1.077,-0.5993389961398714,2.15,1.2289295561356515,1.2857142857142858,0.25,0.0,0.5,2.2777777777777777,2.625,2.5555555555555554,2.7777777777777777,1.75,2.888888888888889,2.25,2.0,2.5,0.25,,,,,,,,,,,,
24,240614_093936,LEARNING,1.0,25,1.0,788.0,,,,,,,,,,25.0,25.0,25.0,cue2.png,Easy,B,,,,,,,,,,,,,,,,,,,,,,,,,,,12,24,Female,1.0,1.0,0.5809822692311942,0.0011789467248712743,0.901849082903852,0.00040173296411220166,-0.13053594079194097,0.0005776314059208823,0.9502889769433648,-0.0003773220847293505,-1.0421734956359057,0.712,-1.2435760175749624,1.9420000000000002,0.8218764990895496,1.2857142857142858,0.25,0.0,0.5,2.2777777777777777,2.625,2.5555555555555554,2.7777777777777777,1.75,2.888888888888889,2.25,2.0,2.5,0.25,,,,,,,,,,,,
25,240614_094002,LEARNING,1.0,26,1.0,788.0,,,,,,,,,,26.0,26.0,26.0,cue2.png,Easy,B,,,,,,,,,,,,,,,,,,,,,,,,,,,12,24,Female,1.0,1.0,0.6896492076966052,,,,,-0.0008465903672561256,-1.462428850903692,,,1.9,0.8532831097261007,0.938,-1.1429372954983674,1.2857142857142858,0.25,0.0,0.5,2.2777777777777777,2.625,2.5555555555555554,2.7777777777777777,1.75,2.888888888888889,2.25,2.0,2.5,0.25,,,,,,,,,,,,
26,240614_094028,LEARNING,1.0,27,3.0,788.0,,,,,,,,,,27.0,27.0,27.0,cue1.png,Hard,B,,,,,,,,,,,,,,,,,,,,,,,,,,,12,24,Female,0.8819444444444444,0.8888888888888888,0.5791674923071136,1.1483388330266013e-06,-0.2688034846367802,,,,,,,2.184,1.3545524633906652,1.8039999999999998,0.5518124516262696,1.2857142857142858,0.25,0.0,0.5,2.2777777777777777,2.625,2.5555555555555554,2.7777777777777777,1.75,2.888888888888889,2.25,2.0,2.5,0.25,,,,,,,,,,,,
27,240614_094056,LEARNING,1.0,28,1.0,788.0,,,,,,,,,,28.0,28.0,28.0,cue2.png,Easy,B,,,,,,,,,,,,,,,,,,,,,,,,,,,12,24,Female,0.7083333333333333,0.6239316239316239,0.7680133363623596,,,0.003785211140276443,1.714457059772277,,,0.0011315767451488923,0.9489144347574038,2.057,1.130393280589962,1.137,-0.7534971111129136,1.2857142857142858,0.25,0.0,0.5,2.2777777777777777,2.625,2.5555555555555554,2.7777777777777777,1.75,2.888888888888889,2.25,2.0,2.5,0.25,,,,,,,,,,,,
28,240614_094121,LEARNING,1.0,29,1.0,788.0,,,,,,,,,,29.0,29.0,29.0,cue2.png,Easy,B,,,,,,,,,,,,,,,,,,,,,,,,,,,12,24,Female,1.0,1.0,0.5603195769251145,-0.0007020491123092545,-0.9677345677712474,,,0.0006764345771427347,1.1176675251051622,-0.0007525193879069016,-1.5372701893839038,1.6099999999999999,0.3414235584489051,1.392,-0.25446571906120197,1.2857142857142858,0.25,0.0,0.5,2.2777777777777777,2.625,2.5555555555555554,2.7777777777777777,1.75,2.888888888888889,2.25,2.0,2.5,0.25,,,,,,,,,,,,
29,240614_094146,LEARNING,1.0,30,3.0,788.0,,,,,,,,,,30.0,30.0,30.0,cue1.png,Hard,B,,,,,,,,,,,,,,,,,,,,,,,,,,,12,24,Female,0.8819444444444444,0.8888888888888888,0.5223187230831872,0.0002224453270926051,-0.04884912694192091,,,0.0002834033322208799,0.4518488237040661,0.0016090983996924924,1.579034615140821,0.7069999999999999,-1.2524011822521557,2.0340000000000003,1.0019191973984027,1.2857142857142858,0.25,0.0,0.5,2.2777777777777777,2.625,2.5555555555555554,2.7777777777777777,1.75,2.888888888888889,2.25,2.0,2.5,0.25,,,,,,,,,,,,
30,240614_094214,LEARNING,1.0,31,3.0,788.0,,,,,,,,,,31.0,31.0,31.0,cue1.png,Hard,B,,,,,,,,,,,,,,,,,,,,,,,,,,,12,24,Female,1.0,1.0,0.8124467000016011,-3.5125240396122713e-06,-0.2734360695965565,-5.6264849852822544e-05,-0.3802797597389689,-2.499827077459202e-05,-0.0706021454479885,-7.127286598865301e-06,-0.5536779253189251,2.5370000000000004,1.9776090896004932,1.3799999999999997,-0.27794954927540066,1.2857142857142858,0.25,0.0,0.5,2.2777777777777777,2.625,2.5555555555555554,2.7777777777777777,1.75,2.888888888888889,2.25,2.0,2.5,0.25,,,,,,,,,,,,
31,240614_094240,LEARNING,1.0,32,1.0,788.0,,,,,,,,,,32.0,32.0,32.0,cue2.png,Easy,B,,,,,,,,,,,,,,,,,,,,,,,,,,,12,24,Female,1.0,1.0,0.6267339538518661,0.0005204616779161042,0.2473591294084064,-0.0011735729734928787,-0.9895420514574945,0.0007394495001521451,1.2244186161421045,0.0013069381005083097,1.1803148913020767,1.0019999999999998,-0.7317164662977671,1.6709999999999998,0.29153333341890614,1.2857142857142858,0.25,0.0,0.5,2.2777777777777777,2.625,2.5555555555555554,2.7777777777777777,1.75,2.888888888888889,2.25,2.0,2.5,0.25,,,,,,,,,,,,
32,240614_094307,LEARNING,1.0,33,1.0,788.0,,,,,,,,,,33.0,33.0,33.0,cue2.png,Easy,B,,,,,,,,,,,,,,,,,,,,,,,,,,,12,24,Female,1.0,0.9230769230769232,0.6023784833353906,,,-4.979275152227616e-05,-0.3767505582790799,-0.000965815722440404,-1.6644038139340844,-0.00011581185887918344,-0.6970941277854368,2.139,1.2751259812959272,1.6780000000000002,0.3052322343771891,1.2857142857142858,0.25,0.0,0.5,2.2777777777777777,2.625,2.5555555555555554,2.7777777777777777,1.75,2.888888888888889,2.25,2.0,2.5,0.25,,,,,,,,,,,,
33,240614_094334,LEARNING,1.0,34,1.0,788.0,,,,,,,,,,34.0,34.0,34.0,cue2.png,Easy,B,,,,,,,,,,,,,,,,,,,,,,,,,,,12,24,Female,1.0,1.0,0.7559200230753049,,,0.0010483548719102593,0.22206361262128196,,,,,1.904,0.8603432414678551,2.604,2.1174011325728173,1.2857142857142858,0.25,0.0,0.5,2.2777777777777777,2.625,2.5555555555555554,2.7777777777777777,1.75,2.888888888888889,2.25,2.0,2.5,0.25,,,,,,,,,,,,
34,240614_094358,LEARNING,1.0,35,3.0,788.0,,,,,,,,,,35.0,35.0,35.0,cue1.png,Hard,B,,,,,,,,,,,,,,,,,,,,,,,,,,,12,24,Female,0.8819444444444444,0.8888888888888888,0.4917556153870044,0.0006608922262439352,0.3869376718057091,,,0.00011400657176278712,0.16488046552128313,,,2.238,1.4498642419043495,,,1.2857142857142858,0.25,0.0,0.5,2.2777777777777777,2.625,2.5555555555555554,2.7777777777777777,1.75,2.888888888888889,2.25,2.0,2.5,0.25,,,,,,,,,,,,
35,240614_094423,LEARNING,1.0,36,3.0,788.0,,,,,,,,,,36.0,36.0,36.0,cue1.png,Hard,B,,,,,,,,,,,,,,,,,,,,,,,,,,,12,24,Female,0.7083333333333333,0.7777777777777778,0.507324123078993,0.00011447354079505536,-0.15616583780644952,-0.0001361804242642488,-0.42385730560991736,-0.0001662499720899999,-0.3098910710885433,0.0010110476212950165,0.7898685935026276,0.6960000000000002,-1.2718165445419796,1.1200000000000003,-0.7867658705830272,1.2857142857142858,0.25,0.0,0.5,2.2777777777777777,2.625,2.5555555555555554,2.7777777777777777,1.75,2.888888888888889,2.25,2.0,2.5,0.25,,,,,,,,,,,,
36,240614_094448,LEARNING,1.0,37,1.0,788.0,,,,,,,,,,37.0,37.0,37.0,cue2.png,Easy,B,,,,,,,,,,,,,,,,,,,,,,,,,,,12,24,Female,1.0,1.0,0.6059335307733048,-7.95575189142415e-06,-0.2778523399485543,,,0.0010019571522155608,1.6691224565186267,0.00035452835751709905,-0.07645031157889684,,,2.098,1.1271662918741256,1.2857142857142858,0.25,0.0,0.5,2.2777777777777777,2.625,2.5555555555555554,2.7777777777777777,1.75,2.888888888888889,2.25,2.0,2.5,0.25,,,,,,,,,,,,
37,240614_094516,LEARNING,1.0,38,3.0,788.0,,,,,,,,,,38.0,38.0,38.0,cue1.png,Hard,B,,,,,,,,,,,,,,,,,,,,,,,,,,,12,24,Female,1.0,0.9230769230769232,0.7251339166687103,3.537917533749961e-05,-0.23478032997971177,0.003275119281627453,1.4363066299920275,-8.187470995677047e-05,-0.16695427359527087,,,1.6489999999999998,0.4102598429310106,1.6480000000000001,0.24652265884169353,1.2857142857142858,0.25,0.0,0.5,2.2777777777777777,2.625,2.5555555555555554,2.7777777777777777,1.75,2.888888888888889,2.25,2.0,2.5,0.25,,,,,,,,,,,,
38,240614_094542,LEARNING,1.0,39,3.0,788.0,,,,,,,,,,39.0,39.0,39.0,cue1.png,Hard,B,,,,,,,,,,,,,,,,,,,,,,,,,,,12,24,Female,0.8819444444444444,0.8888888888888888,0.63014436154089,-3.643123148593238e-05,-0.306155056011352,1.0549390989510622e-05,-0.34384630272407346,0.00032856404878602334,0.5283538091123515,0.0006280853789932496,0.28452556894415854,0.7430000000000001,-1.1888599965763653,2.0090000000000003,0.9529945511188234,1.2857142857142858,0.25,0.0,0.5,2.2777777777777777,2.625,2.5555555555555554,2.7777777777777777,1.75,2.888888888888889,2.25,2.0,2.5,0.25,,,,,,,,,,,,
39,240614_094607,LEARNING,1.0,40,3.0,788.0,,,,,,,,,,40.0,40.0,40.0,cue1.png,Hard,B,,,,,,,,,,,,,,,,,,,,,,,,,,,12,24,Female,0.8819444444444444,0.8888888888888888,0.5813334461552306,,,0.00108871259480254,0.24407046840049706,-0.0014839537628323091,-2.5421609939487153,0.0015734470055847917,1.5319903341698655,1.468,0.09078888161662331,1.592,0.13693145117543512,1.2857142857142858,0.25,0.0,0.5,2.2777777777777777,2.625,2.5555555555555554,2.7777777777777777,1.75,2.888888888888889,2.25,2.0,2.5,0.25,,,,,,,,,,,,
40,240614_094632,LEARNING,1.0,41,1.0,788.0,,,,,,,,,,41.0,41.0,41.0,cue2.png,Easy,B,,,,,,,,,,,,,,,,,,,,,,,,,,,12,24,Female,1.0,1.0,0.5624153538463781,-0.0005038826271691215,-0.7707703781614089,3.1319610784152994e-05,-0.33252041021167106,-0.000362355223568896,-0.6421052285242326,0.0003900562013428098,-0.02956906305941907,2.431,1.7905155984440004,0.928,-1.162507154010199,1.2857142857142858,0.25,0.0,0.5,2.2777777777777777,2.625,2.5555555555555554,2.7777777777777777,1.75,2.888888888888889,2.25,2.0,2.5,0.25,,,,,,,,,,,,
41,240614_094659,LEARNING,1.0,42,3.0,788.0,,,,,,,,,,42.0,42.0,42.0,cue1.png,Hard,B,,,,,,,,,,,,,,,,,,,,,,,,,,,12,24,Female,1.0,1.0,0.71177915384984,-0.00018236862579762208,-0.4512070338170181,0.00021050929345412797,-0.23480921094091833,-0.0007595432011917314,-1.3149656865408585,-0.00014682590683438856,-0.7380191357007992,,,,,1.2857142857142858,0.25,0.0,0.5,2.2777777777777777,2.625,2.5555555555555554,2.7777777777777777,1.75,2.888888888888889,2.25,2.0,2.5,0.25,,,,,,,,,,,,
42,240614_094726,LEARNING,1.0,43,3.0,788.0,,,,,,,,,,43.0,43.0,43.0,cue1.png,Hard,B,,,,,,,,,,,,,,,,,,,,,,,,,,,12,24,Female,0.7083333333333333,0.7777777777777778,0.6738978307694197,0.0007610778769861081,0.4865154863640702,0.0005055438740699174,-0.07392839309044504,,,0.0006895526885598987,0.3656355915437387,0.9709999999999999,-0.7864324872963637,1.6110000000000002,0.17411418234791587,1.2857142857142858,0.25,0.0,0.5,2.2777777777777777,2.625,2.5555555555555554,2.7777777777777777,1.75,2.888888888888889,2.25,2.0,2.5,0.25,,,,,,,,,,,,
43,240614_094750,LEARNING,1.0,44,1.0,788.0,,,,,,,,,,44.0,44.0,44.0,cue2.png,Easy,B,,,,,,,,,,,,,,,,,,,,,,,,,,,12,24,Female,1.0,1.0,0.5165587076894903,0.0009212493090444934,0.645715142611281,-0.0004628787657988448,-0.6020042071249129,5.050791199222478e-05,0.05730989515212081,0.0003757595449431408,-0.048434410052005855,0.7380000000000002,-1.1976851612535582,1.349,-0.33861611066207875,1.2857142857142858,0.25,0.0,0.5,2.2777777777777777,2.625,2.5555555555555554,2.7777777777777777,1.75,2.888888888888889,2.25,2.0,2.5,0.25,,,,,,,,,,,,
44,240614_094815,LEARNING,1.0,45,1.0,788.0,,,,,,,,,,45.0,45.0,45.0,cue2.png,Easy,B,,,,,,,,,,,,,,,,,,,,,,,,,,,12,24,Female,0.8819444444444444,0.8888888888888888,0.565593169229732,2.865485748391799e-05,-0.24146385073637802,2.6620918730446957e-05,-0.3350825824792405,,,-0.0008419614526736746,-1.6552946798932833,1.8359999999999999,0.7403210018580298,1.981,0.8981989472856937,1.2857142857142858,0.25,0.0,0.5,2.2777777777777777,2.625,2.5555555555555554,2.7777777777777777,1.75,2.888888888888889,2.25,2.0,2.5,0.25,,,,,,,,,,,,
45,240614_094842,LEARNING,1.0,46,1.0,788.0,,,,,,,,,,46.0,46.0,46.0,cue2.png,Easy,B,,,,,,,,,,,,,,,,,,,,,,,,,,,12,24,Female,1.0,0.9230769230769232,0.604073599994687,-0.00015070186156830286,-0.41973239495675346,-0.0003195654331915091,-0.5238561944051079,0.0003705432285300279,0.5994690787103033,-0.00017361517719588927,-0.7733692810018804,1.274,-0.25162750785846605,1.091,-0.8435184602673402,1.2857142857142858,0.25,0.0,0.5,2.2777777777777777,2.625,2.5555555555555554,2.7777777777777777,1.75,2.888888888888889,2.25,2.0,2.5,0.25,,,,,,,,,,,,
46,240614_094907,LEARNING,1.0,47,3.0,788.0,,,,,,,,,,47.0,47.0,47.0,cue1.png,Hard,B,,,,,,,,,,,,,,,,,,,,,,,,,,,12,24,Female,0.8819444444444444,0.8888888888888888,0.6168271000004517,0.001057298349807871,0.7809387604808984,,,0.0002938842761788952,0.46960417670906923,,,,,1.4899999999999998,-0.06268110564525024,1.2857142857142858,0.25,0.0,0.5,2.2777777777777777,2.625,2.5555555555555554,2.7777777777777777,1.75,2.888888888888889,2.25,2.0,2.5,0.25,,,,,,,,,,,,
47,240614_094934,LEARNING,1.0,48,3.0,788.0,,,,,,,,,,48.0,48.0,48.0,cue1.png,Hard,B,,,,,,,,,,,,,,,,,,,,,,,,,,,12,24,Female,1.0,1.0,0.6619320769207732,1.3758578662445651e-05,-0.25626975237105004,3.1207566405463006e-05,-0.3325815074269249,,,-0.0003417695914007387,-0.9952597205303211,1.691,0.4843912262194325,1.626,0.203468970115663,1.2857142857142858,0.25,0.0,0.5,2.2777777777777777,2.625,2.5555555555555554,2.7777777777777777,1.75,2.888888888888889,2.25,2.0,2.5,0.25,,,,,,,,,,,,
48,240614_095001,LEARNING,1.0,49,1.0,788.0,,,,,,,,,,49.0,49.0,49.0,cue2.png,Easy,B,,,,,,,,,,,,,,,,,,,,,,,,,,,12,24,Female,1.0,1.0,0.6954259538391713,0.0007717314628577321,0.49710443588376013,1.7536426974773534e-05,-0.3400363084470852,,,0.0005334774809321726,0.15968443299835683,,,,,1.2857142857142858,0.25,0.0,0.5,2.2777777777777777,2.625,2.5555555555555554,2.7777777777777777,1.75,2.888888888888889,2.25,2.0,2.5,0.25,,,,,,,,,,,,
49,240614_095026,LEARNING,1.0,50,1.0,788.0,,,,,,,,,,50.0,50.0,50.0,cue2.png,Easy,B,,,,,,,,,,,,,,,,,,,,,,,,,,,12,24,Female,0.8819444444444444,0.8888888888888888,0.5898879384644365,0.004482291284690064,4.185151926806432,-0.004550382642463173,-2.8308987498331195,,,,,1.2880000000000003,-0.22691704676232516,0.9500000000000002,-1.1194534652841688,1.2857142857142858,0.25,0.0,0.5,2.2777777777777777,2.625,2.5555555555555554,2.7777777777777777,1.75,2.888888888888889,2.25,2.0,2.5,0.25,,,,,,,,,,,,
0,240614_095226,TrueCHOICE,9.0,1,3.0,788.0,,,,,,,,,,,1.0,1.0,,,B,,,,,,True,cue2.png,Easy,cue1.png,Hard,Right,Hard,Hard,0.0164791999850422,,,,,,,,,,,,,12,24,Female,0.8819444444444444,0.8888888888888888,0.5904486461569411,,,,,,,,,,,,,1.2857142857142858,0.25,0.0,0.5,2.2777777777777777,2.625,2.5555555555555554,2.7777777777777777,1.75,2.888888888888889,2.25,2.0,2.5,0.25,,,-0.0006133343609899815,-0.4532425930623085,,,,,,,,
1,240614_095248,TrueCHOICE,9.0,2,1.0,788.0,,,,,,,,,,,2.0,2.0,,,B,,,,,,True,cue2.png,Easy,cue1.png,Hard,Left,Easy,Easy,0.0160128000134136,,,,,,,,,,,,,12,24,Female,,,,,,,,,,,,,,,,1.2857142857142858,0.25,0.0,0.5,2.2777777777777777,2.625,2.5555555555555554,2.7777777777777777,1.75,2.888888888888889,2.25,2.0,2.5,0.25,,,-0.0010818287735358595,-1.3931858622335112,1.587,1.0186392630390684,,,,,,
2,240614_095313,TrueCHOICE,9.0,3,1.0,788.0,,,,,,,,,,,3.0,3.0,,,B,,,,,,True,cue1.png,Hard,cue2.png,Easy,Right,Easy,Easy,0.0165685999963898,,,,,,,,,,,,,12,24,Female,1.0,1.0,0.6033723999996885,,,,,,,,,,,,,1.2857142857142858,0.25,0.0,0.5,2.2777777777777777,2.625,2.5555555555555554,2.7777777777777777,1.75,2.888888888888889,2.25,2.0,2.5,0.25,5.405129051962729e-05,0.021870971009713216,,,1.587,1.0186392630390684,,,,,,
3,240614_095336,TrueCHOICE,9.0,4,1.0,788.0,,,,,,,,,,,4.0,4.0,,,B,,,,,,True,cue2.png,Easy,cue1.png,Hard,Left,Easy,Easy,0.0143895999935921,,,,,,,,,,,,,12,24,Female,0.8819444444444444,0.8888888888888888,0.5394025692277444,,,,,,,,,,,,,1.2857142857142858,0.25,0.0,0.5,2.2777777777777777,2.625,2.5555555555555554,2.7777777777777777,1.75,2.888888888888889,2.25,2.0,2.5,0.25,,,-0.000342045334873013,0.09104627628185742,,,,,,,,
4,240614_095359,TrueCHOICE,9.0,5,1.0,788.0,,,,,,,,,,,5.0,5.0,,,B,,,,,,True,cue1.png,Hard,cue2.png,Easy,Right,Easy,Easy,0.0167892999888863,,,,,,,,,,,,,12,24,Female,1.0,1.0,0.8583430538464409,,,,,,,,,,,,,1.2857142857142858,0.25,0.0,0.5,2.2777777777777777,2.625,2.5555555555555554,2.7777777777777777,1.75,2.888888888888889,2.25,2.0,2.5,0.25,0.00013251823052778597,1.0104722217107913,,,1.4510000000000003,0.6488840857081619,,,,,,
5,240614_095422,TrueCHOICE,9.0,6,1.0,788.0,,,,,,,,,,,6.0,6.0,,,B,,,,,,True,cue1.png,Hard,cue2.png,Easy,Right,Easy,Easy,0.0163976999756414,,,,,,,,,,,,,12,24,Female,1.0,1.0,0.5654414000029926,,,,,,,,,,,,,1.2857142857142858,0.25,0.0,0.5,2.2777777777777777,2.625,2.5555555555555554,2.7777777777777777,1.75,2.888888888888889,2.25,2.0,2.5,0.25,-1.4457716461456407e-05,-0.8412707543939553,-0.000282652442432473,0.21020660774179334,1.021,-0.5201947837939727,,,,,,
6,240614_095445,TrueCHOICE,9.0,7,1.0,788.0,,,,,,,,,,,7.0,7.0,,,B,,,,,,True,cue2.png,Easy,cue1.png,Hard,Left,Easy,Easy,0.0163335999823175,,,,,,,,,,,,,12,24,Female,,,,,,,,,,,,,,,,1.2857142857142858,0.25,0.0,0.5,2.2777777777777777,2.625,2.5555555555555554,2.7777777777777777,1.75,2.888888888888889,2.25,2.0,2.5,0.25,-2.822574430285437e-05,-1.0147334833123771,-0.0005714435743586687,-0.3691968459200551,1.0589999999999997,-0.4168808371868079,,,,,,
7,240614_095508,TrueCHOICE,9.0,8,1.0,788.0,,,,,,,,,,,8.0,8.0,,,B,,,,,,True,cue1.png,Hard,cue2.png,Easy,Right,Easy,Easy,0.0167649000068195,,,,,,,,,,,,,12,24,Female,1.0,1.0,0.5530668076893422,,,,,,,,,,,,,1.2857142857142858,0.25,0.0,0.5,2.2777777777777777,2.625,2.5555555555555554,2.7777777777777777,1.75,2.888888888888889,2.25,2.0,2.5,0.25,-1.0603409522885743e-05,-0.792710524319218,0.0005667521822564558,1.9143724171922245,,,,,,,,
8,240614_095531,TrueCHOICE,9.0,9,1.0,788.0,,,,,,,,,,,9.0,9.0,,,B,,,,,,True,cue2.png,Easy,cue1.png,Hard,Left,Easy,Easy,0.0162074000108987,,,,,,,,,,,,,12,24,Female,1.0,1.0,0.5156404999993706,,,,,,,,,,,,,1.2857142857142858,0.25,0.0,0.5,2.2777777777777777,2.625,2.5555555555555554,2.7777777777777777,1.75,2.888888888888889,2.25,2.0,2.5,0.25,,,,,,,,,,,,
9,240614_095553,TrueCHOICE,9.0,10,1.0,788.0,,,,,,,,,,,10.0,10.0,,,B,,,,,,True,cue1.png,Hard,cue2.png,Easy,Right,Easy,Easy,0.0165702999802306,,,,,,,,,,,,,12,24,Female,1.0,1.0,0.5133427999949512,,,,,,,,,,,,,1.2857142857142858,0.25,0.0,0.5,2.2777777777777777,2.625,2.5555555555555554,2.7777777777777777,1.75,2.888888888888889,2.25,2.0,2.5,0.25,0.0001806094783640042,1.6163715693050458,,,0.5690000000000002,-1.749086990805517,,,,,,
0,240614_095925,FalseCHOICE,9.0,1,2.0,788.0,,,,,,,,,,,1.0,1.0,,,B,,,,,,False,cue2.png,Easy,cue1.png,Hard,Left,Easy,Mid,0.0168037000112235,,,,,,,,,,,,,12,24,Female,1.0,1.0,0.4985614769214477,,,,,,,,,,,,,1.2857142857142858,0.25,0.0,0.5,2.2777777777777777,2.625,2.5555555555555554,2.7777777777777777,1.75,2.888888888888889,2.25,2.0,2.5,0.25,,,-0.0006133343609899815,-0.4532425930623085,,,,,,,,
1,240614_095948,FalseCHOICE,9.0,2,2.0,788.0,,,,,,,,,,,2.0,2.0,,,B,,,,,,False,cue1.png,Hard,cue2.png,Easy,Left,Hard,Mid,0.0160056000167969,,,,,,,,,,,,,12,24,Female,,,,,,,,,,,,,,,,1.2857142857142858,0.25,0.0,0.5,2.2777777777777777,2.625,2.5555555555555554,2.7777777777777777,1.75,2.888888888888889,2.25,2.0,2.5,0.25,,,-0.0010818287735358595,-1.3931858622335112,1.587,1.0186392630390684,,,,,,
2,240614_100014,FalseCHOICE,9.0,3,2.0,788.0,,,,,,,,,,,3.0,3.0,,,B,,,,,,False,cue1.png,Hard,cue2.png,Easy,Right,Easy,Mid,0.016455400007544,,,,,,,,,,,,,12,24,Female,,,,,,,,,,,,,,,,1.2857142857142858,0.25,0.0,0.5,2.2777777777777777,2.625,2.5555555555555554,2.7777777777777777,1.75,2.888888888888889,2.25,2.0,2.5,0.25,5.405129051962729e-05,0.021870971009713216,,,1.587,1.0186392630390684,,,,,,
3,240614_100039,FalseCHOICE,9.0,4,2.0,788.0,,,,,,,,,,,4.0,4.0,,,B,,,,,,False,cue1.png,Hard,cue2.png,Easy,Left,Hard,Mid,0.0167690000089351,,,,,,,,,,,,,12,24,Female,0.8819444444444444,0.811965811965812,0.5855990333341955,,,,,,,,,,,,,1.2857142857142858,0.25,0.0,0.5,2.2777777777777777,2.625,2.5555555555555554,2.7777777777777777,1.75,2.888888888888889,2.25,2.0,2.5,0.25,,,-0.000342045334873013,0.09104627628185742,,,,,,,,
4,240614_100107,FalseCHOICE,9.0,5,2.0,788.0,,,,,,,,,,,5.0,5.0,,,B,,,,,,False,cue2.png,Easy,cue1.png,Hard,Right,Hard,Mid,0.0166391999810002,,,,,,,,,,,,,12,24,Female,,,,,,,,,,,,,,,,1.2857142857142858,0.25,0.0,0.5,2.2777777777777777,2.625,2.5555555555555554,2.7777777777777777,1.75,2.888888888888889,2.25,2.0,2.5,0.25,0.00013251823052778597,1.0104722217107913,,,1.4510000000000003,0.6488840857081619,,,,,,
5,240614_100131,FalseCHOICE,9.0,6,2.0,788.0,,,,,,,,,,,6.0,6.0,,,B,,,,,,False,cue1.png,Hard,cue2.png,Easy,Left,Hard,Mid,0.016175500000827,,,,,,,,,,,,,12,24,Female,0.7083333333333333,0.7777777777777778,0.5650182846181381,,,,,,,,,,,,,1.2857142857142858,0.25,0.0,0.5,2.2777777777777777,2.625,2.5555555555555554,2.7777777777777777,1.75,2.888888888888889,2.25,2.0,2.5,0.25,-1.4457716461456407e-05,-0.8412707543939553,-0.000282652442432473,0.21020660774179334,1.021,-0.5201947837939727,,,,,,
6,240614_100155,FalseCHOICE,9.0,7,2.0,788.0,,,,,,,,,,,7.0,7.0,,,B,,,,,,False,cue1.png,Hard,cue2.png,Easy,Left,Hard,Mid,0.0160546999832149,,,,,,,,,,,,,12,24,Female,1.0,1.0,0.5437457461510069,,,,,,,,,,,,,1.2857142857142858,0.25,0.0,0.5,2.2777777777777777,2.625,2.5555555555555554,2.7777777777777777,1.75,2.888888888888889,2.25,2.0,2.5,0.25,-2.822574430285437e-05,-1.0147334833123771,-0.0005714435743586687,-0.3691968459200551,1.0589999999999997,-0.4168808371868079,,,,,,
7,240614_100218,FalseCHOICE,9.0,8,2.0,788.0,,,,,,,,,,,8.0,8.0,,,B,,,,,,False,cue2.png,Easy,cue1.png,Hard,Right,Hard,Mid,0.0163585999980568,,,,,,,,,,,,,12,24,Female,,,,,,,,,,,,,,,,1.2857142857142858,0.25,0.0,0.5,2.2777777777777777,2.625,2.5555555555555554,2.7777777777777777,1.75,2.888888888888889,2.25,2.0,2.5,0.25,-1.0603409522885743e-05,-0.792710524319218,0.0005667521822564558,1.9143724171922245,,,,,,,,
8,240614_100242,FalseCHOICE,9.0,9,2.0,788.0,,,,,,,,,,,9.0,9.0,,,B,,,,,,False,cue2.png,Easy,cue1.png,Hard,Right,Hard,Mid,0.0167810999846551,,,,,,,,,,,,,12,24,Female,0.8819444444444444,0.8888888888888888,0.5528882000004299,,,,,,,,,,,,,1.2857142857142858,0.25,0.0,0.5,2.2777777777777777,2.625,2.5555555555555554,2.7777777777777777,1.75,2.888888888888889,2.25,2.0,2.5,0.25,,,,,,,,,,,,
9,240614_100308,FalseCHOICE,9.0,10,2.0,788.0,,,,,,,,,,,10.0,10.0,,,B,,,,,,False,cue1.png,Hard,cue2.png,Easy,Left,Hard,Mid,0.0161249999946448,,,,,,,,,,,,,12,24,Female,,,,,,,,,,,,,,,,1.2857142857142858,0.25,0.0,0.5,2.2777777777777777,2.625,2.5555555555555554,2.7777777777777777,1.75,2.888888888888889,2.25,2.0,2.5,0.25,0.0001806094783640042,1.6163715693050458,,,0.5690000000000002,-1.749086990805517,,,,,,
0,240614_092823,OFFLINERATING,9.0,1,1.0,,,,,,,,,,,,,,,,,T0,cue2.png,Easy,53.0,1.142067800014047,,,,,,,,,,,,,,,,,,,,,,12,24,Female,,,,,,,,,,,,,,,,1.2857142857142858,0.25,0.0,0.5,2.2777777777777777,2.625,2.5555555555555554,2.7777777777777777,1.75,2.888888888888889,2.25,2.0,2.5,0.25,,,,,,,-0.0025335845054732914,-1.4141434697372117,,,,
1,240614_092830,OFFLINERATING,9.0,2,3.0,,,,,,,,,,,,,,,,,T0,cue1.png,Hard,66.0,0.951736599992728,,,,,,,,,,,,,,,,,,,,,,12,24,Female,,,,,,,,,,,,,,,,1.2857142857142858,0.25,0.0,0.5,2.2777777777777777,2.625,2.5555555555555554,2.7777777777777777,1.75,2.888888888888889,2.25,2.0,2.5,0.25,,,,,,,,,,,1.4499999999999997,-0.7685564962333062
2,240614_095114,OFFLINERATING,9.0,3,1.0,,,,,,,,,,,,,,,,,T1,cue2.png,Easy,44.0,1.1056403999973554,,,,,,,,,,,,,,,,,,,,,,12,24,Female,,,,,,,,,,,,,,,,1.2857142857142858,0.25,0.0,0.5,2.2777777777777777,2.625,2.5555555555555554,2.7777777777777777,1.75,2.888888888888889,2.25,2.0,2.5,0.25,,,,,,,4.064266715983304e-05,0.719265390993801,0.000682773644219291,0.558335122963879,1.4529999999999998,-0.7548118196985819
3,240614_095121,OFFLINERATING,9.0,4,3.0,,,,,,,,,,,,,,,,,T1,cue1.png,Hard,67.0,0.9517185000004248,,,,,,,,,,,,,,,,,,,,,,12,24,Female,,,,,,,,,,,,,,,,1.2857142857142858,0.25,0.0,0.5,2.2777777777777777,2.625,2.5555555555555554,2.7777777777777777,1.75,2.888888888888889,2.25,2.0,2.5,0.25,,,,,,,1.1216295582407599e-05,0.694878078743411,0.0007994599391535412,0.8460863733472983,1.984,1.6779959269475284
4,240614_095710,OFFLINERATING,9.0,5,1.0,,,,,,,,,,,,,,,,,T2,cue2.png,Easy,36.0,0.8681845999963116,,,,,,,,,,,,,,,,,,,,,,12,24,Female,,,,,,,,,,,,,,,,1.2857142857142858,0.25,0.0,0.5,2.2777777777777777,2.625,2.5555555555555554,2.7777777777777777,1.75,2.888888888888889,2.25,2.0,2.5,0.25,,,,,,,,,,,1.584,-0.15462761101564232
5,240614_095717,OFFLINERATING,9.0,6,3.0,,,,,,,,,,,,,,,,,T2,cue1.png,Hard,65.0,0.8681995999941137,,,,,,,,,,,,,,,,,,,,,,12,24,Female,,,,,,,,,,,,,,,,1.2857142857142858,0.25,0.0,0.5,2.2777777777777777,2.625,2.5555555555555554,2.7777777777777777,1.75,2.888888888888889,2.25,2.0,2.5,0.25,,,,,,,,,-0.00011314573912208498,-1.4044214963111774,,
6,240614_101941,OFFLINERATING,9.0,7,1.0,,,,,,,,,,,,,,,,,T3,cue2.png,Easy,38.0,1.0290990000066813,,,,,,,,,,,,,,,,,,,,,,12,24,Female,,,,,,,,,,,,,,,,1.2857142857142858,0.25,0.0,0.5,2.2777777777777777,2.625,2.5555555555555554,2.7777777777777777,1.75,2.888888888888889,2.25,2.0,2.5,0.25,,,,,,,,,,,,
7,240614_101948,OFFLINERATING,9.0,8,3.0,,,,,,,,,,,,,,,,,T3,cue1.png,Hard,68.0,0.9510882000031416,,,,,,,,,,,,,,,,,,,,,,12,24,Female,,,,,,,,,,,,,,,,1.2857142857142858,0.25,0.0,0.5,2.2777777777777777,2.625,2.5555555555555554,2.7777777777777777,1.75,2.888888888888889,2.25,2.0,2.5,0.25,,,,,,,,,,,,
