,END,Phase,Block,TrialN,NbackLevel,ISI,Letter_Resp,Letter_RT,Letter_Accuracy,Trial_A_measure,Trial_ACC,Trial_RT,TrialCountCali,CaliEnd_A_measure,ISI_calibrated,TrialIndex,TrialNumber_total,TrialNumber_valid,CueLearning,TrialDemandLearning,CueMapping,OfflineRatingTimePoint,CueFigure,TrialDemand,OfflineRating,OfflineRatingRT,PhaseType,CueLeft,CueDemandLeft,CueRight,CueDemandRight,Choice,ChoiceDemand,TaskDemand,ChoiceRT,CueCheck,CueDemandCheck,CorrectAnswer,Answer,AnswerDemand,AnswerRT,AnswerACC,DemandRatingQuesIndex,QuesTLX,DemandLevel,DemandRating,DemandRatingRT,PID,Age,Gender,Task_A_measure,Task_ACC,Task_RT,cue_i_on_zyg_values,cue_i_on_zyg_zvalues,cue_e_on_zyg_values,cue_e_on_zyg_zvalues,cue_i_on_cor_values,cue_i_on_cor_zvalues,cue_e_on_cor_values,cue_e_on_cor_zvalues,cue_i_on_scr_values,cue_i_on_scr_zvalues,cue_e_on_scr_values,cue_e_on_scr_zvalues,BAI_bis,BAI_bas_d,BAI_bas_rr,BAI_bas_fs,NFC,BFI_ext,BFI_agr,BFI_con,BFI_neu,BFI_open,UPPS_lps,UPPS_lpm,UPPS_pu,UPPS_ss,cue_e_true_zyg_values,cue_e_true_zyg_zvalues,cue_e_true_cor_values,cue_e_true_cor_zvalues,cue_e_true_scr_values,cue_e_true_scr_zvalues,cue_i_off_zyg_values,cue_i_off_zyg_zvalues,cue_i_off_cor_values,cue_i_off_cor_zvalues,cue_i_off_scr_values,cue_i_off_scr_zvalues
0,240614_145506,LEARNING,1.0,1,1.0,361.0,,,,,,,,,,1.0,1.0,1.0,cue1.png,Easy,A,,,,,,,,,,,,,,,,,,,,,,,,,,,13,23,Female,1.0,1.0,0.7009803555540404,-0.00011375972348837094,-1.4222821822304945,1.802187841530231e-05,-0.12057374600288183,0.0001612354354422257,0.6360480018182494,0.00013161940900751918,0.6578253189941682,,,,,0.42857142857142855,1.0,0.2,1.25,1.7777777777777777,1.25,2.2222222222222223,3.111111111111111,2.375,2.6666666666666665,2.0,2.0,2.5,2.75,,,,,,,,,,,,
1,240614_145540,LEARNING,1.0,2,3.0,361.0,,,,,,,,,,2.0,2.0,2.0,cue2.png,Hard,A,,,,,,,,,,,,,,,,,,,,,,,,,,,13,23,Female,0.8194444444444444,0.8333333333333334,0.7587278111136079,3.014983843741253e-06,-0.25647933020492525,2.305450995510874e-05,-0.0662642430271653,-0.00034923128032147326,-1.6207770664943253,0.0001303999117037843,0.652039021140928,1.45,-0.14112083847969084,1.5890000000000002,-0.12427208917889433,0.42857142857142855,1.0,0.2,1.25,1.7777777777777777,1.25,2.2222222222222223,3.111111111111111,2.375,2.6666666666666665,2.0,2.0,2.5,2.75,,,,,,,,,,,,
2,240614_145613,LEARNING,1.0,3,1.0,361.0,,,,,,,,,,3.0,3.0,3.0,cue1.png,Easy,A,,,,,,,,,,,,,,,,,,,,,,,,,,,13,23,Female,1.0,0.9444444444444444,0.7385290941216655,,,,,,,,,1.171,-0.5303074671699741,1.5750000000000002,-0.1488700800824738,0.42857142857142855,1.0,0.2,1.25,1.7777777777777777,1.25,2.2222222222222223,3.111111111111111,2.375,2.6666666666666665,2.0,2.0,2.5,2.75,,,,,,,,,,,,
3,240614_145648,LEARNING,1.0,4,3.0,361.0,,,,,,,,,,4.0,4.0,4.0,cue2.png,Hard,A,,,,,,,,,,,,,,,,,,,,,,,,,,,13,23,Female,0.75,0.4166666666666666,0.8012928222144384,0.00018054205023601728,1.5158356260059314,1.0101966909946847e-05,-0.20604125024303097,-0.00015767319570875443,-0.7738793667194237,6.935035767261649e-05,0.36236974319342374,1.5870000000000002,0.049985140482921776,1.488,-0.3017290235547178,0.42857142857142855,1.0,0.2,1.25,1.7777777777777777,1.25,2.2222222222222223,3.111111111111111,2.375,2.6666666666666665,2.0,2.0,2.5,2.75,,,,,,,,,,,,
4,240614_145722,LEARNING,1.0,5,3.0,361.0,,,,,,,,,,5.0,5.0,5.0,cue2.png,Hard,A,,,,,,,,,,,,,,,,,,,,,,,,,,,13,23,Female,0.85,0.8333333333333334,0.7661851066630334,-0.00010139468298013717,-1.298837646857666,2.985533471715684e-05,0.007126667817459059,,,-9.006469262287306e-05,-0.39402632301672974,1.552,0.001162445127509679,1.4569999999999999,-0.35619600341264396,0.42857142857142855,1.0,0.2,1.25,1.7777777777777777,1.25,2.2222222222222223,3.111111111111111,2.375,2.6666666666666665,2.0,2.0,2.5,2.75,,,,,,,,,,,,
5,240614_145756,LEARNING,1.0,6,1.0,361.0,,,,,,,,,,6.0,6.0,6.0,cue1.png,Easy,A,,,,,,,,,,,,,,,,,,,,,,,,,,,13,23,Female,1.0,0.9444444444444444,0.7692491529434098,0.00012863625947699036,0.9976419153471875,0.00018772680817337548,1.7107922729058542,7.131884011686703e-05,0.23851762398745743,8.773600578237256e-05,0.4496063741085483,-0.016000000000000014,-2.1860943067949434,1.1179999999999999,-0.9518187831493176,0.42857142857142855,1.0,0.2,1.25,1.7777777777777777,1.25,2.2222222222222223,3.111111111111111,2.375,2.6666666666666665,2.0,2.0,2.5,2.75,,,,,,,,,,,,
6,240614_145830,LEARNING,1.0,7,3.0,361.0,,,,,,,,,,7.0,7.0,7.0,cue2.png,Hard,A,,,,,,,,,,,,,,,,,,,,,,,,,,,13,23,Female,0.9166666666666666,0.8333333333333334,0.7698898866656236,,,,,0.00029524647938188866,1.2285244044007286,0.0004541856673619979,2.1883448556326677,1.4500000000000002,-0.14112083847969054,,,0.42857142857142855,1.0,0.2,1.25,1.7777777777777777,1.25,2.2222222222222223,3.111111111111111,2.375,2.6666666666666665,2.0,2.0,2.5,2.75,,,,,,,,,,,,
7,240614_145904,LEARNING,1.0,8,3.0,361.0,,,,,,,,,,8.0,8.0,8.0,cue2.png,Hard,A,,,,,,,,,,,,,,,,,,,,,,,,,,,13,23,Female,1.0,0.7777777777777778,0.7405529928530866,-3.012885161018811e-05,-0.5873658619036568,-6.541455641307335e-07,-0.3221155381771973,-1.614757028074341e-05,-0.14818023803734104,,,2.013,0.6442270896659348,,,0.42857142857142855,1.0,0.2,1.25,1.7777777777777777,1.25,2.2222222222222223,3.111111111111111,2.375,2.6666666666666665,2.0,2.0,2.5,2.75,,,,,,,,,,,,
8,240614_145938,LEARNING,1.0,9,1.0,361.0,,,,,,,,,,9.0,9.0,9.0,cue1.png,Easy,A,,,,,,,,,,,,,,,,,,,,,,,,,,,13,23,Female,1.0,0.9444444444444444,0.7800533882349127,5.659406419502048e-05,0.27841941721631275,-1.0581253268070103e-05,-0.4292436442431722,0.0001428287122577981,0.554670013743242,0.00018439572609730507,0.9082395588151823,,,1.67,0.018044858191814853,0.42857142857142855,1.0,0.2,1.25,1.7777777777777777,1.25,2.2222222222222223,3.111111111111111,2.375,2.6666666666666665,2.0,2.0,2.5,2.75,,,,,,,,,,,,
9,240614_150012,LEARNING,1.0,10,1.0,361.0,,,,,,,,,,10.0,10.0,10.0,cue1.png,Easy,A,,,,,,,,,,,,,,,,,,,,,,,,,,,13,23,Female,1.0,0.8333333333333334,0.7638725533305357,-3.0324721528074677e-05,-0.5893212999785196,0.00012375387199723776,1.020430115425732,2.3142145491787322e-05,0.025523576029489715,-0.00018047939865715925,-0.8230280254602317,0.7950000000000002,-1.054802708702399,1.4379999999999997,-0.389578991067502,0.42857142857142855,1.0,0.2,1.25,1.7777777777777777,1.25,2.2222222222222223,3.111111111111111,2.375,2.6666666666666665,2.0,2.0,2.5,2.75,,,,,,,,,,,,
10,240614_150045,LEARNING,1.0,11,3.0,361.0,,,,,,,,,,11.0,11.0,11.0,cue2.png,Hard,A,,,,,,,,,,,,,,,,,,,,,,,,,,,13,23,Female,0.8194444444444444,0.7777777777777778,0.688066029407577,-7.628033407105052e-05,-1.0481122949909343,,,-4.8532678557322746e-05,-0.2913580828244522,0.00026646135134618734,1.2976263575789846,0.34299999999999997,-1.6853129458637186,2.529,1.5273073000614392,0.42857142857142855,1.0,0.2,1.25,1.7777777777777777,1.25,2.2222222222222223,3.111111111111111,2.375,2.6666666666666665,2.0,2.0,2.5,2.75,,,,,,,,,,,,
11,240614_150118,LEARNING,1.0,12,1.0,361.0,,,,,,,,,,12.0,12.0,12.0,cue1.png,Easy,A,,,,,,,,,,,,,,,,,,,,,,,,,,,13,23,Female,0.9153846153846156,0.9230769230769232,0.7507182277735814,5.8288229543106834e-05,0.29533286396968206,5.313409336159909e-05,0.25833874282662034,0.0001786710844277526,0.7131327724755608,,,2.822,1.7727288194524558,,,0.42857142857142855,1.0,0.2,1.25,1.7777777777777777,1.25,2.2222222222222223,3.111111111111111,2.375,2.6666666666666665,2.0,2.0,2.5,2.75,,,,,,,,,,,,
12,240614_150152,LEARNING,1.0,13,1.0,361.0,,,,,,,,,,13.0,13.0,13.0,cue1.png,Easy,A,,,,,,,,,,,,,,,,,,,,,,,,,,,13,23,Female,1.0,0.8888888888888888,0.7589050750011666,,,-3.2987962329902344e-05,-0.6710450204902397,0.00010052886338870722,0.36765809628496693,-0.00011550211717722492,-0.5147223792031744,0.8959999999999997,-0.913914359248211,2.224,0.9914224982334591,0.42857142857142855,1.0,0.2,1.25,1.7777777777777777,1.25,2.2222222222222223,3.111111111111111,2.375,2.6666666666666665,2.0,2.0,2.5,2.75,,,,,,,,,,,,
13,240614_150226,LEARNING,1.0,14,1.0,361.0,,,,,,,,,,14.0,14.0,14.0,cue1.png,Easy,A,,,,,,,,,,,,,,,,,,,,,,,,,,,13,23,Female,0.95,0.8888888888888888,0.762860049993833,-6.711014055385545e-05,-0.9565630374486499,,,2.2685455671093025e-05,0.023504504062683614,-0.00032746682529023307,-1.5204572272923518,2.758,1.6834530336597024,,,0.42857142857142855,1.0,0.2,1.25,1.7777777777777777,1.25,2.2222222222222223,3.111111111111111,2.375,2.6666666666666665,2.0,2.0,2.5,2.75,,,,,,,,,,,,
14,240614_150259,LEARNING,1.0,15,3.0,361.0,,,,,,,,,,15.0,15.0,15.0,cue2.png,Hard,A,,,,,,,,,,,,,,,,,,,,,,,,,,,13,23,Female,0.9153846153846156,0.9230769230769232,0.7205808777750159,1.023534820714881e-05,-0.18439590084051222,,,0.00046498317938767613,1.9789475519954054,0.0001936376823717845,0.9520909979179824,,,,,0.42857142857142855,1.0,0.2,1.25,1.7777777777777777,1.25,2.2222222222222223,3.111111111111111,2.375,2.6666666666666665,2.0,2.0,2.5,2.75,,,,,,,,,,,,
15,240614_150334,LEARNING,1.0,16,1.0,361.0,,,,,,,,,,16.0,16.0,16.0,cue1.png,Easy,A,,,,,,,,,,,,,,,,,,,,,,,,,,,13,23,Female,0.9166666666666666,0.7222222222222222,0.7773370846138837,5.769192187999586e-05,0.2893797154649946,0.0002351338725348007,2.2223842864761223,-0.00046276263810182726,-2.1227107016676596,-6.36449009567574e-05,-0.2686691095710737,,,,,0.42857142857142855,1.0,0.2,1.25,1.7777777777777777,1.25,2.2222222222222223,3.111111111111111,2.375,2.6666666666666665,2.0,2.0,2.5,2.75,,,,,,,,,,,,
16,240614_150407,LEARNING,1.0,17,1.0,361.0,,,,,,,,,,17.0,17.0,17.0,cue1.png,Easy,A,,,,,,,,,,,,,,,,,,,,,,,,,,,13,23,Female,1.0,1.0,0.7691087166668795,8.198846789644497e-05,0.5319406542801903,3.797846123298164e-05,0.09478716117840902,0.00030297214385275814,1.262680349751926,-2.4505603184305207e-05,-0.08296010145398817,,,,,0.42857142857142855,1.0,0.2,1.25,1.7777777777777777,1.25,2.2222222222222223,3.111111111111111,2.375,2.6666666666666665,2.0,2.0,2.5,2.75,,,,,,,,,,,,
17,240614_150441,LEARNING,1.0,18,3.0,361.0,,,,,,,,,,18.0,18.0,18.0,cue2.png,Hard,A,,,,,,,,,,,,,,,,,,,,,,,,,,,13,23,Female,0.9153846153846156,0.9230769230769232,0.7286079277821247,0.00013496718291478547,1.0608457440559704,,,-9.358473859453521e-05,-0.4905378046971915,0.00017229895943858108,0.8508425520861391,,,,,0.42857142857142855,1.0,0.2,1.25,1.7777777777777777,1.25,2.2222222222222223,3.111111111111111,2.375,2.6666666666666665,2.0,2.0,2.5,2.75,,,,,,,,,,,,
18,240614_150514,LEARNING,1.0,19,3.0,361.0,,,,,,,,,,19.0,19.0,19.0,cue2.png,Hard,A,,,,,,,,,,,,,,,,,,,,,,,,,,,13,23,Female,1.0,1.0,0.7533189833355007,-2.5338635578161465e-05,-0.5395434554978512,-2.714042925508345e-05,-0.6079415303150594,-0.00022968452706881824,-1.0922487584883211,-0.00015687562676366734,-0.7110323250864872,,,0.34399999999999986,-2.3117362802472097,0.42857142857142855,1.0,0.2,1.25,1.7777777777777777,1.25,2.2222222222222223,3.111111111111111,2.375,2.6666666666666665,2.0,2.0,2.5,2.75,,,,,,,,,,,,
19,240614_150547,LEARNING,1.0,20,3.0,361.0,,,,,,,,,,20.0,20.0,20.0,cue2.png,Hard,A,,,,,,,,,,,,,,,,,,,,,,,,,,,13,23,Female,0.95,0.8888888888888888,0.7036876812508126,-6.156942034938034e-05,-0.9012480847142191,-4.268129181536672e-05,-0.7756503154281793,-0.0005397616977549746,-2.4631313455518344,0.00013566777191248436,0.6770340810917918,,,2.367,1.2426734053200201,0.42857142857142855,1.0,0.2,1.25,1.7777777777777777,1.25,2.2222222222222223,3.111111111111111,2.375,2.6666666666666665,2.0,2.0,2.5,2.75,,,,,,,,,,,,
20,240614_150621,LEARNING,1.0,21,1.0,361.0,,,,,,,,,,21.0,21.0,21.0,cue1.png,Easy,A,,,,,,,,,,,,,,,,,,,,,,,,,,,13,23,Female,0.8125,0.6944444444444444,0.7596844785709566,,,0.00021371038850748116,1.9911933557813075,-1.9248466905820785e-05,-0.16188961618406433,-0.0001189827338838388,-0.531237286547168,0.5000000000000002,-1.4663082838408705,2.152,0.8649185450150504,0.42857142857142855,1.0,0.2,1.25,1.7777777777777777,1.25,2.2222222222222223,3.111111111111111,2.375,2.6666666666666665,2.0,2.0,2.5,2.75,,,,,,,,,,,,
21,240614_150654,LEARNING,1.0,22,3.0,361.0,,,,,,,,,,22.0,22.0,22.0,cue2.png,Hard,A,,,,,,,,,,,,,,,,,,,,,,,,,,,13,23,Female,1.0,1.0,0.7131207222183649,1.1359597975595971e-05,-0.17317212116776826,-6.241720166667766e-06,-0.3824136937451678,-1.6688541273616585e-05,-0.1505719256052946,,,,,1.8979999999999997,0.4186407100501082,0.42857142857142855,1.0,0.2,1.25,1.7777777777777777,1.25,2.2222222222222223,3.111111111111111,2.375,2.6666666666666665,2.0,2.0,2.5,2.75,,,,,,,,,,,,
22,240614_150727,LEARNING,1.0,23,3.0,361.0,,,,,,,,,,23.0,23.0,23.0,cue2.png,Hard,A,,,,,,,,,,,,,,,,,,,,,,,,,,,13,23,Female,0.8,0.8461538461538461,0.7107253222267091,0.00022048713572614398,1.914621421772075,0.00010996866564307777,0.8716674453215514,-0.000446189425121478,-2.0494388479669188,-0.0003810100796148336,-1.7745104479145424,2.229,0.9455328667164771,2.2279999999999998,0.998450495634481,0.42857142857142855,1.0,0.2,1.25,1.7777777777777777,1.25,2.2222222222222223,3.111111111111111,2.375,2.6666666666666665,2.0,2.0,2.5,2.75,,,,,,,,,,,,
23,240614_150801,LEARNING,1.0,24,3.0,361.0,,,,,,,,,,24.0,24.0,24.0,cue2.png,Hard,A,,,,,,,,,,,,,,,,,,,,,,,,,,,13,23,Female,0.8680555555555555,0.75,0.7410511066671461,7.204469787722677e-05,0.4326685112524931,5.1809272371436486e-05,0.2440419740410607,0.00013596445532432135,0.5243224383883389,0.0001233385681555935,0.6185342016642874,2.7510000000000003,1.6736884945886206,1.9499999999999997,0.5100046762634034,0.42857142857142855,1.0,0.2,1.25,1.7777777777777777,1.25,2.2222222222222223,3.111111111111111,2.375,2.6666666666666665,2.0,2.0,2.5,2.75,,,,,,,,,,,,
24,240614_150834,LEARNING,1.0,25,1.0,361.0,,,,,,,,,,25.0,25.0,25.0,cue1.png,Easy,A,,,,,,,,,,,,,,,,,,,,,,,,,,,13,23,Female,1.0,1.0,0.7581192777773443,-0.00010517996376857661,-1.3366274323317573,9.790087119725425e-05,0.7414381779528147,-5.002850643668786e-05,-0.2979712894288858,-0.0001276879365079294,-0.5725419250252749,1.935,0.535422225731017,2.756,1.9261461525694772,0.42857142857142855,1.0,0.2,1.25,1.7777777777777777,1.25,2.2222222222222223,3.111111111111111,2.375,2.6666666666666665,2.0,2.0,2.5,2.75,,,,,,,,,,,,
25,240614_150908,LEARNING,1.0,26,1.0,361.0,,,,,,,,,,26.0,26.0,26.0,cue1.png,Easy,A,,,,,,,,,,,,,,,,,,,,,,,,,,,13,23,Female,1.0,0.7777777777777778,0.7525550214320121,4.210464172639929e-05,0.13376643178787634,-1.708066771871717e-05,-0.4993818941142146,4.9225085961152656e-05,0.14083889843694983,-0.0003001737383990198,-1.3909563832943763,1.195,-0.4968290474976917,1.201,-0.8059878370780963,0.42857142857142855,1.0,0.2,1.25,1.7777777777777777,1.25,2.2222222222222223,3.111111111111111,2.375,2.6666666666666665,2.0,2.0,2.5,2.75,,,,,,,,,,,,
26,240614_150942,LEARNING,1.0,27,3.0,361.0,,,,,,,,,,27.0,27.0,27.0,cue2.png,Hard,A,,,,,,,,,,,,,,,,,,,,,,,,,,,13,23,Female,1.0,0.9444444444444444,0.7497398588183226,8.772708999651817e-05,0.5892313310355203,5.487723006463493e-06,-0.2558357347040472,0.0003260165878447791,1.3645621713878593,0.00010156673573897754,0.51523072834988,0.10799999999999987,-2.013122471821484,,,0.42857142857142855,1.0,0.2,1.25,1.7777777777777777,1.25,2.2222222222222223,3.111111111111111,2.375,2.6666666666666665,2.0,2.0,2.5,2.75,,,,,,,,,,,,
27,240614_151015,LEARNING,1.0,28,1.0,361.0,,,,,,,,,,28.0,28.0,28.0,cue1.png,Easy,A,,,,,,,,,,,,,,,,,,,,,,,,,,,13,23,Female,1.0,0.8888888888888888,0.7308351499923447,,,,,0.0001708549904596182,0.6785770291550934,-0.0002534902335755507,-1.1694514542433088,2.08,0.7376876779177235,1.004,-1.1521167090784643,0.42857142857142855,1.0,0.2,1.25,1.7777777777777777,1.25,2.2222222222222223,3.111111111111111,2.375,2.6666666666666665,2.0,2.0,2.5,2.75,,,,,,,,,,,,
28,240614_151049,LEARNING,1.0,29,1.0,361.0,,,,,,,,,,29.0,29.0,29.0,cue1.png,Easy,A,,,,,,,,,,,,,,,,,,,,,,,,,,,13,23,Female,1.0,0.8888888888888888,0.7641239750046225,-3.0350280453035963e-05,-0.5895764636890124,1.4390060305044788e-05,-0.15976640990171334,0.00018833174348817285,0.7558435249510858,0.00018490573415009832,0.9106594563352298,1.7720000000000002,0.30804795879009905,1.5440000000000003,-0.20333705994039955,0.42857142857142855,1.0,0.2,1.25,1.7777777777777777,1.25,2.2222222222222223,3.111111111111111,2.375,2.6666666666666665,2.0,2.0,2.5,2.75,,,,,,,,,,,,
29,240614_151122,LEARNING,1.0,30,3.0,361.0,,,,,,,,,,30.0,30.0,30.0,cue2.png,Hard,A,,,,,,,,,,,,,,,,,,,,,,,,,,,13,23,Female,1.0,1.0,0.7177401166651786,-1.589793567681073e-05,-0.44529363786559045,-6.884319477627439e-05,-1.05797576195997,-7.322101819282577e-05,-0.4005077336514619,0.00043145098819835507,2.080472845718583,1.563,0.016506720810638992,1.9929999999999999,0.5855556483243977,0.42857142857142855,1.0,0.2,1.25,1.7777777777777777,1.25,2.2222222222222223,3.111111111111111,2.375,2.6666666666666665,2.0,2.0,2.5,2.75,,,,,,,,,,,,
30,240614_151153,LEARNING,1.0,31,3.0,361.0,,,,,,,,,,31.0,31.0,31.0,cue2.png,Hard,A,,,,,,,,,,,,,,,,,,,,,,,,,,,13,23,Female,0.8680555555555555,0.861111111111111,0.6221995529348907,2.8953769960439555e-05,0.00247666740614714,0.0001405009474690611,1.2011557135501922,5.513587393549081e-05,0.16697109092281978,3.59437647512572e-05,0.20386140019593027,1.257,-0.41034313001096223,,,0.42857142857142855,1.0,0.2,1.25,1.7777777777777777,1.25,2.2222222222222223,3.111111111111111,2.375,2.6666666666666665,2.0,2.0,2.5,2.75,,,,,,,,,,,,
31,240614_151227,LEARNING,1.0,32,1.0,361.0,,,,,,,,,,32.0,32.0,32.0,cue1.png,Easy,A,,,,,,,,,,,,,,,,,,,,,,,,,,,13,23,Female,1.0,0.8888888888888888,0.7596363812499476,0.0003229333844964881,2.937378247495629,4.724934183892183e-05,0.19483361080885178,-0.0001263231998641489,-0.6352778588664564,-0.00016483844818225958,-0.7488144967559305,,,1.188,-0.8288288286314203,0.42857142857142855,1.0,0.2,1.25,1.7777777777777777,1.25,2.2222222222222223,3.111111111111111,2.375,2.6666666666666665,2.0,2.0,2.5,2.75,,,,,,,,,,,,
32,240614_151259,LEARNING,1.0,33,1.0,361.0,,,,,,,,,,33.0,33.0,33.0,cue1.png,Easy,A,,,,,,,,,,,,,,,,,,,,,,,,,,,13,23,Female,0.9153846153846156,0.9230769230769232,0.6679325500040755,-8.324059919445018e-05,-1.1175990624348124,-8.137618751869694e-06,-0.40287323047863616,,,,,0.34799999999999986,-1.67833827509866,2.907,2.1914530544580844,0.42857142857142855,1.0,0.2,1.25,1.7777777777777777,1.25,2.2222222222222223,3.111111111111111,2.375,2.6666666666666665,2.0,2.0,2.5,2.75,,,,,,,,,,,,
33,240614_151333,LEARNING,1.0,34,1.0,361.0,,,,,,,,,,34.0,34.0,34.0,cue1.png,Easy,A,,,,,,,,,,,,,,,,,,,,,,,,,,,13,23,Female,1.0,1.0,0.7498360166630138,,,-3.800524621981865e-05,-0.7251888997299873,,,0.00010486964157679045,0.530902429222247,1.6029999999999998,0.07230408693110947,0.865,-1.3963396187640031,0.42857142857142855,1.0,0.2,1.25,1.7777777777777777,1.25,2.2222222222222223,3.111111111111111,2.375,2.6666666666666665,2.0,2.0,2.5,2.75,,,,,,,,,,,,
34,240614_151406,LEARNING,1.0,35,3.0,361.0,,,,,,,,,,35.0,35.0,35.0,cue2.png,Hard,A,,,,,,,,,,,,,,,,,,,,,,,,,,,13,23,Female,0.8194444444444444,0.8333333333333334,0.7071396555531666,-2.3794929427097943e-05,-0.5241320956690403,,,-7.686634282848314e-05,-0.41662408319166827,-5.206890496214098e-05,-0.2137430670389396,1.5450000000000002,-0.008602093943572555,1.509,-0.2648320371993488,0.42857142857142855,1.0,0.2,1.25,1.7777777777777777,1.25,2.2222222222222223,3.111111111111111,2.375,2.6666666666666665,2.0,2.0,2.5,2.75,,,,,,,,,,,,
35,240614_151439,LEARNING,1.0,36,3.0,361.0,,,,,,,,,,36.0,36.0,36.0,cue2.png,Hard,A,,,,,,,,,,,,,,,,,,,,,,,,,,,13,23,Female,0.9153846153846156,0.811965811965812,0.7225887375025195,5.897145062147861e-05,0.302153699576356,-3.6954171931177695e-05,-0.7138462608431276,0.0001628198544120843,0.6430528786093586,0.0001434047780007443,0.7137447991736555,0.9849999999999999,-0.7897652196301633,1.8490000000000002,0.33254774188758107,0.42857142857142855,1.0,0.2,1.25,1.7777777777777777,1.25,2.2222222222222223,3.111111111111111,2.375,2.6666666666666665,2.0,2.0,2.5,2.75,,,,,,,,,,,,
36,240614_151512,LEARNING,1.0,37,1.0,361.0,,,,,,,,,,37.0,37.0,37.0,cue1.png,Easy,A,,,,,,,,,,,,,,,,,,,,,,,,,,,13,23,Female,0.9583333333333334,0.8888888888888888,0.6845634750006866,,,7.672346593211223e-05,0.51290279936052,0.0004515780685775679,1.9196821989654842,,,1.3969999999999998,-0.2150523485893148,1.374,-0.5020269494838645,0.42857142857142855,1.0,0.2,1.25,1.7777777777777777,1.25,2.2222222222222223,3.111111111111111,2.375,2.6666666666666665,2.0,2.0,2.5,2.75,,,,,,,,,,,,
37,240614_151544,LEARNING,1.0,38,3.0,361.0,,,,,,,,,,38.0,38.0,38.0,cue2.png,Hard,A,,,,,,,,,,,,,,,,,,,,,,,,,,,13,23,Female,0.9153846153846156,0.9230769230769232,0.6848821833312589,,,,,,,,,2.0220000000000002,0.6567814970430411,1.3429999999999997,-0.5564939293417911,0.42857142857142855,1.0,0.2,1.25,1.7777777777777777,1.25,2.2222222222222223,3.111111111111111,2.375,2.6666666666666665,2.0,2.0,2.5,2.75,,,,,,,,,,,,
38,240614_151617,LEARNING,1.0,39,3.0,361.0,,,,,,,,,,39.0,39.0,39.0,cue2.png,Hard,A,,,,,,,,,,,,,,,,,,,,,,,,,,,13,23,Female,0.9153846153846156,0.9230769230769232,0.7138644722209493,-2.776194680044735e-05,-0.5637362211988325,6.176089537720088e-05,0.35143463630330907,0.00018337914452400952,0.7339475831580919,-0.00039411475456136444,-1.836689800241348,1.77,0.30525809048407515,1.7729999999999997,0.19901579126814892,0.42857142857142855,1.0,0.2,1.25,1.7777777777777777,1.25,2.2222222222222223,3.111111111111111,2.375,2.6666666666666665,2.0,2.0,2.5,2.75,,,,,,,,,,,,
39,240614_151650,LEARNING,1.0,40,3.0,361.0,,,,,,,,,,40.0,40.0,40.0,cue2.png,Hard,A,,,,,,,,,,,,,,,,,,,,,,,,,,,13,23,Female,1.0,0.9444444444444444,0.7166339823555009,-2.935210743429048e-05,-0.5796113524191642,,,,,,,2.16,0.8492824101586651,2.0279999999999996,0.6470506255833457,0.42857142857142855,1.0,0.2,1.25,1.7777777777777777,1.25,2.2222222222222223,3.111111111111111,2.375,2.6666666666666665,2.0,2.0,2.5,2.75,,,,,,,,,,,,
40,240614_151722,LEARNING,1.0,41,1.0,361.0,,,,,,,,,,41.0,41.0,41.0,cue1.png,Easy,A,,,,,,,,,,,,,,,,,,,,,,,,,,,13,23,Female,1.0,1.0,0.7046260611079762,-8.044592478106093e-06,-0.3668909588252826,6.462701101573372e-05,0.38236424332270835,-2.4518198745039372e-05,-0.185187634547986,0.0002966623641939385,1.4409247931486382,,,1.5539999999999998,-0.18576706643784358,0.42857142857142855,1.0,0.2,1.25,1.7777777777777777,1.25,2.2222222222222223,3.111111111111111,2.375,2.6666666666666665,2.0,2.0,2.5,2.75,,,,,,,,,,,,
41,240614_151756,LEARNING,1.0,42,3.0,361.0,,,,,,,,,,42.0,42.0,42.0,cue2.png,Hard,A,,,,,,,,,,,,,,,,,,,,,,,,,,,13,23,Female,0.9236111111111112,0.9166666666666666,0.7280928722256148,-7.257189080276272e-05,-1.0110896054246974,-2.6286648982688267e-05,-0.5987279843048864,,,-1.209993133143494e-05,-0.024097394508741904,,,,,0.42857142857142855,1.0,0.2,1.25,1.7777777777777777,1.25,2.2222222222222223,3.111111111111111,2.375,2.6666666666666665,2.0,2.0,2.5,2.75,,,,,,,,,,,,
42,240614_151828,LEARNING,1.0,43,3.0,361.0,,,,,,,,,,43.0,43.0,43.0,cue2.png,Hard,A,,,,,,,,,,,,,,,,,,,,,,,,,,,13,23,Female,1.0,1.0,0.6884028944477905,,,-0.0001703303785412975,-2.153171876574713,,,3.410430156831857e-05,0.19513347448920326,,,1.1429999999999998,-0.9078937993929259,0.42857142857142855,1.0,0.2,1.25,1.7777777777777777,1.25,2.2222222222222223,3.111111111111111,2.375,2.6666666666666665,2.0,2.0,2.5,2.75,,,,,,,,,,,,
43,240614_151901,LEARNING,1.0,44,1.0,361.0,,,,,,,,,,44.0,44.0,44.0,cue1.png,Easy,A,,,,,,,,,,,,,,,,,,,,,,,,,,,13,23,Female,1.0,0.9444444444444444,0.7364360588202116,0.00017910357434314933,1.5014748167451888,-8.166809219691939e-05,-1.1963752849770213,-9.18426406489167e-05,-0.48283581317900665,-0.00033231193931664406,-1.5434464317816634,1.9140000000000001,0.50612860851777,2.5100000000000002,1.493924312406582,0.42857142857142855,1.0,0.2,1.25,1.7777777777777777,1.25,2.2222222222222223,3.111111111111111,2.375,2.6666666666666665,2.0,2.0,2.5,2.75,,,,,,,,,,,,
44,240614_151933,LEARNING,1.0,45,1.0,361.0,,,,,,,,,,45.0,45.0,45.0,cue1.png,Easy,A,,,,,,,,,,,,,,,,,,,,,,,,,,,13,23,Female,1.0,1.0,0.674816622220937,,,0.0002830540766017211,2.7395138328743194,,,-0.00015550771730635758,-0.7045418379554234,1.546,-0.00720715979056094,1.956,0.5205466723649378,0.42857142857142855,1.0,0.2,1.25,1.7777777777777777,1.25,2.2222222222222223,3.111111111111111,2.375,2.6666666666666665,2.0,2.0,2.5,2.75,,,,,,,,,,,,
45,240614_152006,LEARNING,1.0,46,1.0,361.0,,,,,,,,,,46.0,46.0,46.0,cue1.png,Easy,A,,,,,,,,,,,,,,,,,,,,,,,,,,,13,23,Female,1.0,0.9444444444444444,0.6743117411747602,3.845895996213225e-05,0.09737031232450205,9.5389209099476e-06,-0.21211734545694777,,,,,2.6959999999999997,1.5969671161729724,0.643,-1.7863934745207628,0.42857142857142855,1.0,0.2,1.25,1.7777777777777777,1.25,2.2222222222222223,3.111111111111111,2.375,2.6666666666666665,2.0,2.0,2.5,2.75,,,,,,,,,,,,
46,240614_152038,LEARNING,1.0,47,3.0,361.0,,,,,,,,,,47.0,47.0,47.0,cue2.png,Hard,A,,,,,,,,,,,,,,,,,,,,,,,,,,,13,23,Female,1.0,1.0,0.6728042888862547,,,1.4877477117866862e-06,-0.2990013565960481,,,,,1.5750000000000002,0.03324593064678054,1.2840000000000003,-0.6601568910068749,0.42857142857142855,1.0,0.2,1.25,1.7777777777777777,1.25,2.2222222222222223,3.111111111111111,2.375,2.6666666666666665,2.0,2.0,2.5,2.75,,,,,,,,,,,,
47,240614_152108,LEARNING,1.0,48,3.0,361.0,,,,,,,,,,48.0,48.0,48.0,cue2.png,Hard,A,,,,,,,,,,,,,,,,,,,,,,,,,,,13,23,Female,1.0,1.0,0.5730101166684309,,,-5.318429575096144e-05,-0.8889931896247838,-2.1959765377502476e-05,-0.17387654142249914,-0.0002859709166804607,-1.3235665198085307,1.9599999999999997,0.5702955795563108,1.0030000000000001,-1.1538737084287198,0.42857142857142855,1.0,0.2,1.25,1.7777777777777777,1.25,2.2222222222222223,3.111111111111111,2.375,2.6666666666666665,2.0,2.0,2.5,2.75,,,,,,,,,,,,
48,240614_152139,LEARNING,1.0,49,1.0,361.0,,,,,,,,,,49.0,49.0,49.0,cue1.png,Easy,A,,,,,,,,,,,,,,,,,,,,,,,,,,,13,23,Female,0.9153846153846156,0.9230769230769232,0.6204528666647902,0.00023679502592951476,2.077428808268358,-0.00013759054031687798,-1.7998608250086414,,,,,,,,,0.42857142857142855,1.0,0.2,1.25,1.7777777777777777,1.25,2.2222222222222223,3.111111111111111,2.375,2.6666666666666665,2.0,2.0,2.5,2.75,,,,,,,,,,,,
49,240614_152212,LEARNING,1.0,50,1.0,361.0,,,,,,,,,,50.0,50.0,50.0,cue1.png,Easy,A,,,,,,,,,,,,,,,,,,,,,,,,,,,13,23,Female,1.0,1.0,0.7027391666649945,-1.7980853641382747e-05,-0.4660881383110272,,,,,-1.9032342476218815e-05,-0.0569904526581851,2.1100000000000003,0.7795357025080769,1.9560000000000002,0.5205466723649382,0.42857142857142855,1.0,0.2,1.25,1.7777777777777777,1.25,2.2222222222222223,3.111111111111111,2.375,2.6666666666666665,2.0,2.0,2.5,2.75,,,,,,,,,,,,
0,240614_152426,TrueCHOICE,9.0,1,3.0,361.0,,,,,,,,,,,1.0,1.0,,,A,,,,,,True,cue1.png,Easy,cue2.png,Hard,Right,Hard,Hard,0.0143724000081419,,,,,,,,,,,,,13,23,Female,1.0,1.0,0.7211200555547193,,,,,,,,,,,,,0.42857142857142855,1.0,0.2,1.25,1.7777777777777777,1.25,2.2222222222222223,3.111111111111111,2.375,2.6666666666666665,2.0,2.0,2.5,2.75,,,-0.00015199333457411235,-0.7658020510116403,,,,,,,,
1,240614_152453,TrueCHOICE,9.0,2,1.0,361.0,,,,,,,,,,,2.0,2.0,,,A,,,,,,True,cue1.png,Easy,cue2.png,Hard,Left,Easy,Easy,0.015831500000786,,,,,,,,,,,,,13,23,Female,,,,,,,,,,,,,,,,0.42857142857142855,1.0,0.2,1.25,1.7777777777777777,1.25,2.2222222222222223,3.111111111111111,2.375,2.6666666666666665,2.0,2.0,2.5,2.75,5.8158776640203965e-05,0.7529579013864355,2.356971734956536e-05,0.6872721912326739,1.4549999999999998,-0.7213270168307615,,,,,,
2,240614_152524,TrueCHOICE,9.0,3,3.0,361.0,,,,,,,,,,,3.0,3.0,,,A,,,,,,True,cue2.png,Hard,cue1.png,Easy,Left,Hard,Hard,0.01580880000256,,,,,,,,,,,,,13,23,Female,0.9236111111111112,0.9166666666666666,0.6482953888933278,,,,,,,,,,,,,0.42857142857142855,1.0,0.2,1.25,1.7777777777777777,1.25,2.2222222222222223,3.111111111111111,2.375,2.6666666666666665,2.0,2.0,2.5,2.75,9.877357529863504e-07,-0.14033120842937893,,,1.459,-0.7126520076085029,,,,,,
3,240614_152553,TrueCHOICE,9.0,4,3.0,361.0,,,,,,,,,,,4.0,4.0,,,A,,,,,,True,cue1.png,Easy,cue2.png,Hard,Right,Hard,Hard,0.0165442999859806,,,,,,,,,,,,,13,23,Female,0.9236111111111112,0.9166666666666666,0.6447148666629801,,,,,,,,,,,,,0.42857142857142855,1.0,0.2,1.25,1.7777777777777777,1.25,2.2222222222222223,3.111111111111111,2.375,2.6666666666666665,2.0,2.0,2.5,2.75,9.86790097804312e-05,1.3860805877962898,-0.0002784872193876899,-1.8127478850583967,,,,,,,,
4,240614_152624,TrueCHOICE,9.0,5,1.0,361.0,,,,,,,,,,,5.0,5.0,,,A,,,,,,True,cue2.png,Hard,cue1.png,Easy,Right,Easy,Easy,0.0164864999824203,,,,,,,,,,,,,13,23,Female,1.0,1.0,0.7839576666657295,,,,,,,,,,,,,0.42857142857142855,1.0,0.2,1.25,1.7777777777777777,1.25,2.2222222222222223,3.111111111111111,2.375,2.6666666666666665,2.0,2.0,2.5,2.75,,,-2.9260964328191655e-05,0.25001103687811116,1.578,-0.45457048324632426,,,,,,
5,240614_152653,TrueCHOICE,9.0,6,3.0,361.0,,,,,,,,,,,6.0,6.0,,,A,,,,,,True,cue2.png,Hard,cue1.png,Easy,Left,Hard,Hard,0.0171866999880876,,,,,,,,,,,,,13,23,Female,0.95,0.9444444444444444,0.7149349941173568,,,,,,,,,,,,,0.42857142857142855,1.0,0.2,1.25,1.7777777777777777,1.25,2.2222222222222223,3.111111111111111,2.375,2.6666666666666665,2.0,2.0,2.5,2.75,,,,,,,,,,,,
6,240614_152724,TrueCHOICE,9.0,7,1.0,361.0,,,,,,,,,,,7.0,7.0,,,A,,,,,,True,cue1.png,Easy,cue2.png,Hard,Left,Easy,Easy,0.0159605999942868,,,,,,,,,,,,,13,23,Female,,,,,,,,,,,,,,,,0.42857142857142855,1.0,0.2,1.25,1.7777777777777777,1.25,2.2222222222222223,3.111111111111111,2.375,2.6666666666666665,2.0,2.0,2.5,2.75,,,-2.6709931923124368e-06,0.47008696820996443,,,,,,,,
7,240614_152757,TrueCHOICE,9.0,8,1.0,361.0,,,,,,,,,,,8.0,8.0,,,A,,,,,,True,cue2.png,Hard,cue1.png,Easy,Right,Easy,Easy,0.0159416999958921,,,,,,,,,,,,,13,23,Female,0.9,0.7222222222222222,0.8129915538414095,,,,,,,,,,,,,0.42857142857142855,1.0,0.2,1.25,1.7777777777777777,1.25,2.2222222222222223,3.111111111111111,2.375,2.6666666666666665,2.0,2.0,2.5,2.75,-8.58213255547878e-05,-1.4967100305771803,,,,,,,,,,
8,240614_152829,TrueCHOICE,9.0,9,1.0,361.0,,,,,,,,,,,9.0,9.0,,,A,,,,,,True,cue1.png,Easy,cue2.png,Hard,Left,Easy,Easy,0.0135252999898511,,,,,,,,,,,,,13,23,Female,0.9583333333333334,0.9444444444444444,0.7372339058835197,,,,,,,,,,,,,0.42857142857142855,1.0,0.2,1.25,1.7777777777777777,1.25,2.2222222222222223,3.111111111111111,2.375,2.6666666666666665,2.0,2.0,2.5,2.75,-2.2159108681831657e-05,-0.5019972501761659,8.203630054029378e-05,1.1711797397492878,2.682,1.9397320620969125,,,,,,
9,240614_152900,TrueCHOICE,9.0,10,1.0,361.0,,,,,,,,,,,10.0,10.0,,,A,,,,,,True,cue2.png,Hard,cue1.png,Easy,Right,Easy,Easy,0.0165870999917387,,,,,,,,,,,,,13,23,Female,1.0,1.0,0.7265775111154653,,,,,,,,,,,,,0.42857142857142855,1.0,0.2,1.25,1.7777777777777777,1.25,2.2222222222222223,3.111111111111111,2.375,2.6666666666666665,2.0,2.0,2.5,2.75,,,,,1.7639999999999998,-0.05118255441132296,,,,,,
0,240614_153117,FalseCHOICE,9.0,1,2.0,361.0,,,,,,,,,,,1.0,1.0,,,A,,,,,,False,cue1.png,Easy,cue2.png,Hard,Left,Easy,Mid,0.0160449999966658,,,,,,,,,,,,,13,23,Female,1.0,1.0,0.5905597499982428,,,,,,,,,,,,,0.42857142857142855,1.0,0.2,1.25,1.7777777777777777,1.25,2.2222222222222223,3.111111111111111,2.375,2.6666666666666665,2.0,2.0,2.5,2.75,,,-0.00015199333457411235,-0.7658020510116403,,,,,,,,
1,240614_153147,FalseCHOICE,9.0,2,2.0,361.0,,,,,,,,,,,2.0,2.0,,,A,,,,,,False,cue2.png,Hard,cue1.png,Easy,Right,Easy,Mid,0.0165363000123761,,,,,,,,,,,,,13,23,Female,,,,,,,,,,,,,,,,0.42857142857142855,1.0,0.2,1.25,1.7777777777777777,1.25,2.2222222222222223,3.111111111111111,2.375,2.6666666666666665,2.0,2.0,2.5,2.75,5.8158776640203965e-05,0.7529579013864355,2.356971734956536e-05,0.6872721912326739,1.4549999999999998,-0.7213270168307615,,,,,,
2,240614_153218,FalseCHOICE,9.0,3,2.0,361.0,,,,,,,,,,,3.0,3.0,,,A,,,,,,False,cue2.png,Hard,cue1.png,Easy,Left,Hard,Mid,0.0160642999981064,,,,,,,,,,,,,13,23,Female,,,,,,,,,,,,,,,,0.42857142857142855,1.0,0.2,1.25,1.7777777777777777,1.25,2.2222222222222223,3.111111111111111,2.375,2.6666666666666665,2.0,2.0,2.5,2.75,9.877357529863504e-07,-0.14033120842937893,,,1.459,-0.7126520076085029,,,,,,
3,240614_153249,FalseCHOICE,9.0,4,2.0,361.0,,,,,,,,,,,4.0,4.0,,,A,,,,,,False,cue2.png,Hard,cue1.png,Easy,Right,Easy,Mid,0.0156595000007655,,,,,,,,,,,,,13,23,Female,1.0,1.0,0.7185989722234404,,,,,,,,,,,,,0.42857142857142855,1.0,0.2,1.25,1.7777777777777777,1.25,2.2222222222222223,3.111111111111111,2.375,2.6666666666666665,2.0,2.0,2.5,2.75,9.86790097804312e-05,1.3860805877962898,-0.0002784872193876899,-1.8127478850583967,,,,,,,,
4,240614_153322,FalseCHOICE,9.0,5,2.0,361.0,,,,,,,,,,,5.0,5.0,,,A,,,,,,False,cue1.png,Easy,cue2.png,Hard,Right,Hard,Mid,0.0164523999847006,,,,,,,,,,,,,13,23,Female,,,,,,,,,,,,,,,,0.42857142857142855,1.0,0.2,1.25,1.7777777777777777,1.25,2.2222222222222223,3.111111111111111,2.375,2.6666666666666665,2.0,2.0,2.5,2.75,,,-2.9260964328191655e-05,0.25001103687811116,1.578,-0.45457048324632426,,,,,,
5,240614_153353,FalseCHOICE,9.0,6,2.0,361.0,,,,,,,,,,,6.0,6.0,,,A,,,,,,False,cue2.png,Hard,cue1.png,Easy,Right,Easy,Mid,0.0155745999945793,,,,,,,,,,,,,13,23,Female,1.0,1.0,0.7498134333371935,,,,,,,,,,,,,0.42857142857142855,1.0,0.2,1.25,1.7777777777777777,1.25,2.2222222222222223,3.111111111111111,2.375,2.6666666666666665,2.0,2.0,2.5,2.75,,,,,,,,,,,,
6,240614_153427,FalseCHOICE,9.0,7,2.0,361.0,,,,,,,,,,,7.0,7.0,,,A,,,,,,False,cue2.png,Hard,cue1.png,Easy,Right,Easy,Mid,0.0165910999930929,,,,,,,,,,,,,13,23,Female,0.95,0.9444444444444444,0.6869936117642176,,,,,,,,,,,,,0.42857142857142855,1.0,0.2,1.25,1.7777777777777777,1.25,2.2222222222222223,3.111111111111111,2.375,2.6666666666666665,2.0,2.0,2.5,2.75,,,-2.6709931923124368e-06,0.47008696820996443,,,,,,,,
7,240614_153500,FalseCHOICE,9.0,8,2.0,361.0,,,,,,,,,,,8.0,8.0,,,A,,,,,,False,cue1.png,Easy,cue2.png,Hard,Left,Easy,Mid,0.0158328999823424,,,,,,,,,,,,,13,23,Female,,,,,,,,,,,,,,,,0.42857142857142855,1.0,0.2,1.25,1.7777777777777777,1.25,2.2222222222222223,3.111111111111111,2.375,2.6666666666666665,2.0,2.0,2.5,2.75,-8.58213255547878e-05,-1.4967100305771803,,,,,,,,,,
8,240614_153533,FalseCHOICE,9.0,9,2.0,361.0,,,,,,,,,,,9.0,9.0,,,A,,,,,,False,cue1.png,Easy,cue2.png,Hard,Right,Hard,Mid,0.0166351999796461,,,,,,,,,,,,,13,23,Female,1.0,0.9444444444444444,0.7807668529378989,,,,,,,,,,,,,0.42857142857142855,1.0,0.2,1.25,1.7777777777777777,1.25,2.2222222222222223,3.111111111111111,2.375,2.6666666666666665,2.0,2.0,2.5,2.75,-2.2159108681831657e-05,-0.5019972501761659,8.203630054029378e-05,1.1711797397492878,2.682,1.9397320620969125,,,,,,
9,240614_153606,FalseCHOICE,9.0,10,2.0,361.0,,,,,,,,,,,10.0,10.0,,,A,,,,,,False,cue2.png,Hard,cue1.png,Easy,Left,Hard,Mid,0.0149874999769963,,,,,,,,,,,,,13,23,Female,,,,,,,,,,,,,,,,0.42857142857142855,1.0,0.2,1.25,1.7777777777777777,1.25,2.2222222222222223,3.111111111111111,2.375,2.6666666666666665,2.0,2.0,2.5,2.75,,,,,1.7639999999999998,-0.05118255441132296,,,,,,
0,240614_145339,OFFLINERATING,9.0,1,1.0,,,,,,,,,,,,,,,,,T0,cue1.png,Easy,50.0,1.4382014999864623,,,,,,,,,,,,,,,,,,,,,,13,23,Female,,,,,,,,,,,,,,,,0.42857142857142855,1.0,0.2,1.25,1.7777777777777777,1.25,2.2222222222222223,3.111111111111111,2.375,2.6666666666666665,2.0,2.0,2.5,2.75,,,,,,,,,,,0.831,-1.6926667059604952
1,240614_145347,OFFLINERATING,9.0,2,3.0,,,,,,,,,,,,,,,,,T0,cue2.png,Hard,48.0,1.7023992000031285,,,,,,,,,,,,,,,,,,,,,,13,23,Female,,,,,,,,,,,,,,,,0.42857142857142855,1.0,0.2,1.25,1.7777777777777777,1.25,2.2222222222222223,3.111111111111111,2.375,2.6666666666666665,2.0,2.0,2.5,2.75,,,,,,,,,,,1.5949999999999998,0.6564656525387201
2,240614_152252,OFFLINERATING,9.0,3,1.0,,,,,,,,,,,,,,,,,T1,cue1.png,Easy,52.0,0.5190328999888152,,,,,,,,,,,,,,,,,,,,,,13,23,Female,,,,,,,,,,,,,,,,0.42857142857142855,1.0,0.2,1.25,1.7777777777777777,1.25,2.2222222222222223,3.111111111111111,2.375,2.6666666666666665,2.0,2.0,2.5,2.75,,,,,,,,,-0.00019554700647014638,-0.37111780526503696,,
3,240614_152258,OFFLINERATING,9.0,4,3.0,,,,,,,,,,,,,,,,,T1,cue2.png,Hard,53.0,0.6747839000017848,,,,,,,,,,,,,,,,,,,,,,13,23,Female,,,,,,,,,,,,,,,,0.42857142857142855,1.0,0.2,1.25,1.7777777777777777,1.25,2.2222222222222223,3.111111111111111,2.375,2.6666666666666665,2.0,2.0,2.5,2.75,,,,,,,,,-0.00026630130599273856,-0.996263284061168,,
4,240614_152935,OFFLINERATING,9.0,5,1.0,,,,,,,,,,,,,,,,,T2,cue1.png,Easy,70.0,0.8352513000136241,,,,,,,,,,,,,,,,,,,,,,13,23,Female,,,,,,,,,,,,,,,,0.42857142857142855,1.0,0.2,1.25,1.7777777777777777,1.25,2.2222222222222223,3.111111111111111,2.375,2.6666666666666665,2.0,2.0,2.5,2.75,,,,,,,,,,,1.4559999999999997,0.22907115275941242
5,240614_152942,OFFLINERATING,9.0,6,3.0,,,,,,,,,,,,,,,,,T2,cue2.png,Hard,39.0,0.6679913000261877,,,,,,,,,,,,,,,,,,,,,,13,23,Female,,,,,,,,,,,,,,,,0.42857142857142855,1.0,0.2,1.25,1.7777777777777777,1.25,2.2222222222222223,3.111111111111111,2.375,2.6666666666666665,2.0,2.0,2.5,2.75,,,,,,,-8.982532109851364e-05,-1.3299008005717154,,,1.6439999999999997,0.8071299006623607
6,240614_155750,OFFLINERATING,9.0,7,1.0,,,,,,,,,,,,,,,,,T3,cue1.png,Easy,70.0,1.0523764000099618,,,,,,,,,,,,,,,,,,,,,,13,23,Female,,,,,,,,,,,,,,,,0.42857142857142855,1.0,0.2,1.25,1.7777777777777777,1.25,2.2222222222222223,3.111111111111111,2.375,2.6666666666666665,2.0,2.0,2.5,2.75,,,,,,,6.71625817416162e-05,1.0815111947433214,1.2172279037188719e-06,1.3673810893262046,,
7,240614_155757,OFFLINERATING,9.0,8,3.0,,,,,,,,,,,,,,,,,T3,cue2.png,Hard,36.0,0.9695662999874912,,,,,,,,,,,,,,,,,,,,,,13,23,Female,,,,,,,,,,,,,,,,0.42857142857142855,1.0,0.2,1.25,1.7777777777777777,1.25,2.2222222222222223,3.111111111111111,2.375,2.6666666666666665,2.0,2.0,2.5,2.75,,,,,,,1.2924645085128639e-05,0.24838960582839384,,,,
