,END,Phase,Block,TrialN,NbackLevel,ISI,Letter_Resp,Letter_RT,Letter_Accuracy,Trial_A_measure,Trial_ACC,Trial_RT,TrialCountCali,CaliEnd_A_measure,ISI_calibrated,TrialIndex,TrialNumber_total,TrialNumber_valid,CueLearning,TrialDemandLearning,CueMapping,OfflineRatingTimePoint,CueFigure,TrialDemand,OfflineRating,OfflineRatingRT,PhaseType,CueLeft,CueDemandLeft,CueRight,CueDemandRight,Choice,ChoiceDemand,TaskDemand,ChoiceRT,CueCheck,CueDemandCheck,CorrectAnswer,Answer,AnswerDemand,AnswerRT,AnswerACC,DemandRatingQuesIndex,QuesTLX,DemandLevel,DemandRating,DemandRatingRT,PID,Age,Gender,BAI_bis,BAI_bas_d,BAI_bas_rr,BAI_bas_fs,NFC,BFI_ext,BFI_agr,BFI_con,BFI_neu,BFI_open,UPPS_lps,UPPS_lpm,UPPS_pu,UPPS_ss,Task_A_measure,Task_ACC,Task_RT,Task_RT_z,cue_i_on_zyg_values,cue_i_on_zyg_zvalues,cue_e_on_zyg_values,cue_e_on_zyg_zvalues,cue_i_on_cor_values,cue_i_on_cor_zvalues,cue_e_on_cor_values,cue_e_on_cor_zvalues,cue_i_on_scr_values,cue_i_on_scr_zvalues,cue_e_on_scr_values,cue_e_on_scr_zvalues,cue_e_true_zyg_values,cue_e_true_zyg_zvalues,cue_e_true_cor_values,cue_e_true_cor_zvalues,cue_e_true_scr_values,cue_e_true_scr_zvalues,cue_e_false_zyg_values,cue_e_false_zyg_zvalues,cue_e_false_cor_values,cue_e_false_cor_zvalues,cue_e_false_scr_values,cue_e_false_scr_zvalues,OfflineRating_z,cue_i_off_zyg_values,cue_i_off_zyg_zvalues,cue_i_off_cor_values,cue_i_off_cor_zvalues,cue_i_off_scr_values,cue_i_off_scr_zvalues,DemandRating_z
0,240614_145114,PRACTICE,0.0,1,3.0,361.0,,,,,,,,,,43.0,1.0,1.0,cue2.png,Hard,A,,,,,,,,,,,,,,,,,,,,,,,,,,,13,23,Female,0.42857142857142855,1.0,0.2,1.25,1.7777777777777777,1.25,2.2222222222222223,3.111111111111111,2.375,2.6666666666666665,2.0,2.0,2.5,2.75,,,,,,,,,,,,,,,,,,,,,,,,,,,,,,,,,,,,
0,240614_145506,LEARNING,1.0,1,1.0,361.0,,,,,,,,,,1.0,1.0,1.0,cue1.png,Easy,A,,,,,,,,,,,,,,,,,,,,,,,,,,,13,23,Female,0.42857142857142855,1.0,0.2,1.25,1.7777777777777777,1.25,2.2222222222222223,3.111111111111111,2.375,2.6666666666666665,2.0,2.0,2.5,2.75,1.0,1.0,0.7009803555540404,-0.521660492550456,0.007592529118196625,0.30364550895951037,0.00404696015496295,-1.0293894055946649,0.016741020491431193,0.9065084877262403,0.011880590082378953,-0.32357342103662873,,,,,,,,,,,,,,,,,,,,,,,,
1,240614_145540,LEARNING,1.0,2,3.0,361.0,,,,,,,,,,2.0,2.0,2.0,cue2.png,Hard,A,,,,,,,,,,,,,,,,,,,,,,,,,,,13,23,Female,0.42857142857142855,1.0,0.2,1.25,1.7777777777777777,1.25,2.2222222222222223,3.111111111111111,2.375,2.6666666666666665,2.0,2.0,2.5,2.75,0.8194444444444444,0.8333333333333334,0.7587278111136079,0.7811127236321685,0.004062474712282204,-1.1680855865737796,0.005710960062289381,-0.17775477745987794,0.008670035294405081,-0.9207860999409551,0.013162128384346734,0.05657146777249357,2.719106686864672e+44,-0.1651008554755327,5.58185959330761e+44,-0.18627295259063528,,,,,,,,,,,,,,,,,,,,
2,240614_145613,LEARNING,1.0,3,1.0,361.0,,,,,,,,,,3.0,3.0,3.0,cue1.png,Easy,A,,,,,,,,,,,,,,,,,,,,,,,,,,,13,23,Female,0.42857142857142855,1.0,0.2,1.25,1.7777777777777777,1.25,2.2222222222222223,3.111111111111111,2.375,2.6666666666666665,2.0,2.0,2.5,2.75,1.0,0.9444444444444444,0.7385290941216655,0.32543294963395747,,,,,,,,,-7.568457115318605e+44,-0.18016830536747397,-3.3479690418312133e+45,-0.1866931769156132,,,,,,,,,,,,,,,,,,,,
3,240614_145648,LEARNING,1.0,4,3.0,361.0,,,,,,,,,,4.0,4.0,4.0,cue2.png,Hard,A,,,,,,,,,,,,,,,,,,,,,,,,,,,13,23,Female,0.42857142857142855,1.0,0.2,1.25,1.7777777777777777,1.25,2.2222222222222223,3.111111111111111,2.375,2.6666666666666665,2.0,2.0,2.5,2.75,0.75,0.4166666666666666,0.8012928222144384,1.7413724592577124,0.008677642975138698,0.7560452801301837,0.005918969626845476,-0.07129554787744671,0.010428560422880227,-0.5226508821086385,0.008793194792144302,-1.2393927434196796,-7.132548833744878e+44,-0.17952986206676752,-3.5555660218851236e+45,-0.18671551020775973,,,,,,,,,,,,,,,,,,,,
4,240614_145722,LEARNING,1.0,5,3.0,361.0,,,,,,,,,,5.0,5.0,5.0,cue2.png,Hard,A,,,,,,,,,,,,,,,,,,,,,,,,,,,13,23,Female,0.42857142857142855,1.0,0.2,1.25,1.7777777777777777,1.25,2.2222222222222223,3.111111111111111,2.375,2.6666666666666665,2.0,2.0,2.5,2.75,0.85,0.8333333333333334,0.7661851066630334,0.9493480997679727,0.007166016523484242,0.12582619625342195,0.0058208542307838975,-0.12151097665920325,,,0.013787474058606735,0.24206882001223204,4.154730601683901e+47,5.9160497798532345,5.708690124019021e+49,5.9550783169532995,,,,,,,,,,,,,,,,,,,,
5,240614_145756,LEARNING,1.0,6,1.0,361.0,,,,,,,,,,6.0,6.0,6.0,cue1.png,Easy,A,,,,,,,,,,,,,,,,,,,,,,,,,,,13,23,Female,0.42857142857142855,1.0,0.2,1.25,1.7777777777777777,1.25,2.2222222222222223,3.111111111111111,2.375,2.6666666666666665,2.0,2.0,2.5,2.75,1.0,0.9444444444444444,0.7692491529434098,1.0184724860900813,0.00907737506499054,0.9226994103135029,0.008338920925454022,1.1672347640659473,0.009389449606161485,-0.7579086015845987,0.012246281788449335,-0.21509766753859658,1.2488125198663415e+43,-0.16890042965072558,-1.7158865589262514e+43,-0.18633484821193286,,,,,,,,,,,,,,,,,,,,
6,240614_145830,LEARNING,1.0,7,3.0,361.0,,,,,,,,,,7.0,7.0,7.0,cue2.png,Hard,A,,,,,,,,,,,,,,,,,,,,,,,,,,,13,23,Female,0.42857142857142855,1.0,0.2,1.25,1.7777777777777777,1.25,2.2222222222222223,3.111111111111111,2.375,2.6666666666666665,2.0,2.0,2.5,2.75,0.9166666666666666,0.8333333333333334,0.7698898866656236,1.032927334774179,,,,,0.013792353824376949,0.2389217545070768,0.012463942314739414,-0.15053265497703108,9.077183035966425e+43,-0.16775386489783572,,,,,,,,,,,,,,,,,,,,,,
7,240614_145904,LEARNING,1.0,8,3.0,361.0,,,,,,,,,,8.0,8.0,8.0,cue2.png,Hard,A,,,,,,,,,,,,,,,,,,,,,,,,,,,13,23,Female,0.42857142857142855,1.0,0.2,1.25,1.7777777777777777,1.25,2.2222222222222223,3.111111111111111,2.375,2.6666666666666665,2.0,2.0,2.5,2.75,1.0,0.7777777777777778,0.7405529928530866,0.37109177622661504,0.004291022573993796,-1.0728006543259827,0.005018888510425672,-0.5319567795868481,0.00929053944811269,-0.780302149838716,,,2.6590538706170773e+44,-0.16518881048772796,,,,,,,,,,,,,,,,,,,,,,
8,240614_145938,LEARNING,1.0,9,1.0,361.0,,,,,,,,,,9.0,9.0,9.0,cue1.png,Easy,A,,,,,,,,,,,,,,,,,,,,,,,,,,,13,23,Female,0.42857142857142855,1.0,0.2,1.25,1.7777777777777777,1.25,2.2222222222222223,3.111111111111111,2.375,2.6666666666666665,2.0,2.0,2.5,2.75,1.0,0.9444444444444444,0.7800533882349127,1.2622142790871065,0.004523510301616402,-0.9758731345974504,0.006006732404137034,-0.026378586119401783,0.0172393430160261,1.0193301606541558,0.009680695956952898,-0.976131761601118,,,7.00374144745948e+48,0.5671298073830607,,,,,,,,,,,,,,,,,,,,
9,240614_150012,LEARNING,1.0,10,1.0,361.0,,,,,,,,,,10.0,10.0,10.0,cue1.png,Easy,A,,,,,,,,,,,,,,,,,,,,,,,,,,,13,23,Female,0.42857142857142855,1.0,0.2,1.25,1.7777777777777777,1.25,2.2222222222222223,3.111111111111111,2.375,2.6666666666666665,2.0,2.0,2.5,2.75,1.0,0.8333333333333334,0.7638725533305357,0.8971772722678039,0.014178476883480865,3.0494230537721663,0.006577088660500269,0.2655295661308527,0.011925625277290679,-0.18371103287449977,0.010819060148114776,-0.6384568530876167,3.442978895887047e+44,-0.16404065225858655,1.5390390319862805e+45,-0.18616743237440306,,,,,,,,,,,,,,,,,,,,
10,240614_150045,LEARNING,1.0,11,3.0,361.0,,,,,,,,,,11.0,11.0,11.0,cue2.png,Hard,A,,,,,,,,,,,,,,,,,,,,,,,,,,,13,23,Female,0.42857142857142855,1.0,0.2,1.25,1.7777777777777777,1.25,2.2222222222222223,3.111111111111111,2.375,2.6666666666666665,2.0,2.0,2.5,2.75,0.8194444444444444,0.7777777777777778,0.688066029407577,-0.8130055924450262,0.005791220621875258,-0.4473462384319145,,,0.011745049721251403,-0.22459386541112047,0.018868892553788038,1.7493786412460244,3.3763636438668464e+44,-0.1641382187953443,1.034119864092608e+45,-0.1862217516004536,,,,,,,,,,,,,,,,,,,,
11,240614_150118,LEARNING,1.0,12,1.0,361.0,,,,,,,,,,12.0,12.0,12.0,cue1.png,Easy,A,,,,,,,,,,,,,,,,,,,,,,,,,,,13,23,Female,0.42857142857142855,1.0,0.2,1.25,1.7777777777777777,1.25,2.2222222222222223,3.111111111111111,2.375,2.6666666666666665,2.0,2.0,2.5,2.75,0.9153846153846156,0.9230769230769232,0.7507182277735814,0.6004178246611573,0.0115174203015024,1.939989807613245,0.005454860226473552,-0.3088265927166606,0.011935364208772808,-0.18150611038331313,,,3.1284498077320124e+44,-0.16450132024242234,,,,,,,,,,,,,,,,,,,,,,
12,240614_150152,LEARNING,1.0,13,1.0,361.0,,,,,,,,,,13.0,13.0,13.0,cue1.png,Easy,A,,,,,,,,,,,,,,,,,,,,,,,,,,,13,23,Female,0.42857142857142855,1.0,0.2,1.25,1.7777777777777777,1.25,2.2222222222222223,3.111111111111111,2.375,2.6666666666666665,2.0,2.0,2.5,2.75,1.0,0.8888888888888888,0.7589050750011666,0.785111768138461,,,0.004731259264423858,-0.679165337039845,0.012710058215075176,-0.006113127958301153,0.01482070552877443,0.5485580304696026,2.441667258287005e+44,-0.16550720092023902,-7.0072771316904e+44,-0.1864083865782969,,,,,,,,,,,,,,,,,,,,
13,240614_150226,LEARNING,1.0,14,1.0,361.0,,,,,,,,,,14.0,14.0,14.0,cue1.png,Easy,A,,,,,,,,,,,,,,,,,,,,,,,,,,,13,23,Female,0.42857142857142855,1.0,0.2,1.25,1.7777777777777777,1.25,2.2222222222222223,3.111111111111111,2.375,2.6666666666666665,2.0,2.0,2.5,2.75,0.95,0.8888888888888888,0.762860049993833,0.8743353614758855,0.005712373577047609,-0.4802187197934867,,,0.008995104038786079,-0.8471895881488091,0.009975838534118583,-0.8885831163462625,6.152983822923943e+43,-0.16818215118566626,,,,,,,,,,,,,,,,,,,,,,
14,240614_150259,LEARNING,1.0,15,3.0,361.0,,,,,,,,,,15.0,15.0,15.0,cue2.png,Hard,A,,,,,,,,,,,,,,,,,,,,,,,,,,,13,23,Female,0.42857142857142855,1.0,0.2,1.25,1.7777777777777777,1.25,2.2222222222222223,3.111111111111111,2.375,2.6666666666666665,2.0,2.0,2.5,2.75,0.9153846153846156,0.9230769230769232,0.7205808777750159,-0.07947589540678707,0.006949652426562798,0.035620852997874534,,,0.015518970623508653,0.6298328335152684,0.018129802213002172,1.5301410148820462,,,,,,,,,,,,,,,,,,,,,,,,
15,240614_150334,LEARNING,1.0,16,1.0,361.0,,,,,,,,,,16.0,16.0,16.0,cue1.png,Easy,A,,,,,,,,,,,,,,,,,,,,,,,,,,,13,23,Female,0.42857142857142855,1.0,0.2,1.25,1.7777777777777777,1.25,2.2222222222222223,3.111111111111111,2.375,2.6666666666666665,2.0,2.0,2.5,2.75,0.9166666666666666,0.7222222222222222,0.7773370846138837,1.2009349106680753,0.007813937901930822,0.3959540556209643,0.009675561284135418,1.8513268783765457,0.008674921100811743,-0.919679939121013,0.010437292779698692,-0.7517011576820588,,,,,,,,,,,,,,,,,,,,,,,,
16,240614_150407,LEARNING,1.0,17,1.0,361.0,,,,,,,,,,17.0,17.0,17.0,cue1.png,Easy,A,,,,,,,,,,,,,,,,,,,,,,,,,,,13,23,Female,0.42857142857142855,1.0,0.2,1.25,1.7777777777777777,1.25,2.2222222222222223,3.111111111111111,2.375,2.6666666666666665,2.0,2.0,2.5,2.75,1.0,1.0,0.7691087166668795,1.0153042665058378,0.012771028832506633,2.4626374624520997,0.006491246346137323,0.2215954966944078,0.016070517373381287,0.7547046262747263,0.013119209056089012,0.043840234345258765,,,,,,,,,,,,,,,,,,,,,,,,
17,240614_150441,LEARNING,1.0,18,3.0,361.0,,,,,,,,,,18.0,18.0,18.0,cue2.png,Hard,A,,,,,,,,,,,,,,,,,,,,,,,,,,,13,23,Female,0.42857142857142855,1.0,0.2,1.25,1.7777777777777777,1.25,2.2222222222222223,3.111111111111111,2.375,2.6666666666666665,2.0,2.0,2.5,2.75,0.9153846153846156,0.9230769230769232,0.7286079277821247,0.1016130487360915,0.0081937003863074,0.5542825664330252,,,0.014560954110296582,0.41293510086507784,0.02294208090629793,2.9576154383717435,,,,,,,,,,,,,,,,,,,,,,,,
18,240614_150514,LEARNING,1.0,19,3.0,361.0,,,,,,,,,,19.0,19.0,19.0,cue2.png,Hard,A,,,,,,,,,,,,,,,,,,,,,,,,,,,13,23,Female,0.42857142857142855,1.0,0.2,1.25,1.7777777777777777,1.25,2.2222222222222223,3.111111111111111,2.375,2.6666666666666665,2.0,2.0,2.5,2.75,1.0,1.0,0.7533189833355007,0.6590904476377917,0.005186384003193032,-0.6995114339429046,0.004164922815004898,-0.9690161533629222,0.017135099881473135,0.9957292109658471,0.009443564194583497,-1.0464725600779268,,,5.338357090271744e+44,-0.18627557219162238,,,,,,,,,,,,,,,,,,,,
19,240614_150547,LEARNING,1.0,20,3.0,361.0,,,,,,,,,,20.0,20.0,20.0,cue2.png,Hard,A,,,,,,,,,,,,,,,,,,,,,,,,,,,13,23,Female,0.42857142857142855,1.0,0.2,1.25,1.7777777777777777,1.25,2.2222222222222223,3.111111111111111,2.375,2.6666666666666665,2.0,2.0,2.5,2.75,0.95,0.8888888888888888,0.7036876812508126,-0.4605836646441661,0.005737711798421237,-0.469654846262644,0.004375357253453418,-0.8613158740865839,0.008148792508069875,-1.0387969869739089,0.019102267351065648,1.8186050047700222,,,3.8503995410410684e+44,-0.186291579645411,,,,,,,,,,,,,,,,,,,,
20,240614_150621,LEARNING,1.0,21,1.0,361.0,,,,,,,,,,21.0,21.0,21.0,cue1.png,Easy,A,,,,,,,,,,,,,,,,,,,,,,,,,,,13,23,Female,0.42857142857142855,1.0,0.2,1.25,1.7777777777777777,1.25,2.2222222222222223,3.111111111111111,2.375,2.6666666666666665,2.0,2.0,2.5,2.75,0.8125,0.6944444444444444,0.7596844785709566,0.8026949860565588,,,0.010633804549894451,2.341755479787079,0.009854149677236685,-0.6526991501935648,0.011242883065684214,-0.5127375393325743,1.2019064672292554e+44,-0.16732298879348573,1.3741802165092791e+44,-0.18631821882367808,,,,,,,,,,,,,,,,,,,,
21,240614_150654,LEARNING,1.0,22,3.0,361.0,,,,,,,,,,22.0,22.0,22.0,cue2.png,Hard,A,,,,,,,,,,,,,,,,,,,,,,,,,,,13,23,Female,0.42857142857142855,1.0,0.2,1.25,1.7777777777777777,1.25,2.2222222222222223,3.111111111111111,2.375,2.6666666666666665,2.0,2.0,2.5,2.75,1.0,1.0,0.7131207222183649,-0.24777579284098192,0.005281798306883013,-0.6597318210667042,0.005051044283047566,-0.5154994652933439,0.011904799519067108,-0.1884260452747231,,,,,-1.3036220361293523e+44,-0.18634702663196281,,,,,,,,,,,,,,,,,,,,
22,240614_150727,LEARNING,1.0,23,3.0,361.0,,,,,,,,,,23.0,23.0,23.0,cue2.png,Hard,A,,,,,,,,,,,,,,,,,,,,,,,,,,,13,23,Female,0.42857142857142855,1.0,0.2,1.25,1.7777777777777777,1.25,2.2222222222222223,3.111111111111111,2.375,2.6666666666666665,2.0,2.0,2.5,2.75,0.8,0.8461538461538461,0.7107253222267091,-0.3018156275130765,0.00933017716180545,1.0280962864282617,0.007030602795883389,0.4976379576880557,0.007328891481402958,-1.2244249706559098,0.017409817288547236,1.3165706606984011,2.5680269273680573e+43,-0.16870721386743642,-3.3175620261556455e+44,-0.18636869260713798,,,,,,,,,,,,,,,,,,,,
23,240614_150801,LEARNING,1.0,24,3.0,361.0,,,,,,,,,,24.0,24.0,24.0,cue2.png,Hard,A,,,,,,,,,,,,,,,,,,,,,,,,,,,13,23,Female,0.42857142857142855,1.0,0.2,1.25,1.7777777777777777,1.25,2.2222222222222223,3.111111111111111,2.375,2.6666666666666665,2.0,2.0,2.5,2.75,0.8680555555555555,0.75,0.7410511066671461,0.38232914295176745,0.007555420847336744,0.2881745303721956,0.005315533914231868,-0.38013375541114813,0.012813670953507028,0.017345098209634497,0.016416561111826718,1.0219393896090976,-3.164790022252024e+43,-0.16954685806103784,-4.308124070824293e+44,-0.18637934907792436,,,,,,,,,,,,,,,,,,,,
24,240614_150834,LEARNING,1.0,25,1.0,361.0,,,,,,,,,,25.0,25.0,25.0,cue1.png,Easy,A,,,,,,,,,,,,,,,,,,,,,,,,,,,13,23,Female,0.42857142857142855,1.0,0.2,1.25,1.7777777777777777,1.25,2.2222222222222223,3.111111111111111,2.375,2.6666666666666665,2.0,2.0,2.5,2.75,1.0,1.0,0.7581192777773443,0.7673843104240641,0.0047009705697822965,-0.9018873641674421,0.004666093313426765,-0.7125172502221163,0.00922991888471988,-0.7940268221909627,0.011338149978011025,-0.4844783529016606,-7.688102208496069e+43,-0.17020935484863853,-3.993630088746798e+44,-0.18637596575029683,,,,,,,,,,,,,,,,,,,,
25,240614_150908,LEARNING,1.0,26,1.0,361.0,,,,,,,,,,26.0,26.0,26.0,cue1.png,Easy,A,,,,,,,,,,,,,,,,,,,,,,,,,,,13,23,Female,0.42857142857142855,1.0,0.2,1.25,1.7777777777777777,1.25,2.2222222222222223,3.111111111111111,2.375,2.6666666666666665,2.0,2.0,2.5,2.75,1.0,0.7777777777777778,0.7525550214320121,0.6418555912029104,0.005245118658071317,-0.675024100879437,0.004668165511678042,-0.7114566998101975,0.011916647093525079,-0.18574371986394028,0.016328992707459106,0.9959638247036992,-9.243835381647023e+43,-0.1704372118231606,-2.7567829829799902e+44,-0.1863626597437516,,,,,,,,,,,,,,,,,,,,
26,240614_150942,LEARNING,1.0,27,3.0,361.0,,,,,,,,,,27.0,27.0,27.0,cue2.png,Hard,A,,,,,,,,,,,,,,,,,,,,,,,,,,,13,23,Female,0.42857142857142855,1.0,0.2,1.25,1.7777777777777777,1.25,2.2222222222222223,3.111111111111111,2.375,2.6666666666666665,2.0,2.0,2.5,2.75,1.0,0.9444444444444444,0.7497398588183226,0.5783459799693854,0.005637919135781353,-0.5112598607539534,0.004466972546162526,-0.8144271961520153,0.015235345860377593,0.5656193599496449,0.018459165189193223,1.6278405153727749,-7.22102274933522e+43,-0.17014094510186287,,,,,,,,,,,,,,,,,,,,,,
27,240614_151015,LEARNING,1.0,28,1.0,361.0,,,,,,,,,,28.0,28.0,28.0,cue1.png,Easy,A,,,,,,,,,,,,,,,,,,,,,,,,,,,13,23,Female,0.42857142857142855,1.0,0.2,1.25,1.7777777777777777,1.25,2.2222222222222223,3.111111111111111,2.375,2.6666666666666665,2.0,2.0,2.5,2.75,1.0,0.8888888888888888,0.7308351499923447,0.1518588199799629,,,,,0.01106249842266909,-0.379125470073738,0.008888973844871332,-1.2109816399097393,-3.927597611548582e+43,-0.16965858096599298,1.0748732643420513e+44,-0.18632143876917173,,,,,,,,,,,,,,,,,,,,
28,240614_151049,LEARNING,1.0,29,1.0,361.0,,,,,,,,,,29.0,29.0,29.0,cue1.png,Easy,A,,,,,,,,,,,,,,,,,,,,,,,,,,,13,23,Female,0.42857142857142855,1.0,0.2,1.25,1.7777777777777777,1.25,2.2222222222222223,3.111111111111111,2.375,2.6666666666666665,2.0,2.0,2.5,2.75,1.0,0.8888888888888888,0.7641239750046225,0.902849304391023,0.004713584966874226,-0.8966282382966075,0.004084702121797935,-1.0100730788634742,0.01104078739256514,-0.38404091060957796,0.012013325833564037,-0.2841997891305275,7.796247549616096e+42,-0.16896914818577963,2.8657318129869253e+44,-0.1863021727051136,,,,,,,,,,,,,,,,,,,,
29,240614_151122,LEARNING,1.0,30,3.0,361.0,,,,,,,,,,30.0,30.0,30.0,cue2.png,Hard,A,,,,,,,,,,,,,,,,,,,,,,,,,,,13,23,Female,0.42857142857142855,1.0,0.2,1.25,1.7777777777777777,1.25,2.2222222222222223,3.111111111111111,2.375,2.6666666666666665,2.0,2.0,2.5,2.75,1.0,1.0,0.7177401166651786,-0.14356300455485668,0.0043381565035771836,-1.0531498325974777,0.004230879948894268,-0.935259313025737,0.008685905088103305,-0.9171931323633608,0.013214366607681537,0.07206698091533381,4.374804864060428e+43,-0.16844258818393687,3.6194007666353824e+44,-0.1862940647312311,,,,,,,,,,,,,,,,,,,,
30,240614_151153,LEARNING,1.0,31,3.0,361.0,,,,,,,,,,31.0,31.0,31.0,cue2.png,Hard,A,,,,,,,,,,,,,,,,,,,,,,,,,,,13,23,Female,0.42857142857142855,1.0,0.2,1.25,1.7777777777777777,1.25,2.2222222222222223,3.111111111111111,2.375,2.6666666666666665,2.0,2.0,2.5,2.75,0.8680555555555555,0.861111111111111,0.6221995529348907,-2.2989426014691747,0.00592047714741,-0.39345731037138604,0.010224600945801113,2.1323252041788483,0.016710794205618804,0.8996651684632324,0.010122893366486292,-0.8449619910053892,7.17460395573019e+43,-0.1680325218812396,,,,,,,,,,,,,,,,,,,,,,
31,240614_151227,LEARNING,1.0,32,1.0,361.0,,,,,,,,,,32.0,32.0,32.0,cue1.png,Easy,A,,,,,,,,,,,,,,,,,,,,,,,,,,,13,23,Female,0.42857142857142855,1.0,0.2,1.25,1.7777777777777777,1.25,2.2222222222222223,3.111111111111111,2.375,2.6666666666666665,2.0,2.0,2.5,2.75,1.0,0.8888888888888888,0.7596363812499476,0.8016099183081454,0.011528441651294493,1.944584768862736,0.006079330982451278,0.01077734338128245,0.009492474188972859,-0.7345835355644974,0.01094820003242025,-0.6001498692973173,,,2.4311982996069732e+44,-0.18630684741854114,,,,,,,,,,,,,,,,,,,,
32,240614_151259,LEARNING,1.0,33,1.0,361.0,,,,,,,,,,33.0,33.0,33.0,cue1.png,Easy,A,,,,,,,,,,,,,,,,,,,,,,,,,,,13,23,Female,0.42857142857142855,1.0,0.2,1.25,1.7777777777777777,1.25,2.2222222222222223,3.111111111111111,2.375,2.6666666666666665,2.0,2.0,2.5,2.75,0.9153846153846156,0.9230769230769232,0.6679325500040755,-1.2672136170460455,0.005575033344472208,-0.5374778630549439,0.006279899279772913,0.1134281347383457,,,,,6.164537110911862e+43,-0.1681804590592193,1.1600434784617085e+44,-0.18632052250763767,,,,,,,,,,,,,,,,,,,,
33,240614_151333,LEARNING,1.0,34,1.0,361.0,,,,,,,,,,34.0,34.0,34.0,cue1.png,Easy,A,,,,,,,,,,,,,,,,,,,,,,,,,,,13,23,Female,0.42857142857142855,1.0,0.2,1.25,1.7777777777777777,1.25,2.2222222222222223,3.111111111111111,2.375,2.6666666666666665,2.0,2.0,2.5,2.75,1.0,1.0,0.7498360166630138,0.5805152853244987,,,0.006001996728516406,-0.028802303409518816,,,0.011911080236178597,-0.31452907479419373,2.6808960428807567e+43,-0.16869068274524812,-8.329788206518845e+43,-0.18634196345020299,,,,,,,,,,,,,,,,,,,,
34,240614_151406,LEARNING,1.0,35,3.0,361.0,,,,,,,,,,35.0,35.0,35.0,cue2.png,Hard,A,,,,,,,,,,,,,,,,,,,,,,,,,,,13,23,Female,0.42857142857142855,1.0,0.2,1.25,1.7777777777777777,1.25,2.2222222222222223,3.111111111111111,2.375,2.6666666666666665,2.0,2.0,2.5,2.75,0.8194444444444444,0.8333333333333334,0.7071396555531666,-0.38270768516627185,0.0062519581260805975,-0.25525806248728644,,,0.014917060303088663,0.4935585814983351,0.012871906308870272,-0.029517600687300215,-1.3250560545145797e+43,-0.16927740554626944,-2.4022093772618376e+44,-0.18635884523935856,,,,,,,,,,,,,,,,,,,,
35,240614_151439,LEARNING,1.0,36,3.0,361.0,,,,,,,,,,36.0,36.0,36.0,cue2.png,Hard,A,,,,,,,,,,,,,,,,,,,,,,,,,,,13,23,Female,0.42857142857142855,1.0,0.2,1.25,1.7777777777777777,1.25,2.2222222222222223,3.111111111111111,2.375,2.6666666666666665,2.0,2.0,2.5,2.75,0.9153846153846156,0.811965811965812,0.7225887375025195,-0.03417890613692699,0.006613413364114432,-0.10456210931259843,0.0053299941256640445,-0.37273302375751577,0.009310378850534698,-0.7758104512686772,0.015756384433776825,0.8261100574024028,-5.043364249873148e+43,-0.16982199922747185,-3.1771121198988307e+44,-0.18636718164643537,,,,,,,,,,,,,,,,,,,,
36,240614_151512,LEARNING,1.0,37,1.0,361.0,,,,,,,,,,37.0,37.0,37.0,cue1.png,Easy,A,,,,,,,,,,,,,,,,,,,,,,,,,,,13,23,Female,0.42857142857142855,1.0,0.2,1.25,1.7777777777777777,1.25,2.2222222222222223,3.111111111111111,2.375,2.6666666666666665,2.0,2.0,2.5,2.75,0.9583333333333334,0.8888888888888888,0.6845634750006866,-0.8920226508643775,,,0.006094192335211714,0.018383379040292233,0.01993061452718555,1.6286418798847404,,,-7.043059632587505e+43,-0.17011488013258763,-3.086252344450358e+44,-0.1863662041765758,,,,,,,,,,,,,,,,,,,,
37,240614_151544,LEARNING,1.0,38,3.0,361.0,,,,,,,,,,38.0,38.0,38.0,cue2.png,Hard,A,,,,,,,,,,,,,,,,,,,,,,,,,,,13,23,Female,0.42857142857142855,1.0,0.2,1.25,1.7777777777777777,1.25,2.2222222222222223,3.111111111111111,2.375,2.6666666666666665,2.0,2.0,2.5,2.75,0.9153846153846156,0.9230769230769232,0.6848821833312589,-0.8848326427017555,,,,,,,,,-6.493127222900667e+43,-0.17003433551399527,-1.8789365788720328e+44,-0.1863532158683168,,,,,,,,,,,,,,,,,,,,
38,240614_151617,LEARNING,1.0,39,3.0,361.0,,,,,,,,,,39.0,39.0,39.0,cue2.png,Hard,A,,,,,,,,,,,,,,,,,,,,,,,,,,,13,23,Female,0.42857142857142855,1.0,0.2,1.25,1.7777777777777777,1.25,2.2222222222222223,3.111111111111111,2.375,2.6666666666666665,2.0,2.0,2.5,2.75,0.9153846153846156,0.9230769230769232,0.7138644722209493,-0.23099691360701696,0.004578384189801214,-0.9529954113988796,0.005901083990891521,-0.08044941072175062,0.011346360187003475,-0.31485833874446645,0.008537735342497639,-1.3151701149832584,-4.0654336097336274e+43,-0.16967876880672864,-2.658119588833068e+43,-0.1863358618666364,,,,,,,,,,,,,,,,,,,,
39,240614_151650,LEARNING,1.0,40,3.0,361.0,,,,,,,,,,40.0,40.0,40.0,cue2.png,Hard,A,,,,,,,,,,,,,,,,,,,,,,,,,,,13,23,Female,0.42857142857142855,1.0,0.2,1.25,1.7777777777777777,1.25,2.2222222222222223,3.111111111111111,2.375,2.6666666666666665,2.0,2.0,2.5,2.75,1.0,0.9444444444444444,0.7166339823555009,-0.16851721488646587,0.004497071937629574,-0.986895673606835,,,,,,,4.834908449052117e+42,-0.16901252077560633,1.5514189914702585e+44,-0.1863163120881659,,,,,,,,,,,,,,,,,,,,
40,240614_151722,LEARNING,1.0,41,1.0,361.0,,,,,,,,,,41.0,41.0,41.0,cue1.png,Easy,A,,,,,,,,,,,,,,,,,,,,,,,,,,,13,23,Female,0.42857142857142855,1.0,0.2,1.25,1.7777777777777777,1.25,2.2222222222222223,3.111111111111111,2.375,2.6666666666666665,2.0,2.0,2.5,2.75,1.0,1.0,0.7046260611079762,-0.4394139675090777,0.004926320896321722,-0.8079355309036309,0.006917386661264223,0.43969397567175345,0.013540365067987666,0.18187076513433123,0.013302985839491627,0.09835425455441968,,,3.025630190373978e+44,-0.18630045251767396,,,,,,,,,,,,,,,,,,,,
41,240614_151756,LEARNING,1.0,42,3.0,361.0,,,,,,,,,,42.0,42.0,42.0,cue2.png,Hard,A,,,,,,,,,,,,,,,,,,,,,,,,,,,13,23,Female,0.42857142857142855,1.0,0.2,1.25,1.7777777777777777,1.25,2.2222222222222223,3.111111111111111,2.375,2.6666666666666665,2.0,2.0,2.5,2.75,0.9236111111111112,0.9166666666666666,0.7280928722256148,0.08999347905349381,0.00726137091726837,0.1655808318173108,0.0037765648185634,-1.1677776535447515,,,0.012170698097273721,-0.2375181865614132,,,,,,,,,,,,,,,,,,,,,,,,
42,240614_151828,LEARNING,1.0,43,3.0,361.0,,,,,,,,,,43.0,43.0,43.0,cue2.png,Hard,A,,,,,,,,,,,,,,,,,,,,,,,,,,,13,23,Female,0.42857142857142855,1.0,0.2,1.25,1.7777777777777777,1.25,2.2222222222222223,3.111111111111111,2.375,2.6666666666666665,2.0,2.0,2.5,2.75,1.0,1.0,0.6884028944477905,-0.8054059718625108,,,0.005544835144323524,-0.2627774581180089,,,0.01129558666117861,-0.49710398205356454,,,2.3203558389974643e+44,-0.18630803986221464,,,,,,,,,,,,,,,,,,,,
43,240614_151901,LEARNING,1.0,44,1.0,361.0,,,,,,,,,,44.0,44.0,44.0,cue1.png,Easy,A,,,,,,,,,,,,,,,,,,,,,,,,,,,13,23,Female,0.42857142857142855,1.0,0.2,1.25,1.7777777777777777,1.25,2.2222222222222223,3.111111111111111,2.375,2.6666666666666665,2.0,2.0,2.5,2.75,1.0,0.9444444444444444,0.7364360588202116,0.2782144132527977,0.007226790345286625,0.15116368770712582,0.005419096873263744,-0.3271302656180756,0.012085192028212281,-0.14758465508878416,0.007868608504044269,-1.5136543485114193,2.8449625113688917e+43,-0.16866665311743315,3.8646699867682053e+43,-0.18632884464677296,,,,,,,,,,,,,,,,,,,,
44,240614_151933,LEARNING,1.0,45,1.0,361.0,,,,,,,,,,45.0,45.0,45.0,cue1.png,Easy,A,,,,,,,,,,,,,,,,,,,,,,,,,,,13,23,Female,0.42857142857142855,1.0,0.2,1.25,1.7777777777777777,1.25,2.2222222222222223,3.111111111111111,2.375,2.6666666666666665,2.0,2.0,2.5,2.75,1.0,1.0,0.674816622220937,-1.1119100661710974,,,0.01330108157941954,3.7068670228650933,,,0.009765487701714023,-0.9509798419630894,-2.7301390612366545e+43,-0.16948319788160648,-2.1103641630514998e+44,-0.1863557055672743,,,,,,,,,,,,,,,,,,,,
45,240614_152006,LEARNING,1.0,46,1.0,361.0,,,,,,,,,,46.0,46.0,46.0,cue1.png,Easy,A,,,,,,,,,,,,,,,,,,,,,,,,,,,13,23,Female,0.42857142857142855,1.0,0.2,1.25,1.7777777777777777,1.25,2.2222222222222223,3.111111111111111,2.375,2.6666666666666665,2.0,2.0,2.5,2.75,1.0,0.9444444444444444,0.6743117411747602,-1.1233001005534582,0.006972132595107987,0.044993162678244464,0.006479827593459884,0.21575138267288832,,,,,-7.062667394548317e+43,-0.17011775193952383,-3.6189087914722055e+44,-0.18637193449695036,,,,,,,,,,,,,,,,,,,,
46,240614_152038,LEARNING,1.0,47,3.0,361.0,,,,,,,,,,47.0,47.0,47.0,cue2.png,Hard,A,,,,,,,,,,,,,,,,,,,,,,,,,,,13,23,Female,0.42857142857142855,1.0,0.2,1.25,1.7777777777777777,1.25,2.2222222222222223,3.111111111111111,2.375,2.6666666666666665,2.0,2.0,2.5,2.75,1.0,1.0,0.6728042888862547,-1.1573079792921586,,,0.005050753703042081,-0.5156481840485702,,,,,-6.170556552141165e+43,-0.1699870909232279,-2.405762184078643e+44,-0.18635888346046978,,,,,,,,,,,,,,,,,,,,
47,240614_152108,LEARNING,1.0,48,3.0,361.0,,,,,,,,,,48.0,48.0,48.0,cue2.png,Hard,A,,,,,,,,,,,,,,,,,,,,,,,,,,,13,23,Female,0.42857142857142855,1.0,0.2,1.25,1.7777777777777777,1.25,2.2222222222222223,3.111111111111111,2.375,2.6666666666666665,2.0,2.0,2.5,2.75,1.0,1.0,0.5730101166684309,-3.4086482926742816,,,0.005104969276745154,-0.4879006705142003,0.031893581791590755,4.337092558587767,0.013878791762330958,0.2691565459703611,1.2095527629653955e+43,-0.16890617974308222,1.4849960102044605e+44,-0.18631702666688735,,,,,,,,,,,,,,,,,,,,
48,240614_152139,LEARNING,1.0,49,1.0,361.0,,,,,,,,,,49.0,49.0,49.0,cue1.png,Easy,A,,,,,,,,,,,,,,,,,,,,,,,,,,,13,23,Female,0.42857142857142855,1.0,0.2,1.25,1.7777777777777777,1.25,2.2222222222222223,3.111111111111111,2.375,2.6666666666666665,2.0,2.0,2.5,2.75,0.9153846153846156,0.9230769230769232,0.6204528666647902,-2.3383475599684056,0.007730719052852761,0.3612589053939672,0.006286661767298174,0.11688917372247307,,,,,,,,,,,,,,,,,,,,,,,,,,,,
49,240614_152212,LEARNING,1.0,50,1.0,361.0,,,,,,,,,,50.0,50.0,50.0,cue1.png,Easy,A,,,,,,,,,,,,,,,,,,,,,,,,,,,13,23,Female,0.42857142857142855,1.0,0.2,1.25,1.7777777777777777,1.25,2.2222222222222223,3.111111111111111,2.375,2.6666666666666665,2.0,2.0,2.5,2.75,1.0,1.0,0.7027391666649945,-0.4819819996112846,0.005712364330100303,-0.48022257498049625,,,,,0.012469592556312564,-0.14885661419754628,-3.5192372501275866e+43,-0.16959877138034302,-1.5320164303682697e+44,-0.18634948369984974,,,,,,,,,,,,,,,,,,,,
0,240614_152426,TrueCHOICE,9.0,1,3.0,361.0,,,,,,,,,,,1.0,1.0,,,A,,,,,,True,cue1.png,Easy,cue2.png,Hard,Right,Hard,Hard,0.0143724000081419,,,,,,,,,,,,,13,23,Female,0.42857142857142855,1.0,0.2,1.25,1.7777777777777777,1.25,2.2222222222222223,3.111111111111111,2.375,2.6666666666666665,2.0,2.0,2.5,2.75,1.0,1.0,0.5905597499982428,-0.8930158855801972,,,,,,,,,,,,,,,0.00975954538293635,-1.0904935829076319,,,,,,,,,,,,,,,,
1,240614_152453,TrueCHOICE,9.0,2,1.0,361.0,,,,,,,,,,,2.0,2.0,,,A,,,,,,True,cue1.png,Easy,cue2.png,Hard,Left,Easy,Easy,0.015831500000786,,,,,,,,,,,,,13,23,Female,0.42857142857142855,1.0,0.2,1.25,1.7777777777777777,1.25,2.2222222222222223,3.111111111111111,2.375,2.6666666666666665,2.0,2.0,2.5,2.75,0.9153846153846156,0.8675213675213675,0.4894247294064638,-2.075489493503077,,,,,,,,,,,,,0.006255623467770296,0.9902737913575106,0.011977630550135027,-0.4652129497067203,66724965.545244806,-0.6214079565041468,,,,,,,,,,,,,,
2,240614_152524,TrueCHOICE,9.0,3,3.0,361.0,,,,,,,,,,,3.0,3.0,,,A,,,,,,True,cue2.png,Hard,cue1.png,Easy,Left,Hard,Hard,0.01580880000256,,,,,,,,,,,,,13,23,Female,0.42857142857142855,1.0,0.2,1.25,1.7777777777777777,1.25,2.2222222222222223,3.111111111111111,2.375,2.6666666666666665,2.0,2.0,2.5,2.75,0.9236111111111112,0.9166666666666666,0.6482953888933278,-0.21796911315136602,,,,,,,,,,,,,0.006479871309083574,1.2815398355329204,,,33877771.89075901,-0.6215314982580223,,,,,,,,,,,,,,
3,240614_152553,TrueCHOICE,9.0,4,3.0,361.0,,,,,,,,,,,4.0,4.0,,,A,,,,,,True,cue1.png,Easy,cue2.png,Hard,Right,Hard,Hard,0.0165442999859806,,,,,,,,,,,,,13,23,Female,0.42857142857142855,1.0,0.2,1.25,1.7777777777777777,1.25,2.2222222222222223,3.111111111111111,2.375,2.6666666666666665,2.0,2.0,2.5,2.75,0.9236111111111112,0.9166666666666666,0.6447148666629801,-0.2598326834081715,,,,,,,,,,,,,0.004973483302617212,-0.6750438848150678,0.012920228266700279,-0.19949362306246007,,,,,,,,,,,,,,,,
4,240614_152624,TrueCHOICE,9.0,5,1.0,361.0,,,,,,,,,,,5.0,5.0,,,A,,,,,,True,cue2.png,Hard,cue1.png,Easy,Right,Easy,Easy,0.0164864999824203,,,,,,,,,,,,,13,23,Female,0.42857142857142855,1.0,0.2,1.25,1.7777777777777777,1.25,2.2222222222222223,3.111111111111111,2.375,2.6666666666666665,2.0,2.0,2.5,2.75,0.95,0.9444444444444444,0.7149349941173568,0.5611830930649188,,,,,,,,,,,,,,,0.011594058287193454,-0.5733423899091085,685788772946.0854,1.9576648668747427,,,,,,,,,,,,,,
5,240614_152653,TrueCHOICE,9.0,6,3.0,361.0,,,,,,,,,,,6.0,6.0,,,A,,,,,,True,cue2.png,Hard,cue1.png,Easy,Left,Hard,Hard,0.0171866999880876,,,,,,,,,,,,,13,23,Female,0.42857142857142855,1.0,0.2,1.25,1.7777777777777777,1.25,2.2222222222222223,3.111111111111111,2.375,2.6666666666666665,2.0,2.0,2.5,2.75,0.85,0.8675213675213675,0.6176529705887387,-0.5762411609157483,,,,,,,,,,,,,,,,,,,,,,,,,,,,,,,,
6,240614_152724,TrueCHOICE,9.0,7,1.0,361.0,,,,,,,,,,,7.0,7.0,,,A,,,,,,True,cue1.png,Easy,cue2.png,Hard,Left,Easy,Easy,0.0159605999942868,,,,,,,,,,,,,13,23,Female,0.42857142857142855,1.0,0.2,1.25,1.7777777777777777,1.25,2.2222222222222223,3.111111111111111,2.375,2.6666666666666665,2.0,2.0,2.5,2.75,0.95,0.9444444444444444,0.6869936117642176,0.2344916363554612,,,,,,,,,,,,,,,0.020845205514173345,2.0345661257167533,,,,,,,,,,,,,,,,
7,240614_152757,TrueCHOICE,9.0,8,1.0,361.0,,,,,,,,,,,8.0,8.0,,,A,,,,,,True,cue2.png,Hard,cue1.png,Easy,Right,Easy,Easy,0.0159416999958921,,,,,,,,,,,,,13,23,Female,0.42857142857142855,1.0,0.2,1.25,1.7777777777777777,1.25,2.2222222222222223,3.111111111111111,2.375,2.6666666666666665,2.0,2.0,2.5,2.75,0.9,0.7222222222222222,0.8129915538414095,1.7076632468132753,,,,,,,,,,,,,0.005316250994037312,-0.22983741608658242,,,,,,,,,,,,,,,,,,
8,240614_152829,TrueCHOICE,9.0,9,1.0,361.0,,,,,,,,,,,9.0,9.0,,,A,,,,,,True,cue1.png,Easy,cue2.png,Hard,Left,Easy,Easy,0.0135252999898511,,,,,,,,,,,,,13,23,Female,0.42857142857142855,1.0,0.2,1.25,1.7777777777777777,1.25,2.2222222222222223,3.111111111111111,2.375,2.6666666666666665,2.0,2.0,2.5,2.75,0.9583333333333334,0.9444444444444444,0.7372339058835197,0.821902619244873,,,,,,,,,,,,,0.004440793370283818,-1.3669323259887818,0.014670735998053344,0.2939764198691667,140536202458.16565,-0.09308746136712762,,,,,,,,,,,,,,
9,240614_152900,TrueCHOICE,9.0,10,1.0,361.0,,,,,,,,,,,10.0,10.0,,,A,,,,,,True,cue2.png,Hard,cue1.png,Easy,Right,Easy,Easy,0.0165870999917387,,,,,,,,,,,,,13,23,Female,0.42857142857142855,1.0,0.2,1.25,1.7777777777777777,1.25,2.2222222222222223,3.111111111111111,2.375,2.6666666666666665,2.0,2.0,2.5,2.75,1.0,1.0,0.7265775111154653,0.6973077410800286,,,,,,,,,,,,,,,,,5574260.246122946,-0.621637950745446,,,,,,,,,,,,,,
0,240614_153117,FalseCHOICE,9.0,1,2.0,361.0,,,,,,,,,,,1.0,1.0,,,A,,,,,,False,cue1.png,Easy,cue2.png,Hard,Left,Easy,Mid,0.0160449999966658,,,,,,,,,,,,,13,23,Female,0.42857142857142855,1.0,0.2,1.25,1.7777777777777777,1.25,2.2222222222222223,3.111111111111111,2.375,2.6666666666666665,2.0,2.0,2.5,2.75,1.0,1.0,0.7211200555547193,0.19809150846557627,,,,,,,,,,,,,,,,,,,,,,,3.464947831081539e+46,5.483018939093986,,,,,,,,
1,240614_153147,FalseCHOICE,9.0,2,2.0,361.0,,,,,,,,,,,2.0,2.0,,,A,,,,,,False,cue2.png,Hard,cue1.png,Easy,Right,Easy,Mid,0.0165363000123761,,,,,,,,,,,,,13,23,Female,0.42857142857142855,1.0,0.2,1.25,1.7777777777777777,1.25,2.2222222222222223,3.111111111111111,2.375,2.6666666666666665,2.0,2.0,2.5,2.75,1.0,0.9444444444444444,0.6893387352927889,-0.7516829050210084,,,,,,,,,,,,,,,,,,,0.0050526050307435014,-0.40603471771102156,0.01517236610016071,0.5465753180569687,5.405484605776469e+45,0.7244828501546213,,,,,,,,
2,240614_153218,FalseCHOICE,9.0,3,2.0,361.0,,,,,,,,,,,3.0,3.0,,,A,,,,,,False,cue2.png,Hard,cue1.png,Easy,Left,Hard,Mid,0.0160642999981064,,,,,,,,,,,,,13,23,Female,0.42857142857142855,1.0,0.2,1.25,1.7777777777777777,1.25,2.2222222222222223,3.111111111111111,2.375,2.6666666666666665,2.0,2.0,2.5,2.75,1.0,1.0,0.6868686111103872,-0.8255017623637548,,,,,,,,,,,,,,,,,,,0.005138318609627621,-0.3871297093660477,0.010635646160774472,-0.7729527979057667,-5.342664086585684e+45,-1.0244387902258123,,,,,,,,
3,240614_153249,FalseCHOICE,9.0,4,2.0,361.0,,,,,,,,,,,4.0,4.0,,,A,,,,,,False,cue2.png,Hard,cue1.png,Easy,Right,Easy,Mid,0.0156595000007655,,,,,,,,,,,,,13,23,Female,0.42857142857142855,1.0,0.2,1.25,1.7777777777777777,1.25,2.2222222222222223,3.111111111111111,2.375,2.6666666666666665,2.0,2.0,2.5,2.75,1.0,1.0,0.7185989722234404,0.12274975354218406,,,,,,,,,,,,,,,,,,,0.004862832643983934,-0.4478909626845927,0.009247207265705262,-1.1767873267764017,-6.486062519510493e+45,-1.2104907625380592,,,,,,,,
4,240614_153322,FalseCHOICE,9.0,5,2.0,361.0,,,,,,,,,,,5.0,5.0,,,A,,,,,,False,cue1.png,Easy,cue2.png,Hard,Right,Hard,Mid,0.0164523999847006,,,,,,,,,,,,,13,23,Female,0.42857142857142855,1.0,0.2,1.25,1.7777777777777777,1.25,2.2222222222222223,3.111111111111111,2.375,2.6666666666666665,2.0,2.0,2.5,2.75,1.0,1.0,0.7839576666657295,2.075973067380803,,,,,,,,,,,,,,,,,,,0.00508539131153009,-0.39880336744026595,,,,,,,,,,,,
5,240614_153353,FalseCHOICE,9.0,6,2.0,361.0,,,,,,,,,,,6.0,6.0,,,A,,,,,,False,cue2.png,Hard,cue1.png,Easy,Right,Easy,Mid,0.0155745999945793,,,,,,,,,,,,,13,23,Female,0.42857142857142855,1.0,0.2,1.25,1.7777777777777777,1.25,2.2222222222222223,3.111111111111111,2.375,2.6666666666666665,2.0,2.0,2.5,2.75,1.0,1.0,0.7498134333371935,1.0555837658575047,,,,,,,,,,,,,,,,,,,0.01872399996248615,2.609331559567516,0.01805680958894674,1.385530407463199,,,,,,,,,,
6,240614_153427,FalseCHOICE,9.0,7,2.0,361.0,,,,,,,,,,,7.0,7.0,,,A,,,,,,False,cue2.png,Hard,cue1.png,Easy,Right,Easy,Mid,0.0165910999930929,,,,,,,,,,,,,13,23,Female,0.42857142857142855,1.0,0.2,1.25,1.7777777777777777,1.25,2.2222222222222223,3.111111111111111,2.375,2.6666666666666665,2.0,2.0,2.5,2.75,0.9583333333333334,0.8888888888888888,0.7867958749975514,2.160791999743972,,,,,,,,,,,,,,,,,,,,,,,,,,,,,,,,
7,240614_153500,FalseCHOICE,9.0,8,2.0,361.0,,,,,,,,,,,8.0,8.0,,,A,,,,,,False,cue1.png,Easy,cue2.png,Hard,Left,Easy,Mid,0.0158328999823424,,,,,,,,,,,,,13,23,Female,0.42857142857142855,1.0,0.2,1.25,1.7777777777777777,1.25,2.2222222222222223,3.111111111111111,2.375,2.6666666666666665,2.0,2.0,2.5,2.75,1.0,0.9444444444444444,0.7807668529378989,1.980616637505691,,,,,,,,,,,,,,,,,,,0.0054047389240219745,-0.3283679783490155,0.012519327040972136,-0.2250746136380119,,,,,,,,,,
8,240614_153533,FalseCHOICE,9.0,9,2.0,361.0,,,,,,,,,,,9.0,9.0,,,A,,,,,,False,cue1.png,Easy,cue2.png,Hard,Right,Hard,Mid,0.0166351999796461,,,,,,,,,,,,,13,23,Female,0.42857142857142855,1.0,0.2,1.25,1.7777777777777777,1.25,2.2222222222222223,3.111111111111111,2.375,2.6666666666666665,2.0,2.0,2.5,2.75,0.060576923076923,0.5811965811965811,0.7148118187524233,0.009571904507775312,,,,,,,,,,,,,,,,,,,,,0.016437656539733565,0.9145914910149818,,,,,,,,,,
9,240614_153606,FalseCHOICE,9.0,10,2.0,361.0,,,,,,,,,,,10.0,10.0,,,A,,,,,,False,cue2.png,Hard,cue1.png,Easy,Left,Hard,Mid,0.0149874999769963,,,,,,,,,,,,,13,23,Female,0.42857142857142855,1.0,0.2,1.25,1.7777777777777777,1.25,2.2222222222222223,3.111111111111111,2.375,2.6666666666666665,2.0,2.0,2.5,2.75,1.0,1.0,0.7537436611132257,1.173037343936859,,,,,,,,,,,,,,,,,,,0.0052898072981688036,-0.35371732642364323,0.012411113237431298,-0.25654914991426275,2.6182928594437766e+45,0.27095544738292815,,,,,,,,
10,240614_153638,FalseCHOICE,9.0,11,2.0,361.0,,,,,,,,,,,11.0,11.0,,,A,,,,,,False,cue1.png,Easy,cue2.png,Hard,Left,Easy,Mid,0.0159822000132408,,,,,,,,,,,,,13,23,Female,0.42857142857142855,1.0,0.2,1.25,1.7777777777777777,1.25,2.2222222222222223,3.111111111111111,2.375,2.6666666666666665,2.0,2.0,2.5,2.75,0.9583333333333334,0.9444444444444444,0.7214780529457665,0.2087901439945389,,,,,,,,,,,,,,,,,,,0.005265185314333577,-0.3591479573217425,0.013642925288616,0.10172966315697994,1.7257527178497828e+45,0.12572273678122076,,,,,,,,
11,240614_153710,FalseCHOICE,9.0,12,2.0,361.0,,,,,,,,,,,12.0,12.0,,,A,,,,,,False,cue2.png,Hard,cue1.png,Easy,Right,Easy,Mid,0.016759499994805,,,,,,,,,,,,,13,23,Female,0.42857142857142855,1.0,0.2,1.25,1.7777777777777777,1.25,2.2222222222222223,3.111111111111111,2.375,2.6666666666666665,2.0,2.0,2.5,2.75,0.9153846153846156,0.8675213675213675,0.7282037235255463,0.40978462054767695,,,,,,,,,,,,,,,,,,,0.00558545128935997,-0.28851001396074133,0.01092346229206618,-0.6892400092520304,2.49154827643134e+44,-0.11454692064895998,,,,,,,,
12,240614_153743,FalseCHOICE,9.0,13,2.0,361.0,,,,,,,,,,,13.0,13.0,,,A,,,,,,False,cue1.png,Easy,cue2.png,Hard,Left,Easy,Mid,0.0173778999887872,,,,,,,,,,,,,13,23,Female,0.42857142857142855,1.0,0.2,1.25,1.7777777777777777,1.25,2.2222222222222223,3.111111111111111,2.375,2.6666666666666665,2.0,2.0,2.5,2.75,1.0,1.0,0.7677676722232718,1.5921403521504138,,,,,,,,,,,,,,,,,,,,,0.01511759247243007,0.530644129275315,,,,,,,,,,
13,240614_153819,FalseCHOICE,9.0,14,2.0,361.0,,,,,,,,,,,15.0,14.0,,,A,,,,,,False,cue2.png,Hard,cue1.png,Easy,Left,Hard,Mid,0.0157551999727729,,,,,,,,,,,,,13,23,Female,0.42857142857142855,1.0,0.2,1.25,1.7777777777777777,1.25,2.2222222222222223,3.111111111111111,2.375,2.6666666666666665,2.0,2.0,2.5,2.75,1.0,0.9444444444444444,0.6794881235280841,-1.0460652319413155,,,,,,,,,,,,,,,,,,,0.004417361224593873,-0.546144250094305,0.014387319708429634,0.318240573998601,,,,,,,,,,
14,240614_153851,FalseCHOICE,9.0,15,2.0,361.0,,,,,,,,,,,16.0,15.0,,,A,,,,,,False,cue1.png,Easy,cue2.png,Hard,Right,Hard,Mid,0.0168236999888904,,,,,,,,,,,,,13,23,Female,0.42857142857142855,1.0,0.2,1.25,1.7777777777777777,1.25,2.2222222222222223,3.111111111111111,2.375,2.6666666666666665,2.0,2.0,2.5,2.75,1.0,1.0,0.7314625944450704,0.5071749174488145,,,,,,,,,,,,,,,,,,,0.006825935028078668,-0.014908611037333082,,,,,,,,,,,,
15,240614_153923,FalseCHOICE,9.0,16,2.0,361.0,,,,,,,,,,,17.0,16.0,,,A,,,,,,False,cue1.png,Easy,cue2.png,Hard,Right,Hard,Mid,0.0151732999947853,,,,,,,,,,,,,13,23,Female,0.42857142857142855,1.0,0.2,1.25,1.7777777777777777,1.25,2.2222222222222223,3.111111111111111,2.375,2.6666666666666665,2.0,2.0,2.5,2.75,1.0,0.9444444444444444,0.7598893235314309,1.3566984653324148,,,,,,,,,,,,,,,,,,,0.005030943285151799,-0.4108124377235236,0.011301526028205798,-0.5792782447774014,,,,,,,,,,
16,240614_153955,FalseCHOICE,9.0,17,2.0,361.0,,,,,,,,,,,18.0,17.0,,,A,,,,,,False,cue2.png,Hard,cue1.png,Easy,Right,Easy,Mid,0.0155595999967772,,,,,,,,,,,,,13,23,Female,0.42857142857142855,1.0,0.2,1.25,1.7777777777777777,1.25,2.2222222222222223,3.111111111111111,2.375,2.6666666666666665,2.0,2.0,2.5,2.75,1.0,1.0,0.7279042499964513,0.4008349515878365,,,,,,,,,,,,,,,,,,,0.004400444262360305,-0.5498754595054717,0.020967961467242415,2.2322537680787895,,,,,,,,,,
17,240614_154027,FalseCHOICE,9.0,18,2.0,361.0,,,,,,,,,,,19.0,18.0,,,A,,,,,,False,cue2.png,Hard,cue1.png,Easy,Right,Easy,Mid,0.0166755999962333,,,,,,,,,,,,,13,23,Female,0.42857142857142855,1.0,0.2,1.25,1.7777777777777777,1.25,2.2222222222222223,3.111111111111111,2.375,2.6666666666666665,2.0,2.0,2.5,2.75,0.9583333333333334,0.9444444444444444,0.7391017352963578,0.7354681557968734,,,,,,,,,,,,,,,,,,,0.00378771954776916,-0.6850181754359045,0.016649164578214023,0.9761096819670222,,,,,,,,,,
18,240614_154100,FalseCHOICE,9.0,19,2.0,361.0,,,,,,,,,,,20.0,19.0,,,A,,,,,,False,cue1.png,Easy,cue2.png,Hard,Left,Easy,Mid,0.0162493999814614,,,,,,,,,,,,,13,23,Female,0.42857142857142855,1.0,0.2,1.25,1.7777777777777777,1.25,2.2222222222222223,3.111111111111111,2.375,2.6666666666666665,2.0,2.0,2.5,2.75,0.7826923076923077,0.7008547008547009,0.7561220214265632,1.2441138679151829,,,,,,,,,,,,,,,,,,,0.008455527893668163,0.34451479799485046,0.010287560207247233,-0.8741953715245009,,,,,,,,,,
19,240614_154132,FalseCHOICE,9.0,20,2.0,361.0,,,,,,,,,,,21.0,20.0,,,A,,,,,,False,cue1.png,Easy,cue2.png,Hard,Right,Hard,Mid,0.0165215000160969,,,,,,,,,,,,,13,23,Female,0.42857142857142855,1.0,0.2,1.25,1.7777777777777777,1.25,2.2222222222222223,3.111111111111111,2.375,2.6666666666666665,2.0,2.0,2.5,2.75,0.8680555555555555,0.861111111111111,0.7147114764666185,0.006573207950718926,,,,,,,,,,,,,,,,,,,0.0047584673358194544,-0.4709098010934134,0.009980714836764321,-0.9634429113803512,,,,,,,,,,
20,240614_154207,FalseCHOICE,9.0,21,2.0,361.0,,,,,,,,,,,23.0,21.0,,,A,,,,,,False,cue1.png,Easy,cue2.png,Hard,Right,Hard,Mid,0.0169667000009212,,,,,,,,,,,,,13,23,Female,0.42857142857142855,1.0,0.2,1.25,1.7777777777777777,1.25,2.2222222222222223,3.111111111111111,2.375,2.6666666666666665,2.0,2.0,2.5,2.75,1.0,1.0,0.685342322226562,-0.8711144089592662,,,,,,,,,,,,,,,,,,,0.00562067284837059,-0.28074153811726993,0.012712487290315346,-0.16889297066685222,3.271999274689286e+44,-0.10184754628061139,,,,,,,,
21,240614_154238,FalseCHOICE,9.0,22,2.0,361.0,,,,,,,,,,,24.0,22.0,,,A,,,,,,False,cue2.png,Hard,cue1.png,Easy,Left,Hard,Mid,0.0169988999841734,,,,,,,,,,,,,13,23,Female,0.42857142857142855,1.0,0.2,1.25,1.7777777777777777,1.25,2.2222222222222223,3.111111111111111,2.375,2.6666666666666665,2.0,2.0,2.5,2.75,1.0,1.0,0.686081288891728,-0.8490306306514489,,,,,,,,,,,,,,,,,,,0.004315896311219911,-0.5685233767044552,0.010735841516179342,-0.7438104681362347,-1.3623219898158668e+44,-0.1772564839493645,,,,,,,,
22,240614_154310,FalseCHOICE,9.0,23,2.0,361.0,,,,,,,,,,,25.0,23.0,,,A,,,,,,False,cue1.png,Easy,cue2.png,Hard,Right,Hard,Mid,0.0162583999917842,,,,,,,,,,,,,13,23,Female,0.42857142857142855,1.0,0.2,1.25,1.7777777777777777,1.25,2.2222222222222223,3.111111111111111,2.375,2.6666666666666665,2.0,2.0,2.5,2.75,0.95,0.9444444444444444,0.7293316058828222,0.4434910177500227,,,,,,,,,,,,,,,,,,,,,0.015943051290231824,0.7707330334200424,-5.0888210357728835e+44,-0.2378934830351943,,,,,,,,
23,240614_154341,FalseCHOICE,9.0,24,2.0,361.0,,,,,,,,,,,26.0,24.0,,,A,,,,,,False,cue2.png,Hard,cue1.png,Easy,Left,Hard,Mid,0.0151768999930936,,,,,,,,,,,,,13,23,Female,0.42857142857142855,1.0,0.2,1.25,1.7777777777777777,1.25,2.2222222222222223,3.111111111111111,2.375,2.6666666666666665,2.0,2.0,2.5,2.75,1.0,1.0,0.6826380888863545,-0.9519295422972942,,,,,,,,,,,,,,,,,,,0.012727011213219707,1.2866342247278273,0.009945132234809941,-0.9737922925070748,-6.802928825243508e+44,-0.26578517203908913,,,,,,,,
24,240614_154412,FalseCHOICE,9.0,25,2.0,361.0,,,,,,,,,,,27.0,25.0,,,A,,,,,,False,cue2.png,Hard,cue1.png,Easy,Left,Hard,Mid,0.0152378999919164,,,,,,,,,,,,,13,23,Female,0.42857142857142855,1.0,0.2,1.25,1.7777777777777777,1.25,2.2222222222222223,3.111111111111111,2.375,2.6666666666666665,2.0,2.0,2.5,2.75,0.7826923076923077,0.811965811965812,0.6708430124945153,-1.3044215618156831,,,,,,,,,,,,,,,,,,,0.005843750827866985,-0.23153940329962552,0.015969839545896754,0.7785245341077078,,,,,,,,,,
25,240614_154443,FalseCHOICE,9.0,26,2.0,361.0,,,,,,,,,,,28.0,26.0,,,A,,,,,,False,cue1.png,Easy,cue2.png,Hard,Left,Easy,Mid,0.0160461000050418,,,,,,,,,,,,,13,23,Female,0.42857142857142855,1.0,0.2,1.25,1.7777777777777777,1.25,2.2222222222222223,3.111111111111111,2.375,2.6666666666666665,2.0,2.0,2.5,2.75,0.9153846153846156,0.8675213675213675,0.6878135764718001,-0.7972617800564079,,,,,,,,,,,,,,,,,,,0.0042714520643637646,-0.5783260108802776,0.014321540845003032,0.29910845632611,-4.845236331590562e+44,-0.23392991151600923,,,,,,,,
26,240614_154513,FalseCHOICE,9.0,27,2.0,361.0,,,,,,,,,,,29.0,27.0,,,A,,,,,,False,cue1.png,Easy,cue2.png,Hard,Left,Easy,Mid,0.0165487000194843,,,,,,,,,,,,,13,23,Female,0.42857142857142855,1.0,0.2,1.25,1.7777777777777777,1.25,2.2222222222222223,3.111111111111111,2.375,2.6666666666666665,2.0,2.0,2.5,2.75,0.9153846153846156,0.9230769230769232,0.651765305553757,-1.8745526253143987,,,,,,,,,,,,,,,,,,,0.0042367497865671445,-0.5859799539296239,,,3.883404169538556e+44,-0.09189886318883134,,,,,,,,
27,240614_154544,FalseCHOICE,9.0,28,2.0,361.0,,,,,,,,,,,30.0,28.0,,,A,,,,,,False,cue2.png,Hard,cue1.png,Easy,Right,Easy,Mid,0.0163475000008475,,,,,,,,,,,,,13,23,Female,0.42857142857142855,1.0,0.2,1.25,1.7777777777777777,1.25,2.2222222222222223,3.111111111111111,2.375,2.6666666666666665,2.0,2.0,2.5,2.75,1.0,1.0,0.6647179666615557,-1.4874665632703927,,,,,,,,,,,,,,,,,,,0.013091522585949818,1.3670309440459765,0.01149379354208192,-0.5233562584667101,1.549202766704959e+44,-0.129880616728611,,,,,,,,
28,240614_154613,FalseCHOICE,9.0,29,2.0,361.0,,,,,,,,,,,31.0,29.0,,,A,,,,,,False,cue1.png,Easy,cue2.png,Hard,Left,Easy,Mid,0.0160822999896481,,,,,,,,,,,,,13,23,Female,0.42857142857142855,1.0,0.2,1.25,1.7777777777777777,1.25,2.2222222222222223,3.111111111111111,2.375,2.6666666666666665,2.0,2.0,2.5,2.75,0.8194444444444444,0.8333333333333334,0.649217777773932,-1.9506846639768207,,,,,,,,,,,,,,,,,,,,,0.02046994198625998,2.087402263856909,4.350392215252951e+44,-0.08430010806992184,,,,,,,,
29,240614_154644,FalseCHOICE,9.0,30,2.0,361.0,,,,,,,,,,,32.0,30.0,,,A,,,,,,False,cue1.png,Easy,cue2.png,Hard,Left,Easy,Mid,0.0162090999947395,,,,,,,,,,,,,13,23,Female,0.42857142857142855,1.0,0.2,1.25,1.7777777777777777,1.25,2.2222222222222223,3.111111111111111,2.375,2.6666666666666665,2.0,2.0,2.5,2.75,1.0,1.0,0.6804340833348559,-1.0177955309580369,,,,,,,,,,,,,,,,,,,0.004352901261403906,-0.5603615556588124,0.007130039483279877,-1.792576366533332,5.7885293112550516e+44,-0.060898970245886246,,,,,,,,
30,240614_154714,FalseCHOICE,9.0,31,2.0,361.0,,,,,,,,,,,33.0,31.0,,,A,,,,,,False,cue2.png,Hard,cue1.png,Easy,Right,Easy,Mid,0.017084999999497,,,,,,,,,,,,,13,23,Female,0.42857142857142855,1.0,0.2,1.25,1.7777777777777777,1.25,2.2222222222222223,3.111111111111111,2.375,2.6666666666666665,2.0,2.0,2.5,2.75,1.0,1.0,0.6855066777789034,-0.8662026967634924,,,,,,,,,,,,,,,,,,,0.004319189786806413,-0.5677969669073452,0.009823378610371022,-1.0092049546978241,5.880231189013653e+44,-0.05940681189316912,,,,,,,,
31,240614_154745,FalseCHOICE,9.0,32,2.0,361.0,,,,,,,,,,,34.0,32.0,,,A,,,,,,False,cue1.png,Easy,cue2.png,Hard,Left,Easy,Mid,0.016246899991529,,,,,,,,,,,,,13,23,Female,0.42857142857142855,1.0,0.2,1.25,1.7777777777777777,1.25,2.2222222222222223,3.111111111111111,2.375,2.6666666666666665,2.0,2.0,2.5,2.75,1.0,1.0,0.6814596499979315,-0.9871468049804433,,,,,,,,,,,,,,,,,,,0.006427673738317704,-0.1027492204767088,0.013831630547792621,0.15661554953313447,,,,,,,,,,
32,240614_154815,FalseCHOICE,9.0,33,2.0,361.0,,,,,,,,,,,35.0,33.0,,,A,,,,,,False,cue2.png,Hard,cue1.png,Easy,Left,Hard,Mid,0.0165348000009544,,,,,,,,,,,,,13,23,Female,0.42857142857142855,1.0,0.2,1.25,1.7777777777777777,1.25,2.2222222222222223,3.111111111111111,2.375,2.6666666666666665,2.0,2.0,2.5,2.75,0.9236111111111112,0.9166666666666666,0.6779555388865346,-1.0918660252075987,,,,,,,,,,,,,,,,,,,0.019588809861675317,2.800074246710361,,,1.9842042564337225e+44,-0.12280234175531267,,,,,,,,
33,240614_154846,FalseCHOICE,9.0,34,2.0,361.0,,,,,,,,,,,36.0,34.0,,,A,,,,,,False,cue2.png,Hard,cue1.png,Easy,Left,Hard,Mid,0.017116300005,,,,,,,,,,,,,13,23,Female,0.42857142857142855,1.0,0.2,1.25,1.7777777777777777,1.25,2.2222222222222223,3.111111111111111,2.375,2.6666666666666665,2.0,2.0,2.5,2.75,1.0,0.9444444444444444,0.7116229352952146,-0.08572683985796602,,,,,,,,,,,,,,,,,,,0.004585099707144397,-0.5091478085307334,0.013171690798002452,-0.03533129010523008,-8.415317996761817e+43,-0.16878226890356424,,,,,,,,
34,240614_154918,FalseCHOICE,9.0,35,2.0,361.0,,,,,,,,,,,37.0,35.0,,,A,,,,,,False,cue2.png,Hard,cue1.png,Easy,Left,Hard,Mid,0.0161474000196903,,,,,,,,,,,,,13,23,Female,0.42857142857142855,1.0,0.2,1.25,1.7777777777777777,1.25,2.2222222222222223,3.111111111111111,2.375,2.6666666666666665,2.0,2.0,2.5,2.75,0.75,0.7777777777777778,0.7336472647045466,0.5724630771997169,,,,,,,,,,,,,,,,,,,0.003671177694876474,-0.7107226755881335,0.006982239913955881,-1.8355646245382071,-3.658943086735049e+44,-0.21462673673541394,,,,,,,,
35,240614_154949,FalseCHOICE,9.0,36,2.0,361.0,,,,,,,,,,,38.0,36.0,,,A,,,,,,False,cue1.png,Easy,cue2.png,Hard,Left,Easy,Mid,0.0157608999870717,,,,,,,,,,,,,13,23,Female,0.42857142857142855,1.0,0.2,1.25,1.7777777777777777,1.25,2.2222222222222223,3.111111111111111,2.375,2.6666666666666665,2.0,2.0,2.5,2.75,0.9236111111111112,0.9166666666666666,0.7150330000004033,0.01618183412501838,,,,,,,,,,,,,,,,,,,0.021210302605166965,3.1577110907915915,0.019797348501502866,1.891775020913094,-5.202486518023569e+44,-0.2397430296628267,,,,,,,,
36,240614_155020,FalseCHOICE,9.0,37,2.0,361.0,,,,,,,,,,,39.0,37.0,,,A,,,,,,False,cue2.png,Hard,cue1.png,Easy,Right,Easy,Mid,0.0165778999798931,,,,,,,,,,,,,13,23,Female,0.42857142857142855,1.0,0.2,1.25,1.7777777777777777,1.25,2.2222222222222223,3.111111111111111,2.375,2.6666666666666665,2.0,2.0,2.5,2.75,0.9583333333333334,0.9444444444444444,0.7137619000003563,-0.02180457572446485,,,,,,,,,,,,,,,,,,,,,0.013872432499098405,0.16848300501935706,-5.181611533706557e+44,-0.2394033552420535,,,,,,,,
37,240614_155051,FalseCHOICE,9.0,38,2.0,361.0,,,,,,,,,,,40.0,38.0,,,A,,,,,,False,cue1.png,Easy,cue2.png,Hard,Left,Easy,Mid,0.0161832000012509,,,,,,,,,,,,,13,23,Female,0.42857142857142855,1.0,0.2,1.25,1.7777777777777777,1.25,2.2222222222222223,3.111111111111111,2.375,2.6666666666666665,2.0,2.0,2.5,2.75,0.85,0.8675213675213675,0.6772140470668947,-1.1140252669351103,,,,,,,,,,,,,,,,,,,0.0057400727247097555,-0.25440667160058344,0.013514917004672194,0.064497801372088,-3.389514374641601e+44,-0.21024263563477594,,,,,,,,
38,240614_155122,FalseCHOICE,9.0,39,2.0,361.0,,,,,,,,,,,41.0,39.0,,,A,,,,,,False,cue1.png,Easy,cue2.png,Hard,Left,Easy,Mid,0.0164169000054243,,,,,,,,,,,,,13,23,Female,0.42857142857142855,1.0,0.2,1.25,1.7777777777777777,1.25,2.2222222222222223,3.111111111111111,2.375,2.6666666666666665,2.0,2.0,2.5,2.75,1.0,1.0,0.7418505166699307,0.8176145926148354,,,,,,,,,,,,,,,,,,,0.004843780810351371,-0.452093039864191,0.019650594927344913,1.8490909959332227,-7.944319142845782e+43,-0.16801586706843377,,,,,,,,
39,240614_155153,FalseCHOICE,9.0,40,2.0,361.0,,,,,,,,,,,42.0,40.0,,,A,,,,,,False,cue2.png,Hard,cue1.png,Easy,Right,Easy,Mid,0.0165558000153396,,,,,,,,,,,,,13,23,Female,0.42857142857142855,1.0,0.2,1.25,1.7777777777777777,1.25,2.2222222222222223,3.111111111111111,2.375,2.6666666666666665,2.0,2.0,2.5,2.75,0.9236111111111112,0.9166666666666666,0.6982583833321567,-0.4851221260704489,,,,,,,,,,,,,,,,,,,,,0.008887616985910096,-1.281375992322466,2.577364865860058e+44,-0.1131505267708014,,,,,,,,
40,240614_155224,FalseCHOICE,9.0,41,2.0,361.0,,,,,,,,,,,43.0,41.0,,,A,,,,,,False,cue2.png,Hard,cue1.png,Easy,Left,Hard,Mid,0.0151317999989259,,,,,,,,,,,,,13,23,Female,0.42857142857142855,1.0,0.2,1.25,1.7777777777777777,1.25,2.2222222222222223,3.111111111111111,2.375,2.6666666666666665,2.0,2.0,2.5,2.75,0.8194444444444444,0.8333333333333334,0.6896609611172203,-0.7420532911192795,,,,,,,,,,,,,,,,,,,0.004741950283252808,-0.47455280632866287,0.01380141983087634,0.14782860854778973,4.637880190319057e+44,-0.07962214951786387,,,,,,,,
41,240614_155255,FalseCHOICE,9.0,42,2.0,361.0,,,,,,,,,,,44.0,42.0,,,A,,,,,,False,cue1.png,Easy,cue2.png,Hard,Left,Easy,Mid,0.0163549999997485,,,,,,,,,,,,,13,23,Female,0.42857142857142855,1.0,0.2,1.25,1.7777777777777777,1.25,2.2222222222222223,3.111111111111111,2.375,2.6666666666666665,2.0,2.0,2.5,2.75,1.0,1.0,0.7044143055504214,-0.30115439388894666,,,,,,,,,,,,,,,,,,,0.004727857177470152,-0.4776611852564396,,,,,,,,,,,,
42,240614_155326,FalseCHOICE,9.0,43,2.0,361.0,,,,,,,,,,,45.0,43.0,,,A,,,,,,False,cue2.png,Hard,cue1.png,Easy,Right,Easy,Mid,0.0165460999996867,,,,,,,,,,,,,13,23,Female,0.42857142857142855,1.0,0.2,1.25,1.7777777777777777,1.25,2.2222222222222223,3.111111111111111,2.375,2.6666666666666665,2.0,2.0,2.5,2.75,1.0,1.0,0.7218895111129515,0.221086437420729,,,,,,,,,,,,,,,,,,,0.003527425188786205,-0.7424287641989189,0.009999796605322627,-0.957892881744097,4.088274538283893e+44,-0.08856524517119026,,,,,,,,
43,240614_155357,FalseCHOICE,9.0,44,2.0,361.0,,,,,,,,,,,46.0,44.0,,,A,,,,,,False,cue1.png,Easy,cue2.png,Hard,Left,Easy,Mid,0.0167451000015717,,,,,,,,,,,,,13,23,Female,0.42857142857142855,1.0,0.2,1.25,1.7777777777777777,1.25,2.2222222222222223,3.111111111111111,2.375,2.6666666666666665,2.0,2.0,2.5,2.75,0.9236111111111112,0.9166666666666666,0.7120089777745306,-0.07419008599275545,,,,,,,,,,,,,,,,,,,0.01096909580725888,0.8989079641737392,0.014020258045787689,0.21147881867332055,9.013220155895728e+43,-0.14042282914531143,,,,,,,,
44,240614_155428,FalseCHOICE,9.0,45,2.0,361.0,,,,,,,,,,,47.0,45.0,,,A,,,,,,False,cue2.png,Hard,cue1.png,Easy,Left,Hard,Mid,0.0138949000102002,,,,,,,,,,,,,13,23,Female,0.42857142857142855,1.0,0.2,1.25,1.7777777777777777,1.25,2.2222222222222223,3.111111111111111,2.375,2.6666666666666665,2.0,2.0,2.5,2.75,1.0,1.0,0.713527694446384,-0.02880373248781208,,,,,,,,,,,,,,,,,,,0.015505404545566159,1.8994373513437541,0.011594063404166985,-0.4941922580495169,-3.2183414567231565e+44,-0.20745733717116824,,,,,,,,
45,240614_155459,FalseCHOICE,9.0,46,2.0,361.0,,,,,,,,,,,48.0,46.0,,,A,,,,,,False,cue2.png,Hard,cue1.png,Easy,Left,Hard,Mid,0.015994600020349,,,,,,,,,,,,,13,23,Female,0.42857142857142855,1.0,0.2,1.25,1.7777777777777777,1.25,2.2222222222222223,3.111111111111111,2.375,2.6666666666666665,2.0,2.0,2.5,2.75,1.0,0.9444444444444444,0.7010460705838769,-0.40181299974513024,,,,,,,,,,,,,,,,,,,,,0.010688890697797335,-0.7574663529495476,-5.8503573546856806e+44,-0.25028508075312217,,,,,,,,
46,240614_155530,FalseCHOICE,9.0,47,2.0,361.0,,,,,,,,,,,49.0,47.0,,,A,,,,,,False,cue1.png,Easy,cue2.png,Hard,Left,Easy,Mid,0.0161282999906688,,,,,,,,,,,,,13,23,Female,0.42857142857142855,1.0,0.2,1.25,1.7777777777777777,1.25,2.2222222222222223,3.111111111111111,2.375,2.6666666666666665,2.0,2.0,2.5,2.75,0.8194444444444444,0.7777777777777778,0.7444104235276908,0.8941165759928441,,,,,,,,,,,,,,,,,,,0.0036474817168699733,-0.7159490664096024,,,-4.10588047455291e+44,-0.22189923074180243,,,,,,,,
47,240614_155601,FalseCHOICE,9.0,48,2.0,361.0,,,,,,,,,,,50.0,48.0,,,A,,,,,,False,cue1.png,Easy,cue2.png,Hard,Left,Easy,Mid,0.0158535000227857,,,,,,,,,,,,,13,23,Female,0.42857142857142855,1.0,0.2,1.25,1.7777777777777777,1.25,2.2222222222222223,3.111111111111111,2.375,2.6666666666666665,2.0,2.0,2.5,2.75,0.9153846153846156,0.9230769230769232,0.7293232055542629,0.4432399766647324,,,,,,,,,,,,,,,,,,,,,,,2.2236941738583934e+44,-0.11890539995421373,,,,,,,,
48,240614_155634,FalseCHOICE,9.0,49,2.0,361.0,,,,,,,,,,,51.0,49.0,,,A,,,,,,False,cue2.png,Hard,cue1.png,Easy,Right,Easy,Mid,0.0164659000001847,,,,,,,,,,,,,13,23,Female,0.42857142857142855,1.0,0.2,1.25,1.7777777777777777,1.25,2.2222222222222223,3.111111111111111,2.375,2.6666666666666665,2.0,2.0,2.5,2.75,0.9583333333333334,0.9444444444444444,0.7654782117666293,1.523720571458891,,,,,,,,,,,,,,,,,,,0.0049799322470332405,-0.42206344501865595,,,7.407700295211335e+44,-0.03455207782403542,,,,,,,,
49,240614_155705,FalseCHOICE,9.0,50,2.0,361.0,,,,,,,,,,,52.0,50.0,,,A,,,,,,False,cue1.png,Easy,cue2.png,Hard,Left,Easy,Mid,0.0165907999908085,,,,,,,,,,,,,13,23,Female,0.42857142857142855,1.0,0.2,1.25,1.7777777777777777,1.25,2.2222222222222223,3.111111111111111,2.375,2.6666666666666665,2.0,2.0,2.5,2.75,0.8680555555555555,0.861111111111111,0.7063772411767038,-0.24249270149231336,,,,,,,,,,,,,,,,,,,0.004711232526426817,-0.4813279224385542,0.015630287239232554,0.6797640151711941,-2.337807018305184e+44,-0.19312942100134667,,,,,,,,
0,240614_145339,OFFLINERATING,9.0,1,1.0,,,,,,,,,,,,,,,,,T0,cue1.png,Easy,50.0,1.4382014999864623,,,,,,,,,,,,,,,,,,,,,,13,23,Female,0.42857142857142855,1.0,0.2,1.25,1.7777777777777777,1.25,2.2222222222222223,3.111111111111111,2.375,2.6666666666666665,2.0,2.0,2.5,2.75,,,,,,,,,,,,,,,,,,,,,,,,,,,,,-0.19245008972987526,,,,,1439373002.4619324,-0.4279550904626521,
1,240614_145347,OFFLINERATING,9.0,2,3.0,,,,,,,,,,,,,,,,,T0,cue2.png,Hard,48.0,1.7023992000031285,,,,,,,,,,,,,,,,,,,,,,13,23,Female,0.42857142857142855,1.0,0.2,1.25,1.7777777777777777,1.25,2.2222222222222223,3.111111111111111,2.375,2.6666666666666665,2.0,2.0,2.5,2.75,,,,,,,,,,,,,,,,,,,,,,,,,,,,,-0.36351683615643104,,,,,14641875.507065063,-0.660078304784144,
2,240614_152252,OFFLINERATING,9.0,3,1.0,,,,,,,,,,,,,,,,,T1,cue1.png,Easy,52.0,0.5190328999888152,,,,,,,,,,,,,,,,,,,,,,13,23,Female,0.42857142857142855,1.0,0.2,1.25,1.7777777777777777,1.25,2.2222222222222223,3.111111111111111,2.375,2.6666666666666665,2.0,2.0,2.5,2.75,,,,,,,,,,,,,,,,,,,,,,,,,,,,,-0.021383343303319473,,,0.010388807751764532,-0.6230278715873707,,,
3,240614_152258,OFFLINERATING,9.0,4,3.0,,,,,,,,,,,,,,,,,T1,cue2.png,Hard,53.0,0.6747839000017848,,,,,,,,,,,,,,,,,,,,,,13,23,Female,0.42857142857142855,1.0,0.2,1.25,1.7777777777777777,1.25,2.2222222222222223,3.111111111111111,2.375,2.6666666666666665,2.0,2.0,2.5,2.75,,,,,,,,,,,,,,,,,,,,,,,,,,,,,0.06415002990995841,,,0.009964696295088612,-0.7879755836738646,,,
4,240614_152935,OFFLINERATING,9.0,5,1.0,,,,,,,,,,,,,,,,,T2,cue1.png,Easy,70.0,0.8352513000136241,,,,,,,,,,,,,,,,,,,,,,13,23,Female,0.42857142857142855,1.0,0.2,1.25,1.7777777777777777,1.25,2.2222222222222223,3.111111111111111,2.375,2.6666666666666665,2.0,2.0,2.5,2.75,,,,,,,,,,,,,,,,,,,,,,,,,,,,,1.5182173745356826,,,,,14653569199.28064,1.724957580460947,
5,240614_152942,OFFLINERATING,9.0,6,3.0,,,,,,,,,,,,,,,,,T2,cue2.png,Hard,39.0,0.6679913000261877,,,,,,,,,,,,,,,,,,,,,,13,23,Female,0.42857142857142855,1.0,0.2,1.25,1.7777777777777777,1.25,2.2222222222222223,3.111111111111111,2.375,2.6666666666666665,2.0,2.0,2.5,2.75,,,,,,,,,,,,,,,,,,,,,,,,,,,,,-1.133317195075932,0.0047720425572208985,-0.4321674300303481,,,156757755.49361068,-0.6369241852141507,
6,240614_155750,OFFLINERATING,9.0,7,1.0,,,,,,,,,,,,,,,,,T3,cue1.png,Easy,70.0,1.0523764000099618,,,,,,,,,,,,,,,,,,,,,,13,23,Female,0.42857142857142855,1.0,0.2,1.25,1.7777777777777777,1.25,2.2222222222222223,3.111111111111111,2.375,2.6666666666666665,2.0,2.0,2.5,2.75,,,,,,,,,,,,,,,,,,,,,,,,,,,,,1.5182173745356826,0.007110400395380502,1.3822412876938077,0.015618683195577087,1.4110034552612345,,,
7,240614_155757,OFFLINERATING,9.0,8,3.0,,,,,,,,,,,,,,,,,T3,cue2.png,Hard,36.0,0.9695662999874912,,,,,,,,,,,,,,,,,,,,,,13,23,Female,0.42857142857142855,1.0,0.2,1.25,1.7777777777777777,1.25,2.2222222222222223,3.111111111111111,2.375,2.6666666666666665,2.0,2.0,2.5,2.75,,,,,,,,,,,,,,,,,,,,,,,,,,,,,-1.3899173147157657,0.00410457962967932,-0.9500738576634602,,,,,
0,240614_153001,LEARNINGCHECK,9.0,1,,,,,,,,,,,,1.0,1.0,1.0,,,A,,,,,,,,,,,,,,,cue1.png,Easy,Left,Left,Easy,0.0139238999981898,1.0,,,,,,13,23,Female,0.42857142857142855,1.0,0.2,1.25,1.7777777777777777,1.25,2.2222222222222223,3.111111111111111,2.375,2.6666666666666665,2.0,2.0,2.5,2.75,,,,,,,,,,,,,,,,,,,,,,,,,,,,,,,,,,,,
1,240614_153006,LEARNINGCHECK,9.0,2,,,,,,,,,,,,2.0,2.0,2.0,,,A,,,,,,,,,,,,,,,cue2.png,Hard,Right,Right,Hard,0.0141648999997414,1.0,,,,,,13,23,Female,0.42857142857142855,1.0,0.2,1.25,1.7777777777777777,1.25,2.2222222222222223,3.111111111111111,2.375,2.6666666666666665,2.0,2.0,2.5,2.75,,,,,,,,,,,,,,,,,,,,,,,,,,,,,,,,,,,,
2,240614_155822,LEARNINGCHECK,9.0,1,,,,,,,,,,,,1.0,1.0,1.0,,,A,,,,,,,,,,,,,,,cue1.png,Easy,Middle,Middle,Mid,0.014374200021848,1.0,,,,,,13,23,Female,0.42857142857142855,1.0,0.2,1.25,1.7777777777777777,1.25,2.2222222222222223,3.111111111111111,2.375,2.6666666666666665,2.0,2.0,2.5,2.75,,,,,,,,,,,,,,,,,,,,,,,,,,,,,,,,,,,,
3,240614_155828,LEARNINGCHECK,9.0,2,,,,,,,,,,,,2.0,2.0,2.0,,,A,,,,,,,,,,,,,,,cue2.png,Hard,Middle,Middle,Mid,0.014523799996823,1.0,,,,,,13,23,Female,0.42857142857142855,1.0,0.2,1.25,1.7777777777777777,1.25,2.2222222222222223,3.111111111111111,2.375,2.6666666666666665,2.0,2.0,2.5,2.75,,,,,,,,,,,,,,,,,,,,,,,,,,,,,,,,,,,,
0,240614_155907,DEMANDRATING,9.0,-1,,,,,,,,,,,,,,,,,,,,,,,,,,,,,,,,,,,,,,,1.0,MentalDemand,1.0,50.0,6.669792200002121,13,23,Female,0.42857142857142855,1.0,0.2,1.25,1.7777777777777777,1.25,2.2222222222222223,3.111111111111111,2.375,2.6666666666666665,2.0,2.0,2.5,2.75,,,,,,,,,,,,,,,,,,,,,,,,,,,,,,,,,,,,-0.9728534695313024
1,240614_155914,DEMANDRATING,9.0,-1,,,,,,,,,,,,,,,,,,,,,,,,,,,,,,,,,,,,,,,2.0,Effort,1.0,57.0,5.9397802999883424,13,23,Female,0.42857142857142855,1.0,0.2,1.25,1.7777777777777777,1.25,2.2222222222222223,3.111111111111111,2.375,2.6666666666666665,2.0,2.0,2.5,2.75,,,,,,,,,,,,,,,,,,,,,,,,,,,,,,,,,,,,-0.5381742597407206
2,240614_155921,DEMANDRATING,9.0,-1,,,,,,,,,,,,,,,,,,,,,,,,,,,,,,,,,,,,,,,3.0,Frustration,1.0,46.0,5.5148494000022765,13,23,Female,0.42857142857142855,1.0,0.2,1.25,1.7777777777777777,1.25,2.2222222222222223,3.111111111111111,2.375,2.6666666666666665,2.0,2.0,2.5,2.75,,,,,,,,,,,,,,,,,,,,,,,,,,,,,,,,,,,,-1.2212415894116349
3,240614_155933,DEMANDRATING,9.0,-1,,,,,,,,,,,,,,,,,,,,,,,,,,,,,,,,,,,,,,,4.0,MentalDemand,2.0,70.0,9.795129100006308,13,23,Female,0.42857142857142855,1.0,0.2,1.25,1.7777777777777777,1.25,2.2222222222222223,3.111111111111111,2.375,2.6666666666666665,2.0,2.0,2.5,2.75,,,,,,,,,,,,,,,,,,,,,,,,,,,,,,,,,,,,0.2690871298703599
4,240614_155940,DEMANDRATING,9.0,-1,,,,,,,,,,,,,,,,,,,,,,,,,,,,,,,,,,,,,,,5.0,Effort,2.0,70.0,5.4175574999826495,13,23,Female,0.42857142857142855,1.0,0.2,1.25,1.7777777777777777,1.25,2.2222222222222223,3.111111111111111,2.375,2.6666666666666665,2.0,2.0,2.5,2.75,,,,,,,,,,,,,,,,,,,,,,,,,,,,,,,,,,,,0.2690871298703599
5,240614_155952,DEMANDRATING,9.0,-1,,,,,,,,,,,,,,,,,,,,,,,,,,,,,,,,,,,,,,,6.0,Frustration,2.0,52.0,11.031311300001107,13,23,Female,0.42857142857142855,1.0,0.2,1.25,1.7777777777777777,1.25,2.2222222222222223,3.111111111111111,2.375,2.6666666666666665,2.0,2.0,2.5,2.75,,,,,,,,,,,,,,,,,,,,,,,,,,,,,,,,,,,,-0.8486594095911362
6,240614_160001,DEMANDRATING,9.0,-1,,,,,,,,,,,,,,,,,,,,,,,,,,,,,,,,,,,,,,,7.0,MentalDemand,3.0,91.0,6.6953579999972135,13,23,Female,0.42857142857142855,1.0,0.2,1.25,1.7777777777777777,1.25,2.2222222222222223,3.111111111111111,2.375,2.6666666666666665,2.0,2.0,2.5,2.75,,,,,,,,,,,,,,,,,,,,,,,,,,,,,,,,,,,,1.5731247592421052
7,240614_160009,DEMANDRATING,9.0,-1,,,,,,,,,,,,,,,,,,,,,,,,,,,,,,,,,,,,,,,8.0,Effort,3.0,93.0,6.808639200025937,13,23,Female,0.42857142857142855,1.0,0.2,1.25,1.7777777777777777,1.25,2.2222222222222223,3.111111111111111,2.375,2.6666666666666665,2.0,2.0,2.5,2.75,,,,,,,,,,,,,,,,,,,,,,,,,,,,,,,,,,,,1.6973188191822715
8,240614_160017,DEMANDRATING,9.0,-1,,,,,,,,,,,,,,,,,,,,,,,,,,,,,,,,,,,,,,,9.0,Frustration,3.0,62.0,6.98805120002362,13,23,Female,0.42857142857142855,1.0,0.2,1.25,1.7777777777777777,1.25,2.2222222222222223,3.111111111111111,2.375,2.6666666666666665,2.0,2.0,2.5,2.75,,,,,,,,,,,,,,,,,,,,,,,,,,,,,,,,,,,,-0.22768910989030502
