,END,Phase,Block,TrialN,NbackLevel,ISI,Letter_Resp,Letter_RT,Letter_Accuracy,Trial_A_measure,Trial_ACC,Trial_RT,TrialCountCali,CaliEnd_A_measure,ISI_calibrated,TrialIndex,TrialNumber_total,TrialNumber_valid,CueLearning,TrialDemandLearning,CueMapping,OfflineRatingTimePoint,CueFigure,TrialDemand,OfflineRating,OfflineRatingRT,PhaseType,CueLeft,CueDemandLeft,CueRight,CueDemandRight,Choice,ChoiceDemand,TaskDemand,ChoiceRT,CueCheck,CueDemandCheck,CorrectAnswer,Answer,AnswerDemand,AnswerRT,AnswerACC,DemandRatingQuesIndex,QuesTLX,DemandLevel,DemandRating,DemandRatingRT,PID,Age,Gender,BAI_bis,BAI_bas_d,BAI_bas_rr,BAI_bas_fs,NFC,BFI_ext,BFI_agr,BFI_con,BFI_neu,BFI_open,UPPS_lps,UPPS_lpm,UPPS_pu,UPPS_ss,Task_A_measure,Task_ACC,Task_RT,Task_RT_z,Task_RT_log,Task_RT_log_z,cue_i_on_zyg_values,cue_i_on_zyg_zvalues,cue_e_on_zyg_values,cue_e_on_zyg_zvalues,cue_i_on_cor_values,cue_i_on_cor_zvalues,cue_e_on_cor_values,cue_e_on_cor_zvalues,cue_i_on_scr_values,cue_i_on_scr_zvalues,cue_e_on_scr_values,cue_e_on_scr_zvalues,cue_e_true_zyg_values,cue_e_true_zyg_zvalues,cue_e_true_cor_values,cue_e_true_cor_zvalues,cue_e_true_scr_values,cue_e_true_scr_zvalues,cue_e_false_zyg_values,cue_e_false_zyg_zvalues,cue_e_false_cor_values,cue_e_false_cor_zvalues,cue_e_false_scr_values,cue_e_false_scr_zvalues,OfflineRating_z,cue_i_off_zyg_values,cue_i_off_zyg_zvalues,cue_i_off_cor_values,cue_i_off_cor_zvalues,cue_i_off_scr_values,cue_i_off_scr_zvalues,DemandRating_z
0,240614_145114,PRACTICE,0.0,1,3.0,361.0,,,,,,,,,,43.0,1.0,1.0,cue2.png,Hard,A,,,,,,,,,,,,,,,,,,,,,,,,,,,13,23,Female,0.42857142857142855,1.0,0.2,1.25,1.7777777777777777,1.25,2.2222222222222223,3.111111111111111,2.375,2.6666666666666665,2.0,2.0,2.5,2.75,,,,,,,,,,,,,,,,,,,,,,,,,,,,,,,,,,,,,,
0,240614_145506,LEARNING,1.0,1,1.0,361.0,,,,,,,,,,1.0,1.0,1.0,cue1.png,Easy,A,,,,,,,,,,,,,,,,,,,,,,,,,,,13,23,Female,0.42857142857142855,1.0,0.2,1.25,1.7777777777777777,1.25,2.2222222222222223,3.111111111111111,2.375,2.6666666666666665,2.0,2.0,2.5,2.75,1.0,1.0,0.7009803555540404,-0.521660492550456,-0.3552754158009242,-0.4781220436610674,-0.00011375972348837094,-1.4222821822304945,1.802187841530231e-05,-0.12057374600288183,0.0001612354354422257,0.6360480018182494,0.00013161940900751918,0.6578253189941682,,,,,,,,,,,,,,,,,,,,,,,,
1,240614_145540,LEARNING,1.0,2,3.0,361.0,,,,,,,,,,2.0,2.0,2.0,cue2.png,Hard,A,,,,,,,,,,,,,,,,,,,,,,,,,,,13,23,Female,0.42857142857142855,1.0,0.2,1.25,1.7777777777777777,1.25,2.2222222222222223,3.111111111111111,2.375,2.6666666666666665,2.0,2.0,2.5,2.75,0.8194444444444444,0.8333333333333334,0.7587278111136079,0.7811127236321685,-0.27611218103787794,0.7637094766391174,3.014983843741253e-06,-0.25647933020492525,2.305450995510874e-05,-0.0662642430271653,-0.00034923128032147326,-1.6207770664943253,0.0001303999117037843,0.652039021140928,1.45,-0.14112083847969084,1.5890000000000002,-0.12427208917889433,,,,,,,,,,,,,,,,,,,,
2,240614_145613,LEARNING,1.0,3,1.0,361.0,,,,,,,,,,3.0,3.0,3.0,cue1.png,Easy,A,,,,,,,,,,,,,,,,,,,,,,,,,,,13,23,Female,0.42857142857142855,1.0,0.2,1.25,1.7777777777777777,1.25,2.2222222222222223,3.111111111111111,2.375,2.6666666666666665,2.0,2.0,2.5,2.75,1.0,0.9444444444444444,0.7385290941216655,0.32543294963395747,-0.30309478154884606,0.34043415300580754,,,,,,,,,1.171,-0.5303074671699741,1.5750000000000002,-0.1488700800824738,,,,,,,,,,,,,,,,,,,,
3,240614_145648,LEARNING,1.0,4,3.0,361.0,,,,,,,,,,4.0,4.0,4.0,cue2.png,Hard,A,,,,,,,,,,,,,,,,,,,,,,,,,,,13,23,Female,0.42857142857142855,1.0,0.2,1.25,1.7777777777777777,1.25,2.2222222222222223,3.111111111111111,2.375,2.6666666666666665,2.0,2.0,2.5,2.75,0.75,0.4166666666666666,0.8012928222144384,1.7413724592577124,-0.2215288279139613,1.6199570591923858,0.00018054205023601728,1.5158356260059314,1.0101966909946847e-05,-0.20604125024303097,-0.00015767319570875443,-0.7738793667194237,6.935035767261649e-05,0.36236974319342374,1.5870000000000002,0.049985140482921776,1.488,-0.3017290235547178,,,,,,,,,,,,,,,,,,,,
4,240614_145722,LEARNING,1.0,5,3.0,361.0,,,,,,,,,,5.0,5.0,5.0,cue2.png,Hard,A,,,,,,,,,,,,,,,,,,,,,,,,,,,13,23,Female,0.42857142857142855,1.0,0.2,1.25,1.7777777777777777,1.25,2.2222222222222223,3.111111111111111,2.375,2.6666666666666665,2.0,2.0,2.5,2.75,0.85,0.8333333333333334,0.7661851066630334,0.9493480997679727,-0.2663314848279824,0.9171389932611264,-0.00010139468298013717,-1.298837646857666,2.985533471715684e-05,0.007126667817459059,,,-9.006469262287306e-05,-0.39402632301672974,1.552,0.001162445127509679,1.4569999999999999,-0.35619600341264396,,,,,,,,,,,,,,,,,,,,
5,240614_145756,LEARNING,1.0,6,1.0,361.0,,,,,,,,,,6.0,6.0,6.0,cue1.png,Easy,A,,,,,,,,,,,,,,,,,,,,,,,,,,,13,23,Female,0.42857142857142855,1.0,0.2,1.25,1.7777777777777777,1.25,2.2222222222222223,3.111111111111111,2.375,2.6666666666666665,2.0,2.0,2.5,2.75,1.0,0.9444444444444444,0.7692491529434098,1.0184724860900813,-0.26234036592663074,0.9797475674028943,0.00012863625947699036,0.9976419153471875,0.00018772680817337548,1.7107922729058542,7.131884011686703e-05,0.23851762398745743,8.773600578237256e-05,0.4496063741085483,-0.016000000000000014,-2.1860943067949434,1.1179999999999999,-0.9518187831493176,,,,,,,,,,,,,,,,,,,,
6,240614_145830,LEARNING,1.0,7,3.0,361.0,,,,,,,,,,7.0,7.0,7.0,cue2.png,Hard,A,,,,,,,,,,,,,,,,,,,,,,,,,,,13,23,Female,0.42857142857142855,1.0,0.2,1.25,1.7777777777777777,1.25,2.2222222222222223,3.111111111111111,2.375,2.6666666666666665,2.0,2.0,2.5,2.75,0.9166666666666666,0.8333333333333334,0.7698898866656236,1.032927334774179,-0.2615077786908606,0.9928083408272462,,,,,0.00029524647938188866,1.2285244044007286,0.0004541856673619979,2.1883448556326677,1.4500000000000002,-0.14112083847969054,,,,,,,,,,,,,,,,,,,,,,
7,240614_145904,LEARNING,1.0,8,3.0,361.0,,,,,,,,,,8.0,8.0,8.0,cue2.png,Hard,A,,,,,,,,,,,,,,,,,,,,,,,,,,,13,23,Female,0.42857142857142855,1.0,0.2,1.25,1.7777777777777777,1.25,2.2222222222222223,3.111111111111111,2.375,2.6666666666666665,2.0,2.0,2.5,2.75,1.0,0.7777777777777778,0.7405529928530866,0.37109177622661504,-0.3003580842249964,0.3833646498260832,-3.012885161018811e-05,-0.5873658619036568,-6.541455641307335e-07,-0.3221155381771973,-1.614757028074341e-05,-0.14818023803734104,,,2.013,0.6442270896659348,,,,,,,,,,,,,,,,,,,,,,
8,240614_145938,LEARNING,1.0,9,1.0,361.0,,,,,,,,,,9.0,9.0,9.0,cue1.png,Easy,A,,,,,,,,,,,,,,,,,,,,,,,,,,,13,23,Female,0.42857142857142855,1.0,0.2,1.25,1.7777777777777777,1.25,2.2222222222222223,3.111111111111111,2.375,2.6666666666666665,2.0,2.0,2.5,2.75,1.0,0.9444444444444444,0.7800533882349127,1.2622142790871065,-0.24839291518583512,1.1985408495318781,5.659406419502048e-05,0.27841941721631275,-1.0581253268070103e-05,-0.4292436442431722,0.0001428287122577981,0.554670013743242,0.00018439572609730507,0.9082395588151823,,,1.67,0.018044858191814853,,,,,,,,,,,,,,,,,,,,
9,240614_150012,LEARNING,1.0,10,1.0,361.0,,,,,,,,,,10.0,10.0,10.0,cue1.png,Easy,A,,,,,,,,,,,,,,,,,,,,,,,,,,,13,23,Female,0.42857142857142855,1.0,0.2,1.25,1.7777777777777777,1.25,2.2222222222222223,3.111111111111111,2.375,2.6666666666666665,2.0,2.0,2.5,2.75,1.0,0.8333333333333334,0.7638725533305357,0.8971772722678039,-0.26935431874317606,0.8697198794798866,-3.0324721528074677e-05,-0.5893212999785196,0.00012375387199723776,1.020430115425732,2.3142145491787322e-05,0.025523576029489715,-0.00018047939865715925,-0.8230280254602317,0.7950000000000002,-1.054802708702399,1.4379999999999997,-0.389578991067502,,,,,,,,,,,,,,,,,,,,
10,240614_150045,LEARNING,1.0,11,3.0,361.0,,,,,,,,,,11.0,11.0,11.0,cue2.png,Hard,A,,,,,,,,,,,,,,,,,,,,,,,,,,,13,23,Female,0.42857142857142855,1.0,0.2,1.25,1.7777777777777777,1.25,2.2222222222222223,3.111111111111111,2.375,2.6666666666666665,2.0,2.0,2.5,2.75,0.8194444444444444,0.7777777777777778,0.688066029407577,-0.8130055924450262,-0.37387047267777546,-0.7698221974075388,-7.628033407105052e-05,-1.0481122949909343,,,-4.8532678557322746e-05,-0.2913580828244522,0.00026646135134618734,1.2976263575789846,0.34299999999999997,-1.6853129458637186,2.529,1.5273073000614392,,,,,,,,,,,,,,,,,,,,
11,240614_150118,LEARNING,1.0,12,1.0,361.0,,,,,,,,,,12.0,12.0,12.0,cue1.png,Easy,A,,,,,,,,,,,,,,,,,,,,,,,,,,,13,23,Female,0.42857142857142855,1.0,0.2,1.25,1.7777777777777777,1.25,2.2222222222222223,3.111111111111111,2.375,2.6666666666666665,2.0,2.0,2.5,2.75,0.9153846153846156,0.9230769230769232,0.7507182277735814,0.6004178246611573,-0.2867248936621515,0.5972281410524785,5.8288229543106834e-05,0.29533286396968206,5.313409336159909e-05,0.25833874282662034,0.0001786710844277526,0.7131327724755608,,,2.822,1.7727288194524558,,,,,,,,,,,,,,,,,,,,,,
12,240614_150152,LEARNING,1.0,13,1.0,361.0,,,,,,,,,,13.0,13.0,13.0,cue1.png,Easy,A,,,,,,,,,,,,,,,,,,,,,,,,,,,13,23,Female,0.42857142857142855,1.0,0.2,1.25,1.7777777777777777,1.25,2.2222222222222223,3.111111111111111,2.375,2.6666666666666665,2.0,2.0,2.5,2.75,1.0,0.8888888888888888,0.7589050750011666,0.785111768138461,-0.27587857528251164,0.7673740437984272,,,-3.2987962329902344e-05,-0.6710450204902397,0.00010052886338870722,0.36765809628496693,-0.00011550211717722492,-0.5147223792031744,0.8959999999999997,-0.913914359248211,2.224,0.9914224982334591,,,,,,,,,,,,,,,,,,,,
13,240614_150226,LEARNING,1.0,14,1.0,361.0,,,,,,,,,,14.0,14.0,14.0,cue1.png,Easy,A,,,,,,,,,,,,,,,,,,,,,,,,,,,13,23,Female,0.42857142857142855,1.0,0.2,1.25,1.7777777777777777,1.25,2.2222222222222223,3.111111111111111,2.375,2.6666666666666665,2.0,2.0,2.5,2.75,0.95,0.8888888888888888,0.762860049993833,0.8743353614758855,-0.27068068523713207,0.8489132042019646,-6.711014055385545e-05,-0.9565630374486499,,,2.2685455671093025e-05,0.023504504062683614,-0.00032746682529023307,-1.5204572272923518,2.758,1.6834530336597024,,,,,,,,,,,,,,,,,,,,,,
14,240614_150259,LEARNING,1.0,15,3.0,361.0,,,,,,,,,,15.0,15.0,15.0,cue2.png,Hard,A,,,,,,,,,,,,,,,,,,,,,,,,,,,13,23,Female,0.42857142857142855,1.0,0.2,1.25,1.7777777777777777,1.25,2.2222222222222223,3.111111111111111,2.375,2.6666666666666665,2.0,2.0,2.5,2.75,0.9153846153846156,0.9230769230769232,0.7205808777750159,-0.07947589540678707,-0.3276976175522788,-0.045509869232417656,1.023534820714881e-05,-0.18439590084051222,,,0.00046498317938767613,1.9789475519954054,0.0001936376823717845,0.9520909979179824,,,,,,,,,,,,,,,,,,,,,,,,
15,240614_150334,LEARNING,1.0,16,1.0,361.0,,,,,,,,,,16.0,16.0,16.0,cue1.png,Easy,A,,,,,,,,,,,,,,,,,,,,,,,,,,,13,23,Female,0.42857142857142855,1.0,0.2,1.25,1.7777777777777777,1.25,2.2222222222222223,3.111111111111111,2.375,2.6666666666666665,2.0,2.0,2.5,2.75,0.9166666666666666,0.7222222222222222,0.7773370846138837,1.2009349106680753,-0.25188119435889605,1.1438203085928933,5.769192187999586e-05,0.2893797154649946,0.0002351338725348007,2.2223842864761223,-0.00046276263810182726,-2.1227107016676596,-6.36449009567574e-05,-0.2686691095710737,,,,,,,,,,,,,,,,,,,,,,,,
16,240614_150407,LEARNING,1.0,17,1.0,361.0,,,,,,,,,,17.0,17.0,17.0,cue1.png,Easy,A,,,,,,,,,,,,,,,,,,,,,,,,,,,13,23,Female,0.42857142857142855,1.0,0.2,1.25,1.7777777777777777,1.25,2.2222222222222223,3.111111111111111,2.375,2.6666666666666665,2.0,2.0,2.5,2.75,1.0,1.0,0.7691087166668795,1.0153042665058378,-0.26252294538969934,0.9768834483092678,8.198846789644497e-05,0.5319406542801903,3.797846123298164e-05,0.09478716117840902,0.00030297214385275814,1.262680349751926,-2.4505603184305207e-05,-0.08296010145398817,,,,,,,,,,,,,,,,,,,,,,,,
17,240614_150441,LEARNING,1.0,18,3.0,361.0,,,,,,,,,,18.0,18.0,18.0,cue2.png,Hard,A,,,,,,,,,,,,,,,,,,,,,,,,,,,13,23,Female,0.42857142857142855,1.0,0.2,1.25,1.7777777777777777,1.25,2.2222222222222223,3.111111111111111,2.375,2.6666666666666665,2.0,2.0,2.5,2.75,0.9153846153846156,0.9230769230769232,0.7286079277821247,0.1016130487360915,-0.3166195136239864,0.12827204713940654,0.00013496718291478547,1.0608457440559704,,,-9.358473859453521e-05,-0.4905378046971915,0.00017229895943858108,0.8508425520861391,,,,,,,,,,,,,,,,,,,,,,,,
18,240614_150514,LEARNING,1.0,19,3.0,361.0,,,,,,,,,,19.0,19.0,19.0,cue2.png,Hard,A,,,,,,,,,,,,,,,,,,,,,,,,,,,13,23,Female,0.42857142857142855,1.0,0.2,1.25,1.7777777777777777,1.25,2.2222222222222223,3.111111111111111,2.375,2.6666666666666665,2.0,2.0,2.5,2.75,1.0,1.0,0.7533189833355007,0.6590904476377917,-0.2832665242350327,0.6514794886167067,-2.5338635578161465e-05,-0.5395434554978512,-2.714042925508345e-05,-0.6079415303150594,-0.00022968452706881824,-1.0922487584883211,-0.00015687562676366734,-0.7110323250864872,,,0.34399999999999986,-2.3117362802472097,,,,,,,,,,,,,,,,,,,,
19,240614_150547,LEARNING,1.0,20,3.0,361.0,,,,,,,,,,20.0,20.0,20.0,cue2.png,Hard,A,,,,,,,,,,,,,,,,,,,,,,,,,,,13,23,Female,0.42857142857142855,1.0,0.2,1.25,1.7777777777777777,1.25,2.2222222222222223,3.111111111111111,2.375,2.6666666666666665,2.0,2.0,2.5,2.75,0.95,0.8888888888888888,0.7036876812508126,-0.4605836646441661,-0.3514206558459458,-0.4176525286189952,-6.156942034938034e-05,-0.9012480847142191,-4.268129181536672e-05,-0.7756503154281793,-0.0005397616977549746,-2.4631313455518344,0.00013566777191248436,0.6770340810917918,,,2.367,1.2426734053200201,,,,,,,,,,,,,,,,,,,,
20,240614_150621,LEARNING,1.0,21,1.0,361.0,,,,,,,,,,21.0,21.0,21.0,cue1.png,Easy,A,,,,,,,,,,,,,,,,,,,,,,,,,,,13,23,Female,0.42857142857142855,1.0,0.2,1.25,1.7777777777777777,1.25,2.2222222222222223,3.111111111111111,2.375,2.6666666666666665,2.0,2.0,2.5,2.75,0.8125,0.6944444444444444,0.7596844785709566,0.8026949860565588,-0.27485209167949626,0.783476464285808,,,0.00021371038850748116,1.9911933557813075,-1.9248466905820785e-05,-0.16188961618406433,-0.0001189827338838388,-0.531237286547168,0.5000000000000002,-1.4663082838408705,2.152,0.8649185450150504,,,,,,,,,,,,,,,,,,,,
21,240614_150654,LEARNING,1.0,22,3.0,361.0,,,,,,,,,,22.0,22.0,22.0,cue2.png,Hard,A,,,,,,,,,,,,,,,,,,,,,,,,,,,13,23,Female,0.42857142857142855,1.0,0.2,1.25,1.7777777777777777,1.25,2.2222222222222223,3.111111111111111,2.375,2.6666666666666665,2.0,2.0,2.5,2.75,1.0,1.0,0.7131207222183649,-0.24777579284098192,-0.33810455702587144,-0.20876324697584978,1.1359597975595971e-05,-0.17317212116776826,-6.241720166667766e-06,-0.3824136937451678,-1.6688541273616585e-05,-0.1505719256052946,,,,,1.8979999999999997,0.4186407100501082,,,,,,,,,,,,,,,,,,,,
22,240614_150727,LEARNING,1.0,23,3.0,361.0,,,,,,,,,,23.0,23.0,23.0,cue2.png,Hard,A,,,,,,,,,,,,,,,,,,,,,,,,,,,13,23,Female,0.42857142857142855,1.0,0.2,1.25,1.7777777777777777,1.25,2.2222222222222223,3.111111111111111,2.375,2.6666666666666665,2.0,2.0,2.5,2.75,0.8,0.8461538461538461,0.7107253222267091,-0.3018156275130765,-0.3414692498041284,-0.261545091485776,0.00022048713572614398,1.914621421772075,0.00010996866564307777,0.8716674453215514,-0.000446189425121478,-2.0494388479669188,-0.0003810100796148336,-1.7745104479145424,2.229,0.9455328667164771,2.2279999999999998,0.998450495634481,,,,,,,,,,,,,,,,,,,,
23,240614_150801,LEARNING,1.0,24,3.0,361.0,,,,,,,,,,24.0,24.0,24.0,cue2.png,Hard,A,,,,,,,,,,,,,,,,,,,,,,,,,,,13,23,Female,0.42857142857142855,1.0,0.2,1.25,1.7777777777777777,1.25,2.2222222222222223,3.111111111111111,2.375,2.6666666666666665,2.0,2.0,2.5,2.75,0.8680555555555555,0.75,0.7410511066671461,0.38232914295176745,-0.2996856862031658,0.3939125393886565,7.204469787722677e-05,0.4326685112524931,5.1809272371436486e-05,0.2440419740410607,0.00013596445532432135,0.5243224383883389,0.0001233385681555935,0.6185342016642874,2.7510000000000003,1.6736884945886206,1.9499999999999997,0.5100046762634034,,,,,,,,,,,,,,,,,,,,
24,240614_150834,LEARNING,1.0,25,1.0,361.0,,,,,,,,,,25.0,25.0,25.0,cue1.png,Easy,A,,,,,,,,,,,,,,,,,,,,,,,,,,,13,23,Female,0.42857142857142855,1.0,0.2,1.25,1.7777777777777777,1.25,2.2222222222222223,3.111111111111111,2.375,2.6666666666666665,2.0,2.0,2.5,2.75,1.0,1.0,0.7581192777773443,0.7673843104240641,-0.2769145471740135,0.7511227807864649,-0.00010517996376857661,-1.3366274323317573,9.790087119725425e-05,0.7414381779528147,-5.002850643668786e-05,-0.2979712894288858,-0.0001276879365079294,-0.5725419250252749,1.935,0.535422225731017,2.756,1.9261461525694772,,,,,,,,,,,,,,,,,,,,
25,240614_150908,LEARNING,1.0,26,1.0,361.0,,,,,,,,,,26.0,26.0,26.0,cue1.png,Easy,A,,,,,,,,,,,,,,,,,,,,,,,,,,,13,23,Female,0.42857142857142855,1.0,0.2,1.25,1.7777777777777777,1.25,2.2222222222222223,3.111111111111111,2.375,2.6666666666666665,2.0,2.0,2.5,2.75,1.0,0.7777777777777778,0.7525550214320121,0.6418555912029104,-0.2842811668500343,0.6355628173876908,4.210464172639929e-05,0.13376643178787634,-1.708066771871717e-05,-0.4993818941142146,4.9225085961152656e-05,0.14083889843694983,-0.0003001737383990198,-1.3909563832943763,1.195,-0.4968290474976917,1.201,-0.8059878370780963,,,,,,,,,,,,,,,,,,,,
26,240614_150942,LEARNING,1.0,27,3.0,361.0,,,,,,,,,,27.0,27.0,27.0,cue2.png,Hard,A,,,,,,,,,,,,,,,,,,,,,,,,,,,13,23,Female,0.42857142857142855,1.0,0.2,1.25,1.7777777777777777,1.25,2.2222222222222223,3.111111111111111,2.375,2.6666666666666665,2.0,2.0,2.5,2.75,1.0,0.9444444444444444,0.7497398588183226,0.5783459799693854,-0.2880289875287615,0.5767708558766783,8.772708999651817e-05,0.5892313310355203,5.487723006463493e-06,-0.2558357347040472,0.0003260165878447791,1.3645621713878593,0.00010156673573897754,0.51523072834988,0.10799999999999987,-2.013122471821484,,,,,,,,,,,,,,,,,,,,,,
27,240614_151015,LEARNING,1.0,28,1.0,361.0,,,,,,,,,,28.0,28.0,28.0,cue1.png,Easy,A,,,,,,,,,,,,,,,,,,,,,,,,,,,13,23,Female,0.42857142857142855,1.0,0.2,1.25,1.7777777777777777,1.25,2.2222222222222223,3.111111111111111,2.375,2.6666666666666665,2.0,2.0,2.5,2.75,1.0,0.8888888888888888,0.7308351499923447,0.1518588199799629,-0.31356735767060856,0.17615113493971649,,,,,0.0001708549904596182,0.6785770291550934,-0.0002534902335755507,-1.1694514542433088,2.08,0.7376876779177235,1.004,-1.1521167090784643,,,,,,,,,,,,,,,,,,,,
28,240614_151049,LEARNING,1.0,29,1.0,361.0,,,,,,,,,,29.0,29.0,29.0,cue1.png,Easy,A,,,,,,,,,,,,,,,,,,,,,,,,,,,13,23,Female,0.42857142857142855,1.0,0.2,1.25,1.7777777777777777,1.25,2.2222222222222223,3.111111111111111,2.375,2.6666666666666665,2.0,2.0,2.5,2.75,1.0,0.8888888888888888,0.7641239750046225,0.902849304391023,-0.26902523203166406,0.874882253813007,-3.0350280453035963e-05,-0.5895764636890124,1.4390060305044788e-05,-0.15976640990171334,0.00018833174348817285,0.7558435249510858,0.00018490573415009832,0.9106594563352298,1.7720000000000002,0.30804795879009905,1.5440000000000003,-0.20333705994039955,,,,,,,,,,,,,,,,,,,,
29,240614_151122,LEARNING,1.0,30,3.0,361.0,,,,,,,,,,30.0,30.0,30.0,cue2.png,Hard,A,,,,,,,,,,,,,,,,,,,,,,,,,,,13,23,Female,0.42857142857142855,1.0,0.2,1.25,1.7777777777777777,1.25,2.2222222222222223,3.111111111111111,2.375,2.6666666666666665,2.0,2.0,2.5,2.75,1.0,1.0,0.7177401166651786,-0.14356300455485668,-0.3316477299605781,-0.10747517562796743,-1.589793567681073e-05,-0.44529363786559045,-6.884319477627439e-05,-1.05797576195997,-7.322101819282577e-05,-0.4005077336514619,0.00043145098819835507,2.080472845718583,1.563,0.016506720810638992,1.9929999999999999,0.5855556483243977,,,,,,,,,,,,,,,,,,,,
30,240614_151153,LEARNING,1.0,31,3.0,361.0,,,,,,,,,,31.0,31.0,31.0,cue2.png,Hard,A,,,,,,,,,,,,,,,,,,,,,,,,,,,13,23,Female,0.42857142857142855,1.0,0.2,1.25,1.7777777777777777,1.25,2.2222222222222223,3.111111111111111,2.375,2.6666666666666665,2.0,2.0,2.5,2.75,0.8680555555555555,0.861111111111111,0.6221995529348907,-2.2989426014691747,-0.47449441304201717,-2.3483072254025332,2.8953769960439555e-05,0.00247666740614714,0.0001405009474690611,1.2011557135501922,5.513587393549081e-05,0.16697109092281978,3.59437647512572e-05,0.20386140019593027,1.257,-0.41034313001096223,,,,,,,,,,,,,,,,,,,,,,
31,240614_151227,LEARNING,1.0,32,1.0,361.0,,,,,,,,,,32.0,32.0,32.0,cue1.png,Easy,A,,,,,,,,,,,,,,,,,,,,,,,,,,,13,23,Female,0.42857142857142855,1.0,0.2,1.25,1.7777777777777777,1.25,2.2222222222222223,3.111111111111111,2.375,2.6666666666666665,2.0,2.0,2.5,2.75,1.0,0.8888888888888888,0.7596363812499476,0.8016099183081454,-0.2749154059171889,0.7824832555534232,0.0003229333844964881,2.937378247495629,4.724934183892183e-05,0.19483361080885178,-0.0001263231998641489,-0.6352778588664564,-0.00016483844818225958,-0.7488144967559305,,,1.188,-0.8288288286314203,,,,,,,,,,,,,,,,,,,,
32,240614_151259,LEARNING,1.0,33,1.0,361.0,,,,,,,,,,33.0,33.0,33.0,cue1.png,Easy,A,,,,,,,,,,,,,,,,,,,,,,,,,,,13,23,Female,0.42857142857142855,1.0,0.2,1.25,1.7777777777777777,1.25,2.2222222222222223,3.111111111111111,2.375,2.6666666666666665,2.0,2.0,2.5,2.75,0.9153846153846156,0.9230769230769232,0.6679325500040755,-1.2672136170460455,-0.4035680835914039,-1.2356878157156228,-8.324059919445018e-05,-1.1175990624348124,-8.137618751869694e-06,-0.40287323047863616,,,,,0.34799999999999986,-1.67833827509866,2.907,2.1914530544580844,,,,,,,,,,,,,,,,,,,,
33,240614_151333,LEARNING,1.0,34,1.0,361.0,,,,,,,,,,34.0,34.0,34.0,cue1.png,Easy,A,,,,,,,,,,,,,,,,,,,,,,,,,,,13,23,Female,0.42857142857142855,1.0,0.2,1.25,1.7777777777777777,1.25,2.2222222222222223,3.111111111111111,2.375,2.6666666666666665,2.0,2.0,2.5,2.75,1.0,1.0,0.7498360166630138,0.5805152853244987,-0.2879007408072782,0.5787826587241723,,,-3.800524621981865e-05,-0.7251888997299873,,,0.00010486964157679045,0.530902429222247,1.6029999999999998,0.07230408693110947,0.865,-1.3963396187640031,,,,,,,,,,,,,,,,,,,,
34,240614_151406,LEARNING,1.0,35,3.0,361.0,,,,,,,,,,35.0,35.0,35.0,cue2.png,Hard,A,,,,,,,,,,,,,,,,,,,,,,,,,,,13,23,Female,0.42857142857142855,1.0,0.2,1.25,1.7777777777777777,1.25,2.2222222222222223,3.111111111111111,2.375,2.6666666666666665,2.0,2.0,2.5,2.75,0.8194444444444444,0.8333333333333334,0.7071396555531666,-0.38270768516627185,-0.346527099985536,-0.34088745033491114,-2.3794929427097943e-05,-0.5241320956690403,,,-7.686634282848314e-05,-0.41662408319166827,-5.206890496214098e-05,-0.2137430670389396,1.5450000000000002,-0.008602093943572555,1.509,-0.2648320371993488,,,,,,,,,,,,,,,,,,,,
35,240614_151439,LEARNING,1.0,36,3.0,361.0,,,,,,,,,,36.0,36.0,36.0,cue2.png,Hard,A,,,,,,,,,,,,,,,,,,,,,,,,,,,13,23,Female,0.42857142857142855,1.0,0.2,1.25,1.7777777777777777,1.25,2.2222222222222223,3.111111111111111,2.375,2.6666666666666665,2.0,2.0,2.5,2.75,0.9153846153846156,0.811965811965812,0.7225887375025195,-0.03417890613692699,-0.3249150464646261,-0.0018597519214447358,5.897145062147861e-05,0.302153699576356,-3.6954171931177695e-05,-0.7138462608431276,0.0001628198544120843,0.6430528786093586,0.0001434047780007443,0.7137447991736555,0.9849999999999999,-0.7897652196301633,1.8490000000000002,0.33254774188758107,,,,,,,,,,,,,,,,,,,,
36,240614_151512,LEARNING,1.0,37,1.0,361.0,,,,,,,,,,37.0,37.0,37.0,cue1.png,Easy,A,,,,,,,,,,,,,,,,,,,,,,,,,,,13,23,Female,0.42857142857142855,1.0,0.2,1.25,1.7777777777777777,1.25,2.2222222222222223,3.111111111111111,2.375,2.6666666666666665,2.0,2.0,2.5,2.75,0.9583333333333334,0.8888888888888888,0.6845634750006866,-0.8920226508643775,-0.378973906630859,-0.8498796276487263,,,7.672346593211223e-05,0.51290279936052,0.0004515780685775679,1.9196821989654842,,,1.3969999999999998,-0.2150523485893148,1.374,-0.5020269494838645,,,,,,,,,,,,,,,,,,,,
37,240614_151544,LEARNING,1.0,38,3.0,361.0,,,,,,,,,,38.0,38.0,38.0,cue2.png,Hard,A,,,,,,,,,,,,,,,,,,,,,,,,,,,13,23,Female,0.42857142857142855,1.0,0.2,1.25,1.7777777777777777,1.25,2.2222222222222223,3.111111111111111,2.375,2.6666666666666665,2.0,2.0,2.5,2.75,0.9153846153846156,0.9230769230769232,0.6848821833312589,-0.8848326427017555,-0.3785084506496198,-0.8425780322737364,,,,,,,,,2.0220000000000002,0.6567814970430411,1.3429999999999997,-0.5564939293417911,,,,,,,,,,,,,,,,,,,,
38,240614_151617,LEARNING,1.0,39,3.0,361.0,,,,,,,,,,39.0,39.0,39.0,cue2.png,Hard,A,,,,,,,,,,,,,,,,,,,,,,,,,,,13,23,Female,0.42857142857142855,1.0,0.2,1.25,1.7777777777777777,1.25,2.2222222222222223,3.111111111111111,2.375,2.6666666666666665,2.0,2.0,2.5,2.75,0.9153846153846156,0.9230769230769232,0.7138644722209493,-0.23099691360701696,-0.33706214947626256,-0.19241102796941445,-2.776194680044735e-05,-0.5637362211988325,6.176089537720088e-05,0.35143463630330907,0.00018337914452400952,0.7339475831580919,-0.00039411475456136444,-1.836689800241348,1.77,0.30525809048407515,1.7729999999999997,0.19901579126814892,,,,,,,,,,,,,,,,,,,,
39,240614_151650,LEARNING,1.0,40,3.0,361.0,,,,,,,,,,40.0,40.0,40.0,cue2.png,Hard,A,,,,,,,,,,,,,,,,,,,,,,,,,,,13,23,Female,0.42857142857142855,1.0,0.2,1.25,1.7777777777777777,1.25,2.2222222222222223,3.111111111111111,2.375,2.6666666666666665,2.0,2.0,2.5,2.75,1.0,0.9444444444444444,0.7166339823555009,-0.16851721488646587,-0.33319005358410436,-0.1316695645501917,-2.935210743429048e-05,-0.5796113524191642,,,,,,,2.16,0.8492824101586651,2.0279999999999996,0.6470506255833457,,,,,,,,,,,,,,,,,,,,
40,240614_151722,LEARNING,1.0,41,1.0,361.0,,,,,,,,,,41.0,41.0,41.0,cue1.png,Easy,A,,,,,,,,,,,,,,,,,,,,,,,,,,,13,23,Female,0.42857142857142855,1.0,0.2,1.25,1.7777777777777777,1.25,2.2222222222222223,3.111111111111111,2.375,2.6666666666666665,2.0,2.0,2.5,2.75,1.0,1.0,0.7046260611079762,-0.4394139675090777,-0.3500880266628145,-0.3967476107055498,-8.044592478106093e-06,-0.3668909588252826,6.462701101573372e-05,0.38236424332270835,-2.4518198745039372e-05,-0.185187634547986,0.0002966623641939385,1.4409247931486382,,,1.5539999999999998,-0.18576706643784358,,,,,,,,,,,,,,,,,,,,
41,240614_151756,LEARNING,1.0,42,3.0,361.0,,,,,,,,,,42.0,42.0,42.0,cue2.png,Hard,A,,,,,,,,,,,,,,,,,,,,,,,,,,,13,23,Female,0.42857142857142855,1.0,0.2,1.25,1.7777777777777777,1.25,2.2222222222222223,3.111111111111111,2.375,2.6666666666666665,2.0,2.0,2.5,2.75,0.9236111111111112,0.9166666666666666,0.7280928722256148,0.08999347905349381,-0.31732666718355146,0.11717894839743448,-7.257189080276272e-05,-1.0110896054246974,-2.6286648982688267e-05,-0.5987279843048864,,,-1.209993133143494e-05,-0.024097394508741904,,,,,,,,,,,,,,,,,,,,,,,,
42,240614_151828,LEARNING,1.0,43,3.0,361.0,,,,,,,,,,43.0,43.0,43.0,cue2.png,Hard,A,,,,,,,,,,,,,,,,,,,,,,,,,,,13,23,Female,0.42857142857142855,1.0,0.2,1.25,1.7777777777777777,1.25,2.2222222222222223,3.111111111111111,2.375,2.6666666666666665,2.0,2.0,2.5,2.75,1.0,1.0,0.6884028944477905,-0.8054059718625108,-0.3733810100519208,-0.7621440104484717,,,-0.0001703303785412975,-2.153171876574713,,,3.410430156831857e-05,0.19513347448920326,,,1.1429999999999998,-0.9078937993929259,,,,,,,,,,,,,,,,,,,,
43,240614_151901,LEARNING,1.0,44,1.0,361.0,,,,,,,,,,44.0,44.0,44.0,cue1.png,Easy,A,,,,,,,,,,,,,,,,,,,,,,,,,,,13,23,Female,0.42857142857142855,1.0,0.2,1.25,1.7777777777777777,1.25,2.2222222222222223,3.111111111111111,2.375,2.6666666666666665,2.0,2.0,2.5,2.75,1.0,0.9444444444444444,0.7364360588202116,0.2782144132527977,-0.30593286447192963,0.29591322303547135,0.00017910357434314933,1.5014748167451888,-8.166809219691939e-05,-1.1963752849770213,-9.18426406489167e-05,-0.48283581317900665,-0.00033231193931664406,-1.5434464317816634,1.9140000000000001,0.50612860851777,2.5100000000000002,1.493924312406582,,,,,,,,,,,,,,,,,,,,
44,240614_151933,LEARNING,1.0,45,1.0,361.0,,,,,,,,,,45.0,45.0,45.0,cue1.png,Easy,A,,,,,,,,,,,,,,,,,,,,,,,,,,,13,23,Female,0.42857142857142855,1.0,0.2,1.25,1.7777777777777777,1.25,2.2222222222222223,3.111111111111111,2.375,2.6666666666666665,2.0,2.0,2.5,2.75,1.0,1.0,0.674816622220937,-1.1119100661710974,-0.39331429580259664,-1.0748369243046767,,,0.0002830540766017211,2.7395138328743194,,,-0.00015550771730635758,-0.7045418379554234,1.546,-0.00720715979056094,1.956,0.5205466723649378,,,,,,,,,,,,,,,,,,,,
45,240614_152006,LEARNING,1.0,46,1.0,361.0,,,,,,,,,,46.0,46.0,46.0,cue1.png,Easy,A,,,,,,,,,,,,,,,,,,,,,,,,,,,13,23,Female,0.42857142857142855,1.0,0.2,1.25,1.7777777777777777,1.25,2.2222222222222223,3.111111111111111,2.375,2.6666666666666665,2.0,2.0,2.5,2.75,1.0,0.9444444444444444,0.6743117411747602,-1.1233001005534582,-0.394062751002923,-1.0865779207669855,3.845895996213225e-05,0.09737031232450205,9.5389209099476e-06,-0.21211734545694777,,,,,2.6959999999999997,1.5969671161729724,0.643,-1.7863934745207628,,,,,,,,,,,,,,,,,,,,
46,240614_152038,LEARNING,1.0,47,3.0,361.0,,,,,,,,,,47.0,47.0,47.0,cue2.png,Hard,A,,,,,,,,,,,,,,,,,,,,,,,,,,,13,23,Female,0.42857142857142855,1.0,0.2,1.25,1.7777777777777777,1.25,2.2222222222222223,3.111111111111111,2.375,2.6666666666666665,2.0,2.0,2.5,2.75,1.0,1.0,0.6728042888862547,-1.1573079792921586,-0.3963007956614122,-1.121686066727296,,,1.4877477117866862e-06,-0.2990013565960481,,,,,1.5750000000000002,0.03324593064678054,1.2840000000000003,-0.6601568910068749,,,,,,,,,,,,,,,,,,,,
47,240614_152108,LEARNING,1.0,48,3.0,361.0,,,,,,,,,,48.0,48.0,48.0,cue2.png,Hard,A,,,,,,,,,,,,,,,,,,,,,,,,,,,13,23,Female,0.42857142857142855,1.0,0.2,1.25,1.7777777777777777,1.25,2.2222222222222223,3.111111111111111,2.375,2.6666666666666665,2.0,2.0,2.5,2.75,1.0,1.0,0.5730101166684309,-3.4086482926742816,-0.5568519068064481,-3.6402470001695226,,,-5.318429575096144e-05,-0.8889931896247838,-2.1959765377502476e-05,-0.17387654142249914,-0.0002859709166804607,-1.3235665198085307,1.9599999999999997,0.5702955795563108,1.0030000000000001,-1.1538737084287198,,,,,,,,,,,,,,,,,,,,
48,240614_152139,LEARNING,1.0,49,1.0,361.0,,,,,,,,,,49.0,49.0,49.0,cue1.png,Easy,A,,,,,,,,,,,,,,,,,,,,,,,,,,,13,23,Female,0.42857142857142855,1.0,0.2,1.25,1.7777777777777777,1.25,2.2222222222222223,3.111111111111111,2.375,2.6666666666666665,2.0,2.0,2.5,2.75,0.9153846153846156,0.9230769230769232,0.6204528666647902,-2.3383475599684056,-0.4773056374727378,-2.3924068269303937,0.00023679502592951476,2.077428808268358,-0.00013759054031687798,-1.7998608250086414,,,,,,,,,,,,,,,,,,,,,,,,,,,,
49,240614_152212,LEARNING,1.0,50,1.0,361.0,,,,,,,,,,50.0,50.0,50.0,cue1.png,Easy,A,,,,,,,,,,,,,,,,,,,,,,,,,,,13,23,Female,0.42857142857142855,1.0,0.2,1.25,1.7777777777777777,1.25,2.2222222222222223,3.111111111111111,2.375,2.6666666666666665,2.0,2.0,2.5,2.75,1.0,1.0,0.7027391666649945,-0.4819819996112846,-0.3527694849457736,-0.4388115741870296,-1.7980853641382747e-05,-0.4660881383110272,,,,,-1.9032342476218815e-05,-0.0569904526581851,2.1100000000000003,0.7795357025080769,1.9560000000000002,0.5205466723649382,,,,,,,,,,,,,,,,,,,,
0,240614_152426,TrueCHOICE,9.0,1,3.0,361.0,,,,,,,,,,,1.0,1.0,,,A,,,,,,True,cue1.png,Easy,cue2.png,Hard,Right,Hard,Hard,0.0143724000081419,,,,,,,,,,,,,13,23,Female,0.42857142857142855,1.0,0.2,1.25,1.7777777777777777,1.25,2.2222222222222223,3.111111111111111,2.375,2.6666666666666665,2.0,2.0,2.5,2.75,1.0,1.0,0.7211200555547193,-0.04781501571802144,-0.32694964300030877,-0.009960959857319016,,,,,,,,,,,,,,,-0.00015199333457411235,-0.7658020510116403,,,,,,,,,,,,,,,,
1,240614_152453,TrueCHOICE,9.0,2,1.0,361.0,,,,,,,,,,,2.0,2.0,,,A,,,,,,True,cue1.png,Easy,cue2.png,Hard,Left,Easy,Easy,0.015831500000786,,,,,,,,,,,,,13,23,Female,0.42857142857142855,1.0,0.2,1.25,1.7777777777777777,1.25,2.2222222222222223,3.111111111111111,2.375,2.6666666666666665,2.0,2.0,2.5,2.75,,,,,,,,,,,,,,,,,,,5.8158776640203965e-05,0.7529579013864355,2.356971734956536e-05,0.6872721912326739,1.4549999999999998,-0.7213270168307615,,,,,,,,,,,,,,
2,240614_152524,TrueCHOICE,9.0,3,3.0,361.0,,,,,,,,,,,3.0,3.0,,,A,,,,,,True,cue2.png,Hard,cue1.png,Easy,Left,Hard,Hard,0.01580880000256,,,,,,,,,,,,,13,23,Female,0.42857142857142855,1.0,0.2,1.25,1.7777777777777777,1.25,2.2222222222222223,3.111111111111111,2.375,2.6666666666666665,2.0,2.0,2.5,2.75,0.9236111111111112,0.9166666666666666,0.6482953888933278,-1.382885007932239,-0.43340883943896397,-1.4161670591235862,,,,,,,,,,,,,9.877357529863504e-07,-0.14033120842937893,,,1.459,-0.7126520076085029,,,,,,,,,,,,,,
3,240614_152553,TrueCHOICE,9.0,4,3.0,361.0,,,,,,,,,,,4.0,4.0,,,A,,,,,,True,cue1.png,Easy,cue2.png,Hard,Right,Hard,Hard,0.0165442999859806,,,,,,,,,,,,,13,23,Female,0.42857142857142855,1.0,0.2,1.25,1.7777777777777777,1.25,2.2222222222222223,3.111111111111111,2.375,2.6666666666666665,2.0,2.0,2.5,2.75,0.9236111111111112,0.9166666666666666,0.6447148666629801,-1.4485255114228992,-0.43894712711604894,-1.489321602568743,,,,,,,,,,,,,9.86790097804312e-05,1.3860805877962898,-0.0002784872193876899,-1.8127478850583967,,,,,,,,,,,,,,,,
4,240614_152624,TrueCHOICE,9.0,5,1.0,361.0,,,,,,,,,,,5.0,5.0,,,A,,,,,,True,cue2.png,Hard,cue1.png,Easy,Right,Easy,Easy,0.0164864999824203,,,,,,,,,,,,,13,23,Female,0.42857142857142855,1.0,0.2,1.25,1.7777777777777777,1.25,2.2222222222222223,3.111111111111111,2.375,2.6666666666666665,2.0,2.0,2.5,2.75,1.0,1.0,0.7839576666657295,1.1041656636691848,-0.24340025668943288,1.0936323467858224,,,,,,,,,,,,,,,-2.9260964328191655e-05,0.25001103687811116,1.578,-0.45457048324632426,,,,,,,,,,,,,,
5,240614_152653,TrueCHOICE,9.0,6,3.0,361.0,,,,,,,,,,,6.0,6.0,,,A,,,,,,True,cue2.png,Hard,cue1.png,Easy,Left,Hard,Hard,0.0171866999880876,,,,,,,,,,,,,13,23,Female,0.42857142857142855,1.0,0.2,1.25,1.7777777777777777,1.25,2.2222222222222223,3.111111111111111,2.375,2.6666666666666665,2.0,2.0,2.5,2.75,0.95,0.9444444444444444,0.7149349941173568,-0.16120365590800356,-0.33556365773974134,-0.12374239416242867,,,,,,,,,,,,,,,,,,,,,,,,,,,,,,,,
6,240614_152724,TrueCHOICE,9.0,7,1.0,361.0,,,,,,,,,,,7.0,7.0,,,A,,,,,,True,cue1.png,Easy,cue2.png,Hard,Left,Easy,Easy,0.0159605999942868,,,,,,,,,,,,,13,23,Female,0.42857142857142855,1.0,0.2,1.25,1.7777777777777777,1.25,2.2222222222222223,3.111111111111111,2.375,2.6666666666666665,2.0,2.0,2.5,2.75,,,,,,,,,,,,,,,,,,,,,-2.6709931923124368e-06,0.47008696820996443,,,,,,,,,,,,,,,,
7,240614_152757,TrueCHOICE,9.0,8,1.0,361.0,,,,,,,,,,,8.0,8.0,,,A,,,,,,True,cue2.png,Hard,cue1.png,Easy,Right,Easy,Easy,0.0159416999958921,,,,,,,,,,,,,13,23,Female,0.42857142857142855,1.0,0.2,1.25,1.7777777777777777,1.25,2.2222222222222223,3.111111111111111,2.375,2.6666666666666665,2.0,2.0,2.5,2.75,0.9,0.7222222222222222,0.8129915538414095,1.636434101035527,-0.2070345583672463,1.5739822695301933,,,,,,,,,,,,,-8.58213255547878e-05,-1.4967100305771803,,,,,,,,,,,,,,,,,,
8,240614_152829,TrueCHOICE,9.0,9,1.0,361.0,,,,,,,,,,,9.0,9.0,,,A,,,,,,True,cue1.png,Easy,cue2.png,Hard,Left,Easy,Easy,0.0135252999898511,,,,,,,,,,,,,13,23,Female,0.42857142857142855,1.0,0.2,1.25,1.7777777777777777,1.25,2.2222222222222223,3.111111111111111,2.375,2.6666666666666665,2.0,2.0,2.5,2.75,0.9583333333333334,0.9444444444444444,0.7372339058835197,0.24759475434026004,-0.30485006145582516,0.28194962559400244,,,,,,,,,,,,,-2.2159108681831657e-05,-0.5019972501761659,8.203630054029378e-05,1.1711797397492878,2.682,1.9397320620969125,,,,,,,,,,,,,,
9,240614_152900,TrueCHOICE,9.0,10,1.0,361.0,,,,,,,,,,,10.0,10.0,,,A,,,,,,True,cue2.png,Hard,cue1.png,Easy,Right,Easy,Easy,0.0165870999917387,,,,,,,,,,,,,13,23,Female,0.42857142857142855,1.0,0.2,1.25,1.7777777777777777,1.25,2.2222222222222223,3.111111111111111,2.375,2.6666666666666665,2.0,2.0,2.5,2.75,1.0,1.0,0.7265775111154653,0.05223467193619555,-0.31941011051979035,0.08962777380206362,,,,,,,,,,,,,,,,,1.7639999999999998,-0.05118255441132296,,,,,,,,,,,,,,
0,240614_153117,FalseCHOICE,9.0,1,2.0,361.0,,,,,,,,,,,1.0,1.0,,,A,,,,,,False,cue1.png,Easy,cue2.png,Hard,Left,Easy,Mid,0.0160449999966658,,,,,,,,,,,,,13,23,Female,0.42857142857142855,1.0,0.2,1.25,1.7777777777777777,1.25,2.2222222222222223,3.111111111111111,2.375,2.6666666666666665,2.0,2.0,2.5,2.75,1.0,1.0,0.5905597499982428,-3.2943131830375387,-0.5266844630305254,-3.5102722698176914,,,,,,,,,,,,,,,,,,,,,,,1.263,-0.5511812081527747,,,,,,,,
1,240614_153147,FalseCHOICE,9.0,2,2.0,361.0,,,,,,,,,,,2.0,2.0,,,A,,,,,,False,cue2.png,Hard,cue1.png,Easy,Right,Easy,Mid,0.0165363000123761,,,,,,,,,,,,,13,23,Female,0.42857142857142855,1.0,0.2,1.25,1.7777777777777777,1.25,2.2222222222222223,3.111111111111111,2.375,2.6666666666666665,2.0,2.0,2.5,2.75,,,,,,,,,,,,,,,,,,,,,,,,,-6.948101041354213e-06,-0.36026139560398207,-0.00011939315531173719,0.23682960297723227,1.154,-0.7948793180804987,,,,,,,,
2,240614_153218,FalseCHOICE,9.0,3,2.0,361.0,,,,,,,,,,,3.0,3.0,,,A,,,,,,False,cue2.png,Hard,cue1.png,Easy,Left,Hard,Mid,0.0160642999981064,,,,,,,,,,,,,13,23,Female,0.42857142857142855,1.0,0.2,1.25,1.7777777777777777,1.25,2.2222222222222223,3.111111111111111,2.375,2.6666666666666665,2.0,2.0,2.5,2.75,,,,,,,,,,,,,,,,,,,,,,,,,-3.169338585191266e-05,-0.5724408489702628,-0.0002722039356215884,-0.3692731317458697,1.6089999999999998,0.22239260868201877,,,,,,,,
3,240614_153249,FalseCHOICE,9.0,4,2.0,361.0,,,,,,,,,,,4.0,4.0,,,A,,,,,,False,cue2.png,Hard,cue1.png,Easy,Right,Easy,Mid,0.0156595000007655,,,,,,,,,,,,,13,23,Female,0.42857142857142855,1.0,0.2,1.25,1.7777777777777777,1.25,2.2222222222222223,3.111111111111111,2.375,2.6666666666666665,2.0,2.0,2.5,2.75,1.0,1.0,0.7185989722234404,0.35346427344778764,-0.33045183455222416,0.3692985317468584,,,,,,,,,,,,,,,,,,,2.670826478051204e-05,-0.07167351484004295,-0.00015251908886504016,0.10544018872123853,1.5999999999999999,0.20227074639440876,,,,,,,,
4,240614_153322,FalseCHOICE,9.0,5,2.0,361.0,,,,,,,,,,,5.0,5.0,,,A,,,,,,False,cue1.png,Easy,cue2.png,Hard,Right,Hard,Mid,0.0164523999847006,,,,,,,,,,,,,13,23,Female,0.42857142857142855,1.0,0.2,1.25,1.7777777777777777,1.25,2.2222222222222223,3.111111111111111,2.375,2.6666666666666665,2.0,2.0,2.5,2.75,,,,,,,,,,,,,,,,,,,,,,,,,5.550442555916435e-05,0.17524033965133695,,,,,,,,,,,,
5,240614_153353,FalseCHOICE,9.0,6,2.0,361.0,,,,,,,,,,,6.0,6.0,,,A,,,,,,False,cue2.png,Hard,cue1.png,Easy,Right,Easy,Mid,0.0155745999945793,,,,,,,,,,,,,13,23,Female,0.42857142857142855,1.0,0.2,1.25,1.7777777777777777,1.25,2.2222222222222223,3.111111111111111,2.375,2.6666666666666665,2.0,2.0,2.5,2.75,1.0,1.0,0.7498134333371935,1.242749647009505,-0.2879308589469834,1.209949430077824,,,,,,,,,,,,,,,,,,,0.00013075058878422516,0.820441633684979,-0.000144674229772092,0.13655573266461796,,,,,,,,,,
6,240614_153427,FalseCHOICE,9.0,7,2.0,361.0,,,,,,,,,,,7.0,7.0,,,A,,,,,,False,cue2.png,Hard,cue1.png,Easy,Right,Easy,Mid,0.0165910999930929,,,,,,,,,,,,,13,23,Female,0.42857142857142855,1.0,0.2,1.25,1.7777777777777777,1.25,2.2222222222222223,3.111111111111111,2.375,2.6666666666666665,2.0,2.0,2.5,2.75,0.95,0.9444444444444444,0.6869936117642176,-0.5469576393351001,-0.37543028554506264,-0.5199373029079962,,,,,,,,,,,,,,,,,,,,,,,,,,,,,,,,
7,240614_153500,FalseCHOICE,9.0,8,2.0,361.0,,,,,,,,,,,8.0,8.0,,,A,,,,,,False,cue1.png,Easy,cue2.png,Hard,Left,Easy,Mid,0.0158328999823424,,,,,,,,,,,,,13,23,Female,0.42857142857142855,1.0,0.2,1.25,1.7777777777777777,1.25,2.2222222222222223,3.111111111111111,2.375,2.6666666666666665,2.0,2.0,2.5,2.75,,,,,,,,,,,,,,,,,,,,,,,,,-3.23369957204501e-05,-0.5779595080252254,0.00017373346914718087,1.3994756436849274,,,,,,,,,,
8,240614_153533,FalseCHOICE,9.0,9,2.0,361.0,,,,,,,,,,,9.0,9.0,,,A,,,,,,False,cue1.png,Easy,cue2.png,Hard,Right,Hard,Mid,0.0166351999796461,,,,,,,,,,,,,13,23,Female,0.42857142857142855,1.0,0.2,1.25,1.7777777777777777,1.25,2.2222222222222223,3.111111111111111,2.375,2.6666666666666665,2.0,2.0,2.5,2.75,1.0,0.9444444444444444,0.7807668529378989,2.1245980701590463,-0.24747869747663545,2.0096993275210515,,,,,,,,,,,,,,,,,,,,,-0.0002874503863297246,-0.4297460607518253,,,,,,,,,,
9,240614_153606,FalseCHOICE,9.0,10,2.0,361.0,,,,,,,,,,,10.0,10.0,,,A,,,,,,False,cue2.png,Hard,cue1.png,Easy,Left,Hard,Mid,0.0149874999769963,,,,,,,,,,,,,13,23,Female,0.42857142857142855,1.0,0.2,1.25,1.7777777777777777,1.25,2.2222222222222223,3.111111111111111,2.375,2.6666666666666665,2.0,2.0,2.5,2.75,,,,,,,,,,,,,,,,,,,,,,,,,-5.0840352893634366e-05,-0.7366172984084708,0.00018279732373135786,1.435426163926123,1.822,0.6986100161554618,,,,,,,,
10,240614_153638,FalseCHOICE,9.0,11,2.0,361.0,,,,,,,,,,,11.0,11.0,,,A,,,,,,False,cue1.png,Easy,cue2.png,Hard,Left,Easy,Mid,0.0159822000132408,,,,,,,,,,,,,13,23,Female,0.42857142857142855,1.0,0.2,1.25,1.7777777777777777,1.25,2.2222222222222223,3.111111111111111,2.375,2.6666666666666665,2.0,2.0,2.5,2.75,0.9583333333333334,0.9444444444444444,0.7214780529457665,0.43548793441498085,-0.3264533198784542,0.4483502210519352,,,,,,,,,,,,,,,,,,,-7.479981365144002e-06,-0.3648220251227761,-8.012411240773632e-05,0.3925848071965472,1.7519999999999998,0.5421066428073815,,,,,,,,
11,240614_153710,FalseCHOICE,9.0,12,2.0,361.0,,,,,,,,,,,12.0,12.0,,,A,,,,,,False,cue2.png,Hard,cue1.png,Easy,Right,Easy,Mid,0.016759499994805,,,,,,,,,,,,,13,23,Female,0.42857142857142855,1.0,0.2,1.25,1.7777777777777777,1.25,2.2222222222222223,3.111111111111111,2.375,2.6666666666666665,2.0,2.0,2.5,2.75,,,,,,,,,,,,,,,,,,,,,,,,,3.926003537203229e-05,0.035952153778301875,-0.00027588351710689006,-0.3838676806144488,1.448,-0.13756515001856404,,,,,,,,
12,240614_153743,FalseCHOICE,9.0,13,2.0,361.0,,,,,,,,,,,13.0,13.0,,,A,,,,,,False,cue1.png,Easy,cue2.png,Hard,Left,Easy,Mid,0.0173778999887872,,,,,,,,,,,,,13,23,Female,0.42857142857142855,1.0,0.2,1.25,1.7777777777777777,1.25,2.2222222222222223,3.111111111111111,2.375,2.6666666666666665,2.0,2.0,2.5,2.75,0.9153846153846156,0.8675213675213675,0.7282037235255463,0.6270991383437032,-0.3171744299257442,0.6317963217876499,,,,,,,,,,,,,,,,,,,,,-0.00043197312800745576,-1.0029754414469403,,,,,,,,,,
13,240614_153819,FalseCHOICE,9.0,14,2.0,361.0,,,,,,,,,,,15.0,14.0,,,A,,,,,,False,cue2.png,Hard,cue1.png,Easy,Left,Hard,Mid,0.0157551999727729,,,,,,,,,,,,,13,23,Female,0.42857142857142855,1.0,0.2,1.25,1.7777777777777777,1.25,2.2222222222222223,3.111111111111111,2.375,2.6666666666666665,2.0,2.0,2.5,2.75,1.0,0.9444444444444444,0.6794881235280841,-0.7607854829589086,-0.386415523795217,-0.737118359361314,,,,,,,,,,,,,,,,,,,2.4119849667566737e-05,-0.09386798574447218,-3.87001032019418e-05,0.556887385927692,,,,,,,,,,
14,240614_153851,FalseCHOICE,9.0,15,2.0,361.0,,,,,,,,,,,16.0,15.0,,,A,,,,,,False,cue1.png,Easy,cue2.png,Hard,Right,Hard,Mid,0.0168236999888904,,,,,,,,,,,,,13,23,Female,0.42857142857142855,1.0,0.2,1.25,1.7777777777777777,1.25,2.2222222222222223,3.111111111111111,2.375,2.6666666666666665,2.0,2.0,2.5,2.75,,,,,,,,,,,,,,,,,,,,,,,,,6.816928702405587e-05,0.28383571057362905,,,,,,,,,,,,
15,240614_153923,FalseCHOICE,9.0,16,2.0,361.0,,,,,,,,,,,17.0,16.0,,,A,,,,,,False,cue1.png,Easy,cue2.png,Hard,Right,Hard,Mid,0.0151732999947853,,,,,,,,,,,,,13,23,Female,0.42857142857142855,1.0,0.2,1.25,1.7777777777777777,1.25,2.2222222222222223,3.111111111111111,2.375,2.6666666666666665,2.0,2.0,2.5,2.75,1.0,0.9444444444444444,0.7598893235314309,1.5298070382198017,-0.2745824832387193,1.4738503371169465,,,,,,,,,,,,,,,,,,,-1.8032006923001526e-05,-0.4553007984290311,-0.00022269714233262225,-0.1729113126453406,,,,,,,,,,
16,240614_153955,FalseCHOICE,9.0,17,2.0,361.0,,,,,,,,,,,18.0,17.0,,,A,,,,,,False,cue2.png,Hard,cue1.png,Easy,Right,Easy,Mid,0.0155595999967772,,,,,,,,,,,,,13,23,Female,0.42857142857142855,1.0,0.2,1.25,1.7777777777777777,1.25,2.2222222222222223,3.111111111111111,2.375,2.6666666666666665,2.0,2.0,2.5,2.75,1.0,1.0,0.7279042499964513,0.618567277799241,-0.3175857641657362,0.623664135415121,,,,,,,,,,,,,,,,,,,2.2978443492258863e-05,-0.10365501952483852,6.516523737983308e-05,0.9688548324776771,,,,,,,,,,
17,240614_154027,FalseCHOICE,9.0,18,2.0,361.0,,,,,,,,,,,19.0,18.0,,,A,,,,,,False,cue2.png,Hard,cue1.png,Easy,Right,Easy,Mid,0.0166755999962333,,,,,,,,,,,,,13,23,Female,0.42857142857142855,1.0,0.2,1.25,1.7777777777777777,1.25,2.2222222222222223,3.111111111111111,2.375,2.6666666666666665,2.0,2.0,2.5,2.75,0.9583333333333334,0.9444444444444444,0.7391017352963578,0.9375783881173294,-0.30231970134348013,0.9254782222942749,,,,,,,,,,,,,,,,,,,-5.3147635031732844e-05,-0.7564011831595016,-2.5330952309809193e-05,0.6099142659699046,,,,,,,,,,
18,240614_154100,FalseCHOICE,9.0,19,2.0,361.0,,,,,,,,,,,20.0,19.0,,,A,,,,,,False,cue1.png,Easy,cue2.png,Hard,Left,Easy,Mid,0.0162493999814614,,,,,,,,,,,,,13,23,Female,0.42857142857142855,1.0,0.2,1.25,1.7777777777777777,1.25,2.2222222222222223,3.111111111111111,2.375,2.6666666666666665,2.0,2.0,2.5,2.75,0.7826923076923077,0.7008547008547009,0.7561220214265632,1.4224783661841645,-0.2795525118234384,1.3755915616536736,,,,,,,,,,,,,,,,,,,8.272674313290328e-05,0.4086592114234122,-0.0002410812247930637,-0.245829222180616,,,,,,,,,,
19,240614_154132,FalseCHOICE,9.0,20,2.0,361.0,,,,,,,,,,,21.0,20.0,,,A,,,,,,False,cue1.png,Easy,cue2.png,Hard,Right,Hard,Mid,0.0165215000160969,,,,,,,,,,,,,13,23,Female,0.42857142857142855,1.0,0.2,1.25,1.7777777777777777,1.25,2.2222222222222223,3.111111111111111,2.375,2.6666666666666665,2.0,2.0,2.5,2.75,0.8680555555555555,0.861111111111111,0.7147114764666185,0.2427113405771396,-0.3358763471453512,0.262054487613077,,,,,,,,,,,,,,,,,,,-2.184859908127947e-05,-0.4880263234761268,-0.0004559364583972339,-1.0980226629379062,,,,,,,,,,
20,240614_154207,FalseCHOICE,9.0,21,2.0,361.0,,,,,,,,,,,23.0,21.0,,,A,,,,,,False,cue1.png,Easy,cue2.png,Hard,Right,Hard,Mid,0.0169667000009212,,,,,,,,,,,,,13,23,Female,0.42857142857142855,1.0,0.2,1.25,1.7777777777777777,1.25,2.2222222222222223,3.111111111111111,2.375,2.6666666666666665,2.0,2.0,2.5,2.75,1.0,1.0,0.685342322226562,-0.5940021046552332,-0.3778368250718647,-0.5675152238347636,,,,,,,,,,,,,,,,,,,4.121265358980001e-05,0.05269495828634368,-0.000534052556663367,-1.4078593164056692,1.063,-0.9983337034330022,,,,,,,,
21,240614_154238,FalseCHOICE,9.0,22,2.0,361.0,,,,,,,,,,,24.0,22.0,,,A,,,,,,False,cue2.png,Hard,cue1.png,Easy,Left,Hard,Mid,0.0169988999841734,,,,,,,,,,,,,13,23,Female,0.42857142857142855,1.0,0.2,1.25,1.7777777777777777,1.25,2.2222222222222223,3.111111111111111,2.375,2.6666666666666665,2.0,2.0,2.5,2.75,1.0,1.0,0.686081288891728,-0.5729492905609256,-0.3767591613497408,-0.5462095279233437,,,,,,,,,,,,,,,,,,,-3.51008447022922e-05,-0.6016582437901897,-0.0004213843495596177,-0.960976522512044,1.0439999999999998,-1.040813190484624,,,,,,,,
22,240614_154310,FalseCHOICE,9.0,23,2.0,361.0,,,,,,,,,,,25.0,23.0,,,A,,,,,,False,cue1.png,Easy,cue2.png,Hard,Right,Hard,Mid,0.0162583999917842,,,,,,,,,,,,,13,23,Female,0.42857142857142855,1.0,0.2,1.25,1.7777777777777777,1.25,2.2222222222222223,3.111111111111111,2.375,2.6666666666666665,2.0,2.0,2.5,2.75,0.95,0.9444444444444444,0.7293316058828222,0.6592319783042765,-0.3156267726447875,0.6623939142705547,,,,,,,,,,,,,,,,,,,,,0.00014043171658927782,1.2673888677683995,1.3509999999999998,-0.35443411022947485,,,,,,,,
23,240614_154341,FalseCHOICE,9.0,24,2.0,361.0,,,,,,,,,,,26.0,24.0,,,A,,,,,,False,cue2.png,Hard,cue1.png,Easy,Left,Hard,Mid,0.0151768999930936,,,,,,,,,,,,,13,23,Female,0.42857142857142855,1.0,0.2,1.25,1.7777777777777777,1.25,2.2222222222222223,3.111111111111111,2.375,2.6666666666666665,2.0,2.0,2.5,2.75,1.0,1.0,0.6826380888863545,-0.6710444456195924,-0.3817904443499648,-0.6456793193308181,,,,,,,,,,,,,,,,,,,0.0001296174296132797,0.8107253141797128,-0.0006315903132098248,-1.7947292797792749,2.403,1.9975880149445229,,,,,,,,
24,240614_154412,FalseCHOICE,9.0,25,2.0,361.0,,,,,,,,,,,27.0,25.0,,,A,,,,,,False,cue2.png,Hard,cue1.png,Easy,Left,Hard,Mid,0.0152378999919164,,,,,,,,,,,,,13,23,Female,0.42857142857142855,1.0,0.2,1.25,1.7777777777777777,1.25,2.2222222222222223,3.111111111111111,2.375,2.6666666666666665,2.0,2.0,2.5,2.75,0.7826923076923077,0.811965811965812,0.6708430124945153,-1.007080646183188,-0.3992201298983664,-0.9902687979429732,,,,,,,,,,,,,,,,,,,8.73652374175039e-05,0.4484321697580536,-0.0001422004889651803,0.14636748197330635,,,,,,,,,,
25,240614_154443,FalseCHOICE,9.0,26,2.0,361.0,,,,,,,,,,,28.0,26.0,,,A,,,,,,False,cue1.png,Easy,cue2.png,Hard,Left,Easy,Mid,0.0160461000050418,,,,,,,,,,,,,13,23,Female,0.42857142857142855,1.0,0.2,1.25,1.7777777777777777,1.25,2.2222222222222223,3.111111111111111,2.375,2.6666666666666665,2.0,2.0,2.5,2.75,0.9153846153846156,0.8675213675213675,0.6878135764718001,-0.5235972289588771,-0.37423744219681077,-0.49635447542102623,,,,,,,,,,,,,,,,,,,2.9984616186559503e-05,-0.043580306146224414,-0.00019829688595708692,-0.07613108492076977,1.3780000000000001,-0.29406852336664335,,,,,,,,
26,240614_154513,FalseCHOICE,9.0,27,2.0,361.0,,,,,,,,,,,29.0,27.0,,,A,,,,,,False,cue1.png,Easy,cue2.png,Hard,Left,Easy,Mid,0.0165487000194843,,,,,,,,,,,,,13,23,Female,0.42857142857142855,1.0,0.2,1.25,1.7777777777777777,1.25,2.2222222222222223,3.111111111111111,2.375,2.6666666666666665,2.0,2.0,2.5,2.75,0.9153846153846156,0.9230769230769232,0.651765305553757,-1.5505955792677817,-0.4280707426640477,-1.5606530187575012,,,,,,,,,,,,,,,,,,,-7.90399769149369e-05,-0.9784161241557336,,,1.916,0.9087716889371685,,,,,,,,
27,240614_154544,FalseCHOICE,9.0,28,2.0,361.0,,,,,,,,,,,30.0,28.0,,,A,,,,,,False,cue2.png,Hard,cue1.png,Easy,Right,Easy,Mid,0.0163475000008475,,,,,,,,,,,,,13,23,Female,0.42857142857142855,1.0,0.2,1.25,1.7777777777777777,1.25,2.2222222222222223,3.111111111111111,2.375,2.6666666666666665,2.0,2.0,2.5,2.75,1.0,1.0,0.6647179666615557,-1.1815803324598857,-0.4083924385698603,-1.1716077586489895,,,,,,,,,,,,,,,,,,,9.141895547932306e-05,0.4831909405316602,1.9894789620866857e-05,0.7892958894946481,1.8159999999999998,0.6851954412970545,,,,,,,,
28,240614_154613,FalseCHOICE,9.0,29,2.0,361.0,,,,,,,,,,,31.0,29.0,,,A,,,,,,False,cue1.png,Easy,cue2.png,Hard,Left,Easy,Mid,0.0160822999896481,,,,,,,,,,,,,13,23,Female,0.42857142857142855,1.0,0.2,1.25,1.7777777777777777,1.25,2.2222222222222223,3.111111111111111,2.375,2.6666666666666665,2.0,2.0,2.5,2.75,0.8194444444444444,0.8333333333333334,0.649217777773932,-1.6231734522313608,-0.431987059591667,-1.638079636949821,,,,,,,,,,,,,,,,,,,,,0.00013794631274489239,1.2575308586415643,1.4929999999999999,-0.036955838580512976,,,,,,,,
29,240614_154644,FalseCHOICE,9.0,30,2.0,361.0,,,,,,,,,,,32.0,30.0,,,A,,,,,,False,cue1.png,Easy,cue2.png,Hard,Left,Easy,Mid,0.0162090999947395,,,,,,,,,,,,,13,23,Female,0.42857142857142855,1.0,0.2,1.25,1.7777777777777777,1.25,2.2222222222222223,3.111111111111111,2.375,2.6666666666666665,2.0,2.0,2.5,2.75,1.0,1.0,0.6804340833348559,-0.7338355312338476,-0.3850243266303088,-0.7096140246232503,,,,,,,,,,,,,,,,,,,2.074098973091224e-05,-0.12284015801280979,-0.0007982076719907343,-2.455593890277826,1.321,-0.42150698452150853,,,,,,,,
30,240614_154714,FalseCHOICE,9.0,31,2.0,361.0,,,,,,,,,,,33.0,31.0,,,A,,,,,,False,cue2.png,Hard,cue1.png,Easy,Right,Easy,Mid,0.017084999999497,,,,,,,,,,,,,13,23,Female,0.42857142857142855,1.0,0.2,1.25,1.7777777777777777,1.25,2.2222222222222223,3.111111111111111,2.375,2.6666666666666665,2.0,2.0,2.5,2.75,1.0,1.0,0.6855066777789034,-0.5893196919674657,-0.3775970385554384,-0.5627745811855253,,,,,,,,,,,,,,,,,,,3.240392214195987e-05,-0.022835868607012536,7.976235609269584e-05,1.0267522763164187,0.30000000000000004,-2.7042204729270702,,,,,,,,
31,240614_154745,FalseCHOICE,9.0,32,2.0,361.0,,,,,,,,,,,34.0,32.0,,,A,,,,,,False,cue1.png,Easy,cue2.png,Hard,Left,Easy,Mid,0.016246899991529,,,,,,,,,,,,,13,23,Female,0.42857142857142855,1.0,0.2,1.25,1.7777777777777777,1.25,2.2222222222222223,3.111111111111111,2.375,2.6666666666666665,2.0,2.0,2.5,2.75,1.0,1.0,0.6814596499979315,-0.7046176174674679,-0.3835182372316535,-0.6798382401327777,,,,,,,,,,,,,,,,,,,-8.546931263832746e-05,-1.0335447254121328,-0.0002291558271342413,-0.19852878880139602,,,,,,,,,,
32,240614_154815,FalseCHOICE,9.0,33,2.0,361.0,,,,,,,,,,,35.0,33.0,,,A,,,,,,False,cue2.png,Hard,cue1.png,Easy,Left,Hard,Mid,0.0165348000009544,,,,,,,,,,,,,13,23,Female,0.42857142857142855,1.0,0.2,1.25,1.7777777777777777,1.25,2.2222222222222223,3.111111111111111,2.375,2.6666666666666665,2.0,2.0,2.5,2.75,0.9236111111111112,0.9166666666666666,0.6779555388865346,-0.804448101400679,-0.3886735700555163,-0.7817605292592107,,,,,,,,,,,,,,,,,,,8.518263510164841e-05,0.4297173572255021,,,1.6630000000000003,0.3431237824076813,,,,,,,,
33,240614_154846,FalseCHOICE,9.0,34,2.0,361.0,,,,,,,,,,,36.0,34.0,,,A,,,,,,False,cue2.png,Hard,cue1.png,Easy,Left,Hard,Mid,0.017116300005,,,,,,,,,,,,,13,23,Female,0.42857142857142855,1.0,0.2,1.25,1.7777777777777777,1.25,2.2222222222222223,3.111111111111111,2.375,2.6666666666666665,2.0,2.0,2.5,2.75,1.0,0.9444444444444444,0.7116229352952146,0.15472024954521726,-0.3402070931094938,0.17643449810486386,,,,,,,,,,,,,,,,,,,-5.8319711672561846e-05,-0.8007493651594662,-0.00012031333780582274,0.2331798269275407,2.146,1.4229970585094303,,,,,,,,
34,240614_154918,FalseCHOICE,9.0,35,2.0,361.0,,,,,,,,,,,37.0,35.0,,,A,,,,,,False,cue2.png,Hard,cue1.png,Easy,Left,Hard,Mid,0.0161474000196903,,,,,,,,,,,,,13,23,Female,0.42857142857142855,1.0,0.2,1.25,1.7777777777777777,1.25,2.2222222222222223,3.111111111111111,2.375,2.6666666666666665,2.0,2.0,2.5,2.75,0.75,0.7777777777777778,0.7336472647045466,0.7821830763051675,-0.30972693167399273,0.7790353257507082,,,,,,,,,,,,,,,,,,,-3.473727101540713e-05,-0.5985407663906682,-0.0007925426982801319,-2.4331245589180326,1.955,0.9959664255168132,,,,,,,,
35,240614_154949,FalseCHOICE,9.0,36,2.0,361.0,,,,,,,,,,,38.0,36.0,,,A,,,,,,False,cue1.png,Easy,cue2.png,Hard,Left,Easy,Mid,0.0157608999870717,,,,,,,,,,,,,13,23,Female,0.42857142857142855,1.0,0.2,1.25,1.7777777777777777,1.25,2.2222222222222223,3.111111111111111,2.375,2.6666666666666665,2.0,2.0,2.5,2.75,0.9236111111111112,0.9166666666666666,0.7150330000004033,0.2518713954250737,-0.33542658350646753,0.2709464333335687,,,,,,,,,,,,,,,,,,,0.0002480762989968562,1.826455718764524,0.00011666010645457496,1.1731020780392984,1.1009999999999998,-0.9133747293297594,,,,,,,,
36,240614_155020,FalseCHOICE,9.0,37,2.0,361.0,,,,,,,,,,,39.0,37.0,,,A,,,,,,False,cue2.png,Hard,cue1.png,Easy,Right,Easy,Mid,0.0165778999798931,,,,,,,,,,,,,13,23,Female,0.42857142857142855,1.0,0.2,1.25,1.7777777777777777,1.25,2.2222222222222223,3.111111111111111,2.375,2.6666666666666665,2.0,2.0,2.5,2.75,0.9583333333333334,0.9444444444444444,0.7137619000003563,0.2156583519175569,-0.33720584564602424,0.2357699517337376,,,,,,,,,,,,,,,,,,,,,-8.73342491319309e-06,0.6757460529965303,2.245,1.6443375436731433,,,,,,,,
37,240614_155051,FalseCHOICE,9.0,38,2.0,361.0,,,,,,,,,,,40.0,38.0,,,A,,,,,,False,cue1.png,Easy,cue2.png,Hard,Left,Easy,Mid,0.0161832000012509,,,,,,,,,,,,,13,23,Female,0.42857142857142855,1.0,0.2,1.25,1.7777777777777777,1.25,2.2222222222222223,3.111111111111111,2.375,2.6666666666666665,2.0,2.0,2.5,2.75,0.85,0.8675213675213675,0.6772140470668947,-0.8255728559629447,-0.38976788607518204,-0.8033954454833953,,,,,,,,,,,,,,,,,,,6.010539544437643e-06,-0.24914700363342693,-0.0003500475259224506,-0.6780289202206681,0.9400000000000002,-1.2733324880303416,,,,,,,,
38,240614_155122,FalseCHOICE,9.0,39,2.0,361.0,,,,,,,,,,,41.0,39.0,,,A,,,,,,False,cue1.png,Easy,cue2.png,Hard,Left,Easy,Mid,0.0164169000054243,,,,,,,,,,,,,13,23,Female,0.42857142857142855,1.0,0.2,1.25,1.7777777777777777,1.25,2.2222222222222223,3.111111111111111,2.375,2.6666666666666665,2.0,2.0,2.5,2.75,1.0,1.0,0.7418505166699307,1.0158898816820947,-0.29860751612412145,0.998869102795149,,,,,,,,,,,,,,,,,,,-0.00011013831931168264,-1.2450701287814347,-0.00027978325774620765,-0.3993354601873853,0.848,-1.4790226358592469,,,,,,,,
39,240614_155153,FalseCHOICE,9.0,40,2.0,361.0,,,,,,,,,,,42.0,40.0,,,A,,,,,,False,cue2.png,Hard,cue1.png,Easy,Right,Easy,Mid,0.0165558000153396,,,,,,,,,,,,,13,23,Female,0.42857142857142855,1.0,0.2,1.25,1.7777777777777777,1.25,2.2222222222222223,3.111111111111111,2.375,2.6666666666666665,2.0,2.0,2.5,2.75,0.9236111111111112,0.9166666666666666,0.6982583833321567,-0.22602957476350297,-0.3591660680246187,-0.19838943448311774,,,,,,,,,,,,,,,,,,,,,-0.00017461908617957692,0.017783619056759067,1.451,-0.13085786258936036,,,,,,,,
40,240614_155224,FalseCHOICE,9.0,41,2.0,361.0,,,,,,,,,,,43.0,41.0,,,A,,,,,,False,cue2.png,Hard,cue1.png,Easy,Left,Hard,Mid,0.0151317999989259,,,,,,,,,,,,,13,23,Female,0.42857142857142855,1.0,0.2,1.25,1.7777777777777777,1.25,2.2222222222222223,3.111111111111111,2.375,2.6666666666666665,2.0,2.0,2.5,2.75,0.8194444444444444,0.8333333333333334,0.6896609611172203,-0.47096610588653737,-0.3715551628477398,-0.4433251055094578,,,,,,,,,,,,,,,,,,,3.665352101644417e-05,0.013602490180004038,8.023912039984522e-05,1.0286432957182938,2.106,1.3335665594533845,,,,,,,,
41,240614_155255,FalseCHOICE,9.0,42,2.0,361.0,,,,,,,,,,,44.0,42.0,,,A,,,,,,False,cue1.png,Easy,cue2.png,Hard,Left,Easy,Mid,0.0163549999997485,,,,,,,,,,,,,13,23,Female,0.42857142857142855,1.0,0.2,1.25,1.7777777777777777,1.25,2.2222222222222223,3.111111111111111,2.375,2.6666666666666665,2.0,2.0,2.5,2.75,1.0,1.0,0.7044143055504214,-0.050650234734648525,-0.350388593721303,-0.02485645333369475,,,,,,,,,,,,,,,,,,,-3.386446968302835e-06,-0.32972184756138373,,,,,,,,,,,,
42,240614_155326,FalseCHOICE,9.0,43,2.0,361.0,,,,,,,,,,,45.0,43.0,,,A,,,,,,False,cue2.png,Hard,cue1.png,Easy,Right,Easy,Mid,0.0165460999996867,,,,,,,,,,,,,13,23,Female,0.42857142857142855,1.0,0.2,1.25,1.7777777777777777,1.25,2.2222222222222223,3.111111111111111,2.375,2.6666666666666665,2.0,2.0,2.5,2.75,1.0,1.0,0.7218895111129515,0.44721018483528147,-0.32588318349936923,0.45962196758236723,,,,,,,,,,,,,,,,,,,-4.379651577195078e-05,-0.676219629861846,-0.0003745522878050257,-0.7752236545231256,1.6760000000000002,0.3721886946008959,,,,,,,,
43,240614_155357,FalseCHOICE,9.0,44,2.0,361.0,,,,,,,,,,,46.0,44.0,,,A,,,,,,False,cue1.png,Easy,cue2.png,Hard,Left,Easy,Mid,0.0167451000015717,,,,,,,,,,,,,13,23,Female,0.42857142857142855,1.0,0.2,1.25,1.7777777777777777,1.25,2.2222222222222223,3.111111111111111,2.375,2.6666666666666665,2.0,2.0,2.5,2.75,0.9236111111111112,0.9166666666666666,0.7120089777745306,0.16571841892505051,-0.33966475841576566,0.18715659798590323,,,,,,,,,,,,,,,,,,,9.730652500626429e-05,0.5336741454511419,0.0001146007228953463,1.1649338191994356,1.6760000000000002,0.3721886946008959,,,,,,,,
44,240614_155428,FalseCHOICE,9.0,45,2.0,361.0,,,,,,,,,,,47.0,45.0,,,A,,,,,,False,cue2.png,Hard,cue1.png,Easy,Left,Hard,Mid,0.0138949000102002,,,,,,,,,,,,,13,23,Female,0.42857142857142855,1.0,0.2,1.25,1.7777777777777777,1.25,2.2222222222222223,3.111111111111111,2.375,2.6666666666666665,2.0,2.0,2.5,2.75,1.0,1.0,0.713527694446384,0.20898594540714086,-0.33753402789717446,0.22928170210355486,,,,,,,,,,,,,,,,,,,0.0006302651700059083,5.10354977341754,-0.0004848888327678171,-1.2128582344018801,1.65,0.31405887021446577,,,,,,,,
45,240614_155459,FalseCHOICE,9.0,46,2.0,361.0,,,,,,,,,,,48.0,46.0,,,A,,,,,,False,cue2.png,Hard,cue1.png,Easy,Left,Hard,Mid,0.015994600020349,,,,,,,,,,,,,13,23,Female,0.42857142857142855,1.0,0.2,1.25,1.7777777777777777,1.25,2.2222222222222223,3.111111111111111,2.375,2.6666666666666665,2.0,2.0,2.5,2.75,1.0,0.9444444444444444,0.7010460705838769,-0.14660967095722047,-0.35518167287474317,-0.11961689188803255,,,,,,,,,,,,,,,,,,,,,-8.510923390505493e-05,0.37281201520945634,0.6300000000000001,-1.9664188557146947,,,,,,,,
46,240614_155530,FalseCHOICE,9.0,47,2.0,361.0,,,,,,,,,,,49.0,47.0,,,A,,,,,,False,cue1.png,Easy,cue2.png,Hard,Left,Easy,Mid,0.0161282999906688,,,,,,,,,,,,,13,23,Female,0.42857142857142855,1.0,0.2,1.25,1.7777777777777777,1.25,2.2222222222222223,3.111111111111111,2.375,2.6666666666666665,2.0,2.0,2.5,2.75,0.8194444444444444,0.7777777777777778,0.7444104235276908,1.0888204287766063,-0.2951627517224867,1.0669730032243734,,,,,,,,,,,,,,,,,,,3.318766835106943e-05,-0.016115604787062303,,,1.543,0.07483228523954402,,,,,,,,
47,240614_155601,FalseCHOICE,9.0,48,2.0,361.0,,,,,,,,,,,50.0,48.0,,,A,,,,,,False,cue1.png,Easy,cue2.png,Hard,Left,Easy,Mid,0.0158535000227857,,,,,,,,,,,,,13,23,Female,0.42857142857142855,1.0,0.2,1.25,1.7777777777777777,1.25,2.2222222222222223,3.111111111111111,2.375,2.6666666666666665,2.0,2.0,2.5,2.75,0.9153846153846156,0.9230769230769232,0.7293232055542629,0.6589926568790665,-0.3156382905563503,0.6621662021222718,,,,,,,,,,,,,,,,,,,,,,,1.478,-0.07049227572652983,,,,,,,,
48,240614_155634,FalseCHOICE,9.0,49,2.0,361.0,,,,,,,,,,,51.0,49.0,,,A,,,,,,False,cue2.png,Hard,cue1.png,Easy,Right,Easy,Mid,0.0164659000001847,,,,,,,,,,,,,13,23,Female,0.42857142857142855,1.0,0.2,1.25,1.7777777777777777,1.25,2.2222222222222223,3.111111111111111,2.375,2.6666666666666665,2.0,2.0,2.5,2.75,0.9583333333333334,0.9444444444444444,0.7654782117666293,1.6890318457191462,-0.26725452703717856,1.6187259632301898,,,,,,,,,,,,,,,,,,,2.6145095975169206e-05,-0.07650242871940949,,,1.801,0.6516590041510376,,,,,,,,
49,240614_155705,FalseCHOICE,9.0,50,2.0,361.0,,,,,,,,,,,52.0,50.0,,,A,,,,,,False,cue1.png,Easy,cue2.png,Hard,Left,Easy,Mid,0.0165907999908085,,,,,,,,,,,,,13,23,Female,0.42857142857142855,1.0,0.2,1.25,1.7777777777777777,1.25,2.2222222222222223,3.111111111111111,2.375,2.6666666666666665,2.0,2.0,2.5,2.75,0.8680555555555555,0.861111111111111,0.7063772411767038,0.005272881648321541,-0.34760584825117286,0.0301591582790124,,,,,,,,,,,,,,,,,,,2.921215400842128e-05,-0.05020381458260985,9.810618314919127e-05,1.0995105183834069,1.682,0.38560326945930223,,,,,,,,
0,240614_145339,OFFLINERATING,9.0,1,1.0,,,,,,,,,,,,,,,,,T0,cue1.png,Easy,50.0,1.4382014999864623,,,,,,,,,,,,,,,,,,,,,,13,23,Female,0.42857142857142855,1.0,0.2,1.25,1.7777777777777777,1.25,2.2222222222222223,3.111111111111111,2.375,2.6666666666666665,2.0,2.0,2.5,2.75,,,,,,,,,,,,,,,,,,,,,,,,,,,,,,,-0.19245008972987526,,,,,0.831,-1.6926667059604952,
1,240614_145347,OFFLINERATING,9.0,2,3.0,,,,,,,,,,,,,,,,,T0,cue2.png,Hard,48.0,1.7023992000031285,,,,,,,,,,,,,,,,,,,,,,13,23,Female,0.42857142857142855,1.0,0.2,1.25,1.7777777777777777,1.25,2.2222222222222223,3.111111111111111,2.375,2.6666666666666665,2.0,2.0,2.5,2.75,,,,,,,,,,,,,,,,,,,,,,,,,,,,,,,-0.36351683615643104,,,,,1.5949999999999998,0.6564656525387201,
2,240614_152252,OFFLINERATING,9.0,3,1.0,,,,,,,,,,,,,,,,,T1,cue1.png,Easy,52.0,0.5190328999888152,,,,,,,,,,,,,,,,,,,,,,13,23,Female,0.42857142857142855,1.0,0.2,1.25,1.7777777777777777,1.25,2.2222222222222223,3.111111111111111,2.375,2.6666666666666665,2.0,2.0,2.5,2.75,,,,,,,,,,,,,,,,,,,,,,,,,,,,,,,-0.021383343303319473,,,-0.00019554700647014638,-0.37111780526503696,,,
3,240614_152258,OFFLINERATING,9.0,4,3.0,,,,,,,,,,,,,,,,,T1,cue2.png,Hard,53.0,0.6747839000017848,,,,,,,,,,,,,,,,,,,,,,13,23,Female,0.42857142857142855,1.0,0.2,1.25,1.7777777777777777,1.25,2.2222222222222223,3.111111111111111,2.375,2.6666666666666665,2.0,2.0,2.5,2.75,,,,,,,,,,,,,,,,,,,,,,,,,,,,,,,0.06415002990995841,,,-0.00026630130599273856,-0.996263284061168,,,
4,240614_152935,OFFLINERATING,9.0,5,1.0,,,,,,,,,,,,,,,,,T2,cue1.png,Easy,70.0,0.8352513000136241,,,,,,,,,,,,,,,,,,,,,,13,23,Female,0.42857142857142855,1.0,0.2,1.25,1.7777777777777777,1.25,2.2222222222222223,3.111111111111111,2.375,2.6666666666666665,2.0,2.0,2.5,2.75,,,,,,,,,,,,,,,,,,,,,,,,,,,,,,,1.5182173745356826,,,,,1.4559999999999997,0.22907115275941242,
5,240614_152942,OFFLINERATING,9.0,6,3.0,,,,,,,,,,,,,,,,,T2,cue2.png,Hard,39.0,0.6679913000261877,,,,,,,,,,,,,,,,,,,,,,13,23,Female,0.42857142857142855,1.0,0.2,1.25,1.7777777777777777,1.25,2.2222222222222223,3.111111111111111,2.375,2.6666666666666665,2.0,2.0,2.5,2.75,,,,,,,,,,,,,,,,,,,,,,,,,,,,,,,-1.133317195075932,-8.982532109851364e-05,-1.3299008005717154,,,1.6439999999999997,0.8071299006623607,
6,240614_155750,OFFLINERATING,9.0,7,1.0,,,,,,,,,,,,,,,,,T3,cue1.png,Easy,70.0,1.0523764000099618,,,,,,,,,,,,,,,,,,,,,,13,23,Female,0.42857142857142855,1.0,0.2,1.25,1.7777777777777777,1.25,2.2222222222222223,3.111111111111111,2.375,2.6666666666666665,2.0,2.0,2.5,2.75,,,,,,,,,,,,,,,,,,,,,,,,,,,,,,,1.5182173745356826,6.71625817416162e-05,1.0815111947433214,1.2172279037188719e-06,1.3673810893262046,,,
7,240614_155757,OFFLINERATING,9.0,8,3.0,,,,,,,,,,,,,,,,,T3,cue2.png,Hard,36.0,0.9695662999874912,,,,,,,,,,,,,,,,,,,,,,13,23,Female,0.42857142857142855,1.0,0.2,1.25,1.7777777777777777,1.25,2.2222222222222223,3.111111111111111,2.375,2.6666666666666665,2.0,2.0,2.5,2.75,,,,,,,,,,,,,,,,,,,,,,,,,,,,,,,-1.3899173147157657,1.2924645085128639e-05,0.24838960582839384,,,,,
0,240614_153001,LEARNINGCHECK,9.0,1,,,,,,,,,,,,1.0,1.0,1.0,,,A,,,,,,,,,,,,,,,cue1.png,Easy,Left,Left,Easy,0.0139238999981898,1.0,,,,,,13,23,Female,0.42857142857142855,1.0,0.2,1.25,1.7777777777777777,1.25,2.2222222222222223,3.111111111111111,2.375,2.6666666666666665,2.0,2.0,2.5,2.75,,,,,,,,,,,,,,,,,,,,,,,,,,,,,,,,,,,,,,
1,240614_155822,LEARNINGCHECK,9.0,1,,,,,,,,,,,,1.0,1.0,1.0,,,A,,,,,,,,,,,,,,,cue1.png,Easy,Middle,Middle,Mid,0.014374200021848,1.0,,,,,,13,23,Female,0.42857142857142855,1.0,0.2,1.25,1.7777777777777777,1.25,2.2222222222222223,3.111111111111111,2.375,2.6666666666666665,2.0,2.0,2.5,2.75,,,,,,,,,,,,,,,,,,,,,,,,,,,,,,,,,,,,,,
2,240614_153006,LEARNINGCHECK,9.0,2,,,,,,,,,,,,2.0,2.0,2.0,,,A,,,,,,,,,,,,,,,cue2.png,Hard,Right,Right,Hard,0.0141648999997414,1.0,,,,,,13,23,Female,0.42857142857142855,1.0,0.2,1.25,1.7777777777777777,1.25,2.2222222222222223,3.111111111111111,2.375,2.6666666666666665,2.0,2.0,2.5,2.75,,,,,,,,,,,,,,,,,,,,,,,,,,,,,,,,,,,,,,
3,240614_155828,LEARNINGCHECK,9.0,2,,,,,,,,,,,,2.0,2.0,2.0,,,A,,,,,,,,,,,,,,,cue2.png,Hard,Middle,Middle,Mid,0.014523799996823,1.0,,,,,,13,23,Female,0.42857142857142855,1.0,0.2,1.25,1.7777777777777777,1.25,2.2222222222222223,3.111111111111111,2.375,2.6666666666666665,2.0,2.0,2.5,2.75,,,,,,,,,,,,,,,,,,,,,,,,,,,,,,,,,,,,,,
0,240614_155907,DEMANDRATING,9.0,-1,,,,,,,,,,,,,,,,,,,,,,,,,,,,,,,,,,,,,,,1.0,MentalDemand,1.0,50.0,6.669792200002121,13,23,Female,0.42857142857142855,1.0,0.2,1.25,1.7777777777777777,1.25,2.2222222222222223,3.111111111111111,2.375,2.6666666666666665,2.0,2.0,2.5,2.75,,,,,,,,,,,,,,,,,,,,,,,,,,,,,,,,,,,,,,-0.9728534695313024
1,240614_155914,DEMANDRATING,9.0,-1,,,,,,,,,,,,,,,,,,,,,,,,,,,,,,,,,,,,,,,2.0,Effort,1.0,57.0,5.9397802999883424,13,23,Female,0.42857142857142855,1.0,0.2,1.25,1.7777777777777777,1.25,2.2222222222222223,3.111111111111111,2.375,2.6666666666666665,2.0,2.0,2.5,2.75,,,,,,,,,,,,,,,,,,,,,,,,,,,,,,,,,,,,,,-0.5381742597407206
2,240614_155921,DEMANDRATING,9.0,-1,,,,,,,,,,,,,,,,,,,,,,,,,,,,,,,,,,,,,,,3.0,Frustration,1.0,46.0,5.5148494000022765,13,23,Female,0.42857142857142855,1.0,0.2,1.25,1.7777777777777777,1.25,2.2222222222222223,3.111111111111111,2.375,2.6666666666666665,2.0,2.0,2.5,2.75,,,,,,,,,,,,,,,,,,,,,,,,,,,,,,,,,,,,,,-1.2212415894116349
3,240614_155933,DEMANDRATING,9.0,-1,,,,,,,,,,,,,,,,,,,,,,,,,,,,,,,,,,,,,,,4.0,MentalDemand,2.0,70.0,9.795129100006308,13,23,Female,0.42857142857142855,1.0,0.2,1.25,1.7777777777777777,1.25,2.2222222222222223,3.111111111111111,2.375,2.6666666666666665,2.0,2.0,2.5,2.75,,,,,,,,,,,,,,,,,,,,,,,,,,,,,,,,,,,,,,0.2690871298703599
4,240614_155940,DEMANDRATING,9.0,-1,,,,,,,,,,,,,,,,,,,,,,,,,,,,,,,,,,,,,,,5.0,Effort,2.0,70.0,5.4175574999826495,13,23,Female,0.42857142857142855,1.0,0.2,1.25,1.7777777777777777,1.25,2.2222222222222223,3.111111111111111,2.375,2.6666666666666665,2.0,2.0,2.5,2.75,,,,,,,,,,,,,,,,,,,,,,,,,,,,,,,,,,,,,,0.2690871298703599
5,240614_155952,DEMANDRATING,9.0,-1,,,,,,,,,,,,,,,,,,,,,,,,,,,,,,,,,,,,,,,6.0,Frustration,2.0,52.0,11.031311300001107,13,23,Female,0.42857142857142855,1.0,0.2,1.25,1.7777777777777777,1.25,2.2222222222222223,3.111111111111111,2.375,2.6666666666666665,2.0,2.0,2.5,2.75,,,,,,,,,,,,,,,,,,,,,,,,,,,,,,,,,,,,,,-0.8486594095911362
6,240614_160001,DEMANDRATING,9.0,-1,,,,,,,,,,,,,,,,,,,,,,,,,,,,,,,,,,,,,,,7.0,MentalDemand,3.0,91.0,6.6953579999972135,13,23,Female,0.42857142857142855,1.0,0.2,1.25,1.7777777777777777,1.25,2.2222222222222223,3.111111111111111,2.375,2.6666666666666665,2.0,2.0,2.5,2.75,,,,,,,,,,,,,,,,,,,,,,,,,,,,,,,,,,,,,,1.5731247592421052
7,240614_160009,DEMANDRATING,9.0,-1,,,,,,,,,,,,,,,,,,,,,,,,,,,,,,,,,,,,,,,8.0,Effort,3.0,93.0,6.808639200025937,13,23,Female,0.42857142857142855,1.0,0.2,1.25,1.7777777777777777,1.25,2.2222222222222223,3.111111111111111,2.375,2.6666666666666665,2.0,2.0,2.5,2.75,,,,,,,,,,,,,,,,,,,,,,,,,,,,,,,,,,,,,,1.6973188191822715
8,240614_160017,DEMANDRATING,9.0,-1,,,,,,,,,,,,,,,,,,,,,,,,,,,,,,,,,,,,,,,9.0,Frustration,3.0,62.0,6.98805120002362,13,23,Female,0.42857142857142855,1.0,0.2,1.25,1.7777777777777777,1.25,2.2222222222222223,3.111111111111111,2.375,2.6666666666666665,2.0,2.0,2.5,2.75,,,,,,,,,,,,,,,,,,,,,,,,,,,,,,,,,,,,,,-0.22768910989030502
