,END,Phase,Block,TrialN,NbackLevel,ISI,Letter_Resp,Letter_RT,Letter_Accuracy,Trial_A_measure,Trial_ACC,Trial_RT,TrialCountCali,CaliEnd_A_measure,ISI_calibrated,TrialIndex,TrialNumber_total,TrialNumber_valid,CueLearning,TrialDemandLearning,CueMapping,OfflineRatingTimePoint,CueFigure,TrialDemand,OfflineRating,OfflineRatingRT,PhaseType,CueLeft,CueDemandLeft,CueRight,CueDemandRight,Choice,ChoiceDemand,TaskDemand,ChoiceRT,CueCheck,CueDemandCheck,CorrectAnswer,Answer,AnswerDemand,AnswerRT,AnswerACC,DemandRatingQuesIndex,QuesTLX,DemandLevel,DemandRating,DemandRatingRT,PID,Age,Gender,BAI_bis,BAI_bas_d,BAI_bas_rr,BAI_bas_fs,NFC,BFI_ext,BFI_agr,BFI_con,BFI_neu,BFI_open,UPPS_lps,UPPS_lpm,UPPS_pu,UPPS_ss,Task_A_measure,Task_ACC,Task_RT,Task_RT_z,cue_i_on_zyg_values,cue_i_on_zyg_zvalues,cue_e_on_zyg_values,cue_e_on_zyg_zvalues,cue_i_on_cor_values,cue_i_on_cor_zvalues,cue_e_on_cor_values,cue_e_on_cor_zvalues,cue_i_on_scr_values,cue_i_on_scr_zvalues,cue_e_on_scr_values,cue_e_on_scr_zvalues,cue_e_true_zyg_values,cue_e_true_zyg_zvalues,cue_e_true_cor_values,cue_e_true_cor_zvalues,cue_e_true_scr_values,cue_e_true_scr_zvalues,cue_e_false_zyg_values,cue_e_false_zyg_zvalues,cue_e_false_cor_values,cue_e_false_cor_zvalues,cue_e_false_scr_values,cue_e_false_scr_zvalues,OfflineRating_z,cue_i_off_zyg_values,cue_i_off_zyg_zvalues,cue_i_off_cor_values,cue_i_off_cor_zvalues,cue_i_off_scr_values,cue_i_off_scr_zvalues,DemandRating_z
0,240615_143336,PRACTICE,0.0,1,1.0,202.0,,,,,,,,,,8.0,1.0,1.0,cue1.png,Easy,A,,,,,,,,,,,,,,,,,,,,,,,,,,,15,23,Female,0.8571428571428571,1.25,1.0,1.0,1.4444444444444444,1.75,2.0,2.3333333333333335,2.125,2.3333333333333335,1.25,1.75,1.5,1.75,,,,,,,,,,,,,,,,,,,,,,,,,,,,,,,,,,,,
0,240615_143629,LEARNING,1.0,1,1.0,202.0,,,,,,,,,,1.0,1.0,1.0,cue1.png,Easy,A,,,,,,,,,,,,,,,,,,,,,,,,,,,15,23,Female,0.8571428571428571,1.25,1.0,1.0,1.4444444444444444,1.75,2.0,2.3333333333333335,2.125,2.3333333333333335,1.25,1.75,1.5,1.75,1.0,1.0,0.4235263619089632,-1.2921941497247234,,,0.007652602790490666,-0.6222125611816613,,,0.0293420995404508,2.8575229469278756,3.3309862783641626e+45,-0.17968120819993358,2.8567632273953386e+45,-0.136050551073804,,,,,,,,,,,,,,,,,,,,
1,240615_143701,LEARNING,1.0,2,3.0,202.0,,,,,,,,,,2.0,2.0,2.0,cue2.png,Hard,A,,,,,,,,,,,,,,,,,,,,,,,,,,,15,23,Female,0.8571428571428571,1.25,1.0,1.0,1.4444444444444444,1.75,2.0,2.3333333333333335,2.125,2.3333333333333335,1.25,1.75,1.5,1.75,0.8903061224489796,0.8809523809523809,0.5262862649949966,0.7009276641783561,0.022919193720770368,0.9659562580577007,0.005910180516418499,-0.8621972345984702,0.012946681465923903,-0.48046138337960004,,,5.081152081345547e+44,-0.18221570933147993,3.52897968619606e+44,-0.1657264836899775,,,,,,,,,,,,,,,,,,,,
2,240615_143732,LEARNING,1.0,3,1.0,202.0,,,,,,,,,,3.0,3.0,3.0,cue1.png,Easy,A,,,,,,,,,,,,,,,,,,,,,,,,,,,15,23,Female,0.8571428571428571,1.25,1.0,1.0,1.4444444444444444,1.75,2.0,2.3333333333333335,2.125,2.3333333333333335,1.25,1.75,1.5,1.75,1.0,1.0,0.4666491047551279,-0.45578931806518963,0.010772278971201872,-0.30580879642428416,0.02005111113668618,1.0854400673418843,0.011581746539046693,-0.7555199216992834,0.019798003981862152,0.7559994729946772,-4.8785625272369e+44,-0.18310993748846333,-4.768818536984557e+44,-0.17556107443205735,,,,,,,,,,,,,,,,,,,,
3,240615_143807,LEARNING,1.0,4,3.0,202.0,,,,,,,,,,4.0,4.0,4.0,cue2.png,Hard,A,,,,,,,,,,,,,,,,,,,,,,,,,,,15,23,Female,0.8571428571428571,1.25,1.0,1.0,1.4444444444444444,1.75,2.0,2.3333333333333335,2.125,2.3333333333333335,1.25,1.75,1.5,1.75,0.7976190476190477,0.5,0.5907689250113132,1.9516275231439133,0.017422281779736225,0.39043723464310903,0.009600682842920415,-0.35390254120036824,0.020315215645273332,1.0044286293387945,0.013293305854272939,-0.6762761912694705,-5.13809180999997e+44,-0.1831332391995393,-4.808566376283594e+44,-0.17560818376418066,,,,,,,,,,,,,,,,,,,,
4,240615_143841,LEARNING,1.0,5,3.0,202.0,,,,,,,,,,5.0,5.0,5.0,cue2.png,Hard,A,,,,,,,,,,,,,,,,,,,,,,,,,,,15,23,Female,0.8571428571428571,1.25,1.0,1.0,1.4444444444444444,1.75,2.0,2.3333333333333335,2.125,2.3333333333333335,1.25,1.75,1.5,1.75,0.9583333333333334,0.8571428571428572,0.5898868555604067,1.9345189836145662,0.01082314504895757,-0.300483188936131,0.007212385783122473,-0.6828438652678286,,,0.02696277801684638,2.333617878794987,6.303867201302626e+48,5.477224746427669,5.134883263865533e+47,5.915979527977578,,,,,,,,,,,,,,,,,,,,
5,240615_143912,LEARNING,1.0,6,1.0,202.0,,,,,,,,,,6.0,6.0,6.0,cue1.png,Easy,A,,,,,,,,,,,,,,,,,,,,,,,,,,,15,23,Female,0.8571428571428571,1.25,1.0,1.0,1.4444444444444444,1.75,2.0,2.3333333333333335,2.125,2.3333333333333335,1.25,1.75,1.5,1.75,0.9305555555555556,0.8857142857142857,0.4757161000045016,-0.279926695822813,0.020470775096528906,0.7096102385745424,0.016705125115466405,0.6245957734480737,0.015821870778597376,0.09894013545008479,0.016551801583934805,0.041215081063109824,-8.96891499178688e+43,-0.18275244508179672,,,,,,,,,,,,,,,,,,,,,,
6,240615_143946,LEARNING,1.0,7,3.0,202.0,,,,,,,,,,7.0,7.0,7.0,cue2.png,Hard,A,,,,,,,,,,,,,,,,,,,,,,,,,,,15,23,Female,0.8571428571428571,1.25,1.0,1.0,1.4444444444444444,1.75,2.0,2.3333333333333335,2.125,2.3333333333333335,1.25,1.75,1.5,1.75,0.7666666666666666,0.7904761904761906,0.5811991333321203,1.7660127066883304,0.0023534524279595556,-1.1872482086685572,0.02361370885138685,1.576118395896412,0.018541869216510444,0.6470679471369603,0.012029105476597614,-0.9546416742144864,,,3.9034820967033007e+43,-0.16944640495482705,,,,,,,,,,,,,,,,,,,,
7,240615_144018,LEARNING,1.0,8,3.0,202.0,,,,,,,,,,8.0,8.0,8.0,cue2.png,Hard,A,,,,,,,,,,,,,,,,,,,,,,,,,,,15,23,Female,0.8571428571428571,1.25,1.0,1.0,1.4444444444444444,1.75,2.0,2.3333333333333335,2.125,2.3333333333333335,1.25,1.75,1.5,1.75,0.9583333333333334,0.9523809523809524,0.5318982749944553,0.8097777040659814,0.008098987134600312,-0.5856987280089775,,,0.008379039597442371,-1.4009220377103693,0.013995186835869911,-0.5217283507036921,,,1.6322985179803481e+44,-0.16797443941942658,,,,,,,,,,,,,,,,,,,,
8,240615_144050,LEARNING,1.0,9,1.0,202.0,,,,,,,,,,9.0,9.0,9.0,cue1.png,Easy,A,,,,,,,,,,,,,,,,,,,,,,,,,,,15,23,Female,0.8571428571428571,1.25,1.0,1.0,1.4444444444444444,1.75,2.0,2.3333333333333335,2.125,2.3333333333333335,1.25,1.75,1.5,1.75,0.9305555555555556,0.7904761904761906,0.4886909111163631,-0.028268429498133945,0.005453513091917684,-0.8626761753185889,0.01789098925064368,0.7879254217382777,0.01230513463036791,-0.6097444219896337,0.0233977204842741,1.5486244716532294,,,,,,,,,,,,,,,,,,,,,,,,
9,240615_144122,LEARNING,1.0,10,1.0,202.0,,,,,,,,,,10.0,10.0,10.0,cue1.png,Easy,A,,,,,,,,,,,,,,,,,,,,,,,,,,,15,23,Female,0.8571428571428571,1.25,1.0,1.0,1.4444444444444444,1.75,2.0,2.3333333333333335,2.125,2.3333333333333335,1.25,1.75,1.5,1.75,1.0,0.9523809523809524,0.4667635849968065,-0.45356886962082443,0.005006614879835568,-0.9094657956258118,0.01073584964800034,-0.1975554610209829,0.019990208253132087,0.9389338892855164,,,,,2.237479235280261e+44,-0.16725717629497314,,,,,,,,,,,,,,,,,,,,
10,240615_144155,LEARNING,1.0,11,3.0,202.0,,,,,,,,,,11.0,11.0,11.0,cue2.png,Hard,A,,,,,,,,,,,,,,,,,,,,,,,,,,,15,23,Female,0.8571428571428571,1.25,1.0,1.0,1.4444444444444444,1.75,2.0,2.3333333333333335,2.125,2.3333333333333335,1.25,1.75,1.5,1.75,0.738095238095238,0.6666666666666667,0.5686341411749121,1.522303251852765,0.00638023552234173,-0.7656496277123515,,,,,0.02005030962309057,0.8115548919856516,2.4391168745004147e+44,-0.18245292318414058,,,,,,,,,,,,,,,,,,,,,,
11,240615_144225,LEARNING,1.0,12,1.0,202.0,,,,,,,,,,12.0,12.0,12.0,cue1.png,Easy,A,,,,,,,,,,,,,,,,,,,,,,,,,,,15,23,Female,0.8571428571428571,1.25,1.0,1.0,1.4444444444444444,1.75,2.0,2.3333333333333335,2.125,2.3333333333333335,1.25,1.75,1.5,1.75,0.9305555555555556,0.8857142857142857,0.4009085700032301,-1.7308868019734793,0.007809746530964022,-0.6159818163178812,0.00727966386735753,-0.6735776217667484,0.01168920364564881,-0.7338654134205167,0.019934760172252493,0.7861119485610344,1.7614157387744763e+44,-0.1825137702526965,,,,,,,,,,,,,,,,,,,,,,
12,240615_144256,LEARNING,1.0,13,1.0,202.0,,,,,,,,,,13.0,13.0,13.0,cue1.png,Easy,A,,,,,,,,,,,,,,,,,,,,,,,,,,,15,23,Female,0.8571428571428571,1.25,1.0,1.0,1.4444444444444444,1.75,2.0,2.3333333333333335,2.125,2.3333333333333335,1.25,1.75,1.5,1.75,0.9642857142857144,0.9523809523809524,0.4491607949952595,-0.7949909971627758,0.017106327532848756,0.35735726509603283,0.038954460681535574,3.689007660863461,0.015601092883475571,0.054449483236770145,0.016179756885500548,-0.04070579476135729,-1.4082484023895173e+43,-0.1826845620026573,9.755781908841435e+43,-0.16875278753964884,,,,,,,,,,,,,,,,,,,,
13,240615_144326,LEARNING,1.0,14,1.0,202.0,,,,,,,,,,14.0,14.0,14.0,cue1.png,Easy,A,,,,,,,,,,,,,,,,,,,,,,,,,,,15,23,Female,0.8571428571428571,1.25,1.0,1.0,1.4444444444444444,1.75,2.0,2.3333333333333335,2.125,2.3333333333333335,1.25,1.75,1.5,1.75,1.0,1.0,0.4329563190473154,-1.1092915514137351,,,0.005666140091305057,-0.8958090419042134,0.012058071044788132,-0.6595321059175923,0.014550767942375378,-0.39939441871111714,,,-4.0449781539090363e+43,-0.17038846032291355,,,,,,,,,,,,,,,,,,,,
14,240615_144358,LEARNING,1.0,15,3.0,202.0,,,,,,,,,,15.0,15.0,15.0,cue2.png,Hard,A,,,,,,,,,,,,,,,,,,,,,,,,,,,15,23,Female,0.8571428571428571,1.25,1.0,1.0,1.4444444444444444,1.75,2.0,2.3333333333333335,2.125,2.3333333333333335,1.25,1.75,1.5,1.75,0.7976190476190477,0.6904761904761905,0.4872321124930749,-0.05656315604855862,0.0054175277638145595,-0.866443789045955,,,0.01426174730520318,-0.215452348572444,0.010631304378927972,-1.2624248266996796,,,-1.0978246607171646e+44,-0.17121019466627624,,,,,,,,,,,,,,,,,,,,
15,240615_144429,LEARNING,1.0,16,1.0,202.0,,,,,,,,,,16.0,16.0,16.0,cue1.png,Easy,A,,,,,,,,,,,,,,,,,,,,,,,,,,,15,23,Female,0.8571428571428571,1.25,1.0,1.0,1.4444444444444444,1.75,2.0,2.3333333333333335,2.125,2.3333333333333335,1.25,1.75,1.5,1.75,1.0,1.0,0.4776626238072778,-0.24217209567155862,0.006959288541527532,-0.7050235831837234,0.008211008667499402,-0.5453030461794341,0.01623401795631158,0.18199508410907653,0.015373455303504941,-0.21824610659409144,,,,,,,,,,,,,,,,,,,,,,,,
16,240615_144459,LEARNING,1.0,17,1.0,202.0,,,,,,,,,,17.0,17.0,17.0,cue1.png,Easy,A,,,,,,,,,,,,,,,,,,,,,,,,,,,15,23,Female,0.8571428571428571,1.25,1.0,1.0,1.4444444444444444,1.75,2.0,2.3333333333333335,2.125,2.3333333333333335,1.25,1.75,1.5,1.75,0.9362244897959184,0.9285714285714286,0.4230342571446228,-1.3017389693584218,0.029677018526704207,1.6734911020643617,,,,,0.022964587250741825,1.4532524532130378,,,,,,,,,,,,,,,,,,,,,,,,
17,240615_144532,LEARNING,1.0,18,3.0,202.0,,,,,,,,,,18.0,18.0,18.0,cue2.png,Hard,A,,,,,,,,,,,,,,,,,,,,,,,,,,,15,23,Female,0.8571428571428571,1.25,1.0,1.0,1.4444444444444444,1.75,2.0,2.3333333333333335,2.125,2.3333333333333335,1.25,1.75,1.5,1.75,0.8777777777777778,0.7428571428571429,0.5230174411759329,0.6375258521493262,0.006047752526505477,-0.8004601342509807,0.0059399423111577655,-0.858098128028793,0.01278831463109111,-0.5123751026710264,,,,,,,,,,,,,,,,,,,,,,,,,,
18,240615_144605,LEARNING,1.0,19,3.0,202.0,,,,,,,,,,19.0,19.0,19.0,cue2.png,Hard,A,,,,,,,,,,,,,,,,,,,,,,,,,,,15,23,Female,0.8571428571428571,1.25,1.0,1.0,1.4444444444444444,1.75,2.0,2.3333333333333335,2.125,2.3333333333333335,1.25,1.75,1.5,1.75,0.0333333333333333,0.6571428571428573,0.5214855000020988,0.6078124592841289,0.006822813514648869,-0.7193123283978066,0.007500339686752747,-0.6431838330528454,0.01571427372372522,0.07725742511872222,0.013831373261856102,-0.557798617291616,,,,,,,,,,,,,,,,,,,,,,,,
19,240615_144637,LEARNING,1.0,20,3.0,202.0,,,,,,,,,,20.0,20.0,20.0,cue2.png,Hard,A,,,,,,,,,,,,,,,,,,,,,,,,,,,15,23,Female,0.8571428571428571,1.25,1.0,1.0,1.4444444444444444,1.75,2.0,2.3333333333333335,2.125,2.3333333333333335,1.25,1.75,1.5,1.75,0.875,0.8571428571428572,0.5232028277791364,0.6411215939878626,0.0168458823497156,0.3300890172038119,,,,,0.014894575749131899,-0.3236910509079597,8.398674572543091e+43,-0.18259651101924868,,,,,,,,,,,,,,,,,,,,,,
20,240615_144708,LEARNING,1.0,21,1.0,202.0,,,,,,,,,,21.0,21.0,21.0,cue1.png,Easy,A,,,,,,,,,,,,,,,,,,,,,,,,,,,15,23,Female,0.8571428571428571,1.25,1.0,1.0,1.4444444444444444,1.75,2.0,2.3333333333333335,2.125,2.3333333333333335,1.25,1.75,1.5,1.75,1.0,1.0,0.4430364380906602,-0.9137784714217305,0.029787314957147374,1.6850389846965923,0.01395399403704084,0.24568114224344106,0.0330673161814447,3.574202517394989,0.014172414012819353,-0.4827045301340203,5.718855880364101e+43,-0.1826205716417096,6.990470341220497e+43,-0.1690805336092739,,,,,,,,,,,,,,,,,,,,
21,240615_144740,LEARNING,1.0,22,3.0,202.0,,,,,,,,,,22.0,22.0,22.0,cue2.png,Hard,A,,,,,,,,,,,,,,,,,,,,,,,,,,,15,23,Female,0.8571428571428571,1.25,1.0,1.0,1.4444444444444444,1.75,2.0,2.3333333333333335,2.125,2.3333333333333335,1.25,1.75,1.5,1.75,0.8928571428571428,0.8571428571428572,0.533427594443007,0.8394402461840165,,,,,,,0.015147516660819716,-0.2679957511106243,1.6279313752849093e+43,-0.1826573018094333,3.526071714409463e+43,-0.16949113581657907,,,,,,,,,,,,,,,,,,,,
22,240615_144814,LEARNING,1.0,23,3.0,202.0,,,,,,,,,,23.0,23.0,23.0,cue2.png,Hard,A,,,,,,,,,,,,,,,,,,,,,,,,,,,15,23,Female,0.8571428571428571,1.25,1.0,1.0,1.4444444444444444,1.75,2.0,2.3333333333333335,2.125,2.3333333333333335,1.25,1.75,1.5,1.75,0.9166666666666666,0.6666666666666667,0.5266945642818298,0.7088470003274661,0.006049259645312744,-0.8003023410111704,0.00862576528179427,-0.48817841450424637,0.011997239309420074,-0.6717907769240328,0.018293949506533805,0.4248202882753434,,,-6.11621165905452e+42,-0.16998153718571138,,,,,,,,,,,,,,,,,,,,
23,240615_144848,LEARNING,1.0,24,3.0,202.0,,,,,,,,,,24.0,24.0,24.0,cue2.png,Hard,A,,,,,,,,,,,,,,,,,,,,,,,,,,,15,23,Female,0.8571428571428571,1.25,1.0,1.0,1.4444444444444444,1.75,2.0,2.3333333333333335,2.125,2.3333333333333335,1.25,1.75,1.5,1.75,0.7916666666666666,0.6190476190476191,0.535370638459706,0.8771273527183059,,,0.008155726140645556,-0.5529171356858028,0.017028049177789523,0.34200642447355667,0.02039543741180981,0.8875489078719924,-5.517788076145554e+43,-0.18272145930577227,-3.7019918099866143e+43,-0.1703478094149031,,,,,,,,,,,,,,,,,,,,
24,240615_144921,LEARNING,1.0,25,1.0,202.0,,,,,,,,,,25.0,25.0,25.0,cue1.png,Easy,A,,,,,,,,,,,,,,,,,,,,,,,,,,,15,23,Female,0.8571428571428571,1.25,1.0,1.0,1.4444444444444444,1.75,2.0,2.3333333333333335,2.125,2.3333333333333335,1.25,1.75,1.5,1.75,0.9583333333333334,0.6666666666666667,0.5210695357153392,0.5997444534876356,0.0062569847280864385,-0.7785538141911935,0.014751026330417099,0.35545679047452505,0.011043173329185831,-0.8640519527620326,0.010426120038036866,-1.3076045617745384,-6.743945824826966e+43,-0.18273246830378945,-5.710421599334625e+43,-0.1705858494886815,,,,,,,,,,,,,,,,,,,,
25,240615_144953,LEARNING,1.0,26,1.0,202.0,,,,,,,,,,26.0,26.0,26.0,cue1.png,Easy,A,,,,,,,,,,,,,,,,,,,,,,,,,,,15,23,Female,0.8571428571428571,1.25,1.0,1.0,1.4444444444444444,1.75,2.0,2.3333333333333335,2.125,2.3333333333333335,1.25,1.75,1.5,1.75,1.0,1.0,0.5029185190436519,0.24768897088787248,0.009447687519963527,-0.4444916763062186,0.023092036887069307,1.504268260685006,0.010643967685401882,-0.9444989533523102,0.016242495353178087,-0.02689135192247566,,,-5.783809392714026e+43,-0.17059454744558447,,,,,,,,,,,,,,,,,,,,
26,240615_145026,LEARNING,1.0,27,3.0,202.0,,,,,,,,,,27.0,27.0,27.0,cue2.png,Hard,A,,,,,,,,,,,,,,,,,,,,,,,,,,,15,23,Female,0.8571428571428571,1.25,1.0,1.0,1.4444444444444444,1.75,2.0,2.3333333333333335,2.125,2.3333333333333335,1.25,1.75,1.5,1.75,0.7410714285714286,0.6428571428571429,0.5196407799958251,0.5720324363897009,0.004524477733904483,-0.9599448832216653,,,0.015315614263521586,-0.0030795098161912225,0.01741601355074913,0.23150673558032997,,,,,,,,,,,,,,,,,,,,,,,,
27,240615_145058,LEARNING,1.0,28,1.0,202.0,,,,,,,,,,28.0,28.0,28.0,cue1.png,Easy,A,,,,,,,,,,,,,,,,,,,,,,,,,,,15,23,Female,0.8571428571428571,1.25,1.0,1.0,1.4444444444444444,1.75,2.0,2.3333333333333335,2.125,2.3333333333333335,1.25,1.75,1.5,1.75,1.0,1.0,0.5076091142920112,0.33866733335156374,0.006581930338355935,-0.7445324614223557,,,0.013101674642182544,-0.44922751598288574,0.01931847642468081,0.6504118443264393,-1.568668781195695e+42,-0.18267332653419152,-1.4201373563071558e+43,-0.1700773629171534,,,,,,,,,,,,,,,,,,,,
28,240615_145129,LEARNING,1.0,29,1.0,202.0,,,,,,,,,,29.0,29.0,29.0,cue1.png,Easy,A,,,,,,,,,,,,,,,,,,,,,,,,,,,15,23,Female,0.8571428571428571,1.25,1.0,1.0,1.4444444444444444,1.75,2.0,2.3333333333333335,2.125,2.3333333333333335,1.25,1.75,1.5,1.75,1.0,0.9047619047619048,0.4598889842010593,-0.5869080067393908,0.027736351416014597,1.470305958787939,0.006404237913603311,-0.7941504672465711,0.027700814017959183,2.4927573789407553,0.016472574273339813,0.023769944227473083,3.2210955788495204e+43,-0.1826429976617191,1.5201086729637578e+43,-0.16972888353019835,,,,,,,,,,,,,,,,,,,,
29,240615_145203,LEARNING,1.0,30,3.0,202.0,,,,,,,,,,30.0,30.0,30.0,cue2.png,Hard,A,,,,,,,,,,,,,,,,,,,,,,,,,,,15,23,Female,0.8571428571428571,1.25,1.0,1.0,1.4444444444444444,1.75,2.0,2.3333333333333335,2.125,2.3333333333333335,1.25,1.75,1.5,1.75,0.5583333333333333,0.4380952380952381,0.5246743583362937,0.6696632679795135,0.009627538268225821,-0.42566155348259804,0.005481630857580723,-0.9212215890557348,0.01457631105481294,-0.15206218727444454,0.011018546493642721,-1.1771576173373166,5.064270749890503e+43,-0.18262644880263054,3.7603894064160726e+43,-0.16946336436995513,,,,,,,,,,,,,,,,,,,,
30,240615_145236,LEARNING,1.0,31,3.0,202.0,,,,,,,,,,31.0,31.0,31.0,cue2.png,Hard,A,,,,,,,,,,,,,,,,,,,,,,,,,,,15,23,Female,0.8571428571428571,1.25,1.0,1.0,1.4444444444444444,1.75,2.0,2.3333333333333335,2.125,2.3333333333333335,1.25,1.75,1.5,1.75,0.8520408163265305,0.8095238095238095,0.5404760299890767,0.9761510664443246,0.01288380940045942,-0.08473450169438253,0.00968577137595317,-0.34218325586108117,0.011129187091932793,-0.8467186576791061,0.014897903898469437,-0.3229582225414943,,,5.079896101358655e+43,-0.16930697579581575,,,,,,,,,,,,,,,,,,,,
31,240615_145306,LEARNING,1.0,32,1.0,202.0,,,,,,,,,,32.0,32.0,32.0,cue1.png,Easy,A,,,,,,,,,,,,,,,,,,,,,,,,,,,15,23,Female,0.8571428571428571,1.25,1.0,1.0,1.4444444444444444,1.75,2.0,2.3333333333333335,2.125,2.3333333333333335,1.25,1.75,1.5,1.75,1.0,1.0,0.4339851666646566,-1.089336115803913,,,0.022373930490626196,1.4053631149041481,0.016330478378545413,0.20143356591717287,0.015937055455742883,-0.09414645329855091,4.943990854364182e+43,-0.1826275287298526,4.788024456267099e+43,-0.16934156856490323,,,,,,,,,,,,,,,,,,,,
32,240615_145336,LEARNING,1.0,33,1.0,202.0,,,,,,,,,,33.0,33.0,33.0,cue1.png,Easy,A,,,,,,,,,,,,,,,,,,,,,,,,,,,15,23,Female,0.8571428571428571,1.25,1.0,1.0,1.4444444444444444,1.75,2.0,2.3333333333333335,2.125,2.3333333333333335,1.25,1.75,1.5,1.75,0.9583333333333334,0.9523809523809524,0.4229016600002069,-1.3043108116145914,0.044297714203994254,3.2042575738759655,,,,,0.010586610932995722,-1.2722659190463572,2.841677641813838e+43,-0.1826464042473081,3.182664906767724e+43,-0.16953183655815368,,,,,,,,,,,,,,,,,,,,
33,240615_145406,LEARNING,1.0,34,1.0,202.0,,,,,,,,,,34.0,34.0,34.0,cue1.png,Easy,A,,,,,,,,,,,,,,,,,,,,,,,,,,,15,23,Female,0.8571428571428571,1.25,1.0,1.0,1.4444444444444444,1.75,2.0,2.3333333333333335,2.125,2.3333333333333335,1.25,1.75,1.5,1.75,1.0,1.0,0.4397340714321693,-0.9778308773395693,,,0.0072872110256993385,-0.6725381479509948,0.01416658189588268,-0.2346298623651188,0.017617954822973902,0.27597237628259547,8.371751430152112e+41,-0.1826711664588652,,,,,,,,,,,,,,,,,,,,,,
34,240615_145439,LEARNING,1.0,35,3.0,202.0,,,,,,,,,,35.0,35.0,35.0,cue2.png,Hard,A,,,,,,,,,,,,,,,,,,,,,,,,,,,15,23,Female,0.8571428571428571,1.25,1.0,1.0,1.4444444444444444,1.75,2.0,2.3333333333333335,2.125,2.3333333333333335,1.25,1.75,1.5,1.75,0.9285714285714286,0.7619047619047619,0.5348867312422954,0.8677415319656451,0.02187719184272641,0.8568601128618204,0.007439924817254288,-0.6515048026259801,0.01582175446064196,0.09891669532398992,,,,,-1.8567183135583588e+43,-0.1701291067041782,,,,,,,,,,,,,,,,,,,,
35,240615_145512,LEARNING,1.0,36,3.0,202.0,,,,,,,,,,36.0,36.0,36.0,cue2.png,Hard,A,,,,,,,,,,,,,,,,,,,,,,,,,,,15,23,Female,0.8571428571428571,1.25,1.0,1.0,1.4444444444444444,1.75,2.0,2.3333333333333335,2.125,2.3333333333333335,1.25,1.75,1.5,1.75,0.9583333333333334,0.8095238095238095,0.5219248705851736,0.6163344514932926,0.023916485843476123,1.0703713541472155,0.005770140637482976,-0.8814849957294892,0.01744043852844927,0.4251101752659764,0.013813690557589561,-0.561692188753745,-4.631904228242174e+43,-0.1827135054405086,-3.919737076693698e+43,-0.17037361668963422,,,,,,,,,,,,,,,,,,,,
36,240615_145544,LEARNING,1.0,37,1.0,202.0,,,,,,,,,,37.0,37.0,37.0,cue1.png,Easy,A,,,,,,,,,,,,,,,,,,,,,,,,,,,15,23,Female,0.8571428571428571,1.25,1.0,1.0,1.4444444444444444,1.75,2.0,2.3333333333333335,2.125,2.3333333333333335,1.25,1.75,1.5,1.75,1.0,0.9523809523809524,0.4732085350085981,-0.3285632003641871,0.008575660405208565,-0.5357917005486303,0.004597562582884908,-1.0429847456326975,,,0.006052175230767668,-2.270707626882964,,,,,,,,,,,,,,,,,,,,,,,,
37,240615_145616,LEARNING,1.0,38,3.0,202.0,,,,,,,,,,38.0,38.0,38.0,cue2.png,Hard,A,,,,,,,,,,,,,,,,,,,,,,,,,,,15,23,Female,0.8571428571428571,1.25,1.0,1.0,1.4444444444444444,1.75,2.0,2.3333333333333335,2.125,2.3333333333333335,1.25,1.75,1.5,1.75,0.06875,0.5904761904761906,0.5155509666688481,0.4927067858977505,0.030646576875112547,1.775002510616134,0.004768941609105803,-1.0193806283930849,0.011471185618175676,-0.7777999034707485,0.011598145921929433,-1.0495350682392324,-4.079124713921402e+43,-0.18270854233638628,-3.7750130234068847e+43,-0.17035646392457135,,,,,,,,,,,,,,,,,,,,
38,240615_145650,LEARNING,1.0,39,3.0,202.0,,,,,,,,,,39.0,39.0,39.0,cue2.png,Hard,A,,,,,,,,,,,,,,,,,,,,,,,,,,,15,23,Female,0.8571428571428571,1.25,1.0,1.0,1.4444444444444444,1.75,2.0,2.3333333333333335,2.125,2.3333333333333335,1.25,1.75,1.5,1.75,0.8571428571428571,0.7619047619047619,0.5559754750065622,1.2767769043441306,0.014107247194604582,0.04335773118982484,,,,,,,-1.4320243058547512e+43,-0.18268477547345616,-1.8248483693536928e+43,-0.17012532946291736,,,,,,,,,,,,,,,,,,,,
39,240615_145723,LEARNING,1.0,40,3.0,202.0,,,,,,,,,,40.0,40.0,40.0,cue2.png,Hard,A,,,,,,,,,,,,,,,,,,,,,,,,,,,15,23,Female,0.8571428571428571,1.25,1.0,1.0,1.4444444444444444,1.75,2.0,2.3333333333333335,2.125,2.3333333333333335,1.25,1.75,1.5,1.75,0.8250000000000001,0.6952380952380952,0.5506068187496567,1.1726469317026909,0.02202853419398369,0.8727054462292076,0.017692789135355783,0.7606272227618741,0.01944729184848828,0.8295266276274395,0.021308518603797354,1.0886011235365727,1.712437100653771e+43,-0.182656543078867,8.078211286311656e+42,-0.16981330419578677,,,,,,,,,,,,,,,,,,,,
40,240615_145754,LEARNING,1.0,41,1.0,202.0,,,,,,,,,,41.0,41.0,41.0,cue1.png,Easy,A,,,,,,,,,,,,,,,,,,,,,,,,,,,15,23,Female,0.8571428571428571,1.25,1.0,1.0,1.4444444444444444,1.75,2.0,2.3333333333333335,2.125,2.3333333333333335,1.25,1.75,1.5,1.75,0.9305555555555556,0.9333333333333332,0.4463844285679182,-0.8488411500292027,0.022425360175312596,0.9142525737236648,,,,,,,3.945658168270458e+43,-0.18263649221156897,3.441650339804728e+43,-0.16950114147888598,,,,,,,,,,,,,,,,,,,,
41,240615_145826,LEARNING,1.0,42,3.0,202.0,,,,,,,,,,42.0,42.0,42.0,cue2.png,Hard,A,,,,,,,,,,,,,,,,,,,,,,,,,,,15,23,Female,0.8571428571428571,1.25,1.0,1.0,1.4444444444444444,1.75,2.0,2.3333333333333335,2.125,2.3333333333333335,1.25,1.75,1.5,1.75,0.1607142857142857,0.4523809523809523,0.5194338588215246,0.5680190119520429,,,0.019669368835349747,1.0328625131641014,0.025644822436647598,2.078438697502242,0.012750684552667157,-0.7957564915012261,,,,,,,,,,,,,,,,,,,,,,,,
42,240615_145858,LEARNING,1.0,43,3.0,202.0,,,,,,,,,,43.0,43.0,43.0,cue2.png,Hard,A,,,,,,,,,,,,,,,,,,,,,,,,,,,15,23,Female,0.8571428571428571,1.25,1.0,1.0,1.4444444444444444,1.75,2.0,2.3333333333333335,2.125,2.3333333333333335,1.25,1.75,1.5,1.75,0.738095238095238,0.6666666666666667,0.4677662117687492,-0.4341220111638909,,,0.012547789692417181,0.0520039289620012,,,,,4.370987823485162e+43,-0.18263267340983977,3.951518392261999e+43,-0.16944071166975458,,,,,,,,,,,,,,,,,,,,
43,240615_145928,LEARNING,1.0,44,1.0,202.0,,,,,,,,,,44.0,44.0,44.0,cue1.png,Easy,A,,,,,,,,,,,,,,,,,,,,,,,,,,,15,23,Female,0.8571428571428571,1.25,1.0,1.0,1.4444444444444444,1.75,2.0,2.3333333333333335,2.125,2.3333333333333335,1.25,1.75,1.5,1.75,1.0,1.0,0.4278372904795798,-1.2085797679061618,0.0074641755841176605,-0.6521626130966737,0.017372911126783293,0.7165702679336506,0.015923644418186764,0.11944932456503927,,,1.3089713035151513e+43,-0.18266016557700437,1.4858136528287471e+43,-0.1697329481926359,,,,,,,,,,,,,,,,,,,,
44,240615_145959,LEARNING,1.0,45,1.0,202.0,,,,,,,,,,45.0,45.0,45.0,cue1.png,Easy,A,,,,,,,,,,,,,,,,,,,,,,,,,,,15,23,Female,0.8571428571428571,1.25,1.0,1.0,1.4444444444444444,1.75,2.0,2.3333333333333335,2.125,2.3333333333333335,1.25,1.75,1.5,1.75,0.8777777777777778,0.8380952380952381,0.4346865842082096,-1.0757314843793448,,,,,0.011619472103589908,-0.7479175529443991,0.016095336630437315,-0.05929437097601607,-2.7813289511215117e+43,-0.18269689013992568,-2.1022417998540238e+43,-0.17015820626698197,,,,,,,,,,,,,,,,,,,,
45,240615_150029,LEARNING,1.0,46,1.0,202.0,,,,,,,,,,46.0,46.0,46.0,cue1.png,Easy,A,,,,,,,,,,,,,,,,,,,,,,,,,,,15,23,Female,0.8571428571428571,1.25,1.0,1.0,1.4444444444444444,1.75,2.0,2.3333333333333335,2.125,2.3333333333333335,1.25,1.75,1.5,1.75,0.9305555555555556,0.9333333333333332,0.4376538095225225,-1.0181794497518792,0.008047812238994206,-0.5910566682959068,0.004996384434359034,-0.9880548166472161,,,0.01772866033448445,0.30034872810189794,,,-4.770962144098056e+43,-0.17047450429791486,,,,,,,,,,,,,,,,,,,,
46,240615_150101,LEARNING,1.0,47,3.0,202.0,,,,,,,,,,47.0,47.0,47.0,cue2.png,Hard,A,,,,,,,,,,,,,,,,,,,,,,,,,,,15,23,Female,0.8571428571428571,1.25,1.0,1.0,1.4444444444444444,1.75,2.0,2.3333333333333335,2.125,2.3333333333333335,1.25,1.75,1.5,1.75,0.8777777777777778,0.8380952380952381,0.4896374000021943,-0.009910416417997024,,,0.007990172768887882,-0.5757188826822209,,,0.017149115005932462,0.17273809127583128,-3.888545545146707e+43,-0.18270683123054088,-3.5224688529883565e+43,-0.1703265322668766,,,,,,,,,,,,,,,,,,,,
47,240615_150133,LEARNING,1.0,48,3.0,202.0,,,,,,,,,,48.0,48.0,48.0,cue2.png,Hard,A,,,,,,,,,,,,,,,,,,,,,,,,,,,15,23,Female,0.8571428571428571,1.25,1.0,1.0,1.4444444444444444,1.75,2.0,2.3333333333333335,2.125,2.3333333333333335,1.25,1.75,1.5,1.75,0.6785714285714286,0.7380952380952381,0.4854067949927412,-0.09196684968739224,0.0047568525501910115,-0.9356155636382396,0.015095612958954677,0.40291687563523915,0.0109731770415204,-0.8781574432099223,,,1.0017165179331112e+43,-0.18266292424922978,1.2041513524488453e+43,-0.16976633094523128,,,,,,,,,,,,,,,,,,,,
48,240615_150202,LEARNING,1.0,49,1.0,202.0,,,,,,,,,,49.0,49.0,49.0,cue1.png,Easy,A,,,,,,,,,,,,,,,,,,,,,,,,,,,15,23,Female,0.8571428571428571,1.25,1.0,1.0,1.4444444444444444,1.75,2.0,2.3333333333333335,2.125,2.3333333333333335,1.25,1.75,1.5,1.75,0.9305555555555556,0.9333333333333332,0.4085608666674012,-1.5824635459195315,0.006606181362563193,-0.7419934129678267,0.020340031509701515,1.1252332118587431,0.011256780889215978,-0.8210062499384198,,,,,,,,,,,,,,,,,,,,,,,,,,
49,240615_150231,LEARNING,1.0,50,1.0,202.0,,,,,,,,,,50.0,50.0,50.0,cue1.png,Easy,A,,,,,,,,,,,,,,,,,,,,,,,,,,,15,23,Female,0.8571428571428571,1.25,1.0,1.0,1.4444444444444444,1.75,2.0,2.3333333333333335,2.125,2.3333333333333335,1.25,1.75,1.5,1.75,1.0,1.0,0.377789495246751,-2.179302291192225,,,0.011450913025758513,-0.09906943169436963,0.013315684715514645,-0.40610069960703693,,,-3.7318141296884207e+43,-0.1827054240251109,-3.080678225561483e+43,-0.17027417102721315,,,,,,,,,,,,,,,,,,,,
0,240615_150348,TrueCHOICE,9.0,1,1.0,202.0,,,,,,,,,,,2.0,1.0,,,A,,,,,,True,cue1.png,Easy,cue2.png,Hard,Left,Easy,Easy,0.0161195999826304,,,,,,,,,,,,,15,23,Female,0.8571428571428571,1.25,1.0,1.0,1.4444444444444444,1.75,2.0,2.3333333333333335,2.125,2.3333333333333335,1.25,1.75,1.5,1.75,1.0,1.0,0.368295238098307,-1.3685983150384684,,,,,,,,,,,,,0.01212539126603316,-0.043829219464954605,,,14577991.091046494,-0.377682822346707,,,,,,,,,,,,,,
1,240615_150414,TrueCHOICE,9.0,2,1.0,202.0,,,,,,,,,,,3.0,2.0,,,A,,,,,,True,cue1.png,Easy,cue2.png,Hard,Left,Easy,Easy,0.0160255000228062,,,,,,,,,,,,,15,23,Female,0.8571428571428571,1.25,1.0,1.0,1.4444444444444444,1.75,2.0,2.3333333333333335,2.125,2.3333333333333335,1.25,1.75,1.5,1.75,1.0,1.0,0.3822784095176584,-0.5197058373248866,,,,,,,,,,,,,0.006555972096161818,-0.7379197443673938,0.03191696371719873,1.7954424431404183,3004032.87978589,-0.3782110939167376,,,,,,,,,,,,,,
2,240615_150441,TrueCHOICE,9.0,3,1.0,202.0,,,,,,,,,,,4.0,3.0,,,A,,,,,,True,cue2.png,Hard,cue1.png,Easy,Right,Easy,Easy,0.0175623000250197,,,,,,,,,,,,,15,23,Female,0.8571428571428571,1.25,1.0,1.0,1.4444444444444444,1.75,2.0,2.3333333333333335,2.125,2.3333333333333335,1.25,1.75,1.5,1.75,1.0,1.0,0.3577118666753882,-2.011095222237321,,,,,,,,,,,,,0.004984253648151916,-0.9337956246529929,0.0185091546198283,-0.18338782148947808,,,,,,,,,,,,,,,,
3,240615_150508,TrueCHOICE,9.0,4,1.0,202.0,,,,,,,,,,,5.0,4.0,,,A,,,,,,True,cue1.png,Easy,cue2.png,Hard,Left,Easy,Easy,0.0141518000164069,,,,,,,,,,,,,15,23,Female,0.8571428571428571,1.25,1.0,1.0,1.4444444444444444,1.75,2.0,2.3333333333333335,2.125,2.3333333333333335,1.25,1.75,1.5,1.75,1.0,0.9523809523809524,0.4059932000061962,0.9199752373427306,,,,,,,,,,,,,,,0.014285842822537418,-0.8066975017478817,15737.71174938488,-0.37834748903337084,,,,,,,,,,,,,,
4,240615_150535,TrueCHOICE,9.0,5,1.0,202.0,,,,,,,,,,,6.0,5.0,,,A,,,,,,True,cue2.png,Hard,cue1.png,Easy,Right,Easy,Easy,0.0145566999563016,,,,,,,,,,,,,15,23,Female,0.8571428571428571,1.25,1.0,1.0,1.4444444444444444,1.75,2.0,2.3333333333333335,2.125,2.3333333333333335,1.25,1.75,1.5,1.75,1.0,1.0,0.4068377142899581,0.9712441377450381,,,,,,,,,,,,,,,,,66255309057.21734,2.6457508519022377,,,,,,,,,,,,,,
5,240615_150602,TrueCHOICE,9.0,6,1.0,202.0,,,,,,,,,,,7.0,6.0,,,A,,,,,,True,cue2.png,Hard,cue1.png,Easy,Right,Easy,Easy,0.0166811000090092,,,,,,,,,,,,,15,23,Female,0.8571428571428571,1.25,1.0,1.0,1.4444444444444444,1.75,2.0,2.3333333333333335,2.125,2.3333333333333335,1.25,1.75,1.5,1.75,0.9305555555555556,0.9333333333333332,0.4074564666731194,1.0088074506646028,,,,,,,,,,,,,,,0.014352045031575857,-0.7969268573510794,247038.89156012304,-0.3783369317257343,,,,,,,,,,,,,,
6,240615_150629,TrueCHOICE,9.0,7,1.0,202.0,,,,,,,,,,,8.0,7.0,,,A,,,,,,True,cue1.png,Easy,cue2.png,Hard,Left,Easy,Easy,0.0160273999790661,,,,,,,,,,,,,15,23,Female,0.8571428571428571,1.25,1.0,1.0,1.4444444444444444,1.75,2.0,2.3333333333333335,2.125,2.3333333333333335,1.25,1.75,1.5,1.75,0.9362244897959184,0.9285714285714286,0.392519471426827,0.10201009232904447,,,,,,,,,,,,,0.014930138140945652,0.30571319622494914,0.013940281617558411,-0.8576981511253063,756317.4992237936,-0.3783136866608445,,,,,,,,,,,,,,
7,240615_150656,TrueCHOICE,9.0,8,1.0,202.0,,,,,,,,,,,9.0,8.0,,,A,,,,,,True,cue2.png,Hard,cue1.png,Easy,Right,Easy,Easy,0.0170120000257156,,,,,,,,,,,,,15,23,Female,0.8571428571428571,1.25,1.0,1.0,1.4444444444444444,1.75,2.0,2.3333333333333335,2.125,2.3333333333333335,1.25,1.75,1.5,1.75,0.9305555555555556,0.9333333333333332,0.3915675904773663,0.044223160205918745,,,,,,,,,,,,,0.030149396863708763,2.2024178530864473,,,40069939.08975086,-0.37651929029081005,,,,,,,,,,,,,,
8,240615_150724,TrueCHOICE,9.0,9,1.0,202.0,,,,,,,,,,,10.0,9.0,,,A,,,,,,True,cue1.png,Easy,cue2.png,Hard,Left,Easy,Easy,0.0163509999983944,,,,,,,,,,,,,15,23,Female,0.8571428571428571,1.25,1.0,1.0,1.4444444444444444,1.75,2.0,2.3333333333333335,2.125,2.3333333333333335,1.25,1.75,1.5,1.75,0.9583333333333334,0.9523809523809524,0.4071011349966283,0.9872359217016373,,,,,,,,,,,,,0.012523716750165045,0.005812212779676621,0.025506041048802133,0.8492678885733286,,,,,,,,,,,,,,,,
9,240615_150751,TrueCHOICE,9.0,10,1.0,202.0,,,,,,,,,,,11.0,10.0,,,A,,,,,,True,cue2.png,Hard,cue1.png,Easy,Right,Easy,Easy,0.0168402999988757,,,,,,,,,,,,,15,23,Female,0.8571428571428571,1.25,1.0,1.0,1.4444444444444444,1.75,2.0,2.3333333333333335,2.125,2.3333333333333335,1.25,1.75,1.5,1.75,0.9362244897959184,0.9285714285714286,0.3886302619052696,-0.13409662538830608,,,,,,,,,,,,,0.006070685961589323,-0.798398673605733,,,189939.32722026002,-0.3783395379280336,,,,,,,,,,,,,,
0,240615_150909,FalseCHOICE,9.0,1,2.0,202.0,,,,,,,,,,,1.0,1.0,,,A,,,,,,False,cue1.png,Easy,cue2.png,Hard,Left,Easy,Mid,0.016276000009384,,,,,,,,,,,,,15,23,Female,0.8571428571428571,1.25,1.0,1.0,1.4444444444444444,1.75,2.0,2.3333333333333335,2.125,2.3333333333333335,1.25,1.75,1.5,1.75,1.0,0.9523809523809524,0.4759193399950163,0.3618587776251237,,,,,,,,,,,,,,,,,,,0.00617458769984791,-0.7891261750451094,0.017714720858047768,0.5402275460982497,5.1381745166625234e+45,-0.1647066435852162,,,,,,,,
1,240615_150938,FalseCHOICE,9.0,2,2.0,202.0,,,,,,,,,,,2.0,2.0,,,A,,,,,,False,cue2.png,Hard,cue1.png,Easy,Left,Hard,Mid,0.0161220000009052,,,,,,,,,,,,,15,23,Female,0.8571428571428571,1.25,1.0,1.0,1.4444444444444444,1.75,2.0,2.3333333333333335,2.125,2.3333333333333335,1.25,1.75,1.5,1.75,1.0,0.9047619047619048,0.4904728842114931,1.006939383208881,,,,,,,,,,,,,,,,,,,,,0.012173593699683832,-0.8058543285870811,2.3673462360414244e+44,-0.1666304721413997,,,,,,,,
2,240615_151007,FalseCHOICE,9.0,3,2.0,202.0,,,,,,,,,,,3.0,3.0,,,A,,,,,,False,cue2.png,Hard,cue1.png,Easy,Right,Easy,Mid,0.0180694000446237,,,,,,,,,,,,,15,23,Female,0.8571428571428571,1.25,1.0,1.0,1.4444444444444444,1.75,2.0,2.3333333333333335,2.125,2.3333333333333335,1.25,1.75,1.5,1.75,0.8903061224489796,0.8333333333333334,0.4659134999965317,-0.08164647646199207,,,,,,,,,,,,,,,,,,,0.02585674561832372,-0.033789359678636534,0.015292032911013314,-0.048305479822160796,-9.210511890874904e+44,-0.16708490623770575,,,,,,,,
3,240615_151036,FalseCHOICE,9.0,4,2.0,202.0,,,,,,,,,,,4.0,4.0,,,A,,,,,,False,cue2.png,Hard,cue1.png,Easy,Right,Easy,Mid,0.0149093000218272,,,,,,,,,,,,,15,23,Female,0.8571428571428571,1.25,1.0,1.0,1.4444444444444444,1.75,2.0,2.3333333333333335,2.125,2.3333333333333335,1.25,1.75,1.5,1.75,0.8903061224489796,0.8809523809523809,0.4592875849921256,-0.37533777254846096,,,,,,,,,,,,,,,,,,,0.007461381641193891,-0.7397432343271735,0.011886306195556598,-0.8756438300868872,,,,,,,,,,
4,240615_151105,FalseCHOICE,9.0,5,2.0,202.0,,,,,,,,,,,5.0,5.0,,,A,,,,,,False,cue1.png,Easy,cue2.png,Hard,Right,Hard,Mid,0.0164968000026419,,,,,,,,,,,,,15,23,Female,0.8571428571428571,1.25,1.0,1.0,1.4444444444444444,1.75,2.0,2.3333333333333335,2.125,2.3333333333333335,1.25,1.75,1.5,1.75,0.9305555555555556,0.9333333333333332,0.4684975476176034,0.03289050363465091,,,,,,,,,,,,,,,,,,,0.03409625948863691,0.2824162206621296,0.0113772751250689,-0.9993005298976655,1.5711286895655895e+49,5.999999662450686,,,,,,,,
5,240615_151133,FalseCHOICE,9.0,6,2.0,202.0,,,,,,,,,,,6.0,6.0,,,A,,,,,,False,cue2.png,Hard,cue1.png,Easy,Right,Easy,Mid,0.0165782999829389,,,,,,,,,,,,,15,23,Female,0.8571428571428571,1.25,1.0,1.0,1.4444444444444444,1.75,2.0,2.3333333333333335,2.125,2.3333333333333335,1.25,1.75,1.5,1.75,0.9305555555555556,0.8857142857142857,0.4583693850028794,-0.4160366563598247,,,,,,,,,,,,,,,,,,,0.01744699497063624,-0.3565280704725143,0.009212615420648392,-1.525151879218167,,,,,,,,,,
6,240615_151202,FalseCHOICE,9.0,7,2.0,202.0,,,,,,,,,,,7.0,7.0,,,A,,,,,,False,cue2.png,Hard,cue1.png,Easy,Right,Easy,Mid,0.0165963000035844,,,,,,,,,,,,,15,23,Female,0.8571428571428571,1.25,1.0,1.0,1.4444444444444444,1.75,2.0,2.3333333333333335,2.125,2.3333333333333335,1.25,1.75,1.5,1.75,0.6333333333333333,0.7047619047619048,0.4445804684288113,-1.0272254170929862,,,,,,,,,,,,,,,,,,,0.02532947743554515,-0.054024187164202826,0.011849581827453283,-0.8845651208009123,,,,,,,,,,
7,240615_151231,FalseCHOICE,9.0,8,2.0,202.0,,,,,,,,,,,8.0,8.0,,,A,,,,,,False,cue1.png,Easy,cue2.png,Hard,Left,Easy,Mid,0.0157596999779343,,,,,,,,,,,,,15,23,Female,0.8571428571428571,1.25,1.0,1.0,1.4444444444444444,1.75,2.0,2.3333333333333335,2.125,2.3333333333333335,1.25,1.75,1.5,1.75,0.7474489795918368,0.6904761904761905,0.4642862315798227,-0.15377456293247074,,,,,,,,,,,,,,,,,,,0.024776352535393634,-0.07525131085210686,0.018557786988933036,0.7450299275474456,,,,,,,,,,
8,240615_151259,FalseCHOICE,9.0,9,2.0,202.0,,,,,,,,,,,9.0,9.0,,,A,,,,,,False,cue1.png,Easy,cue2.png,Hard,Left,Easy,Mid,0.0163503999938257,,,,,,,,,,,,,15,23,Female,0.8571428571428571,1.25,1.0,1.0,1.4444444444444444,1.75,2.0,2.3333333333333335,2.125,2.3333333333333335,1.25,1.75,1.5,1.75,0.7959183673469388,0.8095238095238095,0.45614338000305,-0.5147035262276263,,,,,,,,,,,,,,,,,,,0.03122391218245054,0.17218493017722455,0.015120558816910983,-0.08996093429063144,,,,,,,,,,
9,240615_151328,FalseCHOICE,9.0,10,2.0,202.0,,,,,,,,,,,10.0,10.0,,,A,,,,,,False,cue2.png,Hard,cue1.png,Easy,Right,Easy,Mid,0.0160320999566465,,,,,,,,,,,,,15,23,Female,0.8571428571428571,1.25,1.0,1.0,1.4444444444444444,1.75,2.0,2.3333333333333335,2.125,2.3333333333333335,1.25,1.75,1.5,1.75,0.775,0.7714285714285715,0.4829957210581357,0.6755168195177936,,,,,,,,,,,,,,,,,,,0.01201977585053682,-0.5648069809177864,,,4.1919533159076466e+44,-0.16655885581475594,,,,,,,,
10,240615_151357,FalseCHOICE,9.0,11,2.0,202.0,,,,,,,,,,,11.0,11.0,,,A,,,,,,False,cue1.png,Easy,cue2.png,Hard,Left,Easy,Mid,0.0161795000312849,,,,,,,,,,,,,15,23,Female,0.8571428571428571,1.25,1.0,1.0,1.4444444444444444,1.75,2.0,2.3333333333333335,2.125,2.3333333333333335,1.25,1.75,1.5,1.75,0.725,0.7523809523809524,0.4567711549985688,-0.4868776256596307,,,,,,,,,,,,,,,,,,,0.009769423185198276,-0.6511681524279833,0.019433568959471695,0.9577798253618036,2.6823772340226093e+44,-0.16661810708861477,,,,,,,,
11,240615_151425,FalseCHOICE,9.0,12,2.0,202.0,,,,,,,,,,,12.0,12.0,,,A,,,,,,False,cue2.png,Hard,cue1.png,Easy,Right,Easy,Mid,0.0159928000066429,,,,,,,,,,,,,15,23,Female,0.8571428571428571,1.25,1.0,1.0,1.4444444444444444,1.75,2.0,2.3333333333333335,2.125,2.3333333333333335,1.25,1.75,1.5,1.75,0.9305555555555556,0.9333333333333332,0.4303011285678838,-1.6601520133783654,,,,,,,,,,,,,,,,,,,0.016649246001531656,-0.387143065448228,0.015826154806954942,0.08144642488090195,-3.424905038596131e+43,-0.1667368339741787,,,,,,,,
12,240615_151455,FalseCHOICE,9.0,13,2.0,202.0,,,,,,,,,,,13.0,13.0,,,A,,,,,,False,cue1.png,Easy,cue2.png,Hard,Right,Hard,Mid,0.0165985000203363,,,,,,,,,,,,,15,23,Female,0.8571428571428571,1.25,1.0,1.0,1.4444444444444444,1.75,2.0,2.3333333333333335,2.125,2.3333333333333335,1.25,1.75,1.5,1.75,1.0,0.9047619047619048,0.5216988421100388,2.3910187202765876,,,,,,,,,,,,,,,,,,,0.043247984408421515,0.6336294760710369,0.01601203351137166,0.12660112856382735,,,,,,,,,,
13,240615_151523,FalseCHOICE,9.0,14,2.0,202.0,,,,,,,,,,,14.0,14.0,,,A,,,,,,False,cue2.png,Hard,cue1.png,Easy,Right,Easy,Mid,0.0167866999981924,,,,,,,,,,,,,15,23,Female,0.8571428571428571,1.25,1.0,1.0,1.4444444444444444,1.75,2.0,2.3333333333333335,2.125,2.3333333333333335,1.25,1.75,1.5,1.75,0.8777777777777778,0.8857142857142857,0.4416201399988494,-1.158440908517036,,,,,,,,,,,,,,,,,,,0.02449265692857085,-0.08613861991031883,0.01849291534703007,0.7292709422632236,,,,,,,,,,
14,240615_151550,FalseCHOICE,9.0,15,2.0,202.0,,,,,,,,,,,15.0,15.0,,,A,,,,,,False,cue1.png,Easy,cue2.png,Hard,Left,Easy,Mid,0.0162249999702908,,,,,,,,,,,,,15,23,Female,0.8571428571428571,1.25,1.0,1.0,1.4444444444444444,1.75,2.0,2.3333333333333335,2.125,2.3333333333333335,1.25,1.75,1.5,1.75,0.7474489795918368,0.7857142857142857,0.4352835904768047,-1.439306183819825,,,,,,,,,,,,,,,,,,,0.02116034424522869,-0.21402187643465692,,,,,,,,,,,,
15,240615_151619,FalseCHOICE,9.0,16,2.0,202.0,,,,,,,,,,,16.0,16.0,,,A,,,,,,False,cue1.png,Easy,cue2.png,Hard,Left,Easy,Mid,0.0162249999702908,,,,,,,,,,,,,15,23,Female,0.8571428571428571,1.25,1.0,1.0,1.4444444444444444,1.75,2.0,2.3333333333333335,2.125,2.3333333333333335,1.25,1.75,1.5,1.75,0.9305555555555556,0.9333333333333332,0.4421122714272877,-1.136627360204567,,,,,,,,,,,,,,,,,,,,,0.014351721720406833,-0.27673117987645923,,,,,,,,,,
16,240615_151648,FalseCHOICE,9.0,17,2.0,202.0,,,,,,,,,,,17.0,17.0,,,A,,,,,,False,cue2.png,Hard,cue1.png,Easy,Right,Easy,Mid,0.0173298000008799,,,,,,,,,,,,,15,23,Female,0.8571428571428571,1.25,1.0,1.0,1.4444444444444444,1.75,2.0,2.3333333333333335,2.125,2.3333333333333335,1.25,1.75,1.5,1.75,0.8388888888888889,0.819047619047619,0.5002440600073896,1.4400432310362798,,,,,,,,,,,,,,,,,,,0.0303422556244759,0.1383498365098579,0.012668549826592644,-0.685616793487251,,,,,,,,,,
17,240615_151717,FalseCHOICE,9.0,18,2.0,202.0,,,,,,,,,,,18.0,18.0,,,A,,,,,,False,cue2.png,Hard,cue1.png,Easy,Right,Easy,Mid,0.0178172999876551,,,,,,,,,,,,,15,23,Female,0.8571428571428571,1.25,1.0,1.0,1.4444444444444444,1.75,2.0,2.3333333333333335,2.125,2.3333333333333335,1.25,1.75,1.5,1.75,0.9362244897959184,0.9285714285714286,0.4739365714208577,0.2739732747176885,,,,,,,,,,,,,,,,,,,0.015485853537666162,-0.43179026126473063,0.013987131646465915,-0.365299457809095,,,,,,,,,,
18,240615_151747,FalseCHOICE,9.0,19,2.0,202.0,,,,,,,,,,,19.0,19.0,,,A,,,,,,False,cue1.png,Easy,cue2.png,Hard,Left,Easy,Mid,0.0159685999969951,,,,,,,,,,,,,15,23,Female,0.8571428571428571,1.25,1.0,1.0,1.4444444444444444,1.75,2.0,2.3333333333333335,2.125,2.3333333333333335,1.25,1.75,1.5,1.75,0.9305555555555556,0.7904761904761906,0.490120850002212,0.9913355936761468,,,,,,,,,,,,,,,,,,,0.017873999578345314,-0.3401410309075578,0.01839122053260024,0.7045666641369123,,,,,,,,,,
19,240615_151815,FalseCHOICE,9.0,20,2.0,202.0,,,,,,,,,,,20.0,20.0,,,A,,,,,,False,cue1.png,Easy,cue2.png,Hard,Left,Easy,Mid,0.0161856999620795,,,,,,,,,,,,,15,23,Female,0.8571428571428571,1.25,1.0,1.0,1.4444444444444444,1.75,2.0,2.3333333333333335,2.125,2.3333333333333335,1.25,1.75,1.5,1.75,0.9305555555555556,0.8857142857142857,0.4592910050065256,-0.3751861816419814,,,,,,,,,,,,,,,,,,,0.06852699258533905,1.6037550898916668,0.019342678994259826,0.9357003221730334,,,,,,,,,,
20,240615_151844,FalseCHOICE,9.0,21,2.0,202.0,,,,,,,,,,,21.0,21.0,,,A,,,,,,False,cue1.png,Easy,cue2.png,Hard,Left,Easy,Mid,0.0161790000274777,,,,,,,,,,,,,15,23,Female,0.8571428571428571,1.25,1.0,1.0,1.4444444444444444,1.75,2.0,2.3333333333333335,2.125,2.3333333333333335,1.25,1.75,1.5,1.75,0.725,0.7523809523809524,0.4840512149967253,0.722301208184062,,,,,,,,,,,,,,,,,,,0.05895767611793945,1.2365160373620394,,,3.1324203537287587e+43,-0.16671109629276837,,,,,,,,
21,240615_151914,FalseCHOICE,9.0,22,2.0,202.0,,,,,,,,,,,22.0,22.0,,,A,,,,,,False,cue2.png,Hard,cue1.png,Easy,Right,Easy,Mid,0.0162800000398419,,,,,,,,,,,,,15,23,Female,0.8571428571428571,1.25,1.0,1.0,1.4444444444444444,1.75,2.0,2.3333333333333335,2.125,2.3333333333333335,1.25,1.75,1.5,1.75,0.8388888888888889,0.7714285714285715,0.5086407947390782,1.8122254737309116,,,,,,,,,,,,,,,,,,,0.012710480495838982,-0.5382999968105393,0.015122199355439252,-0.08956240541473419,-3.851493115221869e+43,-0.1667385083440403,,,,,,,,
22,240615_151944,FalseCHOICE,9.0,23,2.0,202.0,,,,,,,,,,,23.0,23.0,,,A,,,,,,False,cue1.png,Easy,cue2.png,Hard,Left,Easy,Mid,0.0160728000337257,,,,,,,,,,,,,15,23,Female,0.8571428571428571,1.25,1.0,1.0,1.4444444444444444,1.75,2.0,2.3333333333333335,2.125,2.3333333333333335,1.25,1.75,1.5,1.75,0.6785714285714286,0.7380952380952381,0.501163330001873,1.4807895424443913,,,,,,,,,,,,,,,,,,,0.009252830234012313,-0.6709932994573793,0.011853329349703989,-0.8836547515506703,-9.341894527011417e+43,-0.1667600583196625,,,,,,,,
23,240615_152013,FalseCHOICE,9.0,24,2.0,202.0,,,,,,,,,,,24.0,24.0,,,A,,,,,,False,cue2.png,Hard,cue1.png,Easy,Right,Easy,Mid,0.0160070999991148,,,,,,,,,,,,,15,23,Female,0.8571428571428571,1.25,1.0,1.0,1.4444444444444444,1.75,2.0,2.3333333333333335,2.125,2.3333333333333335,1.25,1.75,1.5,1.75,0.9305555555555556,0.8857142857142857,0.4970914450008422,1.3003047063617452,,,,,,,,,,,,,,,,,,,,,,,-1.1900211962245268e+44,-0.1667700997855278,,,,,,,,
24,240615_152044,FalseCHOICE,9.0,25,2.0,202.0,,,,,,,,,,,25.0,25.0,,,A,,,,,,False,cue2.png,Hard,cue1.png,Easy,Right,Easy,Mid,0.0167344999499619,,,,,,,,,,,,,15,23,Female,0.8571428571428571,1.25,1.0,1.0,1.4444444444444444,1.75,2.0,2.3333333333333335,2.125,2.3333333333333335,1.25,1.75,1.5,1.75,0.8333333333333334,0.7142857142857143,0.5032043600144486,1.5712574626253926,,,,,,,,,,,,,,,,,,,0.006697238125769214,-0.7690685619571286,,,-1.0595376468359877e+44,-0.1667649782705464,,,,,,,,
25,240615_152114,FalseCHOICE,9.0,26,2.0,202.0,,,,,,,,,,,26.0,26.0,,,A,,,,,,False,cue1.png,Easy,cue2.png,Hard,Left,Easy,Mid,0.0156067000352777,,,,,,,,,,,,,15,23,Female,0.8571428571428571,1.25,1.0,1.0,1.4444444444444444,1.75,2.0,2.3333333333333335,2.125,2.3333333333333335,1.25,1.75,1.5,1.75,0.9642857142857144,0.8095238095238095,0.4716672705904142,0.17338733275195795,,,,,,,,,,,,,,,,,,,0.03823607449912522,0.4412887741280919,0.01288871268327838,-0.6321335900894941,-7.407929203192339e+43,-0.1667524674529013,,,,,,,,
26,240615_152142,FalseCHOICE,9.0,27,2.0,202.0,,,,,,,,,,,27.0,27.0,,,A,,,,,,False,cue1.png,Easy,cue2.png,Hard,Left,Easy,Mid,0.0168858999968506,,,,,,,,,,,,,15,23,Female,0.8571428571428571,1.25,1.0,1.0,1.4444444444444444,1.75,2.0,2.3333333333333335,2.125,2.3333333333333335,1.25,1.75,1.5,1.75,0.9642857142857144,0.9523809523809524,0.4738407249969896,0.2697249165011461,,,,,,,,,,,,,,,,,,,,,0.01176242272500854,-0.9057383017551912,2.5044681942502705e+44,-0.16662509006705753,,,,,,,,
27,240615_152211,FalseCHOICE,9.0,28,2.0,202.0,,,,,,,,,,,28.0,28.0,,,A,,,,,,False,cue2.png,Hard,cue1.png,Easy,Right,Easy,Mid,0.0166142000234685,,,,,,,,,,,,,15,23,Female,0.8571428571428571,1.25,1.0,1.0,1.4444444444444444,1.75,2.0,2.3333333333333335,2.125,2.3333333333333335,1.25,1.75,1.5,1.75,0.9642857142857144,0.9523809523809524,0.4485487799916882,-0.8513314363520297,,,,,,,,,,,,,,,,,,,0.012768694399310252,-0.5360659376875423,,,3.4274803777707066e+43,-0.1667099381741085,,,,,,,,
28,240615_152241,FalseCHOICE,9.0,29,2.0,202.0,,,,,,,,,,,29.0,29.0,,,A,,,,,,False,cue1.png,Easy,cue2.png,Hard,Left,Easy,Mid,0.0151439999463036,,,,,,,,,,,,,15,23,Female,0.8571428571428571,1.25,1.0,1.0,1.4444444444444444,1.75,2.0,2.3333333333333335,2.125,2.3333333333333335,1.25,1.75,1.5,1.75,0.9642857142857144,0.9523809523809524,0.4688705950073199,0.0494256948217784,,,,,,,,,,,,,,,,,,,0.03278440940922831,0.2320717073560662,,,8.046949926487319e+43,-0.16669180662985592,,,,,,,,
29,240615_152310,FalseCHOICE,9.0,30,2.0,202.0,,,,,,,,,,,30.0,30.0,,,A,,,,,,False,cue1.png,Easy,cue2.png,Hard,Left,Easy,Mid,0.0158958999672904,,,,,,,,,,,,,15,23,Female,0.8571428571428571,1.25,1.0,1.0,1.4444444444444444,1.75,2.0,2.3333333333333335,2.125,2.3333333333333335,1.25,1.75,1.5,1.75,0.8250000000000001,0.8380952380952381,0.4552278789464923,-0.555282780819658,,,,,,,,,,,,,,,,,,,0.011475590297439456,-0.5856910417178044,0.012464196867264762,-0.7352593674127318,1.0127276640244622e+44,-0.16668364129063837,,,,,,,,
30,240615_152340,FalseCHOICE,9.0,31,2.0,202.0,,,,,,,,,,,31.0,31.0,,,A,,,,,,False,cue2.png,Hard,cue1.png,Easy,Left,Hard,Mid,0.0143338000052608,,,,,,,,,,,,,15,23,Female,0.8571428571428571,1.25,1.0,1.0,1.4444444444444444,1.75,2.0,2.3333333333333335,2.125,2.3333333333333335,1.25,1.75,1.5,1.75,0.9642857142857144,0.9523809523809524,0.4960725449927849,1.2551423304861324,,,,,,,,,,,,,,,,,,,0.026378352821180527,-0.013771782078152276,,,9.72428627674234e+43,-0.1666852230388309,,,,,,,,
31,240615_152408,FalseCHOICE,9.0,32,2.0,202.0,,,,,,,,,,,32.0,32.0,,,A,,,,,,False,cue1.png,Easy,cue2.png,Hard,Left,Easy,Mid,0.0158228000509552,,,,,,,,,,,,,15,23,Female,0.8571428571428571,1.25,1.0,1.0,1.4444444444444444,1.75,2.0,2.3333333333333335,2.125,2.3333333333333335,1.25,1.75,1.5,1.75,0.8520408163265305,0.8571428571428572,0.4578007428568699,-0.4412415146714484,,,,,,,,,,,,,,,,,,,,,0.0159756062663344,0.11775201666150197,7.102476282148703e+43,-0.16669551371472724,,,,,,,,
32,240615_152438,FalseCHOICE,9.0,33,2.0,202.0,,,,,,,,,,,33.0,33.0,,,A,,,,,,False,cue2.png,Hard,cue1.png,Easy,Right,Easy,Mid,0.0166908000246621,,,,,,,,,,,,,15,23,Female,0.8571428571428571,1.25,1.0,1.0,1.4444444444444444,1.75,2.0,2.3333333333333335,2.125,2.3333333333333335,1.25,1.75,1.5,1.75,1.0,0.9523809523809524,0.5055635750002694,1.6758288171434599,,,,,,,,,,,,,,,,,,,,,0.017480271231868297,0.483273720043098,2.8798277770248453e+43,-0.16671208772553658,,,,,,,,
33,240615_152506,FalseCHOICE,9.0,34,2.0,202.0,,,,,,,,,,,34.0,34.0,,,A,,,,,,False,cue2.png,Hard,cue1.png,Easy,Right,Easy,Mid,0.0161611000075936,,,,,,,,,,,,,15,23,Female,0.8571428571428571,1.25,1.0,1.0,1.4444444444444444,1.75,2.0,2.3333333333333335,2.125,2.3333333333333335,1.25,1.75,1.5,1.75,1.0,1.0,0.4366478571485329,-1.378835554969171,,,,,,,,,,,,,,,,,,,0.009850269273235457,-0.6480655441202063,0.019809928548135746,1.049207220219547,-2.1989607212018028e+43,-0.16673202210922158,,,,,,,,
34,240615_152535,FalseCHOICE,9.0,35,2.0,202.0,,,,,,,,,,,35.0,35.0,,,A,,,,,,False,cue2.png,Hard,cue1.png,Easy,Right,Easy,Mid,0.0165671999566257,,,,,,,,,,,,,15,23,Female,0.8571428571428571,1.25,1.0,1.0,1.4444444444444444,1.75,2.0,2.3333333333333335,2.125,2.3333333333333335,1.25,1.75,1.5,1.75,0.8520408163265305,0.761904761904762,0.4791579631610626,0.5054095829915236,,,,,,,,,,,,,,,,,,,0.006281604421377864,-0.7850192234615376,0.014160331426595089,-0.3232247899539357,-6.789161473478133e+43,-0.16675003877264805,,,,,,,,
35,240615_152603,FalseCHOICE,9.0,36,2.0,202.0,,,,,,,,,,,36.0,36.0,,,A,,,,,,False,cue1.png,Easy,cue2.png,Hard,Right,Hard,Mid,0.0171858999528922,,,,,,,,,,,,,15,23,Female,0.8571428571428571,1.25,1.0,1.0,1.4444444444444444,1.75,2.0,2.3333333333333335,2.125,2.3333333333333335,1.25,1.75,1.5,1.75,0.8520408163265305,0.8571428571428572,0.4717419095215432,0.17669567649123236,,,,,,,,,,,,,,,,,,,,,0.016252781637349768,0.18508502172885558,-9.12201820212295e+43,-0.16675919529907698,,,,,,,,
36,240615_152632,FalseCHOICE,9.0,37,2.0,202.0,,,,,,,,,,,37.0,37.0,,,A,,,,,,False,cue2.png,Hard,cue1.png,Easy,Right,Easy,Mid,0.016568399965763,,,,,,,,,,,,,15,23,Female,0.8571428571428571,1.25,1.0,1.0,1.4444444444444444,1.75,2.0,2.3333333333333335,2.125,2.3333333333333335,1.25,1.75,1.5,1.75,0.9362244897959184,0.8333333333333334,0.4267279789446069,-1.8185305834736996,,,,,,,,,,,,,,,,,,,0.0321828214856064,0.2089847314119828,0.02667294197293076,2.7164091653859366,-8.493895119166025e+43,-0.16675672989880652,,,,,,,,
37,240615_152701,FalseCHOICE,9.0,38,2.0,202.0,,,,,,,,,,,38.0,38.0,,,A,,,,,,False,cue1.png,Easy,cue2.png,Hard,Left,Easy,Mid,0.0160761000006459,,,,,,,,,,,,,15,23,Female,0.8571428571428571,1.25,1.0,1.0,1.4444444444444444,1.75,2.0,2.3333333333333335,2.125,2.3333333333333335,1.25,1.75,1.5,1.75,0.9305555555555556,0.9333333333333332,0.4512353523806225,-0.7322500828466563,,,,,,,,,,,,,,,,,,,0.06416404681155496,1.436319507876893,0.012644473577244828,-0.6914655318271719,-5.766718547800812e+43,-0.16674602565621616,,,,,,,,
38,240615_152729,FalseCHOICE,9.0,39,2.0,202.0,,,,,,,,,,,39.0,39.0,,,A,,,,,,False,cue1.png,Easy,cue2.png,Hard,Left,Easy,Mid,0.0158728000242263,,,,,,,,,,,,,15,23,Female,0.8571428571428571,1.25,1.0,1.0,1.4444444444444444,1.75,2.0,2.3333333333333335,2.125,2.3333333333333335,1.25,1.75,1.5,1.75,0.8520408163265305,0.8571428571428572,0.4527242857175657,-0.6662536489620681,,,,,,,,,,,,,,,,,,,0.026679645517745296,-0.0022091542982592503,0.009693610110751058,-1.408305935123599,-4.5841198349130273e+42,-0.1667251904078479,,,,,,,,
39,240615_152758,FalseCHOICE,9.0,40,2.0,202.0,,,,,,,,,,,40.0,40.0,,,A,,,,,,False,cue2.png,Hard,cue1.png,Easy,Right,Easy,Mid,0.0165833999635651,,,,,,,,,,,,,15,23,Female,0.8571428571428571,1.25,1.0,1.0,1.4444444444444444,1.75,2.0,2.3333333333333335,2.125,2.3333333333333335,1.25,1.75,1.5,1.75,0.8388888888888889,0.8666666666666667,0.4856735666731505,0.7942113619123419,,,,,,,,,,,,,,,,,,,0.013387081335802062,-0.5123342706005969,0.013904230623209082,-0.3854382421411693,4.682753560658625e+43,-0.1667050111925526,,,,,,,,
40,240615_152827,FalseCHOICE,9.0,41,2.0,202.0,,,,,,,,,,,41.0,41.0,,,A,,,,,,False,cue2.png,Hard,cue1.png,Easy,Right,Easy,Mid,0.0163858999731019,,,,,,,,,,,,,15,23,Female,0.8571428571428571,1.25,1.0,1.0,1.4444444444444444,1.75,2.0,2.3333333333333335,2.125,2.3333333333333335,1.25,1.75,1.5,1.75,0.725,0.7523809523809524,0.4767188750003697,0.3972978787655086,,,,,,,,,,,,,,,,,,,0.018962183336378436,-0.29838009911690844,0.022634805856928314,1.7354423552201805,8.273384529766975e+43,-0.1666909178678484,,,,,,,,
41,240615_152855,FalseCHOICE,9.0,42,2.0,202.0,,,,,,,,,,,42.0,42.0,,,A,,,,,,False,cue1.png,Easy,cue2.png,Hard,Left,Easy,Mid,0.0150617999606765,,,,,,,,,,,,,15,23,Female,0.8571428571428571,1.25,1.0,1.0,1.4444444444444444,1.75,2.0,2.3333333333333335,2.125,2.3333333333333335,1.25,1.75,1.5,1.75,0.7000000000000001,0.7714285714285715,0.4369802473719525,-1.3641024780344886,,,,,,,,,,,,,,,,,,,,,0.013690470641279623,-0.43736602307541256,9.219023547514132e+43,-0.16668720620885455,,,,,,,,
42,240615_152924,FalseCHOICE,9.0,43,2.0,202.0,,,,,,,,,,,43.0,43.0,,,A,,,,,,False,cue2.png,Hard,cue1.png,Easy,Right,Easy,Mid,0.0166711999918334,,,,,,,,,,,,,15,23,Female,0.8571428571428571,1.25,1.0,1.0,1.4444444444444444,1.75,2.0,2.3333333333333335,2.125,2.3333333333333335,1.25,1.75,1.5,1.75,0.0964285714285714,0.5952380952380951,0.480686324997805,0.5731536709285823,,,,,,,,,,,,,,,,,,,0.006199980781221491,-0.7881516716752804,,,6.297991694347392e+43,-0.1666986713387251,,,,,,,,
43,240615_152953,FalseCHOICE,9.0,44,2.0,202.0,,,,,,,,,,,44.0,44.0,,,A,,,,,,False,cue1.png,Easy,cue2.png,Hard,Left,Easy,Mid,0.0163891999982297,,,,,,,,,,,,,15,23,Female,0.8571428571428571,1.25,1.0,1.0,1.4444444444444444,1.75,2.0,2.3333333333333335,2.125,2.3333333333333335,1.25,1.75,1.5,1.75,0.775,0.819047619047619,0.4506932949967449,-0.7562765811519317,,,,,,,,,,,,,,,,,,,0.16049274828678928,5.133099855949914,0.028635172786419187,3.1930853463320705,4.7195955221751127e+42,-0.1667215386741384,,,,,,,,
44,240615_153021,FalseCHOICE,9.0,45,2.0,202.0,,,,,,,,,,,45.0,45.0,,,A,,,,,,False,cue2.png,Hard,cue1.png,Easy,Right,Easy,Mid,0.0148579999804496,,,,,,,,,,,,,15,23,Female,0.8571428571428571,1.25,1.0,1.0,1.4444444444444444,1.75,2.0,2.3333333333333335,2.125,2.3333333333333335,1.25,1.75,1.5,1.75,1.0,1.0,0.4558472285751209,-0.5278303316044713,,,,,,,,,,,,,,,,,,,0.02030989827183571,-0.2466592099955716,0.013002146095593239,-0.6045777055308329,-5.753957678102398e+43,-0.16674597556945378,,,,,,,,
45,240615_153050,FalseCHOICE,9.0,46,2.0,202.0,,,,,,,,,,,46.0,46.0,,,A,,,,,,False,cue2.png,Hard,cue1.png,Easy,Right,Easy,Mid,0.0166270000045187,,,,,,,,,,,,,15,23,Female,0.8571428571428571,1.25,1.0,1.0,1.4444444444444444,1.75,2.0,2.3333333333333335,2.125,2.3333333333333335,1.25,1.75,1.5,1.75,0.8777777777777778,0.8857142857142857,0.449689314988791,-0.8007776333967613,,,,,,,,,,,,,,,,,,,,,,,-9.962056093912162e+43,-0.16676249247076483,,,,,,,,
46,240615_153118,FalseCHOICE,9.0,47,2.0,202.0,,,,,,,,,,,47.0,47.0,,,A,,,,,,False,cue1.png,Easy,cue2.png,Hard,Left,Easy,Mid,0.0143212999682873,,,,,,,,,,,,,15,23,Female,0.8571428571428571,1.25,1.0,1.0,1.4444444444444444,1.75,2.0,2.3333333333333335,2.125,2.3333333333333335,1.25,1.75,1.5,1.75,0.7474489795918368,0.7380952380952381,0.4556250499881571,-0.5376783174486391,,,,,,,,,,,,,,,,,,,0.022010549223927856,-0.18139379146148848,0.017977534542911438,0.6040717293309446,-6.86020983198619e+43,-0.16675031763939732,,,,,,,,
47,240615_153148,FalseCHOICE,9.0,48,2.0,202.0,,,,,,,,,,,48.0,48.0,,,A,,,,,,False,cue1.png,Easy,cue2.png,Hard,Left,Easy,Mid,0.0161433999892324,,,,,,,,,,,,,15,23,Female,0.8571428571428571,1.25,1.0,1.0,1.4444444444444444,1.75,2.0,2.3333333333333335,2.125,2.3333333333333335,1.25,1.75,1.5,1.75,0.9583333333333334,0.9047619047619048,0.4924599842082611,1.095016874863412,,,,,,,,,,,,,,,,,,,0.026570525156700282,-0.006396836682720247,0.011509678359829176,-0.9671363890348278,2.954298039766677e+43,-0.16671179542771966,,,,,,,,
48,240615_153216,FalseCHOICE,9.0,49,2.0,202.0,,,,,,,,,,,49.0,49.0,,,A,,,,,,False,cue2.png,Hard,cue1.png,Easy,Right,Easy,Mid,0.0166664999560453,,,,,,,,,,,,,15,23,Female,0.8571428571428571,1.25,1.0,1.0,1.4444444444444444,1.75,2.0,2.3333333333333335,2.125,2.3333333333333335,1.25,1.75,1.5,1.75,0.8388888888888889,0.8666666666666667,0.4411931523687339,-1.177366981431965,,,,,,,,,,,,,,,,,,,,,0.017764455868188228,0.5523094553874658,1.2432057509176532e+44,-0.1666745949627263,,,,,,,,
49,240615_153244,FalseCHOICE,9.0,50,2.0,202.0,,,,,,,,,,,50.0,50.0,,,A,,,,,,False,cue1.png,Easy,cue2.png,Hard,Right,Hard,Mid,0.0156504000187851,,,,,,,,,,,,,15,23,Female,0.8571428571428571,1.25,1.0,1.0,1.4444444444444444,1.75,2.0,2.3333333333333335,2.125,2.3333333333333335,1.25,1.75,1.5,1.75,0.8520408163265305,0.8571428571428572,0.4543842523763444,-0.5926762246889143,,,,,,,,,,,,,,,,,,,0.021201474771557635,-0.21244342142477765,0.012045521933971057,-0.8369662445489254,-5.661076073553732e+43,-0.16674561100661697,,,,,,,,
0,240615_143540,OFFLINERATING,9.0,1,1.0,,,,,,,,,,,,,,,,,T0,cue1.png,Easy,51.0,1.0557204999495298,,,,,,,,,,,,,,,,,,,,,,15,23,Female,0.8571428571428571,1.25,1.0,1.0,1.4444444444444444,1.75,2.0,2.3333333333333335,2.125,2.3333333333333335,1.25,1.75,1.5,1.75,,,,,,,,,,,,,,,,,,,,,,,,,,,,,0.2637755955073034,,,0.017823552271552016,0.8353481872730072,23961224.53202639,1.7319153207377234,
1,240615_143547,OFFLINERATING,9.0,2,3.0,,,,,,,,,,,,,,,,,T0,cue2.png,Hard,46.0,0.8692988000111654,,,,,,,,,,,,,,,,,,,,,,15,23,Female,0.8571428571428571,1.25,1.0,1.0,1.4444444444444444,1.75,2.0,2.3333333333333335,2.125,2.3333333333333335,1.25,1.75,1.5,1.75,,,,,,,,,,,,,,,,,,,,,,,,,,,,,0.07536445585922953,,,0.018321402255469577,1.1250042511491816,323364.55995130516,-0.5568891889562746,
2,240615_150244,OFFLINERATING,9.0,3,1.0,,,,,,,,,,,,,,,,,T1,cue1.png,Easy,75.0,0.5737061999971047,,,,,,,,,,,,,,,,,,,,,,15,23,Female,0.8571428571428571,1.25,1.0,1.0,1.4444444444444444,1.75,2.0,2.3333333333333335,2.125,2.3333333333333335,1.25,1.75,1.5,1.75,,,,,,,,,,,,,,,,,,,,,,,,,,,,,1.1681490658180578,0.006905153113838705,-0.3912129579432066,,,1688.2151901007257,-0.5880364361868238,
3,240615_150251,OFFLINERATING,9.0,4,3.0,,,,,,,,,,,,,,,,,T1,cue2.png,Hard,3.0,0.534582499996759,,,,,,,,,,,,,,,,,,,,,,15,23,Female,0.8571428571428571,1.25,1.0,1.0,1.4444444444444444,1.75,2.0,2.3333333333333335,2.125,2.3333333333333335,1.25,1.75,1.5,1.75,,,,,,,,,,,,,,,,,,,,,,,,,,,,,-1.5449713451142055,,,,,12498.534481541203,-0.586989695594625,
4,240615_150804,OFFLINERATING,9.0,5,1.0,,,,,,,,,,,,,,,,,T2,cue1.png,Easy,89.0,1.2028020999860018,,,,,,,,,,,,,,,,,,,,,,15,23,Female,0.8571428571428571,1.25,1.0,1.0,1.4444444444444444,1.75,2.0,2.3333333333333335,2.125,2.3333333333333335,1.25,1.75,1.5,1.75,,,,,,,,,,,,,,,,,,,,,,,,,,,,,1.6957002568326645,0.013605033558863529,1.6827484750733357,0.015115363586723001,-0.7403137591406801,,,
5,240615_150811,OFFLINERATING,9.0,6,3.0,,,,,,,,,,,,,,,,,T2,cue2.png,Hard,40.0,0.5012607999960892,,,,,,,,,,,,,,,,,,,,,,15,23,Female,0.8571428571428571,1.25,1.0,1.0,1.4444444444444444,1.75,2.0,2.3333333333333335,2.125,2.3333333333333335,1.25,1.75,1.5,1.75,,,,,,,,,,,,,,,,,,,,,,,,,,,,,-0.15072891171845906,0.007055397049410509,-0.3447046462684913,,,,,
6,240615_153257,OFFLINERATING,9.0,7,1.0,,,,,,,,,,,,,,,,,T3,cue1.png,Easy,31.0,0.646373700001277,,,,,,,,,,,,,,,,,,,,,,15,23,Female,0.8571428571428571,1.25,1.0,1.0,1.4444444444444444,1.75,2.0,2.3333333333333335,2.125,2.3333333333333335,1.25,1.75,1.5,1.75,,,,,,,,,,,,,,,,,,,,,,,,,,,,,-0.489868963084992,,,,,,,
7,240615_153303,OFFLINERATING,9.0,8,3.0,,,,,,,,,,,,,,,,,T3,cue2.png,Hard,17.0,0.4694004000048153,,,,,,,,,,,,,,,,,,,,,,15,23,Female,0.8571428571428571,1.25,1.0,1.0,1.4444444444444444,1.75,2.0,2.3333333333333335,2.125,2.3333333333333335,1.25,1.75,1.5,1.75,,,,,,,,,,,,,,,,,,,,,,,,,,,,,-1.0174201540995986,0.005110243367492422,-0.9468308708616365,0.014290830377989411,-1.2200386792815074,,,
0,240615_150824,LEARNINGCHECK,9.0,1,,,,,,,,,,,,1.0,1.0,1.0,,,A,,,,,,,,,,,,,,,cue1.png,Easy,Left,Left,Easy,0.0122578000300563,1.0,,,,,,15,23,Female,0.8571428571428571,1.25,1.0,1.0,1.4444444444444444,1.75,2.0,2.3333333333333335,2.125,2.3333333333333335,1.25,1.75,1.5,1.75,,,,,,,,,,,,,,,,,,,,,,,,,,,,,,,,,,,,
1,240615_150829,LEARNINGCHECK,9.0,2,,,,,,,,,,,,2.0,2.0,2.0,,,A,,,,,,,,,,,,,,,cue2.png,Hard,Right,Right,Hard,0.0148518999922089,1.0,,,,,,15,23,Female,0.8571428571428571,1.25,1.0,1.0,1.4444444444444444,1.75,2.0,2.3333333333333335,2.125,2.3333333333333335,1.25,1.75,1.5,1.75,,,,,,,,,,,,,,,,,,,,,,,,,,,,,,,,,,,,
2,240615_153314,LEARNINGCHECK,9.0,1,,,,,,,,,,,,1.0,1.0,1.0,,,A,,,,,,,,,,,,,,,cue1.png,Easy,Middle,Middle,Mid,0.0135227999999187,1.0,,,,,,15,23,Female,0.8571428571428571,1.25,1.0,1.0,1.4444444444444444,1.75,2.0,2.3333333333333335,2.125,2.3333333333333335,1.25,1.75,1.5,1.75,,,,,,,,,,,,,,,,,,,,,,,,,,,,,,,,,,,,
3,240615_153318,LEARNINGCHECK,9.0,2,,,,,,,,,,,,2.0,2.0,2.0,,,A,,,,,,,,,,,,,,,cue2.png,Hard,Middle,Middle,Mid,0.0157656000228598,1.0,,,,,,15,23,Female,0.8571428571428571,1.25,1.0,1.0,1.4444444444444444,1.75,2.0,2.3333333333333335,2.125,2.3333333333333335,1.25,1.75,1.5,1.75,,,,,,,,,,,,,,,,,,,,,,,,,,,,,,,,,,,,
0,240615_153327,DEMANDRATING,9.0,-1,,,,,,,,,,,,,,,,,,,,,,,,,,,,,,,,,,,,,,,1.0,MentalDemand,1.0,4.0,2.7766807000152767,15,23,Female,0.8571428571428571,1.25,1.0,1.0,1.4444444444444444,1.75,2.0,2.3333333333333335,2.125,2.3333333333333335,1.25,1.75,1.5,1.75,,,,,,,,,,,,,,,,,,,,,,,,,,,,,,,,,,,,-1.2625002693188347
1,240615_153332,DEMANDRATING,9.0,-1,,,,,,,,,,,,,,,,,,,,,,,,,,,,,,,,,,,,,,,2.0,Effort,1.0,3.0,2.978283600008581,15,23,Female,0.8571428571428571,1.25,1.0,1.0,1.4444444444444444,1.75,2.0,2.3333333333333335,2.125,2.3333333333333335,1.25,1.75,1.5,1.75,,,,,,,,,,,,,,,,,,,,,,,,,,,,,,,,,,,,-1.2899459273475051
2,240615_153336,DEMANDRATING,9.0,-1,,,,,,,,,,,,,,,,,,,,,,,,,,,,,,,,,,,,,,,3.0,Frustration,1.0,12.0,2.668151000048965,15,23,Female,0.8571428571428571,1.25,1.0,1.0,1.4444444444444444,1.75,2.0,2.3333333333333335,2.125,2.3333333333333335,1.25,1.75,1.5,1.75,,,,,,,,,,,,,,,,,,,,,,,,,,,,,,,,,,,,-1.0429350050894723
3,240615_153339,DEMANDRATING,9.0,-1,,,,,,,,,,,,,,,,,,,,,,,,,,,,,,,,,,,,,,,4.0,MentalDemand,2.0,42.0,1.7280945000238717,15,23,Female,0.8571428571428571,1.25,1.0,1.0,1.4444444444444444,1.75,2.0,2.3333333333333335,2.125,2.3333333333333335,1.25,1.75,1.5,1.75,,,,,,,,,,,,,,,,,,,,,,,,,,,,,,,,,,,,-0.2195652642293626
4,240615_153342,DEMANDRATING,9.0,-1,,,,,,,,,,,,,,,,,,,,,,,,,,,,,,,,,,,,,,,5.0,Effort,2.0,51.0,1.5369961999822408,15,23,Female,0.8571428571428571,1.25,1.0,1.0,1.4444444444444444,1.75,2.0,2.3333333333333335,2.125,2.3333333333333335,1.25,1.75,1.5,1.75,,,,,,,,,,,,,,,,,,,,,,,,,,,,,,,,,,,,0.027445658028670324
5,240615_153345,DEMANDRATING,9.0,-1,,,,,,,,,,,,,,,,,,,,,,,,,,,,,,,,,,,,,,,6.0,Frustration,2.0,54.0,1.4566348000080325,15,23,Female,0.8571428571428571,1.25,1.0,1.0,1.4444444444444444,1.75,2.0,2.3333333333333335,2.125,2.3333333333333335,1.25,1.75,1.5,1.75,,,,,,,,,,,,,,,,,,,,,,,,,,,,,,,,,,,,0.1097826321146813
6,240615_153348,DEMANDRATING,9.0,-1,,,,,,,,,,,,,,,,,,,,,,,,,,,,,,,,,,,,,,,7.0,MentalDemand,3.0,86.0,1.193152799969539,15,23,Female,0.8571428571428571,1.25,1.0,1.0,1.4444444444444444,1.75,2.0,2.3333333333333335,2.125,2.3333333333333335,1.25,1.75,1.5,1.75,,,,,,,,,,,,,,,,,,,,,,,,,,,,,,,,,,,,0.9880436890321316
7,240615_153351,DEMANDRATING,9.0,-1,,,,,,,,,,,,,,,,,,,,,,,,,,,,,,,,,,,,,,,8.0,Effort,3.0,99.0,1.2587884000386111,15,23,Female,0.8571428571428571,1.25,1.0,1.0,1.4444444444444444,1.75,2.0,2.3333333333333335,2.125,2.3333333333333335,1.25,1.75,1.5,1.75,,,,,,,,,,,,,,,,,,,,,,,,,,,,,,,,,,,,1.344837243404846
8,240615_153353,DEMANDRATING,9.0,-1,,,,,,,,,,,,,,,,,,,,,,,,,,,,,,,,,,,,,,,9.0,Frustration,3.0,99.0,0.971944999997504,15,23,Female,0.8571428571428571,1.25,1.0,1.0,1.4444444444444444,1.75,2.0,2.3333333333333335,2.125,2.3333333333333335,1.25,1.75,1.5,1.75,,,,,,,,,,,,,,,,,,,,,,,,,,,,,,,,,,,,1.344837243404846
