,END,Phase,Block,TrialN,NbackLevel,ISI,Letter_Resp,Letter_RT,Letter_Accuracy,Trial_A_measure,Trial_ACC,Trial_RT,TrialCountCali,CaliEnd_A_measure,ISI_calibrated,TrialIndex,TrialNumber_total,TrialNumber_valid,CueLearning,TrialDemandLearning,CueMapping,OfflineRatingTimePoint,CueFigure,TrialDemand,OfflineRating,OfflineRatingRT,PhaseType,CueLeft,CueDemandLeft,CueRight,CueDemandRight,Choice,ChoiceDemand,TaskDemand,ChoiceRT,CueCheck,CueDemandCheck,CorrectAnswer,Answer,AnswerDemand,AnswerRT,AnswerACC,DemandRatingQuesIndex,QuesTLX,DemandLevel,DemandRating,DemandRatingRT,PID,Age,Gender,Task_A_measure,Task_ACC,Task_RT,cue_i_on_zyg_values,cue_i_on_zyg_zvalues,cue_e_on_zyg_values,cue_e_on_zyg_zvalues,cue_i_on_cor_values,cue_i_on_cor_zvalues,cue_e_on_cor_values,cue_e_on_cor_zvalues,cue_i_on_scr_values,cue_i_on_scr_zvalues,cue_e_on_scr_values,cue_e_on_scr_zvalues,BAI_bis,BAI_bas_d,BAI_bas_rr,BAI_bas_fs,NFC,BFI_ext,BFI_agr,BFI_con,BFI_neu,BFI_open,UPPS_lps,UPPS_lpm,UPPS_pu,UPPS_ss,cue_e_true_zyg_values,cue_e_true_zyg_zvalues,cue_e_true_cor_values,cue_e_true_cor_zvalues,cue_e_true_scr_values,cue_e_true_scr_zvalues,cue_i_off_zyg_values,cue_i_off_zyg_zvalues,cue_i_off_cor_values,cue_i_off_cor_zvalues,cue_i_off_scr_values,cue_i_off_scr_zvalues
0,240617_150117,LEARNING,1.0,1,1.0,1250.0,,,,,,,,,,1.0,1.0,1.0,cue2.png,Easy,B,,,,,,,,,,,,,,,,,,,,,,,,,,,16,28,Female,0.8333333333333333,0.8571428571428572,0.5816300700011198,,,,,,,,,1.202,-0.6736623714509208,1.61,0.08985796385982624,1.2857142857142858,0.5,0.4,1.25,2.611111111111111,2.0,2.3333333333333335,2.3333333333333335,2.0,2.2222222222222223,1.75,2.0,1.75,1.25,,,,,,,,,,,,
1,240617_150139,LEARNING,1.0,2,3.0,1250.0,,,,,,,,,,2.0,2.0,2.0,cue1.png,Hard,B,,,,,,,,,,,,,,,,,,,,,,,,,,,16,28,Female,0.1428571428571428,0.5714285714285714,0.5115817599929869,4.676045059112026e-05,0.38013991568110633,0.0017376191557264688,1.4525228712223257,,,0.00021495294793398524,-0.1729498021611699,1.9700000000000002,0.76407133049648,1.5869999999999997,0.055284360664688316,1.2857142857142858,0.5,0.4,1.25,2.611111111111111,2.0,2.3333333333333335,2.3333333333333335,2.0,2.2222222222222223,1.75,2.0,1.75,1.25,,,,,,,,,,,,
2,240617_150202,LEARNING,1.0,3,1.0,1250.0,,,,,,,,,,3.0,3.0,3.0,cue2.png,Easy,B,,,,,,,,,,,,,,,,,,,,,,,,,,,16,28,Female,0.6904761904761906,0.7571428571428572,0.5222902666686827,-0.00029011140520813355,0.13311121359629066,0.00011042500573597673,-0.02758678826489528,0.00017905796936704436,0.29026802716429423,0.00018387740878754097,-0.25516416505283807,1.591,0.054564724978166126,,,1.2857142857142858,0.5,0.4,1.25,2.611111111111111,2.0,2.3333333333333335,2.3333333333333335,2.0,2.2222222222222223,1.75,2.0,1.75,1.25,,,,,,,,,,,,
3,240617_150222,LEARNING,1.0,4,3.0,1250.0,,,,,,,,,,4.0,4.0,4.0,cue1.png,Hard,B,,,,,,,,,,,,,,,,,,,,,,,,,,,16,28,Female,0.5476190476190476,0.7142857142857143,0.3946698199899401,-0.0007627829788005146,-0.2134996514161137,0.00013151589189072492,-0.008402338563567082,0.00011326779356760205,0.10422635247640391,0.00021816928401246789,-0.16444056857098796,,,1.456,-0.14163485753370256,1.2857142857142858,0.5,0.4,1.25,2.611111111111111,2.0,2.3333333333333335,2.3333333333333335,2.0,2.2222222222222223,1.75,2.0,1.75,1.25,,,,,,,,,,,,
4,240617_150243,LEARNING,1.0,5,3.0,1250.0,,,,,,,,,,5.0,5.0,5.0,cue1.png,Hard,B,,,,,,,,,,,,,,,,,,,,,,,,,,,16,28,Female,0.1428571428571428,0.5714285714285714,0.4886438699963037,3.335468648558819e-05,0.37030944617041434,,,,,,,,,,,1.2857142857142858,0.5,0.4,1.25,2.611111111111111,2.0,2.3333333333333335,2.3333333333333335,2.0,2.2222222222222223,1.75,2.0,1.75,1.25,,,,,,,,,,,,
5,240617_150306,LEARNING,1.0,6,1.0,1250.0,,,,,,,,,,6.0,6.0,6.0,cue2.png,Easy,B,,,,,,,,,,,,,,,,,,,,,,,,,,,16,28,Female,1.0,1.0,0.6046830300008879,,,,,0.0002392635824447673,0.46051765708982595,0.00042295500838609697,0.37734658367583385,,,2.0469999999999997,0.7467564245674361,1.2857142857142858,0.5,0.4,1.25,2.611111111111111,2.0,2.3333333333333335,2.3333333333333335,2.0,2.2222222222222223,1.75,2.0,1.75,1.25,,,,,,,,,,,,
6,240617_150327,LEARNING,1.0,7,3.0,1250.0,,,,,,,,,,7.0,7.0,7.0,cue1.png,Hard,B,,,,,,,,,,,,,,,,,,,,,,,,,,,16,28,Female,0.8333333333333333,0.8571428571428572,0.4334041800058912,,,-0.0005490063207983596,-0.627411140004143,-0.00018603403022405185,-0.7421403255073195,0.000576589932604898,0.7838076704178706,,,,,1.2857142857142858,0.5,0.4,1.25,2.611111111111111,2.0,2.3333333333333335,2.3333333333333335,2.0,2.2222222222222223,1.75,2.0,1.75,1.25,,,,,,,,,,,,
7,240617_150349,LEARNING,1.0,8,3.0,1250.0,,,,,,,,,,8.0,8.0,8.0,cue1.png,Hard,B,,,,,,,,,,,,,,,,,,,,,,,,,,,16,28,Female,0.5476190476190476,0.6142857142857143,0.4406063777730903,-0.005634628669746435,-3.7860323432211693,,,,,,,,,,,1.2857142857142858,0.5,0.4,1.25,2.611111111111111,2.0,2.3333333333333335,2.3333333333333335,2.0,2.2222222222222223,1.75,2.0,1.75,1.25,,,,,,,,,,,,
8,240617_150411,LEARNING,1.0,9,1.0,1250.0,,,,,,,,,,9.0,9.0,9.0,cue2.png,Easy,B,,,,,,,,,,,,,,,,,,,,,,,,,,,16,28,Female,1.0,1.0,0.6194299599970691,0.0004032610370573323,0.6415623991898014,-0.0003469968481768695,-0.4436616029641199,3.163974916810643e-05,-0.1266016989316661,-0.00028928467168864123,-1.5069757203576357,2.746,2.2167814251724987,2.902,2.031992543343196,1.2857142857142858,0.5,0.4,1.25,2.611111111111111,2.0,2.3333333333333335,2.3333333333333335,2.0,2.2222222222222223,1.75,2.0,1.75,1.25,,,,,,,,,,,,
9,240617_150433,LEARNING,1.0,10,1.0,1250.0,,,,,,,,,,10.0,10.0,10.0,cue2.png,Easy,B,,,,,,,,,,,,,,,,,,,,,,,,,,,16,28,Female,0.8333333333333333,0.8571428571428572,0.5230363699898589,-0.00010115202540714446,0.27167544665827226,0.00016167521714206346,0.019030840586188258,,,,,,,,,1.2857142857142858,0.5,0.4,1.25,2.611111111111111,2.0,2.3333333333333335,2.3333333333333335,2.0,2.2222222222222223,1.75,2.0,1.75,1.25,,,,,,,,,,,,
10,240617_150455,LEARNING,1.0,11,3.0,1250.0,,,,,,,,,,11.0,11.0,11.0,cue1.png,Hard,B,,,,,,,,,,,,,,,,,,,,,,,,,,,16,28,Female,0.1428571428571428,0.5714285714285714,0.5695259099942632,8.039311338657162e-05,0.40480280423944165,-0.0010114859652061835,-1.0480865640205304,0.0005605990660853453,1.3691911905878633,0.0006044392925286324,0.8574867584066808,1.871,0.5787384704798225,,,1.2857142857142858,0.5,0.4,1.25,2.611111111111111,2.0,2.3333333333333335,2.3333333333333335,2.0,2.2222222222222223,1.75,2.0,1.75,1.25,,,,,,,,,,,,
11,240617_150516,LEARNING,1.0,12,1.0,1250.0,,,,,,,,,,12.0,12.0,12.0,cue2.png,Easy,B,,,,,,,,,,,,,,,,,,,,,,,,,,,16,28,Female,0.8333333333333333,0.8571428571428572,0.4768648699915502,-0.0004751001928213856,-0.002541377493352068,8.39206664138138e-05,-0.05169536107981694,0.0004754401203207535,1.1283784447305378,0.0006102062749890891,0.8727440572924547,1.452,-0.20565009868158474,2.958,2.116171751122661,1.2857142857142858,0.5,0.4,1.25,2.611111111111111,2.0,2.3333333333333335,2.3333333333333335,2.0,2.2222222222222223,1.75,2.0,1.75,1.25,,,,,,,,,,,,
12,240617_150538,LEARNING,1.0,13,1.0,1250.0,,,,,,,,,,13.0,13.0,13.0,cue2.png,Easy,B,,,,,,,,,,,,,,,,,,,,,,,,,,,16,28,Female,0.8333333333333333,0.8571428571428572,0.5021181100048124,0.0003464452275806426,0.5998992699277104,-0.000202507383495218,-0.31223275510924053,,,,,,,,,1.2857142857142858,0.5,0.4,1.25,2.611111111111111,2.0,2.3333333333333335,2.3333333333333335,2.0,2.2222222222222223,1.75,2.0,1.75,1.25,,,,,,,,,,,,
13,240617_150600,LEARNING,1.0,14,1.0,1250.0,,,,,,,,,,14.0,14.0,14.0,cue2.png,Easy,B,,,,,,,,,,,,,,,,,,,,,,,,,,,16,28,Female,0.8333333333333333,0.8571428571428572,0.6065023899951484,,,2.392687230971975e-05,-0.10626622723200656,0.0006587156770283078,1.646645664492517,0.0004749991649070102,0.515036139130923,,,1.377,-0.26038766850830486,1.2857142857142858,0.5,0.4,1.25,2.611111111111111,2.0,2.3333333333333335,2.3333333333333335,2.0,2.2222222222222223,1.75,2.0,1.75,1.25,,,,,,,,,,,,
14,240617_150620,LEARNING,1.0,15,3.0,1250.0,,,,,,,,,,15.0,15.0,15.0,cue1.png,Hard,B,,,,,,,,,,,,,,,,,,,,,,,,,,,16,28,Female,0.5476190476190476,0.7142857142857143,0.3886805600021034,0.00011218937923723575,0.42811905980967235,-0.00021682062974204969,-0.3252522058174911,0.0002866192577632219,0.5944301909167377,0.000311497570324368,0.08247149827184959,,,,,1.2857142857142858,0.5,0.4,1.25,2.611111111111111,2.0,2.3333333333333335,2.3333333333333335,2.0,2.2222222222222223,1.75,2.0,1.75,1.25,,,,,,,,,,,,
15,240617_150643,LEARNING,1.0,16,1.0,1250.0,,,,,,,,,,16.0,16.0,16.0,cue2.png,Easy,B,,,,,,,,,,,,,,,,,,,,,,,,,,,16,28,Female,0.1428571428571428,0.4714285714285714,0.4884241666618941,0.00021774856006204907,0.5055257857898596,,,-0.00023267650798014603,-0.8740360769305888,0.00039200322171554754,0.29545962398428444,,,,,1.2857142857142858,0.5,0.4,1.25,2.611111111111111,2.0,2.3333333333333335,2.3333333333333335,2.0,2.2222222222222223,1.75,2.0,1.75,1.25,,,,,,,,,,,,
16,240617_150706,LEARNING,1.0,17,1.0,1250.0,,,,,,,,,,17.0,17.0,17.0,cue2.png,Easy,B,,,,,,,,,,,,,,,,,,,,,,,,,,,16,28,Female,0.9166666666666666,0.9,0.523647311117707,,,,,,,,,,,,,1.2857142857142858,0.5,0.4,1.25,2.611111111111111,2.0,2.3333333333333335,2.3333333333333335,2.0,2.2222222222222223,1.75,2.0,1.75,1.25,,,,,,,,,,,,
17,240617_150727,LEARNING,1.0,18,3.0,1250.0,,,,,,,,,,18.0,18.0,18.0,cue1.png,Hard,B,,,,,,,,,,,,,,,,,,,,,,,,,,,16,28,Female,0.8333333333333333,0.8571428571428572,0.5174281800049357,0.0003031439743119749,0.5681463876092209,9.904840413162228e-05,-0.03793504199161943,-0.00015357793073731297,-0.650360861035956,0.000279755813160169,-0.0015054306566792371,1.799,0.44395093592225365,1.6380000000000003,0.1319475677495591,1.2857142857142858,0.5,0.4,1.25,2.611111111111111,2.0,2.3333333333333335,2.3333333333333335,2.0,2.2222222222222223,1.75,2.0,1.75,1.25,,,,,,,,,,,,
18,240617_150748,LEARNING,1.0,19,3.0,1250.0,,,,,,,,,,19.0,19.0,19.0,cue1.png,Hard,B,,,,,,,,,,,,,,,,,,,,,,,,,,,16,28,Female,0.1428571428571428,0.5714285714285714,0.3969743400055449,,,-3.5042293684609503e-06,-0.13121779098024683,-0.00015272038424648474,-0.6479358882594315,-4.000624774033561e-05,-0.8474773698714434,,,,,1.2857142857142858,0.5,0.4,1.25,2.611111111111111,2.0,2.3333333333333335,2.3333333333333335,2.0,2.2222222222222223,1.75,2.0,1.75,1.25,,,,,,,,,,,,
19,240617_150808,LEARNING,1.0,20,3.0,1250.0,,,,,,,,,,20.0,20.0,20.0,cue1.png,Hard,B,,,,,,,,,,,,,,,,,,,,,,,,,,,16,28,Female,0.1428571428571428,0.5714285714285714,0.4145365900069009,,,,,-9.611602109095563e-05,-0.4878698846634141,0.0005699114014645784,0.7661387514599072,0.7699999999999998,-1.4823875787963339,0.7589999999999999,-1.1893653543602574,1.2857142857142858,0.5,0.4,1.25,2.611111111111111,2.0,2.3333333333333335,2.3333333333333335,2.0,2.2222222222222223,1.75,2.0,1.75,1.25,,,,,,,,,,,,
20,240617_150829,LEARNING,1.0,21,1.0,1250.0,,,,,,,,,,21.0,21.0,21.0,cue2.png,Easy,B,,,,,,,,,,,,,,,,,,,,,,,,,,,16,28,Female,0.5476190476190476,0.7142857142857143,0.3972098799946252,-3.011966716275462e-05,0.3237635951962486,-0.00014285890845240536,-0.25797599411666616,-5.124570379210977e-05,-0.36098545438765456,0.0003483399254011186,0.1799427194722144,1.7830000000000001,0.41399815046501653,2.008,0.6881316191495949,1.2857142857142858,0.5,0.4,1.25,2.611111111111111,2.0,2.3333333333333335,2.3333333333333335,2.0,2.2222222222222223,1.75,2.0,1.75,1.25,,,,,,,,,,,,
21,240617_150852,LEARNING,1.0,22,3.0,1250.0,,,,,,,,,,22.0,22.0,22.0,cue1.png,Hard,B,,,,,,,,,,,,,,,,,,,,,,,,,,,16,28,Female,0.1785714285714285,0.6142857142857143,0.5380609666527663,-0.000155973602030048,0.23147469172352558,0.0052566896001504625,4.653499323379787,0.00017114904762476069,0.26790315234779627,,,1.9689999999999999,0.762199281405402,1.8510000000000002,0.45212919733930945,1.2857142857142858,0.5,0.4,1.25,2.611111111111111,2.0,2.3333333333333335,2.3333333333333335,2.0,2.2222222222222223,1.75,2.0,1.75,1.25,,,,,,,,,,,,
22,240617_150912,LEARNING,1.0,23,3.0,1250.0,,,,,,,,,,23.0,23.0,23.0,cue1.png,Hard,B,,,,,,,,,,,,,,,,,,,,,,,,,,,16,28,Female,0.1428571428571428,0.5714285714285714,0.3701172199915163,-0.0003590459645234174,0.08256138456399836,0.001969194733845785,1.6631659896711848,0.00043996416993507485,1.0280594359925779,0.0013259475388622292,2.7663302546968733,1.077,-0.9076685078355888,2.141,0.8880572376258241,1.2857142857142858,0.5,0.4,1.25,2.611111111111111,2.0,2.3333333333333335,2.3333333333333335,2.0,2.2222222222222223,1.75,2.0,1.75,1.25,,,,,,,,,,,,
23,240617_150933,LEARNING,1.0,24,3.0,1250.0,,,,,,,,,,24.0,24.0,24.0,cue1.png,Hard,B,,,,,,,,,,,,,,,,,,,,,,,,,,,16,28,Female,0.1428571428571428,0.5714285714285714,0.4808941400027834,,,0.00045631960809844763,0.28704188842016776,,,,,1.3820000000000001,-0.33669353505699856,1.455,-0.14313805767262142,1.2857142857142858,0.5,0.4,1.25,2.611111111111111,2.0,2.3333333333333335,2.3333333333333335,2.0,2.2222222222222223,1.75,2.0,1.75,1.25,,,,,,,,,,,,
24,240617_150955,LEARNING,1.0,25,1.0,1250.0,,,,,,,,,,25.0,25.0,25.0,cue2.png,Easy,B,,,,,,,,,,,,,,,,,,,,,,,,,,,16,28,Female,0.8333333333333333,0.8571428571428572,0.5586372399993706,-0.0014766514931528994,-0.7369806413649209,-0.0015571293976051606,-1.5444084779938614,,,,,0.8260000000000001,-1.377552829696002,1.7240000000000002,0.2612227796965943,1.2857142857142858,0.5,0.4,1.25,2.611111111111111,2.0,2.3333333333333335,2.3333333333333335,2.0,2.2222222222222223,1.75,2.0,1.75,1.25,,,,,,,,,,,,
25,240617_151017,LEARNING,1.0,26,1.0,1250.0,,,,,,,,,,26.0,26.0,26.0,cue2.png,Easy,B,,,,,,,,,,,,,,,,,,,,,,,,,,,16,28,Female,1.0,1.0,0.5985875500016846,-7.471154192477316e-05,0.29106429795203376,-0.0002794919737836663,-0.3822585942005772,0.00028548218200294927,0.5912147643561976,0.0002480186295062462,-0.08547025977153254,1.109,-0.8477629369211138,1.9020000000000001,0.5287924044241792,1.2857142857142858,0.5,0.4,1.25,2.611111111111111,2.0,2.3333333333333335,2.3333333333333335,2.0,2.2222222222222223,1.75,2.0,1.75,1.25,,,,,,,,,,,,
26,240617_151039,LEARNING,1.0,27,3.0,1250.0,,,,,,,,,,27.0,27.0,27.0,cue1.png,Hard,B,,,,,,,,,,,,,,,,,,,,,,,,,,,16,28,Female,0.5476190476190476,0.7142857142857143,0.4946928200079128,0.00016278276903338666,0.4652192781872564,-0.00031920107087387477,-0.4183783271611934,0.00034002350256499315,0.745446889346776,0.0006730008311221073,1.03887518702804,1.993,0.8071284595912588,1.535,-0.022882046559100297,1.2857142857142858,0.5,0.4,1.25,2.611111111111111,2.0,2.3333333333333335,2.3333333333333335,2.0,2.2222222222222223,1.75,2.0,1.75,1.25,,,,,,,,,,,,
27,240617_151100,LEARNING,1.0,28,1.0,1250.0,,,,,,,,,,28.0,28.0,28.0,cue2.png,Easy,B,,,,,,,,,,,,,,,,,,,,,,,,,,,16,28,Female,1.0,1.0,0.4887700799910817,0.00032877572700407707,0.5869421952455292,-0.0002806316792244804,-0.383295279977704,7.30635551270723e-05,-0.00946332471535114,0.00043272267198408466,0.40318820257307453,1.772,0.3934056104631655,2.152,0.9045924391539335,1.2857142857142858,0.5,0.4,1.25,2.611111111111111,2.0,2.3333333333333335,2.3333333333333335,2.0,2.2222222222222223,1.75,2.0,1.75,1.25,,,,,,,,,,,,
28,240617_151122,LEARNING,1.0,29,1.0,1250.0,,,,,,,,,,29.0,29.0,29.0,cue2.png,Easy,B,,,,,,,,,,,,,,,,,,,,,,,,,,,16,28,Female,1.0,1.0,0.5261811400065198,-5.747270056859384e-05,0.3037055694989234,-0.00012016406239474938,-0.23733256882490955,-0.0002936025781114949,-1.0463230176729492,-0.00034925303004286045,-1.6656297778952187,1.616,0.10136595225509998,1.2209999999999999,-0.4948868901796717,1.2857142857142858,0.5,0.4,1.25,2.611111111111111,2.0,2.3333333333333335,2.3333333333333335,2.0,2.2222222222222223,1.75,2.0,1.75,1.25,,,,,,,,,,,,
29,240617_151142,LEARNING,1.0,30,3.0,1250.0,,,,,,,,,,30.0,30.0,30.0,cue1.png,Hard,B,,,,,,,,,,,,,,,,,,,,,,,,,,,16,28,Female,0.5476190476190476,0.7142857142857143,0.4398547299846541,,,9.294555503248795e-05,-0.043486245517071136,0.0003063424709332323,0.6502035577422158,0.0003164139666231576,0.09547846132156995,0.4969999999999999,-1.9934569806604487,2.022,0.7091764210944608,1.2857142857142858,0.5,0.4,1.25,2.611111111111111,2.0,2.3333333333333335,2.3333333333333335,2.0,2.2222222222222223,1.75,2.0,1.75,1.25,,,,,,,,,,,,
30,240617_151203,LEARNING,1.0,31,3.0,1250.0,,,,,,,,,,31.0,31.0,31.0,cue1.png,Hard,B,,,,,,,,,,,,,,,,,,,,,,,,,,,16,28,Female,0.1428571428571428,0.5714285714285714,0.4396730999986175,-0.0002392855683429583,0.17038188580305633,-0.00018225526227379696,-0.29381125313597783,0.00048752004701440275,1.1625381010148503,0.00032891085655774354,0.12854060190930114,0.32000000000000006,-2.3248096697811382,0.9740000000000001,-0.8661773244926685,1.2857142857142858,0.5,0.4,1.25,2.611111111111111,2.0,2.3333333333333335,2.3333333333333335,2.0,2.2222222222222223,1.75,2.0,1.75,1.25,,,,,,,,,,,,
31,240617_151224,LEARNING,1.0,32,1.0,1250.0,,,,,,,,,,32.0,32.0,32.0,cue2.png,Easy,B,,,,,,,,,,,,,,,,,,,,,,,,,,,16,28,Female,0.1428571428571428,0.5714285714285714,0.4898205499921459,,,0.00021742321244111983,0.06973969197903751,-0.0001040592173675069,-0.5103316811202149,,,1.7240000000000002,0.30354725409145333,1.067,-0.7263797115732001,1.2857142857142858,0.5,0.4,1.25,2.611111111111111,2.0,2.3333333333333335,2.3333333333333335,2.0,2.2222222222222223,1.75,2.0,1.75,1.25,,,,,,,,,,,,
32,240617_151247,LEARNING,1.0,33,1.0,1250.0,,,,,,,,,,33.0,33.0,33.0,cue2.png,Easy,B,,,,,,,,,,,,,,,,,,,,,,,,,,,16,28,Female,1.0,1.0,0.5821880899951793,0.0001361802045200945,0.4457115725991641,,,-0.00025403827498699655,-0.9344429516646229,,,1.694,0.24738578135913256,2.073,0.7858396281793308,1.2857142857142858,0.5,0.4,1.25,2.611111111111111,2.0,2.3333333333333335,2.3333333333333335,2.0,2.2222222222222223,1.75,2.0,1.75,1.25,,,,,,,,,,,,
33,240617_151308,LEARNING,1.0,34,1.0,1250.0,,,,,,,,,,34.0,34.0,34.0,cue2.png,Easy,B,,,,,,,,,,,,,,,,,,,,,,,,,,,16,28,Female,1.0,1.0,0.5047809099836741,-0.00010871311017308666,0.2661308904006637,-0.00012028996346127429,-0.2374470895074626,-0.00018482169386159313,-0.7387120767693254,0.00023829569900465876,-0.11119353146960198,2.4859999999999998,1.730048661492389,1.2340000000000002,-0.475345288373724,1.2857142857142858,0.5,0.4,1.25,2.611111111111111,2.0,2.3333333333333335,2.3333333333333335,2.0,2.2222222222222223,1.75,2.0,1.75,1.25,,,,,,,,,,,,
34,240617_151328,LEARNING,1.0,35,3.0,1250.0,,,,,,,,,,35.0,35.0,35.0,cue1.png,Hard,B,,,,,,,,,,,,,,,,,,,,,,,,,,,16,28,Female,0.8333333333333333,0.8571428571428572,0.3819051399885211,0.0001687428465834825,0.46958981314343984,-0.0006320447220192673,-0.7029435770868102,-0.0010683878161377768,-3.237263252355938,0.0009309799732126062,1.7213924140456873,2.116,1.037390497793772,0.8779999999999999,-1.0104845378288945,1.2857142857142858,0.5,0.4,1.25,2.611111111111111,2.0,2.3333333333333335,2.3333333333333335,2.0,2.2222222222222223,1.75,2.0,1.75,1.25,,,,,,,,,,,,
35,240617_151351,LEARNING,1.0,36,3.0,1250.0,,,,,,,,,,36.0,36.0,36.0,cue1.png,Hard,B,,,,,,,,,,,,,,,,,,,,,,,,,,,16,28,Female,0.1785714285714285,0.6142857142857143,0.5124918444392582,-0.00029753355826650637,0.12766853619501414,-0.0002312337609873998,-0.33836251277122764,0.0006339682751533644,1.5766648803854204,0.0003300198347382017,0.1314745472911486,1.7659999999999998,0.38217331591670106,0.7909999999999999,-1.1412629499148488,1.2857142857142858,0.5,0.4,1.25,2.611111111111111,2.0,2.3333333333333335,2.3333333333333335,2.0,2.2222222222222223,1.75,2.0,1.75,1.25,,,,,,,,,,,,
36,240617_151413,LEARNING,1.0,37,1.0,1250.0,,,,,,,,,,37.0,37.0,37.0,cue2.png,Easy,B,,,,,,,,,,,,,,,,,,,,,,,,,,,16,28,Female,0.8333333333333333,0.7571428571428572,0.4658602999988943,,,-0.0008913371969319125,-0.9387982209550889,-0.00014881717108193322,-0.6368983692837923,0.00046373690136599375,0.48524036254345,1.4980000000000002,-0.11953584049202642,1.265,-0.4287460840672349,1.2857142857142858,0.5,0.4,1.25,2.611111111111111,2.0,2.3333333333333335,2.3333333333333335,2.0,2.2222222222222223,1.75,2.0,1.75,1.25,,,,,,,,,,,,
37,240617_151434,LEARNING,1.0,38,3.0,1250.0,,,,,,,,,,38.0,38.0,38.0,cue1.png,Hard,B,,,,,,,,,,,,,,,,,,,,,,,,,,,16,28,Female,0.1428571428571428,0.5714285714285714,0.4668453299964312,0.00038706698464290555,0.6296872731424263,,,0.0008460479141677198,2.176384378471461,7.785112106418199e-05,-0.5356704389380993,,,1.117,-0.6512197046272492,1.2857142857142858,0.5,0.4,1.25,2.611111111111111,2.0,2.3333333333333335,2.3333333333333335,2.0,2.2222222222222223,1.75,2.0,1.75,1.25,,,,,,,,,,,,
38,240617_151456,LEARNING,1.0,39,3.0,1250.0,,,,,,,,,,39.0,39.0,39.0,cue1.png,Hard,B,,,,,,,,,,,,,,,,,,,,,,,,,,,16,28,Female,0.1785714285714285,0.6142857142857143,0.4476649333373643,-0.006151581138873837,-4.165114463884232,1.3543835303607074e-05,-0.11571072613685479,-0.0005293348438689238,-1.712927491161142,-0.00022979630081873623,-1.3495915318650566,1.22,-0.6399654878115286,0.03699999999999992,-2.2746758546597876,1.2857142857142858,0.5,0.4,1.25,2.611111111111111,2.0,2.3333333333333335,2.3333333333333335,2.0,2.2222222222222223,1.75,2.0,1.75,1.25,,,,,,,,,,,,
39,240617_151517,LEARNING,1.0,40,3.0,1250.0,,,,,,,,,,40.0,40.0,40.0,cue1.png,Hard,B,,,,,,,,,,,,,,,,,,,,,,,,,,,16,28,Female,0.8333333333333333,0.8571428571428572,0.3805162699951324,-0.0003285668083069589,0.10491180140997808,0.00021028940559425242,0.06325072050441279,0.00040885335208217617,0.9400841633332176,-4.163905995240762e-05,-0.8517971860170177,1.439,-0.22998673686559004,1.364,-0.2799292703142519,1.2857142857142858,0.5,0.4,1.25,2.611111111111111,2.0,2.3333333333333335,2.3333333333333335,2.0,2.2222222222222223,1.75,2.0,1.75,1.25,,,,,,,,,,,,
40,240617_151537,LEARNING,1.0,41,1.0,1250.0,,,,,,,,,,41.0,41.0,41.0,cue2.png,Easy,B,,,,,,,,,,,,,,,,,,,,,,,,,,,16,28,Female,1.0,1.0,0.4111118099885061,-0.0010631885894934897,-0.43378759423762386,-0.0002936562897013009,-0.3951425766127817,-0.00021643594254359445,-0.8281109527767188,0.0007989531081591256,1.372098245928313,1.8820000000000001,0.5993310104816736,1.5330000000000001,-0.025888446836937997,1.2857142857142858,0.5,0.4,1.25,2.611111111111111,2.0,2.3333333333333335,2.3333333333333335,2.0,2.2222222222222223,1.75,2.0,1.75,1.25,,,,,,,,,,,,
41,240617_151559,LEARNING,1.0,42,3.0,1250.0,,,,,,,,,,42.0,42.0,42.0,cue1.png,Hard,B,,,,,,,,,,,,,,,,,,,,,,,,,,,16,28,Female,0.5476190476190476,0.7142857142857143,0.5217443000059575,-0.0003287245313321192,0.10479614284864826,-0.0003197623951883364,-0.41888891253906274,0.000138767357191847,0.1763341020426416,0.0004363863520780464,0.4128809426843403,1.8739999999999999,0.5843546177530544,,,1.2857142857142858,0.5,0.4,1.25,2.611111111111111,2.0,2.3333333333333335,2.3333333333333335,2.0,2.2222222222222223,1.75,2.0,1.75,1.25,,,,,,,,,,,,
42,240617_151619,LEARNING,1.0,43,3.0,1250.0,,,,,,,,,,43.0,43.0,43.0,cue1.png,Hard,B,,,,,,,,,,,,,,,,,,,,,,,,,,,16,28,Female,0.5476190476190476,0.7142857142857143,0.3876212400035001,0.00024302210082538002,0.5240589160124502,-3.5615271637595355e-05,-0.16042626855437403,-6.188768622220845e-06,-0.23357330548470398,4.666286325359431e-05,-0.6181830136520912,1.661,0.18560816135358035,2.298,1.1240596594361099,1.2857142857142858,0.5,0.4,1.25,2.611111111111111,2.0,2.3333333333333335,2.3333333333333335,2.0,2.2222222222222223,1.75,2.0,1.75,1.25,,,,,,,,,,,,
43,240617_151640,LEARNING,1.0,44,1.0,1250.0,,,,,,,,,,44.0,44.0,44.0,cue2.png,Easy,B,,,,,,,,,,,,,,,,,,,,,,,,,,,16,28,Female,0.8333333333333333,0.8571428571428572,0.4479493099905084,-8.960588196333958e-05,0.2801422531899165,0.00023630990691760924,0.08691919015422409,-4.364080386482991e-05,-0.33948029345575514,0.00015633791962341766,-0.3280234498208535,0.8009999999999999,-1.4243540569729358,0.9039999999999999,-0.9714013342169999,1.2857142857142858,0.5,0.4,1.25,2.611111111111111,2.0,2.3333333333333335,2.3333333333333335,2.0,2.2222222222222223,1.75,2.0,1.75,1.25,,,,,,,,,,,,
44,240617_151701,LEARNING,1.0,45,1.0,1250.0,,,,,,,,,,45.0,45.0,45.0,cue2.png,Easy,B,,,,,,,,,,,,,,,,,,,,,,,,,,,16,28,Female,0.8333333333333333,0.8571428571428572,0.519173410005169,-0.0007783353951286349,-0.2249042646352948,-4.138929599577321e-06,-0.13179511971693111,0.0001741118940405905,0.27628149915027833,-0.0005950557134689082,-2.3159326067440373,1.5959999999999999,0.06392497043355265,2.708,1.7403717163929069,1.2857142857142858,0.5,0.4,1.25,2.611111111111111,2.0,2.3333333333333335,2.3333333333333335,2.0,2.2222222222222223,1.75,2.0,1.75,1.25,,,,,,,,,,,,
45,240617_151724,LEARNING,1.0,46,1.0,1250.0,,,,,,,,,,46.0,46.0,46.0,cue2.png,Easy,B,,,,,,,,,,,,,,,,,,,,,,,,,,,16,28,Female,0.5476190476190476,0.6142857142857143,0.5184466111046883,6.476687861491212e-05,0.39334405983065984,0.0026716247493085796,2.302102315128301,-5.701784324244194e-05,-0.3773079292377816,0.0006604180577239743,1.0055858306161463,,,,,1.2857142857142858,0.5,0.4,1.25,2.611111111111111,2.0,2.3333333333333335,2.3333333333333335,2.0,2.2222222222222223,1.75,2.0,1.75,1.25,,,,,,,,,,,,
46,240617_151745,LEARNING,1.0,47,3.0,1250.0,,,,,,,,,,47.0,47.0,47.0,cue1.png,Hard,B,,,,,,,,,,,,,,,,,,,,,,,,,,,16,28,Female,0.5476190476190476,0.7142857142857143,0.4781352000019979,9.619235828860553e-05,0.4163884172696835,,,-0.0001191578273451988,-0.553027579885892,6.832511682239393e-05,-0.5608727167152026,,,1.186,-0.5474988950418371,1.2857142857142858,0.5,0.4,1.25,2.611111111111111,2.0,2.3333333333333335,2.3333333333333335,2.0,2.2222222222222223,1.75,2.0,1.75,1.25,,,,,,,,,,,,
47,240617_151807,LEARNING,1.0,48,3.0,1250.0,,,,,,,,,,48.0,48.0,48.0,cue1.png,Hard,B,,,,,,,,,,,,,,,,,,,,,,,,,,,16,28,Female,0.5476190476190476,0.7142857142857143,0.5228620599897112,-0.0017520933971938678,-0.9389626558421347,-0.0002602076860779186,-0.3647174418373053,,,0.00024270530393257113,-0.09952735061771617,1.173,-0.7279517950921637,2.045,0.7437500242895984,1.2857142857142858,0.5,0.4,1.25,2.611111111111111,2.0,2.3333333333333335,2.3333333333333335,2.0,2.2222222222222223,1.75,2.0,1.75,1.25,,,,,,,,,,,,
48,240617_151827,LEARNING,1.0,49,1.0,1250.0,,,,,,,,,,49.0,49.0,49.0,cue2.png,Easy,B,,,,,,,,,,,,,,,,,,,,,,,,,,,16,28,Female,1.0,1.0,0.419655250001233,,,1.7243116585261096e-05,-0.11234582837209305,,,-0.0005983378524578014,-2.3246159304547582,,,,,1.2857142857142858,0.5,0.4,1.25,2.611111111111111,2.0,2.3333333333333335,2.3333333333333335,2.0,2.2222222222222223,1.75,2.0,1.75,1.25,,,,,,,,,,,,
49,240617_151849,LEARNING,1.0,50,1.0,1250.0,,,,,,,,,,50.0,50.0,50.0,cue2.png,Easy,B,,,,,,,,,,,,,,,,,,,,,,,,,,,16,28,Female,1.0,1.0,0.5227018199977465,-0.0004975601618353496,-0.019011310789563588,,,2.7969643296196778e-05,-0.13698003634139405,9.265759223355506e-05,-0.4964980021180242,2.428,1.6214698142099033,-0.01100000000000012,-2.3468294613279004,1.2857142857142858,0.5,0.4,1.25,2.611111111111111,2.0,2.3333333333333335,2.3333333333333335,2.0,2.2222222222222223,1.75,2.0,1.75,1.25,,,,,,,,,,,,
0,240617_152119,TrueCHOICE,9.0,1,3.0,1250.0,,,,,,,,,,,1.0,1.0,,,B,,,,,,True,cue2.png,Easy,cue1.png,Hard,Right,Hard,Hard,0.0136780000175349,,,,,,,,,,,,,16,28,Female,0.1428571428571428,0.4714285714285714,0.4681969555482889,,,,,,,,,,,,,1.2857142857142858,0.5,0.4,1.25,2.611111111111111,2.0,2.3333333333333335,2.3333333333333335,2.0,2.2222222222222223,1.75,2.0,1.75,1.25,-2.8921247628308378e-05,-0.4617825138501379,,,1.2690000000000001,-1.439503737265183,,,,,,
1,240617_152139,TrueCHOICE,9.0,2,3.0,1250.0,,,,,,,,,,,2.0,2.0,,,B,,,,,,True,cue2.png,Easy,cue1.png,Hard,Right,Hard,Hard,0.0155617000418715,,,,,,,,,,,,,16,28,Female,,,,,,,,,,,,,,,,1.2857142857142858,0.5,0.4,1.25,2.611111111111111,2.0,2.3333333333333335,2.3333333333333335,2.0,2.2222222222222223,1.75,2.0,1.75,1.25,0.005034714027105882,2.5979462602264736,0.0002125634048426154,1.179323093779092,1.88,1.8732525093224865,,,,,,
2,240617_152200,TrueCHOICE,9.0,3,3.0,1250.0,,,,,,,,,,,3.0,3.0,,,B,,,,,,True,cue1.png,Hard,cue2.png,Easy,Left,Hard,Hard,0.0150449000066146,,,,,,,,,,,,,16,28,Female,0.5476190476190476,0.6142857142857143,0.4478834666596312,,,,,,,,,,,,,1.2857142857142858,0.5,0.4,1.25,2.611111111111111,2.0,2.3333333333333335,2.3333333333333335,2.0,2.2222222222222223,1.75,2.0,1.75,1.25,,,-3.800345206052399e-05,0.29948296954710346,1.586,0.27922577201188975,,,,,,
3,240617_152221,TrueCHOICE,9.0,4,3.0,1250.0,,,,,,,,,,,4.0,4.0,,,B,,,,,,True,cue2.png,Easy,cue1.png,Hard,Right,Hard,Hard,0.0164559000404551,,,,,,,,,,,,,16,28,Female,0.1785714285714285,0.6142857142857143,0.4774864111225017,,,,,,,,,,,,,1.2857142857142858,0.5,0.4,1.25,2.611111111111111,2.0,2.3333333333333335,2.3333333333333335,2.0,2.2222222222222223,1.75,2.0,1.75,1.25,2.4751283019550444e-05,-0.42935059932813807,,,1.553,0.10030440353825049,,,,,,
4,240617_152241,TrueCHOICE,9.0,5,3.0,1250.0,,,,,,,,,,,5.0,5.0,,,B,,,,,,True,cue1.png,Hard,cue2.png,Easy,Left,Hard,Hard,0.016475900018122,,,,,,,,,,,,,16,28,Female,0.5476190476190476,0.7142857142857143,0.5495456599979661,,,,,,,,,,,,,1.2857142857142858,0.5,0.4,1.25,2.611111111111111,2.0,2.3333333333333335,2.3333333333333335,2.0,2.2222222222222223,1.75,2.0,1.75,1.25,0.00022636091077342206,-0.3075269004042898,-0.0004393180616445594,-1.1096926106415532,,,,,,,,
5,240617_152303,TrueCHOICE,9.0,6,3.0,1250.0,,,,,,,,,,,6.0,6.0,,,B,,,,,,True,cue1.png,Hard,cue2.png,Easy,Left,Hard,Hard,0.0163143000099807,,,,,,,,,,,,,16,28,Female,0.5476190476190476,0.7142857142857143,0.5306186999951024,,,,,,,,,,,,,1.2857142857142858,0.5,0.4,1.25,2.611111111111111,2.0,2.3333333333333335,2.3333333333333335,2.0,2.2222222222222223,1.75,2.0,1.75,1.25,0.00023988970518836698,-0.2993520538160061,,,1.46,-0.403928543978367,,,,,,
6,240617_152330,TrueCHOICE,9.0,7,3.0,1250.0,,,,,,,,,,,8.0,7.0,,,B,,,,,,True,cue2.png,Easy,cue1.png,Hard,Right,Hard,Hard,0.0166566999978385,,,,,,,,,,,,,16,28,Female,,,,,,,,,,,,,,,,1.2857142857142858,0.5,0.4,1.25,2.611111111111111,2.0,2.3333333333333335,2.3333333333333335,2.0,2.2222222222222223,1.75,2.0,1.75,1.25,-0.000566330111390111,-0.786514702224847,,,1.4589999999999999,-0.409350403629084,,,,,,
7,240617_152350,TrueCHOICE,9.0,8,3.0,1250.0,,,,,,,,,,,9.0,8.0,,,B,,,,,,True,cue1.png,Hard,cue2.png,Easy,Left,Hard,Hard,0.0166893000132404,,,,,,,,,,,,,16,28,Female,0.5476190476190476,0.6142857142857143,0.4570343111085498,,,,,,,,,,,,,1.2857142857142858,0.5,0.4,1.25,2.611111111111111,2.0,2.3333333333333335,2.3333333333333335,2.0,2.2222222222222223,1.75,2.0,1.75,1.25,0.0005162271621699487,-0.13237366327106548,-0.0001265859733485912,-0.011565576530178246,,,,,,,,
8,240617_152408,TrueCHOICE,9.0,9,3.0,1250.0,,,,,,,,,,,10.0,9.0,,,B,,,,,,True,cue2.png,Easy,cue1.png,Hard,Right,Hard,Hard,0.0167396999895572,,,,,,,,,,,,,16,28,Female,0.5476190476190476,0.7142857142857143,0.3584663500019814,,,,,,,,,,,,,1.2857142857142858,0.5,0.4,1.25,2.611111111111111,2.0,2.3333333333333335,2.3333333333333335,2.0,2.2222222222222223,1.75,2.0,1.75,1.25,,,-0.0005357850056529811,-1.448426508051856,,,,,,,,
9,240617_152431,TrueCHOICE,9.0,10,3.0,1250.0,,,,,,,,,,,11.0,10.0,,,B,,,,,,True,cue1.png,Hard,cue2.png,Easy,Left,Hard,Hard,0.0160792999668046,,,,,,,,,,,,,16,28,Female,0.1785714285714285,0.6142857142857143,0.6221083222189918,,,,,,,,,,,,,1.2857142857142858,0.5,0.4,1.25,2.611111111111111,2.0,2.3333333333333335,2.3333333333333335,2.0,2.2222222222222223,1.75,2.0,1.75,1.25,0.0004356781641918781,-0.18104582733198885,0.0001873755892226681,1.0908786318973929,,,,,,,,
0,240617_152758,FalseCHOICE,9.0,1,2.0,1250.0,,,,,,,,,,,1.0,1.0,,,B,,,,,,False,cue2.png,Easy,cue1.png,Hard,Right,Hard,Mid,0.0165502000018022,,,,,,,,,,,,,16,28,Female,0.1428571428571428,0.5714285714285714,0.5002183999924454,,,,,,,,,,,,,1.2857142857142858,0.5,0.4,1.25,2.611111111111111,2.0,2.3333333333333335,2.3333333333333335,2.0,2.2222222222222223,1.75,2.0,1.75,1.25,-2.8921247628308378e-05,-0.4617825138501379,,,1.2690000000000001,-1.439503737265183,,,,,,
1,240617_152819,FalseCHOICE,9.0,2,2.0,1250.0,,,,,,,,,,,2.0,2.0,,,B,,,,,,False,cue1.png,Hard,cue2.png,Easy,Left,Hard,Mid,0.016123300010804,,,,,,,,,,,,,16,28,Female,,,,,,,,,,,,,,,,1.2857142857142858,0.5,0.4,1.25,2.611111111111111,2.0,2.3333333333333335,2.3333333333333335,2.0,2.2222222222222223,1.75,2.0,1.75,1.25,0.005034714027105882,2.5979462602264736,0.0002125634048426154,1.179323093779092,1.88,1.8732525093224865,,,,,,
2,240617_152842,FalseCHOICE,9.0,3,2.0,1250.0,,,,,,,,,,,3.0,3.0,,,B,,,,,,False,cue1.png,Hard,cue2.png,Easy,Left,Hard,Mid,0.0161197999841533,,,,,,,,,,,,,16,28,Female,,,,,,,,,,,,,,,,1.2857142857142858,0.5,0.4,1.25,2.611111111111111,2.0,2.3333333333333335,2.3333333333333335,2.0,2.2222222222222223,1.75,2.0,1.75,1.25,,,-3.800345206052399e-05,0.29948296954710346,1.586,0.27922577201188975,,,,,,
3,240617_152900,FalseCHOICE,9.0,4,2.0,1250.0,,,,,,,,,,,4.0,4.0,,,B,,,,,,False,cue1.png,Hard,cue2.png,Easy,Left,Hard,Mid,0.0133781000040471,,,,,,,,,,,,,16,28,Female,0.8333333333333333,0.8571428571428572,0.4472424099978525,,,,,,,,,,,,,1.2857142857142858,0.5,0.4,1.25,2.611111111111111,2.0,2.3333333333333335,2.3333333333333335,2.0,2.2222222222222223,1.75,2.0,1.75,1.25,2.4751283019550444e-05,-0.42935059932813807,,,1.553,0.10030440353825049,,,,,,
4,240617_152920,FalseCHOICE,9.0,5,2.0,1250.0,,,,,,,,,,,5.0,5.0,,,B,,,,,,False,cue2.png,Easy,cue1.png,Hard,Right,Hard,Mid,0.0163064000080339,,,,,,,,,,,,,16,28,Female,,,,,,,,,,,,,,,,1.2857142857142858,0.5,0.4,1.25,2.611111111111111,2.0,2.3333333333333335,2.3333333333333335,2.0,2.2222222222222223,1.75,2.0,1.75,1.25,0.00022636091077342206,-0.3075269004042898,-0.0004393180616445594,-1.1096926106415532,,,,,,,,
5,240617_152940,FalseCHOICE,9.0,6,2.0,1250.0,,,,,,,,,,,6.0,6.0,,,B,,,,,,False,cue1.png,Hard,cue2.png,Easy,Left,Hard,Mid,0.0162867999752052,,,,,,,,,,,,,16,28,Female,0.5476190476190476,0.7142857142857143,0.4926218700071331,,,,,,,,,,,,,1.2857142857142858,0.5,0.4,1.25,2.611111111111111,2.0,2.3333333333333335,2.3333333333333335,2.0,2.2222222222222223,1.75,2.0,1.75,1.25,0.00023988970518836698,-0.2993520538160061,,,1.46,-0.403928543978367,,,,,,
6,240617_152959,FalseCHOICE,9.0,7,2.0,1250.0,,,,,,,,,,,7.0,7.0,,,B,,,,,,False,cue1.png,Hard,cue2.png,Easy,Left,Hard,Mid,0.0160280999843962,,,,,,,,,,,,,16,28,Female,0.5476190476190476,0.6142857142857143,0.4834185999999236,,,,,,,,,,,,,1.2857142857142858,0.5,0.4,1.25,2.611111111111111,2.0,2.3333333333333335,2.3333333333333335,2.0,2.2222222222222223,1.75,2.0,1.75,1.25,-0.000566330111390111,-0.786514702224847,,,1.4589999999999999,-0.409350403629084,,,,,,
7,240617_153018,FalseCHOICE,9.0,8,2.0,1250.0,,,,,,,,,,,8.0,8.0,,,B,,,,,,False,cue2.png,Easy,cue1.png,Hard,Right,Hard,Mid,0.0155380999785847,,,,,,,,,,,,,16,28,Female,,,,,,,,,,,,,,,,1.2857142857142858,0.5,0.4,1.25,2.611111111111111,2.0,2.3333333333333335,2.3333333333333335,2.0,2.2222222222222223,1.75,2.0,1.75,1.25,0.0005162271621699487,-0.13237366327106548,-0.0001265859733485912,-0.011565576530178246,,,,,,,,
8,240617_153040,FalseCHOICE,9.0,9,2.0,1250.0,,,,,,,,,,,9.0,9.0,,,B,,,,,,False,cue2.png,Easy,cue1.png,Hard,Right,Hard,Mid,0.0162083000177517,,,,,,,,,,,,,16,28,Female,0.8333333333333333,0.8571428571428572,0.4917020599998068,,,,,,,,,,,,,1.2857142857142858,0.5,0.4,1.25,2.611111111111111,2.0,2.3333333333333335,2.3333333333333335,2.0,2.2222222222222223,1.75,2.0,1.75,1.25,,,-0.0005357850056529811,-1.448426508051856,,,,,,,,
9,240617_153059,FalseCHOICE,9.0,10,2.0,1250.0,,,,,,,,,,,10.0,10.0,,,B,,,,,,False,cue1.png,Hard,cue2.png,Easy,Left,Hard,Mid,0.0161999000119976,,,,,,,,,,,,,16,28,Female,,,,,,,,,,,,,,,,1.2857142857142858,0.5,0.4,1.25,2.611111111111111,2.0,2.3333333333333335,2.3333333333333335,2.0,2.2222222222222223,1.75,2.0,1.75,1.25,0.0004356781641918781,-0.18104582733198885,0.0001873755892226681,1.0908786318973929,,,,,,,,
0,240617_150027,OFFLINERATING,9.0,1,1.0,,,,,,,,,,,,,,,,,T0,cue2.png,Easy,99.0,2.2692285000230186,,,,,,,,,,,,,,,,,,,,,,16,28,Female,,,,,,,,,,,,,,,,1.2857142857142858,0.5,0.4,1.25,2.611111111111111,2.0,2.3333333333333335,2.3333333333333335,2.0,2.2222222222222223,1.75,2.0,1.75,1.25,,,,,,,,,,,,
1,240617_150035,OFFLINERATING,9.0,2,3.0,,,,,,,,,,,,,,,,,T0,cue1.png,Hard,100.0,2.1437043999903835,,,,,,,,,,,,,,,,,,,,,,16,28,Female,,,,,,,,,,,,,,,,1.2857142857142858,0.5,0.4,1.25,2.611111111111111,2.0,2.3333333333333335,2.3333333333333335,2.0,2.2222222222222223,1.75,2.0,1.75,1.25,,,,,,,,,,,1.434,0.0395374004947635
2,240617_151937,OFFLINERATING,9.0,3,1.0,,,,,,,,,,,,,,,,,T1,cue2.png,Easy,91.0,1.881409999972675,,,,,,,,,,,,,,,,,,,,,,16,28,Female,,,,,,,,,,,,,,,,1.2857142857142858,0.5,0.4,1.25,2.611111111111111,2.0,2.3333333333333335,2.3333333333333335,2.0,2.2222222222222223,1.75,2.0,1.75,1.25,,,,,,,,,,,1.093,-1.645744295594529
3,240617_151945,OFFLINERATING,9.0,4,3.0,,,,,,,,,,,,,,,,,T1,cue1.png,Hard,75.0,1.7520965000148865,,,,,,,,,,,,,,,,,,,,,,16,28,Female,,,,,,,,,,,,,,,,1.2857142857142858,0.5,0.4,1.25,2.611111111111111,2.0,2.3333333333333335,2.3333333333333335,2.0,2.2222222222222223,1.75,2.0,1.75,1.25,,,,,,,-7.091732229624632e-05,-0.7302613489843465,0.00011847037977955402,0.012029044366994208,1.5889999999999997,0.8055745350808047
4,240617_152512,OFFLINERATING,9.0,5,1.0,,,,,,,,,,,,,,,,,T2,cue2.png,Easy,57.0,2.753005899954587,,,,,,,,,,,,,,,,,,,,,,16,28,Female,,,,,,,,,,,,,,,,1.2857142857142858,0.5,0.4,1.25,2.611111111111111,2.0,2.3333333333333335,2.3333333333333335,2.0,2.2222222222222223,1.75,2.0,1.75,1.25,,,,,,,-7.815013790538582e-05,-0.7445600134664158,0.0003145495218216266,1.2186860439014187,1.5879999999999999,0.8006323600189598
5,240617_152521,OFFLINERATING,9.0,6,3.0,,,,,,,,,,,,,,,,,T2,cue1.png,Hard,99.0,2.419270999962464,,,,,,,,,,,,,,,,,,,,,,16,28,Female,,,,,,,,,,,,,,,,1.2857142857142858,0.5,0.4,1.25,2.611111111111111,2.0,2.3333333333333335,2.3333333333333335,2.0,2.2222222222222223,1.75,2.0,1.75,1.25,,,,,,,0.00018831268356124618,-0.2177855611656502,,,,
6,240617_154529,OFFLINERATING,9.0,7,1.0,,,,,,,,,,,,,,,,,T3,cue2.png,Easy,55.0,1.2425748000387102,,,,,,,,,,,,,,,,,,,,,,16,28,Female,,,,,,,,,,,,,,,,1.2857142857142858,0.5,0.4,1.25,2.611111111111111,2.0,2.3333333333333335,2.3333333333333335,2.0,2.2222222222222223,1.75,2.0,1.75,1.25,,,,,,,0.0011546628347129072,1.6926069236164125,-8.347284302443261e-05,-1.2307150882684126,,
7,240617_154537,OFFLINERATING,9.0,8,3.0,,,,,,,,,,,,,,,,,T3,cue1.png,Hard,97.0,1.8525418000062928,,,,,,,,,,,,,,,,,,,,,,16,28,Female,,,,,,,,,,,,,,,,1.2857142857142858,0.5,0.4,1.25,2.611111111111111,2.0,2.3333333333333335,2.3333333333333335,2.0,2.2222222222222223,1.75,2.0,1.75,1.25,,,,,,,,,,,,
