,END,Phase,Block,TrialN,NbackLevel,ISI,Letter_Resp,Letter_RT,Letter_Accuracy,Trial_A_measure,Trial_ACC,Trial_RT,TrialCountCali,CaliEnd_A_measure,ISI_calibrated,TrialIndex,TrialNumber_total,TrialNumber_valid,CueLearning,TrialDemandLearning,CueMapping,OfflineRatingTimePoint,CueFigure,TrialDemand,OfflineRating,OfflineRatingRT,PhaseType,CueLeft,CueDemandLeft,CueRight,CueDemandRight,Choice,ChoiceDemand,TaskDemand,ChoiceRT,CueCheck,CueDemandCheck,CorrectAnswer,Answer,AnswerDemand,AnswerRT,AnswerACC,DemandRatingQuesIndex,QuesTLX,DemandLevel,DemandRating,DemandRatingRT,PID,Age,Gender,BAI_bis,BAI_bas_d,BAI_bas_rr,BAI_bas_fs,NFC,BFI_ext,BFI_agr,BFI_con,BFI_neu,BFI_open,UPPS_lps,UPPS_lpm,UPPS_pu,UPPS_ss,Task_A_measure,Task_ACC,Task_RT,Task_RT_z,cue_i_on_zyg_values,cue_i_on_zyg_zvalues,cue_e_on_zyg_values,cue_e_on_zyg_zvalues,cue_i_on_cor_values,cue_i_on_cor_zvalues,cue_e_on_cor_values,cue_e_on_cor_zvalues,cue_i_on_scr_values,cue_i_on_scr_zvalues,cue_e_on_scr_values,cue_e_on_scr_zvalues,cue_e_true_zyg_values,cue_e_true_zyg_zvalues,cue_e_true_cor_values,cue_e_true_cor_zvalues,cue_e_true_scr_values,cue_e_true_scr_zvalues,cue_e_false_zyg_values,cue_e_false_zyg_zvalues,cue_e_false_cor_values,cue_e_false_cor_zvalues,cue_e_false_scr_values,cue_e_false_scr_zvalues,OfflineRating_z,cue_i_off_zyg_values,cue_i_off_zyg_zvalues,cue_i_off_cor_values,cue_i_off_cor_zvalues,cue_i_off_scr_values,cue_i_off_scr_zvalues,DemandRating_z
0,240617_145553,PRACTICE,0.0,1,1.0,1250.0,,,,,,,,,,15.0,1.0,1.0,cue2.png,Easy,B,,,,,,,,,,,,,,,,,,,,,,,,,,,16,28,Female,1.2857142857142858,0.5,0.4,1.25,2.611111111111111,2.0,2.3333333333333335,2.3333333333333335,2.0,2.2222222222222223,1.75,2.0,1.75,1.25,,,,,,,,,,,,,,,,,,,,,,,,,,,,,,,,,,,,
0,240617_150117,LEARNING,1.0,1,1.0,1250.0,,,,,,,,,,1.0,1.0,1.0,cue2.png,Easy,B,,,,,,,,,,,,,,,,,,,,,,,,,,,16,28,Female,1.2857142857142858,0.5,0.4,1.25,2.611111111111111,2.0,2.3333333333333335,2.3333333333333335,2.0,2.2222222222222223,1.75,2.0,1.75,1.25,0.8333333333333333,0.8571428571428572,0.5816300700011198,1.4555300351967384,,,,,,,,,2.6644725347589416e+45,-0.1622495247638091,3.5398072078064e+45,-0.16036277278860211,,,,,,,,,,,,,,,,,,,,
1,240617_150139,LEARNING,1.0,2,3.0,1250.0,,,,,,,,,,2.0,2.0,2.0,cue1.png,Hard,B,,,,,,,,,,,,,,,,,,,,,,,,,,,16,28,Female,1.2857142857142858,0.5,0.4,1.25,2.611111111111111,2.0,2.3333333333333335,2.3333333333333335,2.0,2.2222222222222223,1.75,2.0,1.75,1.25,0.1428571428571428,0.5714285714285714,0.5115817599929869,0.3851496215219778,0.011193286747537298,-0.6755589253007664,0.0474668154953154,1.423342108346243,,,0.015720337398340653,-0.2251013443005231,1.9747336880011263e+44,-0.17608597987667102,1.686104400837545e+43,-0.17049549344624007,,,,,,,,,,,,,,,,,,,,
2,240617_150202,LEARNING,1.0,3,1.0,1250.0,,,,,,,,,,3.0,3.0,3.0,cue2.png,Easy,B,,,,,,,,,,,,,,,,,,,,,,,,,,,16,28,Female,1.2857142857142858,0.5,0.4,1.25,2.611111111111111,2.0,2.3333333333333335,2.3333333333333335,2.0,2.2222222222222223,1.75,2.0,1.75,1.25,0.6904761904761906,0.7571428571428572,0.5222902666686827,0.5487820603922288,0.0360476282346421,1.8742536461354349,0.03852076243196953,0.9745164522024626,0.014944521302186108,-0.41934864304499975,0.021214291512018733,0.7007959851207208,-4.3959852001097215e+44,-0.17965907252900468,,,,,,,,,,,,,,,,,,,,,,
3,240617_150222,LEARNING,1.0,4,3.0,1250.0,,,,,,,,,,4.0,4.0,4.0,cue1.png,Hard,B,,,,,,,,,,,,,,,,,,,,,,,,,,,16,28,Female,1.2857142857142858,0.5,0.4,1.25,2.611111111111111,2.0,2.3333333333333335,2.3333333333333335,2.0,2.2222222222222223,1.75,2.0,1.75,1.25,0.5476190476190476,0.7142857142857143,0.3946698199899401,-1.401335315651394,0.027062963059873928,0.9525147932008307,0.03287893275190454,0.6914644861481088,0.010873253584991104,-1.394412326491992,0.016361749334917568,-0.11700404555226632,,,-7.412253273031523e+44,-0.1726759063954351,,,,,,,,,,,,,,,,,,,,
4,240617_150243,LEARNING,1.0,5,3.0,1250.0,,,,,,,,,,5.0,5.0,5.0,cue1.png,Hard,B,,,,,,,,,,,,,,,,,,,,,,,,,,,16,28,Female,1.2857142857142858,0.5,0.4,1.25,2.611111111111111,2.0,2.3333333333333335,2.3333333333333335,2.0,2.2222222222222223,1.75,2.0,1.75,1.25,0.1428571428571428,0.5714285714285714,0.4886438699963037,0.034644831604485934,0.0346915151855654,1.735129698610272,,,,,,,,,,,,,,,,,,,,,,,,,,,,,,
5,240617_150306,LEARNING,1.0,6,1.0,1250.0,,,,,,,,,,6.0,6.0,6.0,cue2.png,Easy,B,,,,,,,,,,,,,,,,,,,,,,,,,,,16,28,Female,1.2857142857142858,0.5,0.4,1.25,2.611111111111111,2.0,2.3333333333333335,2.3333333333333335,2.0,2.2222222222222223,1.75,2.0,1.75,1.25,1.0,1.0,0.6046830300008879,1.8077931641446683,,,,,0.015274300002420891,-0.3403670440665784,0.01186167602784534,-0.87540241783655,,,8.398073375671681e+42,-0.17051983469738838,,,,,,,,,,,,,,,,,,,,
6,240617_150327,LEARNING,1.0,7,3.0,1250.0,,,,,,,,,,7.0,7.0,7.0,cue1.png,Hard,B,,,,,,,,,,,,,,,,,,,,,,,,,,,16,28,Female,1.2857142857142858,0.5,0.4,1.25,2.611111111111111,2.0,2.3333333333333335,2.3333333333333335,2.0,2.2222222222222223,1.75,2.0,1.75,1.25,0.8333333333333333,0.8571428571428572,0.4334041800058912,-0.8094509391048771,,,0.03040650687285846,0.5674222789789631,0.013650650926214961,-0.7292290297778538,0.012239864492851344,-0.8116662302890075,,,,,,,,,,,,,,,,,,,,,,,,
7,240617_150349,LEARNING,1.0,8,3.0,1250.0,,,,,,,,,,8.0,8.0,8.0,cue1.png,Hard,B,,,,,,,,,,,,,,,,,,,,,,,,,,,16,28,Female,1.2857142857142858,0.5,0.4,1.25,2.611111111111111,2.0,2.3333333333333335,2.3333333333333335,2.0,2.2222222222222223,1.75,2.0,1.75,1.25,0.5476190476190476,0.6142857142857143,0.4406063777730903,-0.6993970145415727,0.012961193978356765,-0.49418891859126496,,,,,,,,,,,,,,,,,,,,,,,,,,,,,,
8,240617_150411,LEARNING,1.0,9,1.0,1250.0,,,,,,,,,,9.0,9.0,9.0,cue2.png,Easy,B,,,,,,,,,,,,,,,,,,,,,,,,,,,16,28,Female,1.2857142857142858,0.5,0.4,1.25,2.611111111111111,2.0,2.3333333333333335,2.3333333333333335,2.0,2.2222222222222223,1.75,2.0,1.75,1.25,1.0,1.0,0.6194299599970691,2.0331351463839615,0.012820673508245638,-0.508604945723562,0.012065025492858532,-0.3527742989685118,0.014844090003469826,-0.44340181735384443,0.015944959551543653,-0.18724572201534334,1.0557155058744387e+48,5.743911107720371,2.1161384275338903e+48,5.915907112186812,,,,,,,,,,,,,,,,,,,,
9,240617_150433,LEARNING,1.0,10,1.0,1250.0,,,,,,,,,,10.0,10.0,10.0,cue2.png,Easy,B,,,,,,,,,,,,,,,,,,,,,,,,,,,16,28,Female,1.2857142857142858,0.5,0.4,1.25,2.611111111111111,2.0,2.3333333333333335,2.3333333333333335,2.0,2.2222222222222223,1.75,2.0,1.75,1.25,0.8333333333333333,0.8571428571428572,0.5230363699898589,0.560182969014749,0.013824040212096152,-0.40566932634431097,0.010312032363956837,-0.4407223902355424,,,,,,,,,,,,,,,,,,,,,,,,,,,,
10,240617_150455,LEARNING,1.0,11,3.0,1250.0,,,,,,,,,,11.0,11.0,11.0,cue1.png,Hard,B,,,,,,,,,,,,,,,,,,,,,,,,,,,16,28,Female,1.2857142857142858,0.5,0.4,1.25,2.611111111111111,2.0,2.3333333333333335,2.3333333333333335,2.0,2.2222222222222223,1.75,2.0,1.75,1.25,0.1428571428571428,0.5714285714285714,0.5695259099942632,1.2705711718948205,0.0167990516624563,-0.10046222197461134,0.00917198288011346,-0.49791894988025004,0.0210090437147874,1.033097123909368,0.01716732345504154,0.01875954311999249,1.5206697301115811e+44,-0.17634064699040172,,,,,,,,,,,,,,,,,,,,,,
11,240617_150516,LEARNING,1.0,12,1.0,1250.0,,,,,,,,,,12.0,12.0,12.0,cue2.png,Easy,B,,,,,,,,,,,,,,,,,,,,,,,,,,,16,28,Female,1.2857142857142858,0.5,0.4,1.25,2.611111111111111,2.0,2.3333333333333335,2.3333333333333335,2.0,2.2222222222222223,1.75,2.0,1.75,1.25,0.8333333333333333,0.8571428571428572,0.4768648699915502,-0.14534539080486616,0.010170796007666433,-0.7804564839044619,0.008432816825580447,-0.5350030904588786,0.016601317838299764,-0.022547880864166554,0.01628493959594136,-0.12994880823504038,-1.1370571919418307e+42,-0.17719990982123887,-2.5891414906096127e+43,-0.1706184583464872,,,,,,,,,,,,,,,,,,,,
12,240617_150538,LEARNING,1.0,13,1.0,1250.0,,,,,,,,,,13.0,13.0,13.0,cue2.png,Easy,B,,,,,,,,,,,,,,,,,,,,,,,,,,,16,28,Female,1.2857142857142858,0.5,0.4,1.25,2.611111111111111,2.0,2.3333333333333335,2.3333333333333335,2.0,2.2222222222222223,1.75,2.0,1.75,1.25,0.8333333333333333,0.8571428571428572,0.5021181100048124,0.2405393434433307,0.0137323922848968,-0.415071508133767,0.007946383381304935,-0.5594075745650327,,,,,,,,,,,,,,,,,,,,,,,,,,,,
13,240617_150600,LEARNING,1.0,14,1.0,1250.0,,,,,,,,,,14.0,14.0,14.0,cue2.png,Easy,B,,,,,,,,,,,,,,,,,,,,,,,,,,,16,28,Female,1.2857142857142858,0.5,0.4,1.25,2.611111111111111,2.0,2.3333333333333335,2.3333333333333335,2.0,2.2222222222222223,1.75,2.0,1.75,1.25,0.8333333333333333,0.8571428571428572,0.6065023899951484,1.8355940818692187,,,0.02887853359964301,0.49076348855316687,0.01782779970827531,0.2711930403649712,0.018281534075511693,0.20653771100415008,,,-1.6416501140872264e+44,-0.1710161617636117,,,,,,,,,,,,,,,,,,,,
14,240617_150620,LEARNING,1.0,15,3.0,1250.0,,,,,,,,,,15.0,15.0,15.0,cue1.png,Hard,B,,,,,,,,,,,,,,,,,,,,,,,,,,,16,28,Female,1.2857142857142858,0.5,0.4,1.25,2.611111111111111,2.0,2.3333333333333335,2.3333333333333335,2.0,2.2222222222222223,1.75,2.0,1.75,1.25,0.5476190476190476,0.7142857142857143,0.3886805600021034,-1.4928548195857794,0.04537416186947812,2.831064862492372,0.03162386291890158,0.6284973276352868,0.021474911292986214,1.1446718442055885,0.013767127462938778,-0.5542762564981251,,,,,,,,,,,,,,,,,,,,,,,,
15,240617_150643,LEARNING,1.0,16,1.0,1250.0,,,,,,,,,,16.0,16.0,16.0,cue2.png,Easy,B,,,,,,,,,,,,,,,,,,,,,,,,,,,16,28,Female,1.2857142857142858,0.5,0.4,1.25,2.611111111111111,2.0,2.3333333333333335,2.3333333333333335,2.0,2.2222222222222223,1.75,2.0,1.75,1.25,0.1428571428571428,0.4714285714285714,0.4884241666618941,0.03128763218106235,0.04166536492557269,2.4505785366977153,,,0.012396412613994663,-1.0296175852807699,0.011905407248733766,-0.8680323852889327,,,,,,,,,,,,,,,,,,,,,,,,
16,240617_150706,LEARNING,1.0,17,1.0,1250.0,,,,,,,,,,17.0,17.0,17.0,cue2.png,Easy,B,,,,,,,,,,,,,,,,,,,,,,,,,,,16,28,Female,1.2857142857142858,0.5,0.4,1.25,2.611111111111111,2.0,2.3333333333333335,2.3333333333333335,2.0,2.2222222222222223,1.75,2.0,1.75,1.25,0.9166666666666666,0.9,0.523647311117707,0.5695185178250065,,,,,,,,,,,,,,,,,,,,,,,,,,,,,,,,
17,240617_150727,LEARNING,1.0,18,3.0,1250.0,,,,,,,,,,18.0,18.0,18.0,cue1.png,Hard,B,,,,,,,,,,,,,,,,,,,,,,,,,,,16,28,Female,1.2857142857142858,0.5,0.4,1.25,2.611111111111111,2.0,2.3333333333333335,2.3333333333333335,2.0,2.2222222222222223,1.75,2.0,1.75,1.25,0.8333333333333333,0.8571428571428572,0.5174281800049357,0.47448644449714433,0.017035253497876025,-0.07623022171574327,0.009841478503397495,-0.4643301917678024,0.018733492933609125,0.4881054700332949,0.01657499846156568,-0.08106512200477564,1.5750682844089931e+46,-0.08885397439597774,1.5828884483488637e+46,-0.12501684884170586,,,,,,,,,,,,,,,,,,,,
18,240617_150748,LEARNING,1.0,19,3.0,1250.0,,,,,,,,,,19.0,19.0,19.0,cue1.png,Hard,B,,,,,,,,,,,,,,,,,,,,,,,,,,,16,28,Female,1.2857142857142858,0.5,0.4,1.25,2.611111111111111,2.0,2.3333333333333335,2.3333333333333335,2.0,2.2222222222222223,1.75,2.0,1.75,1.25,0.1428571428571428,0.5714285714285714,0.3969743400055449,-1.366120860265698,,,0.010574928017901683,-0.42753285139158065,0.011377156232460356,-1.2737282532081602,0.010389464039230651,-1.1235146372681941,,,,,,,,,,,,,,,,,,,,,,,,
19,240617_150808,LEARNING,1.0,20,3.0,1250.0,,,,,,,,,,20.0,20.0,20.0,cue1.png,Hard,B,,,,,,,,,,,,,,,,,,,,,,,,,,,16,28,Female,1.2857142857142858,0.5,0.4,1.25,2.611111111111111,2.0,2.3333333333333335,2.3333333333333335,2.0,2.2222222222222223,1.75,2.0,1.75,1.25,0.1428571428571428,0.5714285714285714,0.4145365900069009,-1.097759090805043,,,,,0.01114376210927717,-1.3296258628113604,0.01278451422991235,-0.719876286911203,5.457132292026145e+43,-0.17688746281620182,8.098651223357613e+43,-0.17031105535767568,,,,,,,,,,,,,,,,,,,,
20,240617_150829,LEARNING,1.0,21,1.0,1250.0,,,,,,,,,,21.0,21.0,21.0,cue2.png,Easy,B,,,,,,,,,,,,,,,,,,,,,,,,,,,16,28,Female,1.2857142857142858,0.5,0.4,1.25,2.611111111111111,2.0,2.3333333333333335,2.3333333333333335,2.0,2.2222222222222223,1.75,2.0,1.75,1.25,0.5476190476190476,0.7142857142857143,0.3972098799946252,-1.3625216672099414,0.010541483893418092,-0.7424275290170802,0.010296360122040507,-0.44150867042095304,0.019684751743888264,0.7159308020655568,0.019091609504452253,0.34305990626939126,2.1268873145246585e+43,-0.1770742435244479,2.679930051387119e+43,-0.17046690896827416,,,,,,,,,,,,,,,,,,,,
21,240617_150852,LEARNING,1.0,22,3.0,1250.0,,,,,,,,,,22.0,22.0,22.0,cue1.png,Hard,B,,,,,,,,,,,,,,,,,,,,,,,,,,,16,28,Female,1.2857142857142858,0.5,0.4,1.25,2.611111111111111,2.0,2.3333333333333335,2.3333333333333335,2.0,2.2222222222222223,1.75,2.0,1.75,1.25,0.1785714285714285,0.6142857142857143,0.5380609666527663,0.7897678653451817,0.010732582548676959,-0.7228226743152801,0.11316510732269426,4.719441374486807,0.016110018351322954,-0.14021351248646569,,,-1.4622868736911616e+43,-0.17727554658215766,-3.004452769096387e+43,-0.17063040355647685,,,,,,,,,,,,,,,,,,,,
22,240617_150912,LEARNING,1.0,23,3.0,1250.0,,,,,,,,,,23.0,23.0,23.0,cue1.png,Hard,B,,,,,,,,,,,,,,,,,,,,,,,,,,,16,28,Female,1.2857142857142858,0.5,0.4,1.25,2.611111111111111,2.0,2.3333333333333335,2.3333333333333335,2.0,2.2222222222222223,1.75,2.0,1.75,1.25,0.1428571428571428,0.5714285714285714,0.3701172199915163,-1.7765138480107403,0.026144957882620043,0.8583364323369984,0.029855842816776744,0.5397953294699877,0.015518104690491363,-0.28197611679161505,0.017841548730649,0.13238688131691032,-4.42505096782948e+43,-0.1774417166926474,-7.379054769614407e+43,-0.17075622614359184,,,,,,,,,,,,,,,,,,,,
23,240617_150933,LEARNING,1.0,24,3.0,1250.0,,,,,,,,,,24.0,24.0,24.0,cue1.png,Hard,B,,,,,,,,,,,,,,,,,,,,,,,,,,,16,28,Female,1.2857142857142858,0.5,0.4,1.25,2.611111111111111,2.0,2.3333333333333335,2.3333333333333335,2.0,2.2222222222222223,1.75,2.0,1.75,1.25,0.1428571428571428,0.5714285714285714,0.4808941400027834,-0.08377571552033218,,,0.04164766946557345,1.1313941379394383,,,,,-5.904982388454796e+43,-0.1775247203878012,-9.520682498464084e+43,-0.17081782377954802,,,,,,,,,,,,,,,,,,,,
24,240617_150955,LEARNING,1.0,25,1.0,1250.0,,,,,,,,,,25.0,25.0,25.0,cue2.png,Easy,B,,,,,,,,,,,,,,,,,,,,,,,,,,,16,28,Female,1.2857142857142858,0.5,0.4,1.25,2.611111111111111,2.0,2.3333333333333335,2.3333333333333335,2.0,2.2222222222222223,1.75,2.0,1.75,1.25,0.8333333333333333,0.8571428571428572,0.5586372399993706,1.1041857288748835,0.025213444749003947,0.7627722871439113,0.008059162331705585,-0.55374942721733,,,,,-5.595721205000275e+43,-0.17750737511042103,-8.582464869792535e+43,-0.17079083870312226,,,,,,,,,,,,,,,,,,,,
25,240617_151017,LEARNING,1.0,26,1.0,1250.0,,,,,,,,,,26.0,26.0,26.0,cue2.png,Easy,B,,,,,,,,,,,,,,,,,,,,,,,,,,,16,28,Female,1.2857142857142858,0.5,0.4,1.25,2.611111111111111,2.0,2.3333333333333335,2.3333333333333335,2.0,2.2222222222222223,1.75,2.0,1.75,1.25,1.0,1.0,0.5985875500016846,1.7146505543895454,0.011378622466142409,-0.6565452915868876,0.008684619853669494,-0.5223700713496907,0.013560672529090361,-0.750778746825549,0.015223276081479055,-0.3088712004583947,-3.823399089414533e+43,-0.17740797233908567,-5.879079698485716e+43,-0.1707130837630884,,,,,,,,,,,,,,,,,,,,
26,240617_151039,LEARNING,1.0,27,3.0,1250.0,,,,,,,,,,27.0,27.0,27.0,cue1.png,Hard,B,,,,,,,,,,,,,,,,,,,,,,,,,,,16,28,Female,1.2857142857142858,0.5,0.4,1.25,2.611111111111111,2.0,2.3333333333333335,2.3333333333333335,2.0,2.2222222222222223,1.75,2.0,1.75,1.25,0.5476190476190476,0.7142857142857143,0.4946928200079128,0.12707643509316918,0.01446408355869163,-0.3400071331914578,0.010303454210730669,-0.44115275826745265,0.0166779139245839,-0.004203211041939354,0.013576928958269882,-0.5863304535097829,7.199586598142756e+43,-0.17678973521610583,1.515534032098511e+44,-0.1701080904071214,,,,,,,,,,,,,,,,,,,,
27,240617_151100,LEARNING,1.0,28,1.0,1250.0,,,,,,,,,,28.0,28.0,28.0,cue2.png,Easy,B,,,,,,,,,,,,,,,,,,,,,,,,,,,16,28,Female,1.2857142857142858,0.5,0.4,1.25,2.611111111111111,2.0,2.3333333333333335,2.3333333333333335,2.0,2.2222222222222223,1.75,2.0,1.75,1.25,1.0,1.0,0.4887700799910817,0.03657339642503119,0.009754655936672562,-0.823148388859942,0.009164473628958779,-0.49829569083548286,0.018102822675381432,0.3370607076290088,0.014537303433105152,-0.4244783260447063,1.568260196112194e+43,-0.17710557478371788,2.7081777005800755e+43,-0.17046609650755182,,,,,,,,,,,,,,,,,,,,
28,240617_151122,LEARNING,1.0,29,1.0,1250.0,,,,,,,,,,29.0,29.0,29.0,cue2.png,Easy,B,,,,,,,,,,,,,,,,,,,,,,,,,,,16,28,Female,1.2857142857142858,0.5,0.4,1.25,2.611111111111111,2.0,2.3333333333333335,2.3333333333333335,2.0,2.2222222222222223,1.75,2.0,1.75,1.25,1.0,1.0,0.5261811400065198,0.6082369510587794,0.010452991437360578,-0.7515059903011895,0.0081701103790743,-0.5481831367196621,0.020384231966340427,0.8834554674964102,0.021491285023158273,0.7474777642044952,3.833886058190223e+43,-0.1769785044912924,6.351676008238449e+43,-0.1703613019723771,,,,,,,,,,,,,,,,,,,,
29,240617_151142,LEARNING,1.0,30,3.0,1250.0,,,,,,,,,,30.0,30.0,30.0,cue1.png,Hard,B,,,,,,,,,,,,,,,,,,,,,,,,,,,16,28,Female,1.2857142857142858,0.5,0.4,1.25,2.611111111111111,2.0,2.3333333333333335,2.3333333333333335,2.0,2.2222222222222223,1.75,2.0,1.75,1.25,0.5476190476190476,0.7142857142857143,0.4398547299846541,-0.7108826459669515,,,0.008597680461875912,-0.5267318417628769,0.01442861350473326,-0.5429079351983495,0.016683479682708623,-0.06278275726886708,4.989755920703508e+43,-0.17691367616994694,8.067316252235692e+43,-0.17031195661615203,,,,,,,,,,,,,,,,,,,,
30,240617_151203,LEARNING,1.0,31,3.0,1250.0,,,,,,,,,,31.0,31.0,31.0,cue1.png,Hard,B,,,,,,,,,,,,,,,,,,,,,,,,,,,16,28,Female,1.2857142857142858,0.5,0.4,1.25,2.611111111111111,2.0,2.3333333333333335,2.3333333333333335,2.0,2.2222222222222223,1.75,2.0,1.75,1.25,0.1428571428571428,0.5714285714285714,0.4396730999986175,-0.7136580616703001,0.012369750598517328,-0.5548652300513672,0.008771155378966541,-0.5180285630167781,0.013379813084345764,-0.7940943646204762,0.016190491667382966,-0.14586613899757211,4.850568552196406e+43,-0.17692148265729074,7.717963779458934e+43,-0.17032200471468412,,,,,,,,,,,,,,,,,,,,
31,240617_151224,LEARNING,1.0,32,1.0,1250.0,,,,,,,,,,32.0,32.0,32.0,cue2.png,Easy,B,,,,,,,,,,,,,,,,,,,,,,,,,,,16,28,Female,1.2857142857142858,0.5,0.4,1.25,2.611111111111111,2.0,2.3333333333333335,2.3333333333333335,2.0,2.2222222222222223,1.75,2.0,1.75,1.25,0.1428571428571428,0.5714285714285714,0.4898205499921459,0.05262521143900526,,,0.013136356513961691,-0.2990253612985653,0.016328770848891665,-0.08782255447068257,,,3.708932994181097e+43,-0.17698551263091902,5.330400677080357e+43,-0.17039067595984106,,,,,,,,,,,,,,,,,,,,
32,240617_151247,LEARNING,1.0,33,1.0,1250.0,,,,,,,,,,33.0,33.0,33.0,cue2.png,Easy,B,,,,,,,,,,,,,,,,,,,,,,,,,,,16,28,Female,1.2857142857142858,0.5,0.4,1.25,2.611111111111111,2.0,2.3333333333333335,2.3333333333333335,2.0,2.2222222222222223,1.75,2.0,1.75,1.25,1.0,1.0,0.5821880899951793,1.464056917173062,0.013618023504373944,-0.42680462745653436,,,0.01340410960834365,-0.7882753765730236,,,1.3922306866886341e+43,-0.17711544760588696,1.8916983822770903e+43,-0.17048958013878104,,,,,,,,,,,,,,,,,,,,
33,240617_151308,LEARNING,1.0,34,1.0,1250.0,,,,,,,,,,34.0,34.0,34.0,cue2.png,Easy,B,,,,,,,,,,,,,,,,,,,,,,,,,,,16,28,Female,1.2857142857142858,0.5,0.4,1.25,2.611111111111111,2.0,2.3333333333333335,2.3333333333333335,2.0,2.2222222222222223,1.75,2.0,1.75,1.25,1.0,1.0,0.5047809099836741,0.28122853269823433,0.008146461413230232,-0.9881334324313285,0.00883782824121892,-0.5146835693155877,0.016894456726688756,0.04765852758864249,0.01769349505500517,0.10743536187332225,-1.2932049883860713e+43,-0.1772660634256625,-2.009979577907347e+43,-0.170601800453905,,,,,,,,,,,,,,,,,,,,
34,240617_151328,LEARNING,1.0,35,3.0,1250.0,,,,,,,,,,35.0,35.0,35.0,cue1.png,Hard,B,,,,,,,,,,,,,,,,,,,,,,,,,,,16,28,Female,1.2857142857142858,0.5,0.4,1.25,2.611111111111111,2.0,2.3333333333333335,2.3333333333333335,2.0,2.2222222222222223,1.75,2.0,1.75,1.25,0.8333333333333333,0.8571428571428572,0.3819051399885211,-1.5963873227413365,0.010062825212910447,-0.7915332324057088,0.007902905018549695,-0.5615888945900203,0.01819009611731407,0.3579625911869305,0.02397829911455477,1.1666148115496902,-3.245367708088756e+43,-0.17737555276889733,-5.173638787451425e+43,-0.17069279382574723,,,,,,,,,,,,,,,,,,,,
35,240617_151351,LEARNING,1.0,36,3.0,1250.0,,,,,,,,,,36.0,36.0,36.0,cue1.png,Hard,B,,,,,,,,,,,,,,,,,,,,,,,,,,,16,28,Female,1.2857142857142858,0.5,0.4,1.25,2.611111111111111,2.0,2.3333333333333335,2.3333333333333335,2.0,2.2222222222222223,1.75,2.0,1.75,1.25,0.1785714285714285,0.6142857142857143,0.5124918444392582,0.3990562606109967,0.007883481816859331,-1.01511256930388,0.006645688098244632,-0.6246637729945468,0.014937504065491674,-0.42102926272765945,0.014278426140081613,-0.46810697479179714,-4.399079110476085e+43,-0.17744026003046678,-7.071127676990268e+43,-0.17074736952453665,,,,,,,,,,,,,,,,,,,,
36,240617_151413,LEARNING,1.0,37,1.0,1250.0,,,,,,,,,,37.0,37.0,37.0,cue2.png,Easy,B,,,,,,,,,,,,,,,,,,,,,,,,,,,16,28,Female,1.2857142857142858,0.5,0.4,1.25,2.611111111111111,2.0,2.3333333333333335,2.3333333333333335,2.0,2.2222222222222223,1.75,2.0,1.75,1.25,0.8333333333333333,0.7571428571428572,0.4658602999988943,-0.31350185567438715,,,0.02236505994979269,0.1639809327188824,0.016178897170720463,-0.12371711872941546,0.01621128512495585,-0.142361812889672,-4.353906746505495e+43,-0.17743772648527936,-6.869098760593075e+43,-0.1707415587557101,,,,,,,,,,,,,,,,,,,,
37,240617_151434,LEARNING,1.0,38,3.0,1250.0,,,,,,,,,,38.0,38.0,38.0,cue1.png,Hard,B,,,,,,,,,,,,,,,,,,,,,,,,,,,16,28,Female,1.2857142857142858,0.5,0.4,1.25,2.611111111111111,2.0,2.3333333333333335,2.3333333333333335,2.0,2.2222222222222223,1.75,2.0,1.75,1.25,0.1428571428571428,0.5714285714285714,0.4668453299964312,-0.29845000337240873,0.019142849955015872,0.1399885803280672,,,0.022760490283403843,1.45256645414844,0.013075431045627405,-0.6708480101580919,,,-4.625667932348374e+43,-0.1706770330523913,,,,,,,,,,,,,,,,,,,,
38,240617_151456,LEARNING,1.0,39,3.0,1250.0,,,,,,,,,,39.0,39.0,39.0,cue1.png,Hard,B,,,,,,,,,,,,,,,,,,,,,,,,,,,16,28,Female,1.2857142857142858,0.5,0.4,1.25,2.611111111111111,2.0,2.3333333333333335,2.3333333333333335,2.0,2.2222222222222223,1.75,2.0,1.75,1.25,0.1785714285714285,0.6142857142857143,0.4476649333373643,-0.5915380294503311,0.02331303007013053,0.5678083110656301,0.007906501690698049,-0.5614084486743199,0.016368985302174736,-0.0781912416536974,0.012588932894015081,-0.7528376536872873,-4.6079676002347067e+42,-0.17721937683068412,-7.964382557352841e+42,-0.170566896499509,,,,,,,,,,,,,,,,,,,,
39,240617_151517,LEARNING,1.0,40,3.0,1250.0,,,,,,,,,,40.0,40.0,40.0,cue1.png,Hard,B,,,,,,,,,,,,,,,,,,,,,,,,,,,16,28,Female,1.2857142857142858,0.5,0.4,1.25,2.611111111111111,2.0,2.3333333333333335,2.3333333333333335,2.0,2.2222222222222223,1.75,2.0,1.75,1.25,0.8333333333333333,0.8571428571428572,0.3805162699951324,-1.6176100936817244,0.010008465514295073,-0.797110006305789,0.017083402378025806,-0.10100111113772316,0.03330817538110611,3.978724250101583,0.015099441922910625,-0.32974099921120525,2.5011306032766796e+43,-0.17705325364922803,4.378156046205739e+43,-0.17041806448181604,,,,,,,,,,,,,,,,,,,,
40,240617_151537,LEARNING,1.0,41,1.0,1250.0,,,,,,,,,,41.0,41.0,41.0,cue2.png,Easy,B,,,,,,,,,,,,,,,,,,,,,,,,,,,16,28,Female,1.2857142857142858,0.5,0.4,1.25,2.611111111111111,2.0,2.3333333333333335,2.3333333333333335,2.0,2.2222222222222223,1.75,2.0,1.75,1.25,1.0,1.0,0.4111118099885061,-1.1500917945120828,0.01149863510399966,-0.6442331676507774,0.009230810986254532,-0.4949675294994964,0.02494945894797434,1.976821796043933,0.03621953329688256,3.229632777065496,4.23252527557702e+43,-0.17695614634170845,6.781097012262031e+43,-0.17034895093754435,,,,,,,,,,,,,,,,,,,,
41,240617_151559,LEARNING,1.0,42,3.0,1250.0,,,,,,,,,,42.0,42.0,42.0,cue1.png,Hard,B,,,,,,,,,,,,,,,,,,,,,,,,,,,16,28,Female,1.2857142857142858,0.5,0.4,1.25,2.611111111111111,2.0,2.3333333333333335,2.3333333333333335,2.0,2.2222222222222223,1.75,2.0,1.75,1.25,0.5476190476190476,0.7142857142857143,0.5217443000059575,0.5404393605864434,0.009481171522321146,-0.8512052174090671,0.008608882708403645,-0.5261698223323534,0.013087464225622167,-0.8641115619260253,0.01299265320073476,-0.6847985790808517,4.591610992709075e+43,-0.17693600659672867,,,,,,,,,,,,,,,,,,,,,,
42,240617_151619,LEARNING,1.0,43,3.0,1250.0,,,,,,,,,,43.0,43.0,43.0,cue1.png,Hard,B,,,,,,,,,,,,,,,,,,,,,,,,,,,16,28,Female,1.2857142857142858,0.5,0.4,1.25,2.611111111111111,2.0,2.3333333333333335,2.3333333333333335,2.0,2.2222222222222223,1.75,2.0,1.75,1.25,0.5476190476190476,0.7142857142857143,0.3876212400035001,-1.5090418678983977,0.01816568420841437,0.03974092313891726,0.011356437236762482,-0.38832434396893134,0.014473006530539623,-0.5322758593269223,0.0156951685081433,-0.22934306305827654,3.5747983611166876e+43,-0.17699303572964997,5.53519831235855e+43,-0.1703847855569421,,,,,,,,,,,,,,,,,,,,
43,240617_151640,LEARNING,1.0,44,1.0,1250.0,,,,,,,,,,44.0,44.0,44.0,cue2.png,Easy,B,,,,,,,,,,,,,,,,,,,,,,,,,,,16,28,Female,1.2857142857142858,0.5,0.4,1.25,2.611111111111111,2.0,2.3333333333333335,2.3333333333333335,2.0,2.2222222222222223,1.75,2.0,1.75,1.25,0.8333333333333333,0.8571428571428572,0.4479493099905084,-0.587192582720831,0.011938807473484914,-0.5990757837025978,0.012105800424570124,-0.35072861073593736,0.016808510623871873,0.02707454014006412,0.01454756540475093,-0.42274887364215213,4.0056105574103375e+42,-0.17717106656403145,1.5271391744515846e+42,-0.17053959692300322,,,,,,,,,,,,,,,,,,,,
44,240617_151701,LEARNING,1.0,45,1.0,1250.0,,,,,,,,,,45.0,45.0,45.0,cue2.png,Easy,B,,,,,,,,,,,,,,,,,,,,,,,,,,,16,28,Female,1.2857142857142858,0.5,0.4,1.25,2.611111111111111,2.0,2.3333333333333335,2.3333333333333335,2.0,2.2222222222222223,1.75,2.0,1.75,1.25,0.8333333333333333,0.8571428571428572,0.519173410005169,0.5011546112150913,0.012839459852338888,-0.5066776503910685,0.008013647308758802,-0.5560329269790504,0.019064076038623985,0.5672797229815183,0.009338705057907763,-1.3005992860551345,-2.95155212809484e+43,-0.17735907377636204,-4.409587777046952e+43,-0.17067081814091797,,,,,,,,,,,,,,,,,,,,
45,240617_151724,LEARNING,1.0,46,1.0,1250.0,,,,,,,,,,46.0,46.0,46.0,cue2.png,Easy,B,,,,,,,,,,,,,,,,,,,,,,,,,,,16,28,Female,1.2857142857142858,0.5,0.4,1.25,2.611111111111111,2.0,2.3333333333333335,2.3333333333333335,2.0,2.2222222222222223,1.75,2.0,1.75,1.25,0.5476190476190476,0.6142857142857143,0.5184466111046883,0.49004868578070687,0.019880728701053865,0.2156877294614051,0.05923537723626325,2.013773710735375,0.019229947757852448,0.6070057986820919,0.03800524530230629,3.5305792252385735,,,,,,,,,,,,,,,,,,,,,,,,
46,240617_151745,LEARNING,1.0,47,3.0,1250.0,,,,,,,,,,47.0,47.0,47.0,cue1.png,Hard,B,,,,,,,,,,,,,,,,,,,,,,,,,,,16,28,Female,1.2857142857142858,0.5,0.4,1.25,2.611111111111111,2.0,2.3333333333333335,2.3333333333333335,2.0,2.2222222222222223,1.75,2.0,1.75,1.25,0.5476190476190476,0.7142857142857143,0.4781352000019979,-0.12593398227939873,0.03160759593055447,1.4187497176801465,,,0.015056097895520704,-0.3926261841843837,0.017701847711654683,0.10884303698769965,,,-4.936434585730772e+43,-0.1706859713430776,,,,,,,,,,,,,,,,,,,,
47,240617_151807,LEARNING,1.0,48,3.0,1250.0,,,,,,,,,,48.0,48.0,48.0,cue1.png,Hard,B,,,,,,,,,,,,,,,,,,,,,,,,,,,16,28,Female,1.2857142857142858,0.5,0.4,1.25,2.611111111111111,2.0,2.3333333333333335,2.3333333333333335,2.0,2.2222222222222223,1.75,2.0,1.75,1.25,0.5476190476190476,0.7142857142857143,0.5228620599897112,0.5575194071094861,0.031985200848728995,1.4574882925040695,0.007755159562816756,-0.5690013200073581,,,0.015687256686888224,-0.23067644408392,1.6648061176068728e+43,-0.17710015989210573,2.9090004394204785e+43,-0.17046032043088258,,,,,,,,,,,,,,,,,,,,
48,240617_151827,LEARNING,1.0,49,1.0,1250.0,,,,,,,,,,49.0,49.0,49.0,cue2.png,Easy,B,,,,,,,,,,,,,,,,,,,,,,,,,,,16,28,Female,1.2857142857142858,0.5,0.4,1.25,2.611111111111111,2.0,2.3333333333333335,2.3333333333333335,2.0,2.2222222222222223,1.75,2.0,1.75,1.25,1.0,1.0,0.419655250001233,-1.019542879713619,,,0.009746676948329883,-0.4690864088230093,,,0.02984884699657025,2.1559795739282226,,,,,,,,,,,,,,,,,,,,,,,,
49,240617_151849,LEARNING,1.0,50,1.0,1250.0,,,,,,,,,,50.0,50.0,50.0,cue2.png,Easy,B,,,,,,,,,,,,,,,,,,,,,,,,,,,16,28,Female,1.2857142857142858,0.5,0.4,1.25,2.611111111111111,2.0,2.3333333333333335,2.3333333333333335,2.0,2.2222222222222223,1.75,2.0,1.75,1.25,1.0,1.0,0.5227018199977465,0.5550708434129943,0.011572422179405425,-0.6366633347273525,,,0.012085391992567952,-1.1041066471214986,0.01708817865138808,0.005421251459007441,-1.6362987775006113e+43,-0.17728530624454178,-6.454338463115009e+43,-0.17072962939307207,,,,,,,,,,,,,,,,,,,,
0,240617_152119,TrueCHOICE,9.0,1,3.0,1250.0,,,,,,,,,,,1.0,1.0,,,B,,,,,,True,cue2.png,Easy,cue1.png,Hard,Right,Hard,Hard,0.0136780000175349,,,,,,,,,,,,,16,28,Female,1.2857142857142858,0.5,0.4,1.25,2.611111111111111,2.0,2.3333333333333335,2.3333333333333335,2.0,2.2222222222222223,1.75,2.0,1.75,1.25,0.1428571428571428,0.5714285714285714,0.5002183999924454,0.26270785730049273,,,,,,,,,,,,,0.007075534926637551,-0.4600699983678069,,,125997194.14533107,2.1365933329163393,,,,,,,,,,,,,,
1,240617_152139,TrueCHOICE,9.0,2,3.0,1250.0,,,,,,,,,,,2.0,2.0,,,B,,,,,,True,cue2.png,Easy,cue1.png,Hard,Right,Hard,Hard,0.0155617000418715,,,,,,,,,,,,,16,28,Female,1.2857142857142858,0.5,0.4,1.25,2.611111111111111,2.0,2.3333333333333335,2.3333333333333335,2.0,2.2222222222222223,1.75,2.0,1.75,1.25,0.1428571428571428,0.5714285714285714,0.441406769992318,-0.6446910466939904,,,,,,,,,,,,,0.6699336488632582,2.642011627657756,0.04329051701763161,2.0837141391095853,37791669.83609359,0.14770768488248132,,,,,,,,,,,,,,
2,240617_152200,TrueCHOICE,9.0,3,3.0,1250.0,,,,,,,,,,,3.0,3.0,,,B,,,,,,True,cue1.png,Hard,cue2.png,Easy,Left,Hard,Hard,0.0150449000066146,,,,,,,,,,,,,16,28,Female,1.2857142857142858,0.5,0.4,1.25,2.611111111111111,2.0,2.3333333333333335,2.3333333333333335,2.0,2.2222222222222223,1.75,2.0,1.75,1.25,0.5476190476190476,0.6142857142857143,0.4478834666596312,-0.5447627254178755,,,,,,,,,,,,,,,0.011362932993952881,-0.8907800307955008,18547104.819885276,-0.28622476394241325,,,,,,,,,,,,,,
3,240617_152221,TrueCHOICE,9.0,4,3.0,1250.0,,,,,,,,,,,4.0,4.0,,,B,,,,,,True,cue2.png,Easy,cue1.png,Hard,Right,Hard,Hard,0.0164559000404551,,,,,,,,,,,,,16,28,Female,1.2857142857142858,0.5,0.4,1.25,2.611111111111111,2.0,2.3333333333333335,2.3333333333333335,2.0,2.2222222222222223,1.75,2.0,1.75,1.25,0.1785714285714285,0.6142857142857143,0.4774864111225017,-0.08802178216294429,,,,,,,,,,,,,0.00522711493629097,-0.46872034082975456,,,2306822.168400106,-0.6524157178367763,,,,,,,,,,,,,,
4,240617_152241,TrueCHOICE,9.0,5,3.0,1250.0,,,,,,,,,,,5.0,5.0,,,B,,,,,,True,cue1.png,Hard,cue2.png,Easy,Left,Hard,Hard,0.016475900018122,,,,,,,,,,,,,16,28,Female,1.2857142857142858,0.5,0.4,1.25,2.611111111111111,2.0,2.3333333333333335,2.3333333333333335,2.0,2.2222222222222223,1.75,2.0,1.75,1.25,0.5476190476190476,0.7142857142857143,0.5306186999951024,0.7317511214211196,,,,,,,,,,,,,0.027025170353756907,-0.36670854407882353,0.011689119528189688,-0.8603912627738002,,,,,,,,,,,,,,,,
5,240617_152303,TrueCHOICE,9.0,6,3.0,1250.0,,,,,,,,,,,6.0,6.0,,,B,,,,,,True,cue1.png,Hard,cue2.png,Easy,Left,Hard,Hard,0.0163143000099807,,,,,,,,,,,,,16,28,Female,1.2857142857142858,0.5,0.4,1.25,2.611111111111111,2.0,2.3333333333333335,2.3333333333333335,2.0,2.2222222222222223,1.75,2.0,1.75,1.25,0.1428571428571428,0.4714285714285714,0.5132727111146475,0.4641215505557795,,,,,,,,,,,,,0.033251968653229255,-0.33756801432194206,,,1821421.5265940067,-0.6633606827649364,,,,,,,,,,,,,,
6,240617_152330,TrueCHOICE,9.0,7,3.0,1250.0,,,,,,,,,,,8.0,7.0,,,B,,,,,,True,cue2.png,Easy,cue1.png,Hard,Right,Hard,Hard,0.0166566999978385,,,,,,,,,,,,,16,28,Female,1.2857142857142858,0.5,0.4,1.25,2.611111111111111,2.0,2.3333333333333335,2.3333333333333335,2.0,2.2222222222222223,1.75,2.0,1.75,1.25,0.5476190476190476,0.6142857142857143,0.4834185999999236,0.00350538152303491,,,,,,,,,,,,,0.029191028764920763,-0.35657263498970776,,,981484.1150677864,-0.6822998532546951,,,,,,,,,,,,,,
7,240617_152350,TrueCHOICE,9.0,8,3.0,1250.0,,,,,,,,,,,9.0,8.0,,,B,,,,,,True,cue1.png,Hard,cue2.png,Easy,Left,Hard,Hard,0.0166893000132404,,,,,,,,,,,,,16,28,Female,1.2857142857142858,0.5,0.4,1.25,2.611111111111111,2.0,2.3333333333333335,2.3333333333333335,2.0,2.2222222222222223,1.75,2.0,1.75,1.25,0.5476190476190476,0.6142857142857143,0.4570343111085498,-0.40357523880077695,,,,,,,,,,,,,0.036701694060630605,-0.321423790428265,0.01930382644787236,-0.1509764407398504,,,,,,,,,,,,,,,,
8,240617_152408,TrueCHOICE,9.0,9,3.0,1250.0,,,,,,,,,,,10.0,9.0,,,B,,,,,,True,cue2.png,Easy,cue1.png,Hard,Right,Hard,Hard,0.0167396999895572,,,,,,,,,,,,,16,28,Female,1.2857142857142858,0.5,0.4,1.25,2.611111111111111,2.0,2.3333333333333335,2.3333333333333335,2.0,2.2222222222222223,1.75,2.0,1.75,1.25,0.5476190476190476,0.7142857142857143,0.3584663500019814,-1.9243706984212154,,,,,,,,,,,,,,,0.022164005443431313,0.11548862410393906,,,,,,,,,,,,,,,,
9,240617_152431,TrueCHOICE,9.0,10,3.0,1250.0,,,,,,,,,,,11.0,10.0,,,B,,,,,,True,cue1.png,Hard,cue2.png,Easy,Left,Hard,Hard,0.0160792999668046,,,,,,,,,,,,,16,28,Female,1.2857142857142858,0.5,0.4,1.25,2.611111111111111,2.0,2.3333333333333335,2.3333333333333335,2.0,2.2222222222222223,1.75,2.0,1.75,1.25,0.1785714285714285,0.6142857142857143,0.6221083222189918,2.14333558069638,,,,,,,,,,,,,0.03466647955352309,-0.3309483046414569,0.017735850136178337,-0.2970550289043729,,,,,,,,,,,,,,,,
0,240617_152758,FalseCHOICE,9.0,1,2.0,1250.0,,,,,,,,,,,1.0,1.0,,,B,,,,,,False,cue2.png,Easy,cue1.png,Hard,Right,Hard,Mid,0.0165502000018022,,,,,,,,,,,,,16,28,Female,1.2857142857142858,0.5,0.4,1.25,2.611111111111111,2.0,2.3333333333333335,2.3333333333333335,2.0,2.2222222222222223,1.75,2.0,1.75,1.25,0.1428571428571428,0.4714285714285714,0.4681969555482889,0.02152690539427413,,,,,,,,,,,,,,,,,,,0.013104844569461618,0.1498469861096722,0.01951179872278986,1.3496995065124422,,,,,,,,,,
1,240617_152819,FalseCHOICE,9.0,2,2.0,1250.0,,,,,,,,,,,2.0,2.0,,,B,,,,,,False,cue1.png,Hard,cue2.png,Easy,Left,Hard,Mid,0.016123300010804,,,,,,,,,,,,,16,28,Female,1.2857142857142858,0.5,0.4,1.25,2.611111111111111,2.0,2.3333333333333335,2.3333333333333335,2.0,2.2222222222222223,1.75,2.0,1.75,1.25,0.8333333333333333,0.7571428571428572,0.4766049333395333,0.12535324935727526,,,,,,,,,,,,,,,,,,,0.005508313030056834,-0.5780938074253419,0.009570881155623927,-1.1678568085579415,2.651356968583294e+44,-0.1713215878003464,,,,,,,,
2,240617_152842,FalseCHOICE,9.0,3,2.0,1250.0,,,,,,,,,,,3.0,3.0,,,B,,,,,,False,cue1.png,Hard,cue2.png,Easy,Left,Hard,Mid,0.0161197999841533,,,,,,,,,,,,,16,28,Female,1.2857142857142858,0.5,0.4,1.25,2.611111111111111,2.0,2.3333333333333335,2.3333333333333335,2.0,2.2222222222222223,1.75,2.0,1.75,1.25,0.1428571428571428,0.2714285714285714,0.3891748000086019,-0.9542822255842947,,,,,,,,,,,,,,,,,,,,,0.006855606288582787,-1.8555053422556371,-6.2652442125856e+44,-0.17193363873829387,,,,,,,,
3,240617_152900,FalseCHOICE,9.0,4,2.0,1250.0,,,,,,,,,,,4.0,4.0,,,B,,,,,,False,cue1.png,Hard,cue2.png,Easy,Left,Hard,Mid,0.0133781000040471,,,,,,,,,,,,,16,28,Female,1.2857142857142858,0.5,0.4,1.25,2.611111111111111,2.0,2.3333333333333335,2.3333333333333335,2.0,2.2222222222222223,1.75,2.0,1.75,1.25,0.8333333333333333,0.8571428571428572,0.4472424099978525,-0.23723137250859638,,,,,,,,,,,,,,,,,,,0.006805076842787653,-0.45383087585318826,0.015420552071343132,0.31358349667043584,,,,,,,,,,
4,240617_152920,FalseCHOICE,9.0,5,2.0,1250.0,,,,,,,,,,,5.0,5.0,,,B,,,,,,False,cue2.png,Easy,cue1.png,Hard,Right,Hard,Mid,0.0163064000080339,,,,,,,,,,,,,16,28,Female,1.2857142857142858,0.5,0.4,1.25,2.611111111111111,2.0,2.3333333333333335,2.3333333333333335,2.0,2.2222222222222223,1.75,2.0,1.75,1.25,0.5476190476190476,0.7142857142857143,0.5495456599979661,1.0260655446295055,,,,,,,,,,,,,,,,,,,0.008952725146591116,-0.24803158411124748,0.011918080782701488,-0.5734240307027454,8.744615523355922e+48,5.830951865688812,,,,,,,,
5,240617_152940,FalseCHOICE,9.0,6,2.0,1250.0,,,,,,,,,,,6.0,6.0,,,B,,,,,,False,cue1.png,Hard,cue2.png,Easy,Left,Hard,Mid,0.0162867999752052,,,,,,,,,,,,,16,28,Female,1.2857142857142858,0.5,0.4,1.25,2.611111111111111,2.0,2.3333333333333335,2.3333333333333335,2.0,2.2222222222222223,1.75,2.0,1.75,1.25,0.5476190476190476,0.7142857142857143,0.4926218700071331,0.32313921132967166,,,,,,,,,,,,,,,,,,,0.016970505465748416,0.5202755489062101,0.007652906880063197,-1.6535874483058228,,,,,,,,,,
6,240617_152959,FalseCHOICE,9.0,7,2.0,1250.0,,,,,,,,,,,7.0,7.0,,,B,,,,,,False,cue1.png,Hard,cue2.png,Easy,Left,Hard,Mid,0.0160280999843962,,,,,,,,,,,,,16,28,Female,1.2857142857142858,0.5,0.4,1.25,2.611111111111111,2.0,2.3333333333333335,2.3333333333333335,2.0,2.2222222222222223,1.75,2.0,1.75,1.25,0.5476190476190476,0.7142857142857143,0.3295986300159711,-1.689961609049652,,,,,,,,,,,,,,,,,,,0.029202818486861726,1.6924420305654966,0.018863952121966662,1.1856311204626115,9.499032704049855e+43,-0.17143837852706897,,,,,,,,
7,240617_153018,FalseCHOICE,9.0,8,2.0,1250.0,,,,,,,,,,,8.0,8.0,,,B,,,,,,False,cue2.png,Easy,cue1.png,Hard,Right,Hard,Mid,0.0155380999785847,,,,,,,,,,,,,16,28,Female,1.2857142857142858,0.5,0.4,1.25,2.611111111111111,2.0,2.3333333333333335,2.3333333333333335,2.0,2.2222222222222223,1.75,2.0,1.75,1.25,0.8333333333333333,0.8571428571428572,0.4917020599998068,0.31178089039063245,,,,,,,,,,,,,,,,,,,0.0068566465997778586,-0.448889182445989,0.015452635748244422,0.32170874897715523,,,,,,,,,,
8,240617_153040,FalseCHOICE,9.0,9,2.0,1250.0,,,,,,,,,,,9.0,9.0,,,B,,,,,,False,cue2.png,Easy,cue1.png,Hard,Right,Hard,Mid,0.0162083000177517,,,,,,,,,,,,,16,28,Female,1.2857142857142858,0.5,0.4,1.25,2.611111111111111,2.0,2.3333333333333335,2.3333333333333335,2.0,2.2222222222222223,1.75,2.0,1.75,1.25,0.1785714285714285,0.4142857142857143,0.4012271285672406,-0.805453429701008,,,,,,,,,,,,,,,,,,,,,0.01426820105662772,0.021748406531806805,,,,,,,,,,
9,240617_153059,FalseCHOICE,9.0,10,2.0,1250.0,,,,,,,,,,,10.0,10.0,,,B,,,,,,False,cue1.png,Hard,cue2.png,Easy,Left,Hard,Mid,0.0161999000119976,,,,,,,,,,,,,16,28,Female,1.2857142857142858,0.5,0.4,1.25,2.611111111111111,2.0,2.3333333333333335,2.3333333333333335,2.0,2.2222222222222223,1.75,2.0,1.75,1.25,0.1428571428571428,0.5714285714285714,0.4328307499876246,-0.415194493540852,,,,,,,,,,,,,,,,,,,0.00853816832155592,-0.2877566642502713,0.01942184040389732,1.3269173908484861,3.079902603762459e+44,-0.17129217168622002,,,,,,,,
10,240617_153119,FalseCHOICE,9.0,11,2.0,1250.0,,,,,,,,,,,11.0,11.0,,,B,,,,,,False,cue2.png,Easy,cue1.png,Hard,Right,Hard,Mid,0.0166950999991968,,,,,,,,,,,,,16,28,Female,1.2857142857142858,0.5,0.4,1.25,2.611111111111111,2.0,2.3333333333333335,2.3333333333333335,2.0,2.2222222222222223,1.75,2.0,1.75,1.25,0.1785714285714285,0.6142857142857143,0.3449373999869244,-1.500550023230294,,,,,,,,,,,,,,,,,,,,,0.012661544332667547,-0.3851404700962465,2.290226458688531e+44,-0.17134637642359102,,,,,,,,
11,240617_153142,FalseCHOICE,9.0,12,2.0,1250.0,,,,,,,,,,,12.0,12.0,,,B,,,,,,False,cue1.png,Hard,cue2.png,Easy,Left,Hard,Mid,0.0166316999820992,,,,,,,,,,,,,16,28,Female,1.2857142857142858,0.5,0.4,1.25,2.611111111111111,2.0,2.3333333333333335,2.3333333333333335,2.0,2.2222222222222223,1.75,2.0,1.75,1.25,0.1785714285714285,0.4142857142857143,0.4294274856968383,-0.45721987676916337,,,,,,,,,,,,,,,,,,,,,,,,,,,,,,,,
12,240617_153205,FalseCHOICE,9.0,13,2.0,1250.0,,,,,,,,,,,13.0,13.0,,,B,,,,,,False,cue2.png,Easy,cue1.png,Hard,Right,Hard,Mid,0.0165580000029876,,,,,,,,,,,,,16,28,Female,1.2857142857142858,0.5,0.4,1.25,2.611111111111111,2.0,2.3333333333333335,2.3333333333333335,2.0,2.2222222222222223,1.75,2.0,1.75,1.25,0.1428571428571428,0.3714285714285714,0.438492387504084,-0.345281472981988,,,,,,,,,,,,,,,,,,,0.00685845902678674,-0.4487155058742239,,,,,,,,,,,,
13,240617_153224,FalseCHOICE,9.0,14,2.0,1250.0,,,,,,,,,,,14.0,14.0,,,B,,,,,,False,cue1.png,Hard,cue2.png,Easy,Left,Hard,Mid,0.0159083000035025,,,,,,,,,,,,,16,28,Female,1.2857142857142858,0.5,0.4,1.25,2.611111111111111,2.0,2.3333333333333335,2.3333333333333335,2.0,2.2222222222222223,1.75,2.0,1.75,1.25,0.8333333333333333,0.8571428571428572,0.437570030009374,-0.3566712516993313,,,,,,,,,,,,,,,,,,,,,,,-1.6226884818190288e+44,-0.17161496567758885,,,,,,,,
14,240617_153244,FalseCHOICE,9.0,15,2.0,1250.0,,,,,,,,,,,15.0,15.0,,,B,,,,,,False,cue2.png,Easy,cue1.png,Hard,Right,Hard,Mid,0.0153222999651916,,,,,,,,,,,,,16,28,Female,1.2857142857142858,0.5,0.4,1.25,2.611111111111111,2.0,2.3333333333333335,2.3333333333333335,2.0,2.2222222222222223,1.75,2.0,1.75,1.25,0.1428571428571428,0.4714285714285714,0.4980050222236766,0.38961334191337255,,,,,,,,,,,,,,,,,,,0.005630776522457673,-0.5663586923435553,,,,,,,,,,,,
15,240617_153320,FalseCHOICE,9.0,16,2.0,1250.0,,,,,,,,,,,19.0,16.0,,,B,,,,,,False,cue2.png,Easy,cue1.png,Hard,Right,Hard,Mid,0.0165908999624662,,,,,,,,,,,,,16,28,Female,1.2857142857142858,0.5,0.4,1.25,2.611111111111111,2.0,2.3333333333333335,2.3333333333333335,2.0,2.2222222222222223,1.75,2.0,1.75,1.25,0.5476190476190476,0.7142857142857143,0.3944394699996337,-0.8892711788246601,,,,,,,,,,,,,,,,,,,0.0189108680738716,0.7062116026665467,0.013812826559855555,-0.09357605243537472,,,,,,,,,,
16,240617_153341,FalseCHOICE,9.0,17,2.0,1250.0,,,,,,,,,,,20.0,17.0,,,B,,,,,,False,cue1.png,Hard,cue2.png,Easy,Left,Hard,Mid,0.0161660999874584,,,,,,,,,,,,,16,28,Female,1.2857142857142858,0.5,0.4,1.25,2.611111111111111,2.0,2.3333333333333335,2.3333333333333335,2.0,2.2222222222222223,1.75,2.0,1.75,1.25,0.5476190476190476,0.6142857142857143,0.4135881333301465,-0.6528129299154088,,,,,,,,,,,,,,,,,,,,,,,,,,,,,,,,
17,240617_153400,FalseCHOICE,9.0,18,2.0,1250.0,,,,,,,,,,,21.0,18.0,,,B,,,,,,False,cue1.png,Hard,cue2.png,Easy,Left,Hard,Mid,0.0161938999663107,,,,,,,,,,,,,16,28,Female,1.2857142857142858,0.5,0.4,1.25,2.611111111111111,2.0,2.3333333333333335,2.3333333333333335,2.0,2.2222222222222223,1.75,2.0,1.75,1.25,0.6904761904761906,0.7571428571428572,0.3899859222195421,-0.9442660414601161,,,,,,,,,,,,,,,,,,,0.005911857769703716,-0.5394239649476722,,,,,,,,,,,,
18,240617_153420,FalseCHOICE,9.0,19,2.0,1250.0,,,,,,,,,,,22.0,19.0,,,B,,,,,,False,cue2.png,Easy,cue1.png,Hard,Right,Hard,Mid,0.0171927999472245,,,,,,,,,,,,,16,28,Female,1.2857142857142858,0.5,0.4,1.25,2.611111111111111,2.0,2.3333333333333335,2.3333333333333335,2.0,2.2222222222222223,1.75,2.0,1.75,1.25,0.5476190476190476,0.7142857142857143,0.5871647699968889,1.4906070492939765,,,,,,,,,,,,,,,,,,,0.00682996346857972,-0.45144610458836637,0.01309315889499768,-0.2758332597981178,1.0568638022922441e+44,-0.17143103657103273,,,,,,,,
19,240617_153441,FalseCHOICE,9.0,20,2.0,1250.0,,,,,,,,,,,23.0,20.0,,,B,,,,,,False,cue2.png,Easy,cue1.png,Hard,Right,Hard,Mid,0.0165385999716818,,,,,,,,,,,,,16,28,Female,1.2857142857142858,0.5,0.4,1.25,2.611111111111111,2.0,2.3333333333333335,2.3333333333333335,2.0,2.2222222222222223,1.75,2.0,1.75,1.25,0.5476190476190476,0.6142857142857143,0.4420202666790121,-0.30171727648072855,,,,,,,,,,,,,,,,,,,0.014879666092686265,0.319919996574709,,,8.267871642102055e+43,-0.1714468294296878,,,,,,,,
20,240617_153501,FalseCHOICE,9.0,21,2.0,1250.0,,,,,,,,,,,24.0,21.0,,,B,,,,,,False,cue2.png,Easy,cue1.png,Hard,Right,Hard,Mid,0.0164949999889358,,,,,,,,,,,,,16,28,Female,1.2857142857142858,0.5,0.4,1.25,2.611111111111111,2.0,2.3333333333333335,2.3333333333333335,2.0,2.2222222222222223,1.75,2.0,1.75,1.25,0.1428571428571428,0.4714285714285714,0.3973296333246657,-0.8535818491256087,,,,,,,,,,,,,,,,,,,0.010480658336336757,-0.10161675086235192,0.008672349930818597,-1.3954115532797098,3.830392645778619e+43,-0.17147728905355838,,,,,,,,
21,240617_153522,FalseCHOICE,9.0,22,2.0,1250.0,,,,,,,,,,,25.0,22.0,,,B,,,,,,False,cue1.png,Hard,cue2.png,Easy,Left,Hard,Mid,0.0148842000053264,,,,,,,,,,,,,16,28,Female,1.2857142857142858,0.5,0.4,1.25,2.611111111111111,2.0,2.3333333333333335,2.3333333333333335,2.0,2.2222222222222223,1.75,2.0,1.75,1.25,0.5476190476190476,0.7142857142857143,0.566613730014069,1.2368314805388347,,,,,,,,,,,,,,,,,,,0.006925717815508126,-0.4422704044776086,0.014824820060902383,0.16271322993284942,-1.740641504848595e+43,-0.17151552959620406,,,,,,,,
22,240617_153541,FalseCHOICE,9.0,23,2.0,1250.0,,,,,,,,,,,26.0,23.0,,,B,,,,,,False,cue2.png,Easy,cue1.png,Hard,Right,Hard,Mid,0.0163751000072807,,,,,,,,,,,,,16,28,Female,1.2857142857142858,0.5,0.4,1.25,2.611111111111111,2.0,2.3333333333333335,2.3333333333333335,2.0,2.2222222222222223,1.75,2.0,1.75,1.25,0.1428571428571428,0.5714285714285714,0.4346089299884624,-0.393236546817043,,,,,,,,,,,,,,,,,,,0.006401968695338499,-0.4924588817019679,0.02229263749206426,2.0539522233745964,-5.904865987285208e+43,-0.17154411355379634,,,,,,,,
23,240617_153600,FalseCHOICE,9.0,24,2.0,1250.0,,,,,,,,,,,27.0,24.0,,,B,,,,,,False,cue1.png,Hard,cue2.png,Easy,Left,Hard,Mid,0.0165980000165291,,,,,,,,,,,,,16,28,Female,1.2857142857142858,0.5,0.4,1.25,2.611111111111111,2.0,2.3333333333333335,2.3333333333333335,2.0,2.2222222222222223,1.75,2.0,1.75,1.25,0.5476190476190476,0.6142857142857143,0.34893656666908,-1.4511661088318464,,,,,,,,,,,,,,,,,,,0.005393622839824302,-0.5890840425945744,0.01478360944167945,0.15227656209291734,-8.087438178272059e+43,-0.17155909510707532,,,,,,,,
24,240617_153618,FalseCHOICE,9.0,25,2.0,1250.0,,,,,,,,,,,28.0,25.0,,,B,,,,,,False,cue1.png,Hard,cue2.png,Easy,Left,Hard,Mid,0.0173476000200025,,,,,,,,,,,,,16,28,Female,1.2857142857142858,0.5,0.4,1.25,2.611111111111111,2.0,2.3333333333333335,2.3333333333333335,2.0,2.2222222222222223,1.75,2.0,1.75,1.25,0.1428571428571428,0.4714285714285714,0.2636340111170688,-2.5045290807094527,,,,,,,,,,,,,,,,,,,0.006050812815037082,-0.5261085399486483,,,-8.001695875824059e+43,-0.17155850655707103,,,,,,,,
25,240617_153638,FalseCHOICE,9.0,26,2.0,1250.0,,,,,,,,,,,29.0,26.0,,,B,,,,,,False,cue2.png,Easy,cue1.png,Hard,Right,Hard,Mid,0.0165740000084042,,,,,,,,,,,,,16,28,Female,1.2857142857142858,0.5,0.4,1.25,2.611111111111111,2.0,2.3333333333333335,2.3333333333333335,2.0,2.2222222222222223,1.75,2.0,1.75,1.25,0.5476190476190476,0.7142857142857143,0.5221797600097489,0.6881363284043506,,,,,,,,,,,,,,,,,,,0.005717274301853166,-0.5580700066656827,0.01886071144097771,1.184810411827444,-5.548042440580064e+43,-0.17154166425521267,,,,,,,,
26,240617_153659,FalseCHOICE,9.0,27,2.0,1250.0,,,,,,,,,,,30.0,27.0,,,B,,,,,,False,cue2.png,Easy,cue1.png,Hard,Right,Hard,Mid,0.01662380003836,,,,,,,,,,,,,16,28,Female,1.2857142857142858,0.5,0.4,1.25,2.611111111111111,2.0,2.3333333333333335,2.3333333333333335,2.0,2.2222222222222223,1.75,2.0,1.75,1.25,0.5476190476190476,0.6142857142857143,0.5362716000009742,0.8621501355678433,,,,,,,,,,,,,,,,,,,0.0054759138953359085,-0.5811984679821051,0.012833466015460109,-0.3416009763535843,1.3234587380673743e+44,-0.17141273703321808,,,,,,,,
27,240617_153719,FalseCHOICE,9.0,28,2.0,1250.0,,,,,,,,,,,31.0,28.0,,,B,,,,,,False,cue1.png,Hard,cue2.png,Easy,Left,Hard,Mid,0.0157298999838531,,,,,,,,,,,,,16,28,Female,1.2857142857142858,0.5,0.4,1.25,2.611111111111111,2.0,2.3333333333333335,2.3333333333333335,2.0,2.2222222222222223,1.75,2.0,1.75,1.25,0.5476190476190476,0.7142857142857143,0.5045191599987447,0.4700535055352253,,,,,,,,,,,,,,,,,,,0.00927320349625408,-0.21732161299425415,,,2.0702836929362094e+43,-0.17148937074605072,,,,,,,,
28,240617_153740,FalseCHOICE,9.0,29,2.0,1250.0,,,,,,,,,,,32.0,29.0,,,B,,,,,,False,cue2.png,Easy,cue1.png,Hard,Right,Hard,Mid,0.0164515000069513,,,,,,,,,,,,,16,28,Female,1.2857142857142858,0.5,0.4,1.25,2.611111111111111,2.0,2.3333333333333335,2.3333333333333335,2.0,2.2222222222222223,1.75,2.0,1.75,1.25,0.1428571428571428,0.4714285714285714,0.4966286111028037,0.37261665876096645,,,,,,,,,,,,,,,,,,,0.008733012549216893,-0.26908563511499844,0.01598035829772261,0.4553554901423794,5.353992091557363e+43,-0.17146683080325764,,,,,,,,
29,240617_153801,FalseCHOICE,9.0,30,2.0,1250.0,,,,,,,,,,,33.0,30.0,,,B,,,,,,False,cue2.png,Easy,cue1.png,Hard,Right,Hard,Mid,0.0153134000138379,,,,,,,,,,,,,16,28,Female,1.2857142857142858,0.5,0.4,1.25,2.611111111111111,2.0,2.3333333333333335,2.3333333333333335,2.0,2.2222222222222223,1.75,2.0,1.75,1.25,1.0,1.0,0.6212718999944628,1.9117806892156368,,,,,,,,,,,,,,,,,,,0.007218600563818238,-0.4142047933349892,,,6.865489727447085e+43,-0.17145645562187456,,,,,,,,
30,240617_153821,FalseCHOICE,9.0,31,2.0,1250.0,,,,,,,,,,,34.0,31.0,,,B,,,,,,False,cue1.png,Hard,cue2.png,Easy,Left,Hard,Mid,0.0176068000146187,,,,,,,,,,,,,16,28,Female,1.2857142857142858,0.5,0.4,1.25,2.611111111111111,2.0,2.3333333333333335,2.3333333333333335,2.0,2.2222222222222223,1.75,2.0,1.75,1.25,0.5476190476190476,0.7142857142857143,0.4527847000048496,-0.1687921207769358,,,,,,,,,,,,,,,,,,,0.00598516650615368,-0.5323991247942912,0.015595914945641116,0.35799447871861,,,,,,,,,,
31,240617_153840,FalseCHOICE,9.0,32,2.0,1250.0,,,,,,,,,,,35.0,32.0,,,B,,,,,,False,cue2.png,Easy,cue1.png,Hard,Right,Hard,Mid,0.0167095999931916,,,,,,,,,,,,,16,28,Female,1.2857142857142858,0.5,0.4,1.25,2.611111111111111,2.0,2.3333333333333335,2.3333333333333335,2.0,2.2222222222222223,1.75,2.0,1.75,1.25,0.8333333333333333,0.8571428571428572,0.4421251700085122,-0.30042187234884776,,,,,,,,,,,,,,,,,,,,,0.018452267156949743,1.0813711186574306,5.338528902945567e+43,-0.17146693694526066,,,,,,,,
32,240617_153901,FalseCHOICE,9.0,33,2.0,1250.0,,,,,,,,,,,36.0,33.0,,,B,,,,,,False,cue1.png,Hard,cue2.png,Easy,Left,Hard,Mid,0.016241000033915,,,,,,,,,,,,,16,28,Female,1.2857142857142858,0.5,0.4,1.25,2.611111111111111,2.0,2.3333333333333335,2.3333333333333335,2.0,2.2222222222222223,1.75,2.0,1.75,1.25,0.5476190476190476,0.6142857142857143,0.5170959444496677,0.62535857183902,,,,,,,,,,,,,,,,,,,0.019427319959449022,0.7557008193517892,0.01160056024221584,-0.6538367125767486,2.120100431239251e+43,-0.1714890287953367,,,,,,,,
33,240617_153922,FalseCHOICE,9.0,34,2.0,1250.0,,,,,,,,,,,37.0,34.0,,,B,,,,,,False,cue1.png,Hard,cue2.png,Easy,Left,Hard,Mid,0.0159832000499591,,,,,,,,,,,,,16,28,Female,1.2857142857142858,0.5,0.4,1.25,2.611111111111111,2.0,2.3333333333333335,2.3333333333333335,2.0,2.2222222222222223,1.75,2.0,1.75,1.25,0.8333333333333333,0.6571428571428573,0.3943427500125835,-0.8904655305335843,,,,,,,,,,,,,,,,,,,0.009035309646999999,-0.24011789001947711,0.012292504101171576,-0.47860061188299613,-1.1689147475561406e+43,-0.17151160516478742,,,,,,,,
34,240617_153943,FalseCHOICE,9.0,35,2.0,1250.0,,,,,,,,,,,38.0,35.0,,,B,,,,,,False,cue1.png,Hard,cue2.png,Easy,Left,Hard,Mid,0.016080499975942,,,,,,,,,,,,,16,28,Female,1.2857142857142858,0.5,0.4,1.25,2.611111111111111,2.0,2.3333333333333335,2.3333333333333335,2.0,2.2222222222222223,1.75,2.0,1.75,1.25,0.8333333333333333,0.7571428571428572,0.4958432888896722,0.3629190672298276,,,,,,,,,,,,,,,,,,,0.006972531757304962,-0.4377844390388656,0.009889721850479805,-1.087109795074287,-4.491392981495605e+43,-0.1715344112304404,,,,,,,,
35,240617_154001,FalseCHOICE,9.0,36,2.0,1250.0,,,,,,,,,,,39.0,36.0,,,B,,,,,,False,cue2.png,Easy,cue1.png,Hard,Right,Hard,Mid,0.0168255000025965,,,,,,,,,,,,,16,28,Female,1.2857142857142858,0.5,0.4,1.25,2.611111111111111,2.0,2.3333333333333335,2.3333333333333335,2.0,2.2222222222222223,1.75,2.0,1.75,1.25,0.1428571428571428,0.5714285714285714,0.3191516999911982,-1.818966058994678,,,,,,,,,,,,,,,,,,,0.007055095087796013,-0.4298727735632744,0.01157033436127242,-0.6614914745173376,-6.136558260167906e+43,-0.17154570392965876,,,,,,,,
36,240617_154021,FalseCHOICE,9.0,37,2.0,1250.0,,,,,,,,,,,40.0,37.0,,,B,,,,,,False,cue1.png,Hard,cue2.png,Easy,Left,Hard,Mid,0.0161534000071696,,,,,,,,,,,,,16,28,Female,1.2857142857142858,0.5,0.4,1.25,2.611111111111111,2.0,2.3333333333333335,2.3333333333333335,2.0,2.2222222222222223,1.75,2.0,1.75,1.25,0.8333333333333333,0.8571428571428572,0.5664238200057298,1.2344863670838042,,,,,,,,,,,,,,,,,,,0.00809257682343149,-0.33045565484283423,0.007817033363275466,-1.6120221037096558,-6.077442336764353e+43,-0.17154529814772873,,,,,,,,
37,240617_154041,FalseCHOICE,9.0,38,2.0,1250.0,,,,,,,,,,,41.0,38.0,,,B,,,,,,False,cue2.png,Easy,cue1.png,Hard,Right,Hard,Mid,0.0154895999585278,,,,,,,,,,,,,16,28,Female,1.2857142857142858,0.5,0.4,1.25,2.611111111111111,2.0,2.3333333333333335,2.3333333333333335,2.0,2.2222222222222223,1.75,2.0,1.75,1.25,0.1428571428571428,0.5714285714285714,0.4567328999866731,-0.12003757128533321,,,,,,,,,,,,,,,,,,,0.013024771980250153,0.14217399695289135,0.011198141351018629,-0.7557500635317339,-4.104703640534803e+43,-0.17153175692787576,,,,,,,,
38,240617_154102,FalseCHOICE,9.0,39,2.0,1250.0,,,,,,,,,,,42.0,39.0,,,B,,,,,,False,cue2.png,Easy,cue1.png,Hard,Right,Hard,Mid,0.0165523000177927,,,,,,,,,,,,,16,28,Female,1.2857142857142858,0.5,0.4,1.25,2.611111111111111,2.0,2.3333333333333335,2.3333333333333335,2.0,2.2222222222222223,1.75,2.0,1.75,1.25,0.5476190476190476,0.7142857142857143,0.6146007400064264,1.82940152876265,,,,,,,,,,,,,,,,,,,0.06478714466114516,5.1023248828054895,0.010694814158884028,-0.8832186339673667,,,,,,,,,,
39,240617_154124,FalseCHOICE,9.0,40,2.0,1250.0,,,,,,,,,,,43.0,40.0,,,B,,,,,,False,cue1.png,Hard,cue2.png,Easy,Left,Hard,Mid,0.0160772000090219,,,,,,,,,,,,,16,28,Female,1.2857142857142858,0.5,0.4,1.25,2.611111111111111,2.0,2.3333333333333335,2.3333333333333335,2.0,2.2222222222222223,1.75,2.0,1.75,1.25,0.8333333333333333,0.7571428571428572,0.596986644435674,1.6118929683534475,,,,,,,,,,,,,,,,,,,0.028053408929220217,1.5822993817597695,0.01346939409319621,-0.18055097898482844,2.936960379621492e+43,-0.17148342172726871,,,,,,,,
40,240617_154146,FalseCHOICE,9.0,41,2.0,1250.0,,,,,,,,,,,44.0,41.0,,,B,,,,,,False,cue1.png,Hard,cue2.png,Easy,Left,Hard,Mid,0.0169410000089555,,,,,,,,,,,,,16,28,Female,1.2857142857142858,0.5,0.4,1.25,2.611111111111111,2.0,2.3333333333333335,2.3333333333333335,2.0,2.2222222222222223,1.75,2.0,1.75,1.25,0.5476190476190476,0.6142857142857143,0.5982172222187122,1.6270888210718035,,,,,,,,,,,,,,,,,,,0.00895966997667228,-0.2473660928809374,0.016144620470846985,0.4969551984673273,5.775669805590238e+43,-0.17146393633444446,,,,,,,,
41,240617_154206,FalseCHOICE,9.0,42,2.0,1250.0,,,,,,,,,,,45.0,42.0,,,B,,,,,,False,cue2.png,Easy,cue1.png,Hard,Right,Hard,Mid,0.0151613000198267,,,,,,,,,,,,,16,28,Female,1.2857142857142858,0.5,0.4,1.25,2.611111111111111,2.0,2.3333333333333335,2.3333333333333335,2.0,2.2222222222222223,1.75,2.0,1.75,1.25,0.1785714285714285,0.6142857142857143,0.4002268777694553,-0.8178050778569135,,,,,,,,,,,,,,,,,,,0.009104342134837845,-0.2335028231674917,0.016365008743224642,0.5527689483694908,6.45414950574147e+43,-0.1714592791323512,,,,,,,,
42,240617_154225,FalseCHOICE,9.0,43,2.0,1250.0,,,,,,,,,,,46.0,43.0,,,B,,,,,,False,cue1.png,Hard,cue2.png,Easy,Left,Hard,Mid,0.0162292000022716,,,,,,,,,,,,,16,28,Female,1.2857142857142858,0.5,0.4,1.25,2.611111111111111,2.0,2.3333333333333335,2.3333333333333335,2.0,2.2222222222222223,1.75,2.0,1.75,1.25,0.6904761904761906,0.7571428571428572,0.3518136333441362,-1.415638503785133,,,,,,,,,,,,,,,,,,,0.024765049606462468,1.2671909822988103,0.017897993706351815,0.9410003111941829,4.522757113158775e+43,-0.1714725365440197,,,,,,,,
43,240617_154244,FalseCHOICE,9.0,44,2.0,1250.0,,,,,,,,,,,47.0,44.0,,,B,,,,,,False,cue2.png,Easy,cue1.png,Hard,Right,Hard,Mid,0.0162382999551482,,,,,,,,,,,,,16,28,Female,1.2857142857142858,0.5,0.4,1.25,2.611111111111111,2.0,2.3333333333333335,2.3333333333333335,2.0,2.2222222222222223,1.75,2.0,1.75,1.25,0.8333333333333333,0.8571428571428572,0.477933720004512,0.14176183947928955,,,,,,,,,,,,,,,,,,,0.0071936864659356715,-0.4165921971243067,0.015461144763997453,0.32386367342948463,4.574359876871574e+42,-0.17150044161185157,,,,,,,,
44,240617_154306,FalseCHOICE,9.0,45,2.0,1250.0,,,,,,,,,,,48.0,45.0,,,B,,,,,,False,cue1.png,Hard,cue2.png,Easy,Left,Hard,Mid,0.0165150000248104,,,,,,,,,,,,,16,28,Female,1.2857142857142858,0.5,0.4,1.25,2.611111111111111,2.0,2.3333333333333335,2.3333333333333335,2.0,2.2222222222222223,1.75,2.0,1.75,1.25,0.6904761904761906,0.6571428571428573,0.5067647125033545,0.49778282553573483,,,,,,,,,,,,,,,,,,,0.007085679356285887,-0.4269420233177549,0.024700656459991657,2.6637876151837245,,,,,,,,,,
45,240617_154328,FalseCHOICE,9.0,46,2.0,1250.0,,,,,,,,,,,49.0,46.0,,,B,,,,,,False,cue1.png,Hard,cue2.png,Easy,Left,Hard,Mid,0.0152136000106111,,,,,,,,,,,,,16,28,Female,1.2857142857142858,0.5,0.4,1.25,2.611111111111111,2.0,2.3333333333333335,2.3333333333333335,2.0,2.2222222222222223,1.75,2.0,1.75,1.25,0.8333333333333333,0.8571428571428572,0.5576412099879235,1.1260338579024392,,,,,,,,,,,,,,,,,,,,,0.012370889689043364,-0.458749312400449,-6.934320336922988e+43,-0.1715511799066304,,,,,,,,
46,240617_154347,FalseCHOICE,9.0,47,2.0,1250.0,,,,,,,,,,,50.0,47.0,,,B,,,,,,False,cue2.png,Easy,cue1.png,Hard,Right,Hard,Mid,0.0166962000075727,,,,,,,,,,,,,16,28,Female,1.2857142857142858,0.5,0.4,1.25,2.611111111111111,2.0,2.3333333333333335,2.3333333333333335,2.0,2.2222222222222223,1.75,2.0,1.75,1.25,0.8333333333333333,0.8571428571428572,0.4549107500002719,-0.14253848362566732,,,,,,,,,,,,,,,,,,,0.006520576494992436,-0.4810932399809182,0.01385872084516517,-0.08195323723484542,-5.23429756367045e+43,-0.1715395106560745,,,,,,,,
47,240617_154407,FalseCHOICE,9.0,48,2.0,1250.0,,,,,,,,,,,51.0,48.0,,,B,,,,,,False,cue2.png,Easy,cue1.png,Hard,Right,Hard,Mid,0.0167856999905779,,,,,,,,,,,,,16,28,Female,1.2857142857142858,0.5,0.4,1.25,2.611111111111111,2.0,2.3333333333333335,2.3333333333333335,2.0,2.2222222222222223,1.75,2.0,1.75,1.25,0.9166666666666666,0.9,0.5027297777705826,0.44795722753412115,,,,,,,,,,,,,,,,,,,0.008949981953350533,-0.24829445174419437,0.01031855251718336,-0.9785076116479573,2.769245629447889e+43,-0.17148457295034203,,,,,,,,
48,240617_154430,FalseCHOICE,9.0,49,2.0,1250.0,,,,,,,,,,,52.0,49.0,,,B,,,,,,False,cue1.png,Hard,cue2.png,Easy,Left,Hard,Mid,0.0143138999701477,,,,,,,,,,,,,16,28,Female,1.2857142857142858,0.5,0.4,1.25,2.611111111111111,2.0,2.3333333333333335,2.3333333333333335,2.0,2.2222222222222223,1.75,2.0,1.75,1.25,0.8333333333333333,0.6571428571428573,0.5227614499963238,0.6953193569666826,,,,,,,,,,,,,,,,,,,,,,,,,,,,,,,,
49,240617_154450,FalseCHOICE,9.0,50,2.0,1250.0,,,,,,,,,,,53.0,50.0,,,B,,,,,,False,cue2.png,Easy,cue1.png,Hard,Right,Hard,Mid,0.0167974000214599,,,,,,,,,,,,,16,28,Female,1.2857142857142858,0.5,0.4,1.25,2.611111111111111,2.0,2.3333333333333335,2.3333333333333335,2.0,2.2222222222222223,1.75,2.0,1.75,1.25,0.8333333333333333,0.8571428571428572,0.5472270899976138,0.9974345643467608,,,,,,,,,,,,,,,,,,,,,0.016660444220558793,0.6275885459200286,-3.2177178064323204e+43,-0.17152566850359077,,,,,,,,
0,240617_150027,OFFLINERATING,9.0,1,1.0,,,,,,,,,,,,,,,,,T0,cue2.png,Easy,99.0,2.2692285000230186,,,,,,,,,,,,,,,,,,,,,,16,28,Female,1.2857142857142858,0.5,0.4,1.25,2.611111111111111,2.0,2.3333333333333335,2.3333333333333335,2.0,2.2222222222222223,1.75,2.0,1.75,1.25,,,,,,,,,,,,,,,,,,,,,,,,,,,,,0.8291324118243638,,,,,,,
1,240617_150035,OFFLINERATING,9.0,2,3.0,,,,,,,,,,,,,,,,,T0,cue1.png,Hard,100.0,2.1437043999903835,,,,,,,,,,,,,,,,,,,,,,16,28,Female,1.2857142857142858,0.5,0.4,1.25,2.611111111111111,2.0,2.3333333333333335,2.3333333333333335,2.0,2.2222222222222223,1.75,2.0,1.75,1.25,,,,,,,,,,,,,,,,,,,,,,,,,,,,,0.88487240589659,,,,,484665.07314124855,-0.5763783283741544,
2,240617_151937,OFFLINERATING,9.0,3,1.0,,,,,,,,,,,,,,,,,T1,cue2.png,Easy,91.0,1.881409999972675,,,,,,,,,,,,,,,,,,,,,,16,28,Female,1.2857142857142858,0.5,0.4,1.25,2.611111111111111,2.0,2.3333333333333335,2.3333333333333335,2.0,2.2222222222222223,1.75,2.0,1.75,1.25,,,,,,,,,,,,,,,,,,,,,,,,,,,,,0.3832124592465547,,,,,29958.30484011329,-0.5778071794744954,
3,240617_151945,OFFLINERATING,9.0,4,3.0,,,,,,,,,,,,,,,,,T1,cue1.png,Hard,75.0,1.7520965000148865,,,,,,,,,,,,,,,,,,,,,,16,28,Female,1.2857142857142858,0.5,0.4,1.25,2.611111111111111,2.0,2.3333333333333335,2.3333333333333335,2.0,2.2222222222222223,1.75,2.0,1.75,1.25,,,,,,,,,,,,,,,,,,,,,,,,,,,,,-0.5086274459090635,0.006980312379289732,-1.6184302172250273,0.009818923926625733,-1.367342177413629,11560.282574803436,-0.5778649926327559,
4,240617_152512,OFFLINERATING,9.0,5,1.0,,,,,,,,,,,,,,,,,T2,cue2.png,Easy,57.0,2.753005899954587,,,,,,,,,,,,,,,,,,,,,,16,28,Female,1.2857142857142858,0.5,0.4,1.25,2.611111111111111,2.0,2.3333333333333335,2.3333333333333335,2.0,2.2222222222222223,1.75,2.0,1.75,1.25,,,,,,,,,,,,,,,,,,,,,,,,,,,,,-1.511947339209134,0.025957285908591508,-0.019481628644943287,0.013192633766203644,0.3709707091110765,735101597.7763028,1.7320505004814055,
5,240617_152521,OFFLINERATING,9.0,6,3.0,,,,,,,,,,,,,,,,,T2,cue1.png,Hard,99.0,2.419270999962464,,,,,,,,,,,,,,,,,,,,,,16,28,Female,1.2857142857142858,0.5,0.4,1.25,2.611111111111111,2.0,2.3333333333333335,2.3333333333333335,2.0,2.2222222222222223,1.75,2.0,1.75,1.25,,,,,,,,,,,,,,,,,,,,,,,,,,,,,0.8291324118243638,0.03425243422068773,0.6794451873306876,,,,,
6,240617_154529,OFFLINERATING,9.0,7,1.0,,,,,,,,,,,,,,,,,T3,cue2.png,Easy,55.0,1.2425748000387102,,,,,,,,,,,,,,,,,,,,,,16,28,Female,1.2857142857142858,0.5,0.4,1.25,2.611111111111111,2.0,2.3333333333333335,2.3333333333333335,2.0,2.2222222222222223,1.75,2.0,1.75,1.25,,,,,,,,,,,,,,,,,,,,,,,,,,,,,-1.6234273273535862,0.037563974761171556,0.9584666585392825,0.014406408749591128,0.9963714683025507,,,
7,240617_154537,OFFLINERATING,9.0,8,3.0,,,,,,,,,,,,,,,,,T3,cue1.png,Hard,97.0,1.8525418000062928,,,,,,,,,,,,,,,,,,,,,,16,28,Female,1.2857142857142858,0.5,0.4,1.25,2.611111111111111,2.0,2.3333333333333335,2.3333333333333335,2.0,2.2222222222222223,1.75,2.0,1.75,1.25,,,,,,,,,,,,,,,,,,,,,,,,,,,,,0.7176524236799116,,,,,,,
0,240617_152552,LEARNINGCHECK,9.0,1,,,,,,,,,,,,1.0,2.0,1.0,,,B,,,,,,,,,,,,,,,cue2.png,Easy,Left,Right,Hard,0.0142952000023797,0.0,,,,,,16,28,Female,1.2857142857142858,0.5,0.4,1.25,2.611111111111111,2.0,2.3333333333333335,2.3333333333333335,2.0,2.2222222222222223,1.75,2.0,1.75,1.25,,,,,,,,,,,,,,,,,,,,,,,,,,,,,,,,,,,,
1,240617_152600,LEARNINGCHECK,9.0,2,,,,,,,,,,,,2.0,3.0,2.0,,,B,,,,,,,,,,,,,,,cue1.png,Hard,Right,Middle,unsure,0.01501539995661,0.0,,,,,,16,28,Female,1.2857142857142858,0.5,0.4,1.25,2.611111111111111,2.0,2.3333333333333335,2.3333333333333335,2.0,2.2222222222222223,1.75,2.0,1.75,1.25,,,,,,,,,,,,,,,,,,,,,,,,,,,,,,,,,,,,
2,240617_154612,LEARNINGCHECK,9.0,1,,,,,,,,,,,,1.0,2.0,1.0,,,B,,,,,,,,,,,,,,,cue2.png,Easy,Middle,Right,Hard,0.0159957000287249,0.0,,,,,,16,28,Female,1.2857142857142858,0.5,0.4,1.25,2.611111111111111,2.0,2.3333333333333335,2.3333333333333335,2.0,2.2222222222222223,1.75,2.0,1.75,1.25,,,,,,,,,,,,,,,,,,,,,,,,,,,,,,,,,,,,
3,240617_154617,LEARNINGCHECK,9.0,2,,,,,,,,,,,,2.0,3.0,2.0,,,B,,,,,,,,,,,,,,,cue1.png,Hard,Middle,Middle,Mid,0.0161901999963447,1.0,,,,,,16,28,Female,1.2857142857142858,0.5,0.4,1.25,2.611111111111111,2.0,2.3333333333333335,2.3333333333333335,2.0,2.2222222222222223,1.75,2.0,1.75,1.25,,,,,,,,,,,,,,,,,,,,,,,,,,,,,,,,,,,,
0,240617_154645,DEMANDRATING,9.0,-1,,,,,,,,,,,,,,,,,,,,,,,,,,,,,,,,,,,,,,,1.0,MentalDemand,1.0,99.0,4.769657399971038,16,28,Female,1.2857142857142858,0.5,0.4,1.25,2.611111111111111,2.0,2.3333333333333335,2.3333333333333335,2.0,2.2222222222222223,1.75,2.0,1.75,1.25,,,,,,,,,,,,,,,,,,,,,,,,,,,,,,,,,,,,0.8722882422191969
1,240617_154652,DEMANDRATING,9.0,-1,,,,,,,,,,,,,,,,,,,,,,,,,,,,,,,,,,,,,,,2.0,Effort,1.0,85.0,5.019565000024159,16,28,Female,1.2857142857142858,0.5,0.4,1.25,2.611111111111111,2.0,2.3333333333333335,2.3333333333333335,2.0,2.2222222222222223,1.75,2.0,1.75,1.25,,,,,,,,,,,,,,,,,,,,,,,,,,,,,,,,,,,,0.28138330394167654
2,240617_154700,DEMANDRATING,9.0,-1,,,,,,,,,,,,,,,,,,,,,,,,,,,,,,,,,,,,,,,3.0,Frustration,1.0,77.0,6.338014699984342,16,28,Female,1.2857142857142858,0.5,0.4,1.25,2.611111111111111,2.0,2.3333333333333335,2.3333333333333335,2.0,2.2222222222222223,1.75,2.0,1.75,1.25,,,,,,,,,,,,,,,,,,,,,,,,,,,,,,,,,,,,-0.05627666078833507
3,240617_154711,DEMANDRATING,9.0,-1,,,,,,,,,,,,,,,,,,,,,,,,,,,,,,,,,,,,,,,4.0,MentalDemand,2.0,33.0,10.281416699988768,16,28,Female,1.2857142857142858,0.5,0.4,1.25,2.611111111111111,2.0,2.3333333333333335,2.3333333333333335,2.0,2.2222222222222223,1.75,2.0,1.75,1.25,,,,,,,,,,,,,,,,,,,,,,,,,,,,,,,,,,,,-1.913406466803399
4,240617_154718,DEMANDRATING,9.0,-1,,,,,,,,,,,,,,,,,,,,,,,,,,,,,,,,,,,,,,,5.0,Effort,2.0,88.0,4.741690299997572,16,28,Female,1.2857142857142858,0.5,0.4,1.25,2.611111111111111,2.0,2.3333333333333335,2.3333333333333335,2.0,2.2222222222222223,1.75,2.0,1.75,1.25,,,,,,,,,,,,,,,,,,,,,,,,,,,,,,,,,,,,0.4080057907154309
5,240617_154724,DEMANDRATING,9.0,-1,,,,,,,,,,,,,,,,,,,,,,,,,,,,,,,,,,,,,,,6.0,Frustration,2.0,83.0,4.640112199995201,16,28,Female,1.2857142857142858,0.5,0.4,1.25,2.611111111111111,2.0,2.3333333333333335,2.3333333333333335,2.0,2.2222222222222223,1.75,2.0,1.75,1.25,,,,,,,,,,,,,,,,,,,,,,,,,,,,,,,,,,,,0.19696831275917365
6,240617_154729,DEMANDRATING,9.0,-1,,,,,,,,,,,,,,,,,,,,,,,,,,,,,,,,,,,,,,,7.0,MentalDemand,3.0,40.0,3.159704599995166,16,28,Female,1.2857142857142858,0.5,0.4,1.25,2.611111111111111,2.0,2.3333333333333335,2.3333333333333335,2.0,2.2222222222222223,1.75,2.0,1.75,1.25,,,,,,,,,,,,,,,,,,,,,,,,,,,,,,,,,,,,-1.6179539976646389
7,240617_154736,DEMANDRATING,9.0,-1,,,,,,,,,,,,,,,,,,,,,,,,,,,,,,,,,,,,,,,8.0,Effort,3.0,100.0,6.016892899991944,16,28,Female,1.2857142857142858,0.5,0.4,1.25,2.611111111111111,2.0,2.3333333333333335,2.3333333333333335,2.0,2.2222222222222223,1.75,2.0,1.75,1.25,,,,,,,,,,,,,,,,,,,,,,,,,,,,,,,,,,,,0.9144957378104484
8,240617_154741,DEMANDRATING,9.0,-1,,,,,,,,,,,,,,,,,,,,,,,,,,,,,,,,,,,,,,,9.0,Frustration,3.0,100.0,3.033804999955464,16,28,Female,1.2857142857142858,0.5,0.4,1.25,2.611111111111111,2.0,2.3333333333333335,2.3333333333333335,2.0,2.2222222222222223,1.75,2.0,1.75,1.25,,,,,,,,,,,,,,,,,,,,,,,,,,,,,,,,,,,,0.9144957378104484
