,END,Phase,Block,TrialN,NbackLevel,ISI,Letter_Resp,Letter_RT,Letter_Accuracy,Trial_A_measure,Trial_ACC,Trial_RT,TrialCountCali,CaliEnd_A_measure,ISI_calibrated,TrialIndex,TrialNumber_total,TrialNumber_valid,CueLearning,TrialDemandLearning,CueMapping,OfflineRatingTimePoint,CueFigure,TrialDemand,OfflineRating,OfflineRatingRT,PhaseType,CueLeft,CueDemandLeft,CueRight,CueDemandRight,Choice,ChoiceDemand,TaskDemand,ChoiceRT,CueCheck,CueDemandCheck,CorrectAnswer,Answer,AnswerDemand,AnswerRT,AnswerACC,DemandRatingQuesIndex,QuesTLX,DemandLevel,DemandRating,DemandRatingRT,PID,Age,Gender,BAI_bis,BAI_bas_d,BAI_bas_rr,BAI_bas_fs,NFC,BFI_ext,BFI_agr,BFI_con,BFI_neu,BFI_open,UPPS_lps,UPPS_lpm,UPPS_pu,UPPS_ss,Task_A_measure,Task_ACC,Task_RT,Task_RT_z,cue_i_on_zyg_values,cue_i_on_zyg_zvalues,cue_e_on_zyg_values,cue_e_on_zyg_zvalues,cue_i_on_cor_values,cue_i_on_cor_zvalues,cue_e_on_cor_values,cue_e_on_cor_zvalues,cue_i_on_scr_values,cue_i_on_scr_zvalues,cue_e_on_scr_values,cue_e_on_scr_zvalues,cue_e_true_zyg_values,cue_e_true_zyg_zvalues,cue_e_true_cor_values,cue_e_true_cor_zvalues,cue_e_true_scr_values,cue_e_true_scr_zvalues,cue_e_false_zyg_values,cue_e_false_zyg_zvalues,cue_e_false_cor_values,cue_e_false_cor_zvalues,cue_e_false_scr_values,cue_e_false_scr_zvalues,OfflineRating_z,cue_i_off_zyg_values,cue_i_off_zyg_zvalues,cue_i_off_cor_values,cue_i_off_cor_zvalues,cue_i_off_scr_values,cue_i_off_scr_zvalues,DemandRating_z
0,240618_092752,PRACTICE,0.0,1,3.0,2583.0,,,,,,,,,,41.0,1.0,1.0,cue2.png,Hard,A,,,,,,,,,,,,,,,,,,,,,,,,,,,17,27,Female,0.14285714285714285,1.0,0.4,1.0,1.2777777777777777,1.25,3.3333333333333335,1.6666666666666667,2.0,2.5555555555555554,1.75,2.0,2.75,2.0,,,,,,,,,,,,,,,,,,,,,,,,,,,,,,,,,,,,
0,240618_093039,LEARNING,1.0,1,1.0,2583.0,,,,,,,,,,1.0,1.0,1.0,cue1.png,Easy,A,,,,,,,,,,,,,,,,,,,,,,,,,,,17,27,Female,0.14285714285714285,1.0,0.4,1.0,1.2777777777777777,1.25,3.3333333333333335,1.6666666666666667,2.0,2.5555555555555554,1.75,2.0,2.75,2.0,1.0,1.0,0.4523468500119634,0.15510990682786216,0.006703325785657669,0.017862011108125343,0.005716989814630854,-0.5554286022187517,0.01441179710469511,-0.09623830878259826,0.024842113258338693,2.0686124028068957,,,,,,,,,,,,,,,,,,,,,,,,
1,240618_093056,LEARNING,1.0,2,3.0,2583.0,,,,,,,,,,2.0,2.0,2.0,cue2.png,Hard,A,,,,,,,,,,,,,,,,,,,,,,,,,,,17,27,Female,0.14285714285714285,1.0,0.4,1.0,1.2777777777777777,1.25,3.3333333333333335,1.6666666666666667,2.0,2.5555555555555554,1.75,2.0,2.75,2.0,0.6875,0.75,0.3365627666547273,-1.3443895322975807,0.007534404655161677,0.7465473319228306,,,0.019177152769615975,1.5797255634951521,,,6.657997386681305e+44,-0.1683361252865031,4.210404511181435e+45,-0.17874111100835863,,,,,,,,,,,,,,,,,,,,
2,240618_093113,LEARNING,1.0,3,1.0,2583.0,,,,,,,,,,3.0,3.0,3.0,cue1.png,Easy,A,,,,,,,,,,,,,,,,,,,,,,,,,,,17,27,Female,0.14285714285714285,1.0,0.4,1.0,1.2777777777777777,1.25,3.3333333333333335,1.6666666666666667,2.0,2.5555555555555554,1.75,2.0,2.75,2.0,1.0,1.0,0.3259988833645669,-1.481200539555878,0.006002586170716532,-0.5965425777435858,,,,,0.017976798755066536,0.5786515198936512,-2.303775441871455e+45,-0.1711679623360259,-3.529781287489475e+45,-0.18029344184429935,,,,,,,,,,,,,,,,,,,,
3,240618_093129,LEARNING,1.0,4,3.0,2583.0,,,,,,,,,,4.0,4.0,4.0,cue2.png,Hard,A,,,,,,,,,,,,,,,,,,,,,,,,,,,17,27,Female,0.14285714285714285,1.0,0.4,1.0,1.2777777777777777,1.25,3.3333333333333335,1.6666666666666667,2.0,2.5555555555555554,1.75,2.0,2.75,2.0,1.0,1.0,0.3822435499945034,-0.7527856864955383,,,,,,,,,-2.1748061887334845e+45,-0.1710449750778892,-3.884573678376881e+45,-0.180364597134761,,,,,,,,,,,,,,,,,,,,
4,240618_093146,LEARNING,1.0,5,3.0,2583.0,,,,,,,,,,5.0,5.0,5.0,cue2.png,Hard,A,,,,,,,,,,,,,,,,,,,,,,,,,,,17,27,Female,0.14285714285714285,1.0,0.4,1.0,1.2777777777777777,1.25,3.3333333333333335,1.6666666666666667,2.0,2.5555555555555554,1.75,2.0,2.75,2.0,0.6875,0.75,0.3191215166589245,-1.5702681144655708,0.007783374634324916,0.9648428220344587,0.00590352513430154,-0.4830931108343043,,,,,6.381021487429242e+48,5.9160788253573156,2.865726402977768e+49,5.567764185285898,,,,,,,,,,,,,,,,,,,,
5,240618_093203,LEARNING,1.0,6,1.0,2583.0,,,,,,,,,,6.0,6.0,6.0,cue1.png,Easy,A,,,,,,,,,,,,,,,,,,,,,,,,,,,17,27,Female,0.14285714285714285,1.0,0.4,1.0,1.2777777777777777,1.25,3.3333333333333335,1.6666666666666667,2.0,2.5555555555555554,1.75,2.0,2.75,2.0,1.0,1.0,0.3775501333681556,-0.8135693054069252,,,0.007088789126136603,-0.02346619716968439,,,,,-7.082659959570093e+43,-0.16903858460459678,-7.585793250527954e+44,-0.17973766419621645,,,,,,,,,,,,,,,,,,,,
6,240618_093220,LEARNING,1.0,7,3.0,2583.0,,,,,,,,,,7.0,7.0,7.0,cue2.png,Hard,A,,,,,,,,,,,,,,,,,,,,,,,,,,,17,27,Female,0.14285714285714285,1.0,0.4,1.0,1.2777777777777777,1.25,3.3333333333333335,1.6666666666666667,2.0,2.5555555555555554,1.75,2.0,2.75,2.0,1.0,1.0,0.4302634333143942,-0.13088856543027594,0.008802209046233848,1.8581511559859585,0.009720867454398622,0.9972127797303009,0.01833275684766868,1.282753593595854,0.010993436005747606,-0.9369290587847879,1.5713812297994382e+44,-0.16882119359472966,,,,,,,,,,,,,,,,,,,,,,
7,240618_093238,LEARNING,1.0,8,3.0,2583.0,,,,,,,,,,8.0,8.0,8.0,cue2.png,Hard,A,,,,,,,,,,,,,,,,,,,,,,,,,,,17,27,Female,0.14285714285714285,1.0,0.4,1.0,1.2777777777777777,1.25,3.3333333333333335,1.6666666666666667,2.0,2.5555555555555554,1.75,2.0,2.75,2.0,0.6875,0.75,0.500854583340697,0.7833250881430817,0.0071401148978275115,0.40083627024168283,0.008421141257323184,0.4931992058040899,,,0.016354838523392964,0.22664181987441762,6.931507362446673e+44,-0.16831004291324436,,,,,,,,,,,,,,,,,,,,,,
8,240618_093254,LEARNING,1.0,9,1.0,2583.0,,,,,,,,,,9.0,9.0,9.0,cue1.png,Easy,A,,,,,,,,,,,,,,,,,,,,,,,,,,,17,27,Female,0.14285714285714285,1.0,0.4,1.0,1.2777777777777777,1.25,3.3333333333333335,1.6666666666666667,2.0,2.5555555555555554,1.75,2.0,2.75,2.0,1.0,1.0,0.3391925333417021,-1.3103318832856448,0.00764843472938941,0.8465282654661773,0.006729358207824564,-0.16284790858371978,0.013132794134169989,-0.5460605092356311,0.018336278601995975,0.6566684716101707,,,,,,,,,,,,,,,,,,,,,,,,
9,240618_093312,LEARNING,1.0,10,1.0,2583.0,,,,,,,,,,10.0,10.0,10.0,cue1.png,Easy,A,,,,,,,,,,,,,,,,,,,,,,,,,,,17,27,Female,0.14285714285714285,1.0,0.4,1.0,1.2777777777777777,1.25,3.3333333333333335,1.6666666666666667,2.0,2.5555555555555554,1.75,2.0,2.75,2.0,1.0,1.0,0.4771824833199692,0.47675185566790923,0.007055371636443603,0.3265338509715706,,,0.015382693491044914,0.24522356346032348,,,9.844563871157524e+44,-0.16803224892430008,,,,,,,,,,,,,,,,,,,,,,
10,240618_093330,LEARNING,1.0,11,3.0,2583.0,,,,,,,,,,11.0,11.0,11.0,cue2.png,Hard,A,,,,,,,,,,,,,,,,,,,,,,,,,,,17,27,Female,0.14285714285714285,1.0,0.4,1.0,1.2777777777777777,1.25,3.3333333333333335,1.6666666666666667,2.0,2.5555555555555554,1.75,2.0,2.75,2.0,0.6875,0.75,0.533173083308308,1.2018763360316778,0.006975355507744991,0.256376155293546,,,0.017706866768833984,1.0626295915479516,,,,,1.649537357016303e+45,-0.17925470501676613,,,,,,,,,,,,,,,,,,,,
11,240618_093348,LEARNING,1.0,12,1.0,2583.0,,,,,,,,,,12.0,12.0,12.0,cue1.png,Easy,A,,,,,,,,,,,,,,,,,,,,,,,,,,,17,27,Female,0.14285714285714285,1.0,0.4,1.0,1.2777777777777777,1.25,3.3333333333333335,1.6666666666666667,2.0,2.5555555555555554,1.75,2.0,2.75,2.0,1.0,1.0,0.5085322333422179,0.8827569922292534,0.006367033142745669,-0.2769975038909788,0.0106987974800007,1.3764388108455652,0.013621215840358431,-0.3742837958973454,0.01533376530409152,0.005041024364709193,5.126265767351693e+44,-0.16848219380088078,,,,,,,,,,,,,,,,,,,,,,
12,240618_093405,LEARNING,1.0,13,1.0,2583.0,,,,,,,,,,13.0,13.0,13.0,cue1.png,Easy,A,,,,,,,,,,,,,,,,,,,,,,,,,,,17,27,Female,0.14285714285714285,1.0,0.4,1.0,1.2777777777777777,1.25,3.3333333333333335,1.6666666666666667,2.0,2.5555555555555554,1.75,2.0,2.75,2.0,1.0,1.0,0.4600408833357505,0.2547539884589682,,,,,0.013427757897810234,-0.4423224786976032,0.014902428145263755,-0.0885709279637668,,,,,,,,,,,,,,,,,,,,,,,,
13,240618_093423,LEARNING,1.0,14,1.0,2583.0,,,,,,,,,,14.0,14.0,14.0,cue1.png,Easy,A,,,,,,,,,,,,,,,,,,,,,,,,,,,17,27,Female,0.14285714285714285,1.0,0.4,1.0,1.2777777777777777,1.25,3.3333333333333335,1.6666666666666667,2.0,2.5555555555555554,1.75,2.0,2.75,2.0,1.0,1.0,0.5535513333355387,1.465791492590032,0.006537864549430732,-0.12721347862773982,0.005127865450052947,-0.7838818542544839,0.013105470140026495,-0.5556702908030234,,,-4.091637073159405e+44,-0.16936122858517333,,,,,,,,,,,,,,,,,,,,,,
14,240618_093440,LEARNING,1.0,15,3.0,2583.0,,,,,,,,,,15.0,15.0,15.0,cue2.png,Hard,A,,,,,,,,,,,,,,,,,,,,,,,,,,,17,27,Female,0.14285714285714285,1.0,0.4,1.0,1.2777777777777777,1.25,3.3333333333333335,1.6666666666666667,2.0,2.5555555555555554,1.75,2.0,2.75,2.0,1.0,1.0,0.4425602999787467,0.028366006800567,0.005936966490128111,-0.6540775479563032,0.006268407452490729,-0.34159743146212046,0.01709725685205483,0.848231282472091,,,,,,,,,,,,,,,,,,,,,,,,,,
15,240618_093457,LEARNING,1.0,16,1.0,2583.0,,,,,,,,,,16.0,16.0,16.0,cue1.png,Easy,A,,,,,,,,,,,,,,,,,,,,,,,,,,,17,27,Female,0.14285714285714285,1.0,0.4,1.0,1.2777777777777777,1.25,3.3333333333333335,1.6666666666666667,2.0,2.5555555555555554,1.75,2.0,2.75,2.0,1.0,1.0,0.3631441166508011,-1.0001391115611562,0.005669186972759732,-0.8888651363324064,0.0061818478722251696,-0.3751638883861746,,,,,,,,,,,,,,,,,,,,,,,,,,,,
16,240618_093514,LEARNING,1.0,17,1.0,2583.0,,,,,,,,,,17.0,17.0,17.0,cue1.png,Easy,A,,,,,,,,,,,,,,,,,,,,,,,,,,,17,27,Female,0.14285714285714285,1.0,0.4,1.0,1.2777777777777777,1.25,3.3333333333333335,1.6666666666666667,2.0,2.5555555555555554,1.75,2.0,2.75,2.0,1.0,1.0,0.4402818499947898,-0.0011418009563718844,0.006866390366952595,0.16083612715721093,0.005682077207738017,-0.568967167352496,0.014323005949954426,-0.1274659396221282,,,,,,,,,,,,,,,,,,,,,,,,,,
17,240618_093532,LEARNING,1.0,18,3.0,2583.0,,,,,,,,,,18.0,18.0,18.0,cue2.png,Hard,A,,,,,,,,,,,,,,,,,,,,,,,,,,,17,27,Female,0.14285714285714285,1.0,0.4,1.0,1.2777777777777777,1.25,3.3333333333333335,1.6666666666666667,2.0,2.5555555555555554,1.75,2.0,2.75,2.0,0.6875,0.75,0.4815548333572224,0.5333773972658208,0.004808573708520992,-1.6434460498424113,0.005709501051704291,-0.5583326278322971,0.01603127500476716,0.47332808737391285,0.016950079840167467,0.35582545413692235,,,,,,,,,,,,,,,,,,,,,,,,
18,240618_093549,LEARNING,1.0,19,3.0,2583.0,,,,,,,,,,19.0,19.0,19.0,cue2.png,Hard,A,,,,,,,,,,,,,,,,,,,,,,,,,,,17,27,Female,0.14285714285714285,1.0,0.4,1.0,1.2777777777777777,1.25,3.3333333333333335,1.6666666666666667,2.0,2.5555555555555554,1.75,2.0,2.75,2.0,0.6875,0.75,0.4087299333380845,-0.40976516228737037,,,0.0041154280002848355,-1.1764893269534025,,,0.013791555833488452,-0.3296605808365847,,,,,,,,,,,,,,,,,,,,,,,,
19,240618_093607,LEARNING,1.0,20,3.0,2583.0,,,,,,,,,,20.0,20.0,20.0,cue2.png,Hard,A,,,,,,,,,,,,,,,,,,,,,,,,,,,17,27,Female,0.14285714285714285,1.0,0.4,1.0,1.2777777777777777,1.25,3.3333333333333335,1.6666666666666667,2.0,2.5555555555555554,1.75,2.0,2.75,2.0,1.0,1.0,0.5722829000054238,1.7083807406196756,0.005408885343193212,-1.1170961543613818,,,0.01260908332768911,-0.7302483123926014,0.01702915718761001,0.37298739979254725,,,5.715388073843986e+44,-0.1794709027196663,,,,,,,,,,,,,,,,,,,,
20,240618_093625,LEARNING,1.0,21,1.0,2583.0,,,,,,,,,,21.0,21.0,21.0,cue1.png,Easy,A,,,,,,,,,,,,,,,,,,,,,,,,,,,17,27,Female,0.14285714285714285,1.0,0.4,1.0,1.2777777777777777,1.25,3.3333333333333335,1.6666666666666667,2.0,2.5555555555555554,1.75,2.0,2.75,2.0,1.0,1.0,0.4535641499872629,0.1708749461776767,0.005723429739125379,-0.8413053811016926,0.006038564517627526,-0.4307269414333415,,,0.012468589833772034,-0.6167803607187994,2.1077840059282035e+44,-0.1687700413199914,3.154385762153364e+44,-0.17952226483115505,,,,,,,,,,,,,,,,,,,,
21,240618_093642,LEARNING,1.0,22,3.0,2583.0,,,,,,,,,,22.0,22.0,22.0,cue2.png,Hard,A,,,,,,,,,,,,,,,,,,,,,,,,,,,17,27,Female,0.14285714285714285,1.0,0.4,1.0,1.2777777777777777,1.25,3.3333333333333335,1.6666666666666667,2.0,2.5555555555555554,1.75,2.0,2.75,2.0,1.0,1.0,0.4897602333221584,0.6396440989441439,0.0056442045872734,-0.9107695526890498,0.007119883237686795,-0.011408385050688422,0.01377899231236422,-0.3187941985680902,0.016318515240941564,0.21875867483192893,4.1883187495736704e+43,-0.1689311026479112,3.115964050172818e+43,-0.1795792783149906,,,,,,,,,,,,,,,,,,,,
22,240618_093659,LEARNING,1.0,23,3.0,2583.0,,,,,,,,,,23.0,23.0,23.0,cue2.png,Hard,A,,,,,,,,,,,,,,,,,,,,,,,,,,,17,27,Female,0.14285714285714285,1.0,0.4,1.0,1.2777777777777777,1.25,3.3333333333333335,1.6666666666666667,2.0,2.5555555555555554,1.75,2.0,2.75,2.0,1.0,1.0,0.3702680333323466,-0.9078785109793385,0.005119019079064879,-1.371249279197503,0.006814885059932024,-0.1296819275529955,0.009588437890387375,-1.792601886784704,0.010856582917893985,-0.9666299191766314,,,-2.4396523082420356e+44,-0.17963445590795832,,,,,,,,,,,,,,,,,,,,
23,240618_093717,LEARNING,1.0,24,3.0,2583.0,,,,,,,,,,24.0,24.0,24.0,cue2.png,Hard,A,,,,,,,,,,,,,,,,,,,,,,,,,,,17,27,Female,0.14285714285714285,1.0,0.4,1.0,1.2777777777777777,1.25,3.3333333333333335,1.6666666666666667,2.0,2.5555555555555554,1.75,2.0,2.75,2.0,0.6875,0.75,0.5165178166741194,0.9861768870893317,0.005686912724299497,-0.8733232961757146,0.007780111627189767,0.244617900292874,0.0167532270471421,0.7272368458417094,0.02275503060816977,1.6156584257274094,-2.232587610657172e+44,-0.16918394648841723,-4.457765370693787e+44,-0.17967493011902697,,,,,,,,,,,,,,,,,,,,
24,240618_093734,LEARNING,1.0,25,1.0,2583.0,,,,,,,,,,25.0,25.0,25.0,cue1.png,Easy,A,,,,,,,,,,,,,,,,,,,,,,,,,,,17,27,Female,0.14285714285714285,1.0,0.4,1.0,1.2777777777777777,1.25,3.3333333333333335,1.6666666666666667,2.0,2.5555555555555554,1.75,2.0,2.75,2.0,1.0,1.0,0.3693432499809811,-0.919855218627544,,,0.013408678572070249,2.4272884876485037,0.012924971777652144,-0.6191511211157662,0.014867030354885246,-0.09625321593184213,,,-4.959431487403027e+44,-0.17968499127004542,,,,,,,,,,,,,,,,,,,,
25,240618_093751,LEARNING,1.0,26,1.0,2583.0,,,,,,,,,,26.0,26.0,26.0,cue1.png,Easy,A,,,,,,,,,,,,,,,,,,,,,,,,,,,17,27,Female,0.14285714285714285,1.0,0.4,1.0,1.2777777777777777,1.25,3.3333333333333335,1.6666666666666667,2.0,2.5555555555555554,1.75,2.0,2.75,2.0,1.0,1.0,0.4390170833600375,-0.017521572721582942,,,,,0.013909406458902495,-0.27292786383865186,0.01165359989506249,-0.7936554518841525,-2.217020796093107e+44,-0.1691824620106874,-3.80957505050709e+44,-0.17966193035587197,,,,,,,,,,,,,,,,,,,,
26,240618_093809,LEARNING,1.0,27,3.0,2583.0,,,,,,,,,,27.0,27.0,27.0,cue2.png,Hard,A,,,,,,,,,,,,,,,,,,,,,,,,,,,17,27,Female,0.14285714285714285,1.0,0.4,1.0,1.2777777777777777,1.25,3.3333333333333335,1.6666666666666667,2.0,2.5555555555555554,1.75,2.0,2.75,2.0,1.0,1.0,0.5139246999945802,0.9525938859219016,0.007369124790315441,0.6016308676027017,0.006356806673894346,-0.3073175903600599,0.00955856141668504,-1.803109369137965,0.03183123019701764,3.585441797844034,-5.388454295588484e+43,-0.16902242837322667,,,,,,,,,,,,,,,,,,,,,,
27,240618_093826,LEARNING,1.0,28,1.0,2583.0,,,,,,,,,,28.0,28.0,28.0,cue1.png,Easy,A,,,,,,,,,,,,,,,,,,,,,,,,,,,17,27,Female,0.14285714285714285,1.0,0.4,1.0,1.2777777777777777,1.25,3.3333333333333335,1.6666666666666667,2.0,2.5555555555555554,1.75,2.0,2.75,2.0,1.0,1.0,0.5150416833348572,0.9670597420542172,0.00722516144421274,0.47540460811061264,0.005010376727375464,-0.8294421508353694,0.014695882087525454,0.0036736812888096566,0.01189621793062243,-0.7410007071814486,-3.614686708250159e+42,-0.16897449018923016,6.34941531230353e+43,-0.179572793475697,,,,,,,,,,,,,,,,,,,,
28,240618_093845,LEARNING,1.0,29,1.0,2583.0,,,,,,,,,,29.0,29.0,29.0,cue1.png,Easy,A,,,,,,,,,,,,,,,,,,,,,,,,,,,17,27,Female,0.14285714285714285,1.0,0.4,1.0,1.2777777777777777,1.25,3.3333333333333335,1.6666666666666667,2.0,2.5555555555555554,1.75,2.0,2.75,2.0,1.0,1.0,0.5948030166327953,2.0000348373886916,0.0056439818751836636,-0.9109648254080587,0.0058492447907802095,-0.5041421825493221,0.008657364322839013,-2.120058171554946,0.011529853994600183,-0.8205116943799384,1.2391656266392417e+44,-0.16885287423577297,2.6161026884205066e+44,-0.17953306035254893,,,,,,,,,,,,,,,,,,,,
29,240618_093902,LEARNING,1.0,30,3.0,2583.0,,,,,,,,,,30.0,30.0,30.0,cue2.png,Hard,A,,,,,,,,,,,,,,,,,,,,,,,,,,,17,27,Female,0.14285714285714285,1.0,0.4,1.0,1.2777777777777777,1.25,3.3333333333333335,1.6666666666666667,2.0,2.5555555555555554,1.75,2.0,2.75,2.0,1.0,1.0,0.5112146833174241,0.9174969333046904,0.006824462828471921,0.1240742950978851,0.008693622696751729,0.5988632636833268,0.013054849574101145,-0.573473419394171,0.02329276092729154,1.732360601667933,1.9742709370166318e+44,-0.16878277335175196,3.863559378634809e+44,-0.17950804201917697,,,,,,,,,,,,,,,,,,,,
30,240618_093919,LEARNING,1.0,31,3.0,2583.0,,,,,,,,,,31.0,31.0,31.0,cue2.png,Hard,A,,,,,,,,,,,,,,,,,,,,,,,,,,,17,27,Female,0.14285714285714285,1.0,0.4,1.0,1.2777777777777777,1.25,3.3333333333333335,1.6666666666666667,2.0,2.5555555555555554,1.75,2.0,2.75,2.0,1.0,1.0,0.3582897332962602,-1.0630073824527189,0.006926077711867304,0.2131696585147217,0.006342629800081979,-0.31281516119717173,0.0149620270870713,0.09727622334243084,0.016988776052952383,0.3642235899162712,,,,,,,,,,,,,,,,,,,,,,,,
31,240618_093937,LEARNING,1.0,32,1.0,2583.0,,,,,,,,,,32.0,32.0,32.0,cue1.png,Easy,A,,,,,,,,,,,,,,,,,,,,,,,,,,,17,27,Female,0.14285714285714285,1.0,0.4,1.0,1.2777777777777777,1.25,3.3333333333333335,1.6666666666666667,2.0,2.5555555555555554,1.75,2.0,2.75,2.0,1.0,1.0,0.499145400011912,0.7611897534013614,0.009862686385425406,2.7879717764845977,0.008495057006485998,0.5218625819742487,0.022654413793973132,2.802669717318117,0.011409087698106052,-0.8467212813791642,1.8550019749859532e+44,-0.16879414704142143,3.486313188623912e+44,-0.17951560786977444,,,,,,,,,,,,,,,,,,,,
32,240618_093954,LEARNING,1.0,33,1.0,2583.0,,,,,,,,,,33.0,33.0,33.0,cue1.png,Easy,A,,,,,,,,,,,,,,,,,,,,,,,,,,,17,27,Female,0.14285714285714285,1.0,0.4,1.0,1.2777777777777777,1.25,3.3333333333333335,1.6666666666666667,2.0,2.5555555555555554,1.75,2.0,2.75,2.0,1.0,1.0,0.4049650000136656,-0.45852415613708947,0.006727303651671271,0.038885670389706556,0.0075117713722672895,0.14055972925956475,0.01417017283465786,-0.18121697054941943,0.01262384624136344,-0.5830854769632808,9.835482252085396e+43,-0.16887725034292184,1.9467369548327095e+44,-0.17954648479862553,,,,,,,,,,,,,,,,,,,,
33,240618_094011,LEARNING,1.0,34,1.0,2583.0,,,,,,,,,,34.0,34.0,34.0,cue1.png,Easy,A,,,,,,,,,,,,,,,,,,,,,,,,,,,17,27,Female,0.14285714285714285,1.0,0.4,1.0,1.2777777777777777,1.25,3.3333333333333335,1.6666666666666667,2.0,2.5555555555555554,1.75,2.0,2.75,2.0,1.0,1.0,0.3950512833350028,-0.5869149691768887,0.009038694169288033,2.0654999938447367,0.00905166112368757,0.7377049886319372,0.012721009930614938,-0.6908840013021763,0.01725163262145906,0.42127064940714937,1.9843065821763428e+42,-0.16896915089465908,-2.701547062318435e+43,-0.17959094560841646,,,,,,,,,,,,,,,,,,,,
34,240618_094028,LEARNING,1.0,35,3.0,2583.0,,,,,,,,,,35.0,35.0,35.0,cue2.png,Hard,A,,,,,,,,,,,,,,,,,,,,,,,,,,,17,27,Female,0.14285714285714285,1.0,0.4,1.0,1.2777777777777777,1.25,3.3333333333333335,1.6666666666666667,2.0,2.5555555555555554,1.75,2.0,2.75,2.0,1.0,1.0,0.4344945666380226,-0.07609189682367301,0.008010276207764632,1.1637888570045887,0.006926022793862317,-0.08658444548153449,0.01466664251888171,-0.006609803121102343,0.012964151427181622,-0.5092299507699877,-1.007290367817564e+44,-0.16906710007376202,-2.2524680581099653e+44,-0.1796307018393734,,,,,,,,,,,,,,,,,,,,
35,240618_094045,LEARNING,1.0,36,3.0,2583.0,,,,,,,,,,36.0,36.0,36.0,cue2.png,Hard,A,,,,,,,,,,,,,,,,,,,,,,,,,,,17,27,Female,0.14285714285714285,1.0,0.4,1.0,1.2777777777777777,1.25,3.3333333333333335,1.6666666666666667,2.0,2.5555555555555554,1.75,2.0,2.75,2.0,1.0,1.0,0.4206081833302353,-0.2559320214568886,,,0.0060780090691095875,-0.41543095878013003,,,0.012796949625605156,-0.5455173114994659,-1.841879162157262e+44,-0.16914668787084544,-3.564644708177903e+44,-0.17965701816212176,,,,,,,,,,,,,,,,,,,,
36,240618_094103,LEARNING,1.0,37,1.0,2583.0,,,,,,,,,,37.0,37.0,37.0,cue1.png,Easy,A,,,,,,,,,,,,,,,,,,,,,,,,,,,17,27,Female,0.14285714285714285,1.0,0.4,1.0,1.2777777777777777,1.25,3.3333333333333335,1.6666666666666667,2.0,2.5555555555555554,1.75,2.0,2.75,2.0,1.0,1.0,0.4975958166954418,0.7411213705412055,,,,,0.014970929065822536,0.10040702738475656,0.013489139775286686,-0.3952931307905142,-2.0577339359297417e+44,-0.1691672721466601,-3.756979362450159e+44,-0.1796608755244954,,,,,,,,,,,,,,,,,,,,
37,240618_094120,LEARNING,1.0,38,3.0,2583.0,,,,,,,,,,38.0,38.0,38.0,cue2.png,Hard,A,,,,,,,,,,,,,,,,,,,,,,,,,,,17,27,Female,0.14285714285714285,1.0,0.4,1.0,1.2777777777777777,1.25,3.3333333333333335,1.6666666666666667,2.0,2.5555555555555554,1.75,2.0,2.75,2.0,1.0,1.0,0.4120723833524001,-0.36647767599007663,,,,,0.014049257993525419,-0.22374242292056798,0.015592371824564492,0.0611657072743388,-1.4837054761708674e+44,-0.16911253182317953,-2.7875137048722265e+44,-0.1796414324326396,,,,,,,,,,,,,,,,,,,,
38,240618_094137,LEARNING,1.0,39,3.0,2583.0,,,,,,,,,,39.0,39.0,39.0,cue2.png,Hard,A,,,,,,,,,,,,,,,,,,,,,,,,,,,17,27,Female,0.14285714285714285,1.0,0.4,1.0,1.2777777777777777,1.25,3.3333333333333335,1.6666666666666667,2.0,2.5555555555555554,1.75,2.0,2.75,2.0,0.6875,0.75,0.3090593999950215,-1.7005808297926415,,,,,0.011578828518131227,-1.092586396151997,0.009706414478547079,-1.2162479057337623,-4.551444756265946e+43,-0.1690144465088853,-7.074940460432717e+43,-0.17959971665552846,,,,,,,,,,,,,,,,,,,,
39,240618_094154,LEARNING,1.0,40,3.0,2583.0,,,,,,,,,,40.0,40.0,40.0,cue2.png,Hard,A,,,,,,,,,,,,,,,,,,,,,,,,,,,17,27,Female,0.14285714285714285,1.0,0.4,1.0,1.2777777777777777,1.25,3.3333333333333335,1.6666666666666667,2.0,2.5555555555555554,1.75,2.0,2.75,2.0,0.6875,0.75,0.4043198000290431,-0.4668800284384673,0.006787043771003918,0.09126547406273053,0.0054605920614950645,-0.6548556570826145,0.014031288176662784,-0.23006236333444327,0.01963650481874135,0.9388530970873483,7.438083490040188e+43,-0.16890011234244734,1.7631841167449991e+44,-0.179550166037526,,,,,,,,,,,,,,,,,,,,
40,240618_094211,LEARNING,1.0,41,1.0,2583.0,,,,,,,,,,41.0,41.0,41.0,cue1.png,Easy,A,,,,,,,,,,,,,,,,,,,,,,,,,,,17,27,Female,0.14285714285714285,1.0,0.4,1.0,1.2777777777777777,1.25,3.3333333333333335,1.6666666666666667,2.0,2.5555555555555554,1.75,2.0,2.75,2.0,1.0,1.0,0.3716854500041033,-0.8895217952488303,0.005884023699663593,-0.7004974915622414,0.005282249722525524,-0.7240140381698433,,,0.010269996969680733,-1.0939351019017283,1.6415483433631188e+44,-0.16881450234026504,,,,,,,,,,,,,,,,,,,,,,
41,240618_094228,LEARNING,1.0,42,3.0,2583.0,,,,,,,,,,42.0,42.0,42.0,cue2.png,Hard,A,,,,,,,,,,,,,,,,,,,,,,,,,,,17,27,Female,0.14285714285714285,1.0,0.4,1.0,1.2777777777777777,1.25,3.3333333333333335,1.6666666666666667,2.0,2.5555555555555554,1.75,2.0,2.75,2.0,0.6875,0.75,0.3962916166638024,-0.570851628889215,0.007027891281370626,0.3024392288036349,0.005336784778326207,-0.702866193000441,0.01746091700754785,0.9761296651426175,0.008609272093332612,-1.4543577892906712,2.0433626793467493e+44,-0.1687761846465045,3.810491934107145e+44,-0.17950910631185246,,,,,,,,,,,,,,,,,,,,
42,240618_094244,LEARNING,1.0,43,3.0,2583.0,,,,,,,,,,43.0,43.0,43.0,cue2.png,Hard,A,,,,,,,,,,,,,,,,,,,,,,,,,,,17,27,Female,0.14285714285714285,1.0,0.4,1.0,1.2777777777777777,1.25,3.3333333333333335,1.6666666666666667,2.0,2.5555555555555554,1.75,2.0,2.75,2.0,1.0,1.0,0.3386377166995468,-1.317517216706323,0.007593855380460158,0.7986733965196174,0.004900024798619057,-0.8722349099005612,0.012138139660087834,-0.895878042527514,0.02075272018005136,1.181102337739923,1.7439482531282998e+44,-0.16880473731191212,3.1188496152179304e+44,-0.17952297752537347,,,,,,,,,,,,,,,,,,,,
43,240618_094301,LEARNING,1.0,44,1.0,2583.0,,,,,,,,,,44.0,44.0,44.0,cue1.png,Easy,A,,,,,,,,,,,,,,,,,,,,,,,,,,,17,27,Female,0.14285714285714285,1.0,0.4,1.0,1.2777777777777777,1.25,3.3333333333333335,1.6666666666666667,2.0,2.5555555555555554,1.75,2.0,2.75,2.0,1.0,1.0,0.3402943999972194,-1.2960618006971647,,,0.005322438022652217,-0.70842964137731,0.014579929039562407,-0.037106720622656714,0.011503411018175315,-0.8262505429763242,2.1301825851955649e+43,-0.16895072938200248,,,,,,,,,,,,,,,,,,,,,,
44,240618_094319,LEARNING,1.0,45,1.0,2583.0,,,,,,,,,,45.0,45.0,45.0,cue1.png,Easy,A,,,,,,,,,,,,,,,,,,,,,,,,,,,17,27,Female,0.14285714285714285,1.0,0.4,1.0,1.2777777777777777,1.25,3.3333333333333335,1.6666666666666667,2.0,2.5555555555555554,1.75,2.0,2.75,2.0,1.0,1.0,0.6004953999848416,2.0737558998713865,0.00567511514072108,-0.8836673517041715,,,0.019230864836377537,1.5986159653302991,0.0146801421893601,-0.13681305568560198,-1.049196529574961e+44,-0.16907109631612846,-2.0915886096349317e+44,-0.17962747532601528,,,,,,,,,,,,,,,,,,,,
45,240618_094337,LEARNING,1.0,46,1.0,2583.0,,,,,,,,,,46.0,46.0,46.0,cue1.png,Easy,A,,,,,,,,,,,,,,,,,,,,,,,,,,,17,27,Female,0.14285714285714285,1.0,0.4,1.0,1.2777777777777777,1.25,3.3333333333333335,1.6666666666666667,2.0,2.5555555555555554,1.75,2.0,2.75,2.0,0.6875,0.75,0.4764596000119733,0.46738992021475545,0.0051713778135017,-1.3253414326614497,0.006308444748846193,-0.3260715915799463,0.02132895497806189,2.3365091102491,0.010555125350724642,-1.0320544503800357,-2.1414789690852047e+44,-0.16917525821447063,-4.0560507783041746e+44,-0.1796668735430579,,,,,,,,,,,,,,,,,,,,
46,240618_094355,LEARNING,1.0,47,3.0,2583.0,,,,,,,,,,47.0,47.0,47.0,cue2.png,Hard,A,,,,,,,,,,,,,,,,,,,,,,,,,,,17,27,Female,0.14285714285714285,1.0,0.4,1.0,1.2777777777777777,1.25,3.3333333333333335,1.6666666666666667,2.0,2.5555555555555554,1.75,2.0,2.75,2.0,1.0,1.0,0.6134487666810552,2.241512689341574,0.007904530780978622,1.0710718561641768,0.017156525945504483,3.880645320391417,0.014018973006475735,-0.234393578413809,0.015244515554961716,-0.01432861047865433,-1.6219866275546542e+44,-0.1691257185473381,-2.7582516305241655e+44,-0.1796408455679116,,,,,,,,,,,,,,,,,,,,
47,240618_094412,LEARNING,1.0,48,3.0,2583.0,,,,,,,,,,48.0,48.0,48.0,cue2.png,Hard,A,,,,,,,,,,,,,,,,,,,,,,,,,,,17,27,Female,0.14285714285714285,1.0,0.4,1.0,1.2777777777777777,1.25,3.3333333333333335,1.6666666666666667,2.0,2.5555555555555554,1.75,2.0,2.75,2.0,0.6875,0.75,0.3701670666923746,-0.9091861122973993,0.005450777843891361,-1.0803650432344931,0.004463494661535566,-1.0415144974113906,0.013557610728409728,-0.3966535574039042,0.015558628485133303,0.05384248037958067,5.157712529534331e+43,-0.16892185834509085,1.5935260271908747e+44,-0.179553568610679,,,,,,,,,,,,,,,,,,,,
48,240618_094429,LEARNING,1.0,49,1.0,2583.0,,,,,,,,,,49.0,49.0,49.0,cue1.png,Easy,A,,,,,,,,,,,,,,,,,,,,,,,,,,,17,27,Female,0.14285714285714285,1.0,0.4,1.0,1.2777777777777777,1.25,3.3333333333333335,1.6666666666666667,2.0,2.5555555555555554,1.75,2.0,2.75,2.0,1.0,1.0,0.4332793999928981,-0.09182930778702764,,,0.011451722275519473,1.668411318548318,0.014211594251132715,-0.16664916020496756,0.017586598316973887,0.49396736027116644,,,,,,,,,,,,,,,,,,,,,,,,
49,240618_094447,LEARNING,1.0,50,1.0,2583.0,,,,,,,,,,50.0,50.0,50.0,cue1.png,Easy,A,,,,,,,,,,,,,,,,,,,,,,,,,,,17,27,Female,0.14285714285714285,1.0,0.4,1.0,1.2777777777777777,1.25,3.3333333333333335,1.6666666666666667,2.0,2.5555555555555554,1.75,2.0,2.75,2.0,1.0,1.0,0.4635168833192438,0.2997710570794151,0.005416217260316004,-1.110667570292102,,,0.015805088257843186,0.39377876453466876,0.011222360024872542,-0.8872462899192293,-1.303713334042204e+44,-0.16909536746849194,-1.5304240678977168e+44,-0.1796162209059686,,,,,,,,,,,,,,,,,,,,
0,240618_094618,TrueCHOICE,9.0,1,1.0,2583.0,,,,,,,,,,,1.0,1.0,,,A,,,,,,True,cue1.png,Easy,cue2.png,Hard,Left,Easy,Easy,0.0136724999174475,,,,,,,,,,,,,17,27,Female,0.14285714285714285,1.0,0.4,1.0,1.2777777777777777,1.25,3.3333333333333335,1.6666666666666667,2.0,2.5555555555555554,1.75,2.0,2.75,2.0,1.0,1.0,0.5047066500022387,0.7170010918808873,,,,,,,,,,,,,0.006556651989766563,-0.051051067941686436,0.012262540132136492,-1.0830492921236774,607436659.321978,-0.37930534722571985,,,,,,,,,,,,,,
1,240618_094634,TrueCHOICE,9.0,2,1.0,2583.0,,,,,,,,,,,2.0,2.0,,,A,,,,,,True,cue1.png,Easy,cue2.png,Hard,Left,Easy,Easy,0.0152192000532522,,,,,,,,,,,,,17,27,Female,0.14285714285714285,1.0,0.4,1.0,1.2777777777777777,1.25,3.3333333333333335,1.6666666666666667,2.0,2.5555555555555554,1.75,2.0,2.75,2.0,1.0,1.0,0.5309733166941442,1.0878671623979934,,,,,,,,,,,,,0.0053868357184633855,-0.8856022055956244,,,163019065.46445376,-0.40690959490539647,,,,,,,,,,,,,,
2,240618_094650,TrueCHOICE,9.0,3,1.0,2583.0,,,,,,,,,,,3.0,3.0,,,A,,,,,,True,cue2.png,Hard,cue1.png,Easy,Right,Easy,Easy,0.0175960999913513,,,,,,,,,,,,,17,27,Female,0.14285714285714285,1.0,0.4,1.0,1.2777777777777777,1.25,3.3333333333333335,1.6666666666666667,2.0,2.5555555555555554,1.75,2.0,2.75,2.0,1.0,1.0,0.5691073499813987,1.6262917460765494,,,,,,,,,,,,,,,0.01293963090820851,-0.32950904664964664,56095238.42971609,-0.41355098769704196,,,,,,,,,,,,,,
3,240618_094705,TrueCHOICE,9.0,4,1.0,2583.0,,,,,,,,,,,4.0,4.0,,,A,,,,,,True,cue1.png,Easy,cue2.png,Hard,Left,Easy,Easy,0.0166407999349758,,,,,,,,,,,,,17,27,Female,0.14285714285714285,1.0,0.4,1.0,1.2777777777777777,1.25,3.3333333333333335,1.6666666666666667,2.0,2.5555555555555554,1.75,2.0,2.75,2.0,1.0,1.0,0.3529747999855317,-1.4253413548418348,,,,,,,,,,,,,0.005689365665367657,-0.6697762527884493,,,,,,,,,,,,,,,,,,
4,240618_094720,TrueCHOICE,9.0,5,1.0,2583.0,,,,,,,,,,,5.0,5.0,,,A,,,,,,True,cue2.png,Hard,cue1.png,Easy,Right,Easy,Easy,0.0170230999356135,,,,,,,,,,,,,17,27,Female,0.14285714285714285,1.0,0.4,1.0,1.2777777777777777,1.25,3.3333333333333335,1.6666666666666667,2.0,2.5555555555555554,1.75,2.0,2.75,2.0,1.0,1.0,0.3584576166661766,-1.3479280042417363,,,,,,,,,,,,,0.007721432841174745,0.779907783038676,0.0140090140815986,0.8606168381792049,,,,,,,,,,,,,,,,
5,240618_094736,TrueCHOICE,9.0,6,1.0,2583.0,,,,,,,,,,,6.0,6.0,,,A,,,,,,True,cue2.png,Hard,cue1.png,Easy,Right,Easy,Easy,0.0155818000202998,,,,,,,,,,,,,17,27,Female,0.14285714285714285,1.0,0.4,1.0,1.2777777777777777,1.25,3.3333333333333335,1.6666666666666667,2.0,2.5555555555555554,1.75,2.0,2.75,2.0,1.0,1.0,0.4533893999760039,-0.007560843982810602,,,,,,,,,,,,,0.004634764098597319,-1.4221328056164901,0.012745661296922743,-0.5453795232062975,-5278832.353876498,-0.41736313436818256,,,,,,,,,,,,,,
6,240618_094751,TrueCHOICE,9.0,7,1.0,2583.0,,,,,,,,,,,7.0,7.0,,,A,,,,,,True,cue1.png,Easy,cue2.png,Hard,Left,Easy,Easy,0.0163488000398501,,,,,,,,,,,,,17,27,Female,0.14285714285714285,1.0,0.4,1.0,1.2777777777777777,1.25,3.3333333333333335,1.6666666666666667,2.0,2.5555555555555554,1.75,2.0,2.75,2.0,1.0,1.0,0.4321046333255556,-0.3080861394881562,,,,,,,,,,,,,,,0.013850076196246421,0.683733475747068,1806687.6846627728,-0.4169230292670649,,,,,,,,,,,,,,
7,240618_094806,TrueCHOICE,9.0,8,1.0,2583.0,,,,,,,,,,,8.0,8.0,,,A,,,,,,True,cue2.png,Hard,cue1.png,Easy,Right,Easy,Easy,0.0170378999318927,,,,,,,,,,,,,17,27,Female,0.14285714285714285,1.0,0.4,1.0,1.2777777777777777,1.25,3.3333333333333335,1.6666666666666667,2.0,2.5555555555555554,1.75,2.0,2.75,2.0,1.0,1.0,0.3912095499884647,-0.8854947250004677,,,,,,,,,,,,,,,0.014712323764744097,1.6433363346051173,,,,,,,,,,,,,,,,
8,240618_094822,TrueCHOICE,9.0,9,1.0,2583.0,,,,,,,,,,,9.0,9.0,,,A,,,,,,True,cue1.png,Easy,cue2.png,Hard,Left,Easy,Easy,0.0150296000065281,,,,,,,,,,,,,17,27,Female,0.14285714285714285,1.0,0.4,1.0,1.2777777777777777,1.25,3.3333333333333335,1.6666666666666667,2.0,2.5555555555555554,1.75,2.0,2.75,2.0,1.0,1.0,0.5174635833051676,0.8971196345722611,,,,,,,,,,,,,0.008975525667303386,1.6745821181831002,0.012130723848761717,-1.229748786551788,46146903417.64982,2.4493016588242935,,,,,,,,,,,,,,
9,240618_094837,TrueCHOICE,9.0,10,1.0,2583.0,,,,,,,,,,,10.0,10.0,,,A,,,,,,True,cue2.png,Hard,cue1.png,Easy,Right,Easy,Easy,0.0167929000454023,,,,,,,,,,,,,17,27,Female,0.14285714285714285,1.0,0.4,1.0,1.2777777777777777,1.25,3.3333333333333335,1.6666666666666667,2.0,2.5555555555555554,1.75,2.0,2.75,2.0,1.0,1.0,0.428862083334631,-0.35386856737269906,,,,,,,,,,,,,0.007432907029529269,0.5740724307204715,,,28748802.21792682,-0.41524956536088825,,,,,,,,,,,,,,
0,240618_095019,FalseCHOICE,9.0,1,2.0,2583.0,,,,,,,,,,,1.0,1.0,,,A,,,,,,False,cue1.png,Easy,cue2.png,Hard,Left,Easy,Mid,0.0168220999184995,,,,,,,,,,,,,17,27,Female,0.14285714285714285,1.0,0.4,1.0,1.2777777777777777,1.25,3.3333333333333335,1.6666666666666667,2.0,2.5555555555555554,1.75,2.0,2.75,2.0,0.6875,0.75,0.741782083370102,3.370859513861364,,,,,,,,,,,,,,,,,,,0.005920695539604455,-0.5535775900058157,0.03018130021499496,2.1045141384949524,,,,,,,,,,
1,240618_095036,FalseCHOICE,9.0,2,2.0,2583.0,,,,,,,,,,,2.0,2.0,,,A,,,,,,False,cue2.png,Hard,cue1.png,Easy,Right,Easy,Mid,0.0155929999891668,,,,,,,,,,,,,17,27,Female,0.14285714285714285,1.0,0.4,1.0,1.2777777777777777,1.25,3.3333333333333335,1.6666666666666667,2.0,2.5555555555555554,1.75,2.0,2.75,2.0,0.6875,0.75,0.5460583833434308,0.8313618537179813,,,,,,,,,,,,,,,,,,,0.004680914333809753,-0.6454977710033489,,,9.771961289418264e+44,2.031090055661281,,,,,,,,
2,240618_095052,FalseCHOICE,9.0,3,2.0,2583.0,,,,,,,,,,,3.0,3.0,,,A,,,,,,False,cue2.png,Hard,cue1.png,Easy,Left,Hard,Mid,0.0152861999813467,,,,,,,,,,,,,17,27,Female,0.14285714285714285,1.0,0.4,1.0,1.2777777777777777,1.25,3.3333333333333335,1.6666666666666667,2.0,2.5555555555555554,1.75,2.0,2.75,2.0,1.0,1.0,0.5915356333134696,1.4214251412653325,,,,,,,,,,,,,,,,,,,0.0047034442276879035,-0.6438273537446785,0.020266334194132915,0.5918190632276394,-1.736485447181802e+45,-3.1578583804188693,,,,,,,,
3,240618_095108,FalseCHOICE,9.0,4,2.0,2583.0,,,,,,,,,,,4.0,4.0,,,A,,,,,,False,cue2.png,Hard,cue1.png,Easy,Left,Hard,Mid,0.0164344999939203,,,,,,,,,,,,,17,27,Female,0.14285714285714285,1.0,0.4,1.0,1.2777777777777777,1.25,3.3333333333333335,1.6666666666666667,2.0,2.5555555555555554,1.75,2.0,2.75,2.0,0.6875,0.75,0.6312729333488581,1.9370130871632154,,,,,,,,,,,,,,,,,,,,,0.013623511682640421,-0.42165540333799373,-2.078483639703768e+45,-3.811807982259792,,,,,,,,
4,240618_095124,FalseCHOICE,9.0,5,2.0,2583.0,,,,,,,,,,,5.0,5.0,,,A,,,,,,False,cue1.png,Easy,cue2.png,Hard,Left,Easy,Mid,0.0160425999201834,,,,,,,,,,,,,17,27,Female,0.14285714285714285,1.0,0.4,1.0,1.2777777777777777,1.25,3.3333333333333335,1.6666666666666667,2.0,2.5555555555555554,1.75,2.0,2.75,2.0,0.6875,0.75,0.5253981333225965,0.5632969408906829,,,,,,,,,,,,,,,,,,,0.007168763740408521,-0.46104299246637503,0.008885108349306147,-1.1445786460282177,,,,,,,,,,
5,240618_095140,FalseCHOICE,9.0,6,2.0,2583.0,,,,,,,,,,,6.0,6.0,,,A,,,,,,False,cue2.png,Hard,cue1.png,Easy,Right,Easy,Mid,0.0162164000794291,,,,,,,,,,,,,17,27,Female,0.14285714285714285,1.0,0.4,1.0,1.2777777777777777,1.25,3.3333333333333335,1.6666666666666667,2.0,2.5555555555555554,1.75,2.0,2.75,2.0,1.0,1.0,0.5441162833400691,0.806163278309743,,,,,,,,,,,,,,,,,,,0.04706419306090167,2.4968943169343936,0.024051325225019963,1.1692831997972157,-3.05146862306228e+44,-0.42093368857620195,,,,,,,,
6,240618_095156,FalseCHOICE,9.0,7,2.0,2583.0,,,,,,,,,,,7.0,7.0,,,A,,,,,,False,cue2.png,Hard,cue1.png,Easy,Right,Easy,Mid,0.0169868000084534,,,,,,,,,,,,,17,27,Female,0.14285714285714285,1.0,0.4,1.0,1.2777777777777777,1.25,3.3333333333333335,1.6666666666666667,2.0,2.5555555555555554,1.75,2.0,2.75,2.0,1.0,1.0,0.4509444666521934,-0.4027327850588011,,,,,,,,,,,,,,,,,,,0.004440074585701163,-0.6633541743219904,0.011445126396892604,-0.7540047716416283,,,,,,,,,,
7,240618_095211,FalseCHOICE,9.0,8,2.0,2583.0,,,,,,,,,,,8.0,8.0,,,A,,,,,,False,cue1.png,Easy,cue2.png,Hard,Left,Easy,Mid,0.0151393000269308,,,,,,,,,,,,,17,27,Female,0.14285714285714285,1.0,0.4,1.0,1.2777777777777777,1.25,3.3333333333333335,1.6666666666666667,2.0,2.5555555555555554,1.75,2.0,2.75,2.0,1.0,1.0,0.4677000666464058,-0.1853303602436026,,,,,,,,,,,,,,,,,,,0.005459536434966111,-0.587768968427176,0.008116559287997715,-1.2618337508562525,,,,,,,,,,
8,240618_095226,FalseCHOICE,9.0,9,2.0,2583.0,,,,,,,,,,,9.0,9.0,,,A,,,,,,False,cue1.png,Easy,cue2.png,Hard,Left,Easy,Mid,0.0160686000017449,,,,,,,,,,,,,17,27,Female,0.14285714285714285,1.0,0.4,1.0,1.2777777777777777,1.25,3.3333333333333335,1.6666666666666667,2.0,2.5555555555555554,1.75,2.0,2.75,2.0,1.0,1.0,0.3700400666760591,-1.4524602038982157,,,,,,,,,,,,,,,,,,,0.013280813407970205,-0.00788181444379464,0.014698685994661856,-0.2576194516840375,,,,,,,,,,
9,240618_095241,FalseCHOICE,9.0,10,2.0,2583.0,,,,,,,,,,,10.0,10.0,,,A,,,,,,False,cue2.png,Hard,cue1.png,Easy,Right,Easy,Mid,0.0148866999661549,,,,,,,,,,,,,17,27,Female,0.14285714285714285,1.0,0.4,1.0,1.2777777777777777,1.25,3.3333333333333335,1.6666666666666667,2.0,2.5555555555555554,1.75,2.0,2.75,2.0,0.6875,0.75,0.300493933338051,-2.354815119832384,,,,,,,,,,,,,,,,,,,0.004678512849760049,-0.6456758224591057,0.019112643640953213,0.41580413644873504,,,,,,,,,,
10,240618_095255,FalseCHOICE,9.0,11,2.0,2583.0,,,,,,,,,,,11.0,11.0,,,A,,,,,,False,cue1.png,Easy,cue2.png,Hard,Left,Easy,Mid,0.0167018000502139,,,,,,,,,,,,,17,27,Female,0.14285714285714285,1.0,0.4,1.0,1.2777777777777777,1.25,3.3333333333333335,1.6666666666666667,2.0,2.5555555555555554,1.75,2.0,2.75,2.0,0.6875,0.75,0.295290366668875,-2.4223309361539225,,,,,,,,,,,,,,,,,,,0.004291575540169894,-0.6743642292247387,0.007970300054864534,-1.2841480604774265,,,,,,,,,,
11,240618_095311,FalseCHOICE,9.0,12,2.0,2583.0,,,,,,,,,,,12.0,12.0,,,A,,,,,,False,cue2.png,Hard,cue1.png,Easy,Right,Easy,Mid,0.0165821000700816,,,,,,,,,,,,,17,27,Female,0.14285714285714285,1.0,0.4,1.0,1.2777777777777777,1.25,3.3333333333333335,1.6666666666666667,2.0,2.5555555555555554,1.75,2.0,2.75,2.0,1.0,1.0,0.4884882500045933,0.08439447629665735,,,,,,,,,,,,,,,,,,,0.005035857720172617,-0.6191814660248118,0.009275731658435864,-1.0849824805182355,,,,,,,,,,
12,240618_095326,FalseCHOICE,9.0,13,2.0,2583.0,,,,,,,,,,,13.0,13.0,,,A,,,,,,False,cue1.png,Easy,cue2.png,Hard,Left,Easy,Mid,0.0155276000732555,,,,,,,,,,,,,17,27,Female,0.14285714285714285,1.0,0.4,1.0,1.2777777777777777,1.25,3.3333333333333335,1.6666666666666667,2.0,2.5555555555555554,1.75,2.0,2.75,2.0,1.0,1.0,0.5364689666700239,0.706940022325368,,,,,,,,,,,,,,,,,,,0.0054224568576159305,-0.5905181321065495,0.011975474534927526,-0.6730912299416776,-2.916589432644104e+44,-0.39514285260126414,,,,,,,,
13,240618_095342,FalseCHOICE,9.0,14,2.0,2583.0,,,,,,,,,,,14.0,14.0,,,A,,,,,,False,cue2.png,Hard,cue1.png,Easy,Right,Easy,Mid,0.0161988000618293,,,,,,,,,,,,,17,27,Female,0.14285714285714285,1.0,0.4,1.0,1.2777777777777777,1.25,3.3333333333333335,1.6666666666666667,2.0,2.5555555555555554,1.75,2.0,2.75,2.0,1.0,1.0,0.4384603999787941,-0.5647124436379681,,,,,,,,,,,,,,,,,,,0.010866539610111277,-0.1868815310385812,0.024403309798512293,1.2229843753505758,,,,,,,,,,
14,240618_095358,FalseCHOICE,9.0,15,2.0,2583.0,,,,,,,,,,,15.0,15.0,,,A,,,,,,False,cue1.png,Easy,cue2.png,Hard,Left,Easy,Mid,0.0157641000114381,,,,,,,,,,,,,17,27,Female,0.14285714285714285,1.0,0.4,1.0,1.2777777777777777,1.25,3.3333333333333335,1.6666666666666667,2.0,2.5555555555555554,1.75,2.0,2.75,2.0,1.0,1.0,0.5220440666501721,0.5197782230990917,,,,,,,,,,,,,,,,,,,0.0053287105926874915,-0.5974686920922859,0.005471595016412162,-1.6653676025575008,,,,,,,,,,
15,240618_095414,FalseCHOICE,9.0,16,2.0,2583.0,,,,,,,,,,,16.0,16.0,,,A,,,,,,False,cue1.png,Easy,cue2.png,Hard,Left,Easy,Mid,0.0163678000681102,,,,,,,,,,,,,17,27,Female,0.14285714285714285,1.0,0.4,1.0,1.2777777777777777,1.25,3.3333333333333335,1.6666666666666667,2.0,2.5555555555555554,1.75,2.0,2.75,2.0,1.0,1.0,0.4974683333421126,0.20091026166355608,,,,,,,,,,,,,,,,,,,,,0.02127860848441831,0.7462585570708362,,,,,,,,,,
16,240618_095429,FalseCHOICE,9.0,17,2.0,2583.0,,,,,,,,,,,17.0,17.0,,,A,,,,,,False,cue2.png,Hard,cue1.png,Easy,Right,Easy,Mid,0.0167729000095278,,,,,,,,,,,,,17,27,Female,0.14285714285714285,1.0,0.4,1.0,1.2777777777777777,1.25,3.3333333333333335,1.6666666666666667,2.0,2.5555555555555554,1.75,2.0,2.75,2.0,1.0,1.0,0.4210215333344725,-0.7909801926779277,,,,,,,,,,,,,,,,,,,0.004684670489454798,-0.6452192811334156,0.013275075804860358,-0.4748151655858243,,,,,,,,,,
17,240618_095444,FalseCHOICE,9.0,18,2.0,2583.0,,,,,,,,,,,18.0,18.0,,,A,,,,,,False,cue2.png,Hard,cue1.png,Easy,Right,Easy,Mid,0.0164031999884173,,,,,,,,,,,,,17,27,Female,0.14285714285714285,1.0,0.4,1.0,1.2777777777777777,1.25,3.3333333333333335,1.6666666666666667,2.0,2.5555555555555554,1.75,2.0,2.75,2.0,1.0,1.0,0.4698411333374679,-0.15755020969759176,,,,,,,,,,,,,,,,,,,0.005662989355115234,-0.5726845090425893,0.018104116084072343,0.26193626989679036,,,,,,,,,,
18,240618_095500,FalseCHOICE,9.0,19,2.0,2583.0,,,,,,,,,,,19.0,19.0,,,A,,,,,,False,cue1.png,Easy,cue2.png,Hard,Left,Easy,Mid,0.0161037999205291,,,,,,,,,,,,,17,27,Female,0.14285714285714285,1.0,0.4,1.0,1.2777777777777777,1.25,3.3333333333333335,1.6666666666666667,2.0,2.5555555555555554,1.75,2.0,2.75,2.0,1.0,1.0,0.5572445166568892,0.976500941992465,,,,,,,,,,,,,,,,,,,0.0045741397358507055,-0.6534142810492026,0.011510678501505521,-0.744003693916024,3.1167105430671217e+44,0.7585106470878582,,,,,,,,
19,240618_095516,FalseCHOICE,9.0,20,2.0,2583.0,,,,,,,,,,,20.0,20.0,,,A,,,,,,False,cue1.png,Easy,cue2.png,Hard,Left,Easy,Mid,0.0157742000883445,,,,,,,,,,,,,17,27,Female,0.14285714285714285,1.0,0.4,1.0,1.2777777777777777,1.25,3.3333333333333335,1.6666666666666667,2.0,2.5555555555555554,1.75,2.0,2.75,2.0,1.0,1.0,0.5187791167021109,0.47741578690737363,,,,,,,,,,,,,,,,,,,0.04346210071300236,2.2298270480960225,,,2.488974295167797e+44,0.6384784719621046,,,,,,,,
20,240618_095532,FalseCHOICE,9.0,21,2.0,2583.0,,,,,,,,,,,21.0,21.0,,,A,,,,,,False,cue1.png,Easy,cue2.png,Hard,Left,Easy,Mid,0.0171745999250561,,,,,,,,,,,,,17,27,Female,0.14285714285714285,1.0,0.4,1.0,1.2777777777777777,1.25,3.3333333333333335,1.6666666666666667,2.0,2.5555555555555554,1.75,2.0,2.75,2.0,1.0,1.0,0.4441241833652991,-0.4912253561997664,,,,,,,,,,,,,,,,,,,,,0.024315237780842578,1.2095475055602494,,,,,,,,,,
21,240618_095547,FalseCHOICE,9.0,22,2.0,2583.0,,,,,,,,,,,22.0,22.0,,,A,,,,,,False,cue2.png,Hard,cue1.png,Easy,Right,Easy,Mid,0.0170689999358728,,,,,,,,,,,,,17,27,Female,0.14285714285714285,1.0,0.4,1.0,1.2777777777777777,1.25,3.3333333333333335,1.6666666666666667,2.0,2.5555555555555554,1.75,2.0,2.75,2.0,1.0,1.0,0.4311900999940311,-0.6590439415471648,,,,,,,,,,,,,,,,,,,0.014851477604990015,0.10857077945067471,0.016819038446792115,0.06587603033976747,,,,,,,,,,
22,240618_095602,FalseCHOICE,9.0,23,2.0,2583.0,,,,,,,,,,,23.0,23.0,,,A,,,,,,False,cue1.png,Easy,cue2.png,Hard,Left,Easy,Mid,0.0161496000364422,,,,,,,,,,,,,17,27,Female,0.14285714285714285,1.0,0.4,1.0,1.2777777777777777,1.25,3.3333333333333335,1.6666666666666667,2.0,2.5555555555555554,1.75,2.0,2.75,2.0,1.0,1.0,0.4871795333456248,0.06741399364285391,,,,,,,,,,,,,,,,,,,0.008816502595713998,-0.3388759091871435,0.015620490316618933,-0.11698267539548289,-1.5553093224245962e+44,-0.1348465687210979,,,,,,,,
23,240618_095618,FalseCHOICE,9.0,24,2.0,2583.0,,,,,,,,,,,24.0,24.0,,,A,,,,,,False,cue2.png,Hard,cue1.png,Easy,Right,Easy,Mid,0.0169102000072598,,,,,,,,,,,,,17,27,Female,0.14285714285714285,1.0,0.4,1.0,1.2777777777777777,1.25,3.3333333333333335,1.6666666666666667,2.0,2.5555555555555554,1.75,2.0,2.75,2.0,1.0,1.0,0.5246807333508817,0.5539887398434492,,,,,,,,,,,,,,,,,,,,,0.010292593318681924,-0.9298431061173719,-2.2698703088890303e+44,-0.27148087931309334,,,,,,,,
24,240618_095633,FalseCHOICE,9.0,25,2.0,2583.0,,,,,,,,,,,25.0,25.0,,,A,,,,,,False,cue2.png,Hard,cue1.png,Easy,Right,Easy,Mid,0.0153035999974235,,,,,,,,,,,,,17,27,Female,0.14285714285714285,1.0,0.4,1.0,1.2777777777777777,1.25,3.3333333333333335,1.6666666666666667,2.0,2.5555555555555554,1.75,2.0,2.75,2.0,1.0,1.0,0.4649981666589156,-0.2203872731020751,,,,,,,,,,,,,,,,,,,,,,,-2.2995985611605525e+44,-0.2771653475826558,,,,,,,,
25,240618_095649,FalseCHOICE,9.0,26,2.0,2583.0,,,,,,,,,,,26.0,26.0,,,A,,,,,,False,cue1.png,Easy,cue2.png,Hard,Left,Easy,Mid,0.0160931000718846,,,,,,,,,,,,,17,27,Female,0.14285714285714285,1.0,0.4,1.0,1.2777777777777777,1.25,3.3333333333333335,1.6666666666666667,2.0,2.5555555555555554,1.75,2.0,2.75,2.0,1.0,1.0,0.4900150333414785,0.10420435476838849,,,,,,,,,,,,,,,,,,,0.01273394173399359,-0.04842811650048065,0.022147458833567685,0.8788163128449984,-1.7021524299729344e+44,-0.16292507726706099,,,,,,,,
26,240618_095704,FalseCHOICE,9.0,27,2.0,2583.0,,,,,,,,,,,27.0,27.0,,,A,,,,,,False,cue1.png,Easy,cue2.png,Hard,Left,Easy,Mid,0.0160620999522507,,,,,,,,,,,,,17,27,Female,0.14285714285714285,1.0,0.4,1.0,1.2777777777777777,1.25,3.3333333333333335,1.6666666666666667,2.0,2.5555555555555554,1.75,2.0,2.75,2.0,1.0,1.0,0.4540921333051907,-0.3618920892252931,,,,,,,,,,,,,,,,,,,0.0037772745682236124,-0.7124956658101209,,,3.4238833703197283e+44,0.8172464978819499,,,,,,,,
27,240618_095721,FalseCHOICE,9.0,28,2.0,2583.0,,,,,,,,,,,28.0,28.0,,,A,,,,,,False,cue2.png,Hard,cue1.png,Easy,Right,Easy,Mid,0.0165282000089064,,,,,,,,,,,,,17,27,Female,0.14285714285714285,1.0,0.4,1.0,1.2777777777777777,1.25,3.3333333333333335,1.6666666666666667,2.0,2.5555555555555554,1.75,2.0,2.75,2.0,1.0,1.0,0.4726848166707593,-0.12065367049412216,,,,,,,,,,,,,,,,,,,,,0.01720169219834398,0.12425630560113879,4.860784530116865e+43,0.25549605651477697,,,,,,,,
28,240618_095737,FalseCHOICE,9.0,29,2.0,2583.0,,,,,,,,,,,29.0,29.0,,,A,,,,,,False,cue1.png,Easy,cue2.png,Hard,Left,Easy,Mid,0.0160542000085115,,,,,,,,,,,,,17,27,Female,0.14285714285714285,1.0,0.4,1.0,1.2777777777777777,1.25,3.3333333333333335,1.6666666666666667,2.0,2.5555555555555554,1.75,2.0,2.75,2.0,1.0,1.0,0.5845362833157802,1.3306091954231347,,,,,,,,,,,,,,,,,,,,,0.011385877370216888,-0.7630442086581705,1.4733277992376096e+44,0.4442722930560525,,,,,,,,
29,240618_095754,FalseCHOICE,9.0,30,2.0,2583.0,,,,,,,,,,,30.0,30.0,,,A,,,,,,False,cue1.png,Easy,cue2.png,Hard,Right,Hard,Mid,0.0167974999640136,,,,,,,,,,,,,17,27,Female,0.14285714285714285,1.0,0.4,1.0,1.2777777777777777,1.25,3.3333333333333335,1.6666666666666667,2.0,2.5555555555555554,1.75,2.0,2.75,2.0,0.6875,0.75,0.5819609500079727,1.2971944740154797,,,,,,,,,,,,,,,,,,,0.005789205574017834,-0.5633265532741645,0.018457180044983736,0.3158021241822497,1.9373192440737293e+44,0.5329941130079769,,,,,,,,
30,240618_095808,FalseCHOICE,9.0,31,2.0,2583.0,,,,,,,,,,,31.0,31.0,,,A,,,,,,False,cue2.png,Hard,cue1.png,Easy,Right,Easy,Mid,0.0162416999228298,,,,,,,,,,,,,17,27,Female,0.14285714285714285,1.0,0.4,1.0,1.2777777777777777,1.25,3.3333333333333335,1.6666666666666667,2.0,2.5555555555555554,1.75,2.0,2.75,2.0,1.0,1.0,0.3621470333503869,-1.5548716117105905,,,,,,,,,,,,,,,,,,,0.048249777685154045,2.5847962408704923,,,2.0128128678693393e+44,0.5474295767917502,,,,,,,,
31,240618_095824,FalseCHOICE,9.0,32,2.0,2583.0,,,,,,,,,,,32.0,32.0,,,A,,,,,,False,cue1.png,Easy,cue2.png,Hard,Left,Easy,Mid,0.0158265000209212,,,,,,,,,,,,,17,27,Female,0.14285714285714285,1.0,0.4,1.0,1.2777777777777777,1.25,3.3333333333333335,1.6666666666666667,2.0,2.5555555555555554,1.75,2.0,2.75,2.0,0.6875,0.75,0.4780348333297297,-0.05123767853539656,,,,,,,,,,,,,,,,,,,,,0.010099018139443304,-0.9593762603119628,1.5446730454869617e+44,0.4579145275468121,,,,,,,,
32,240618_095839,FalseCHOICE,9.0,33,2.0,2583.0,,,,,,,,,,,33.0,33.0,,,A,,,,,,False,cue2.png,Hard,cue1.png,Easy,Right,Easy,Mid,0.0167444999096915,,,,,,,,,,,,,17,27,Female,0.14285714285714285,1.0,0.4,1.0,1.2777777777777777,1.25,3.3333333333333335,1.6666666666666667,2.0,2.5555555555555554,1.75,2.0,2.75,2.0,1.0,1.0,0.5015157999781271,0.2534257825241704,,,,,,,,,,,,,,,,,,,0.009097235550914757,-0.31806173332013227,0.016985022808472593,0.09119974057307975,6.035371837850133e+43,0.2779558507188132,,,,,,,,
33,240618_095854,FalseCHOICE,9.0,34,2.0,2583.0,,,,,,,,,,,34.0,34.0,,,A,,,,,,False,cue2.png,Hard,cue1.png,Easy,Right,Easy,Mid,0.0164344999939203,,,,,,,,,,,,,17,27,Female,0.14285714285714285,1.0,0.4,1.0,1.2777777777777777,1.25,3.3333333333333335,1.6666666666666667,2.0,2.5555555555555554,1.75,2.0,2.75,2.0,0.6875,0.75,0.4256558500152702,-0.7308503445009037,,,,,,,,,,,,,,,,,,,0.004896174572603759,-0.629537890325182,0.01597092808430456,-0.06351749112250371,-3.101776425876699e+43,0.10324046918527309,,,,,,,,
34,240618_095909,FalseCHOICE,9.0,35,2.0,2583.0,,,,,,,,,,,35.0,35.0,,,A,,,,,,False,cue2.png,Hard,cue1.png,Easy,Right,Easy,Mid,0.0170312999980524,,,,,,,,,,,,,17,27,Female,0.14285714285714285,1.0,0.4,1.0,1.2777777777777777,1.25,3.3333333333333335,1.6666666666666667,2.0,2.5555555555555554,1.75,2.0,2.75,2.0,1.0,1.0,0.3917755500297062,-1.1704442338795078,,,,,,,,,,,,,,,,,,,0.03177195627053907,1.3630933147436626,,,-1.258917977509011e+44,-0.07817229200421338,,,,,,,,
35,240618_095925,FalseCHOICE,9.0,36,2.0,2583.0,,,,,,,,,,,36.0,36.0,,,A,,,,,,False,cue1.png,Easy,cue2.png,Hard,Left,Easy,Mid,0.018519900040701,,,,,,,,,,,,,17,27,Female,0.14285714285714285,1.0,0.4,1.0,1.2777777777777777,1.25,3.3333333333333335,1.6666666666666667,2.0,2.5555555555555554,1.75,2.0,2.75,2.0,1.0,1.0,0.5240873333532363,0.5462894274691978,,,,,,,,,,,,,,,,,,,0.0058636417993880585,-0.5578076832696637,0.013461484291755928,-0.4463754110247246,-1.762396965185063e+44,-0.17444469657397665,,,,,,,,
36,240618_095940,FalseCHOICE,9.0,37,2.0,2583.0,,,,,,,,,,,37.0,37.0,,,A,,,,,,False,cue2.png,Hard,cue1.png,Easy,Right,Easy,Mid,0.0155527000315487,,,,,,,,,,,,,17,27,Female,0.14285714285714285,1.0,0.4,1.0,1.2777777777777777,1.25,3.3333333333333335,1.6666666666666667,2.0,2.5555555555555554,1.75,2.0,2.75,2.0,0.6875,0.75,0.5255607833193304,0.5654073101820448,,,,,,,,,,,,,,,,,,,,,,,,,,,,,,,,
37,240618_095956,FalseCHOICE,9.0,38,2.0,2583.0,,,,,,,,,,,38.0,38.0,,,A,,,,,,False,cue1.png,Easy,cue2.png,Hard,Left,Easy,Mid,0.0156485000625252,,,,,,,,,,,,,17,27,Female,0.14285714285714285,1.0,0.4,1.0,1.2777777777777777,1.25,3.3333333333333335,1.6666666666666667,2.0,2.5555555555555554,1.75,2.0,2.75,2.0,1.0,1.0,0.4446534666931256,-0.48435795193352155,,,,,,,,,,,,,,,,,,,,,0.014664118997234429,-0.26289322939192117,-1.1939559318637122e+44,-0.06575061703241178,,,,,,,,
38,240618_100011,FalseCHOICE,9.0,39,2.0,2583.0,,,,,,,,,,,39.0,39.0,,,A,,,,,,False,cue1.png,Easy,cue2.png,Hard,Left,Easy,Mid,0.0166150999721139,,,,,,,,,,,,,17,27,Female,0.14285714285714285,1.0,0.4,1.0,1.2777777777777777,1.25,3.3333333333333335,1.6666666666666667,2.0,2.5555555555555554,1.75,2.0,2.75,2.0,1.0,1.0,0.3995616833562962,-1.0694198440802893,,,,,,,,,,,,,,,,,,,0.023515533939951174,0.7509435003469869,0.00835636975764725,-1.2252466243171287,-2.5630258451347985e+43,0.1135421530968073,,,,,,,,
39,240618_100026,FalseCHOICE,9.0,40,2.0,2583.0,,,,,,,,,,,40.0,40.0,,,A,,,,,,False,cue2.png,Hard,cue1.png,Easy,Right,Easy,Mid,0.0176549999741837,,,,,,,,,,,,,17,27,Female,0.14285714285714285,1.0,0.4,1.0,1.2777777777777777,1.25,3.3333333333333335,1.6666666666666667,2.0,2.5555555555555554,1.75,2.0,2.75,2.0,1.0,1.0,0.4313003499992192,-0.6576134575017077,,,,,,,,,,,,,,,,,,,0.02428010733788777,0.8076307003107751,0.028041976657804838,1.7781242948428726,8.263942112202569e+43,0.3205693111245633,,,,,,,,
40,240618_100041,FalseCHOICE,9.0,41,2.0,2583.0,,,,,,,,,,,41.0,41.0,,,A,,,,,,False,cue2.png,Hard,cue1.png,Easy,Right,Easy,Mid,0.0156876000110059,,,,,,,,,,,,,17,27,Female,0.14285714285714285,1.0,0.4,1.0,1.2777777777777777,1.25,3.3333333333333335,1.6666666666666667,2.0,2.5555555555555554,1.75,2.0,2.75,2.0,0.6875,0.75,0.4245049333161053,-0.7457833866626394,,,,,,,,,,,,,,,,,,,0.003793001320906689,-0.7113296488174653,0.014133511531603983,-0.34384633588471186,1.6575339401920519e+44,0.4794951495411999,,,,,,,,
41,240618_100057,FalseCHOICE,9.0,42,2.0,2583.0,,,,,,,,,,,42.0,42.0,,,A,,,,,,False,cue1.png,Easy,cue2.png,Hard,Left,Easy,Mid,0.0160884000360965,,,,,,,,,,,,,17,27,Female,0.14285714285714285,1.0,0.4,1.0,1.2777777777777777,1.25,3.3333333333333335,1.6666666666666667,2.0,2.5555555555555554,1.75,2.0,2.75,2.0,1.0,1.0,0.5242700666810075,0.5486603762007103,,,,,,,,,,,,,,,,,,,0.010864684877274844,-0.18701904512351017,0.015151502103937986,-0.1885347269293123,1.85800403133181e+44,0.517827906599101,,,,,,,,
42,240618_100113,FalseCHOICE,9.0,43,2.0,2583.0,,,,,,,,,,,43.0,43.0,,,A,,,,,,False,cue2.png,Hard,cue1.png,Easy,Right,Easy,Mid,0.0171627999516204,,,,,,,,,,,,,17,27,Female,0.14285714285714285,1.0,0.4,1.0,1.2777777777777777,1.25,3.3333333333333335,1.6666666666666667,2.0,2.5555555555555554,1.75,2.0,2.75,2.0,0.6875,0.75,0.5536587166522319,0.9299755047545188,,,,,,,,,,,,,,,,,,,0.008858508345208902,-0.3357615079698467,0.017861394334959674,0.224904978637652,1.43959994702592e+44,0.4378230439058929,,,,,,,,
43,240618_100128,FalseCHOICE,9.0,44,2.0,2583.0,,,,,,,,,,,44.0,44.0,,,A,,,,,,False,cue1.png,Easy,cue2.png,Hard,Left,Easy,Mid,0.0168003999860957,,,,,,,,,,,,,17,27,Female,0.14285714285714285,1.0,0.4,1.0,1.2777777777777777,1.25,3.3333333333333335,1.6666666666666667,2.0,2.5555555555555554,1.75,2.0,2.75,2.0,1.0,1.0,0.4666552999988198,-0.19888611489456712,,,,,,,,,,,,,,,,,,,0.03588740262669664,1.6682218101390704,0.024343803300664435,1.2139056567698505,3.1297786966371283e+43,0.22239674194703452,,,,,,,,
44,240618_100143,FalseCHOICE,9.0,45,2.0,2583.0,,,,,,,,,,,45.0,45.0,,,A,,,,,,False,cue2.png,Hard,cue1.png,Easy,Right,Easy,Mid,0.0165499000577256,,,,,,,,,,,,,17,27,Female,0.14285714285714285,1.0,0.4,1.0,1.2777777777777777,1.25,3.3333333333333335,1.6666666666666667,2.0,2.5555555555555554,1.75,2.0,2.75,2.0,1.0,1.0,0.4265145333483815,-0.7197090043620078,,,,,,,,,,,,,,,,,,,0.04569666594762069,2.395502765599135,0.035584301140910324,2.928832938488813,-1.1016861604757586e+44,-0.048107313184474136,,,,,,,,
45,240618_100159,FalseCHOICE,9.0,46,2.0,2583.0,,,,,,,,,,,46.0,46.0,,,A,,,,,,False,cue2.png,Hard,cue1.png,Easy,Right,Easy,Mid,0.0170137999812141,,,,,,,,,,,,,17,27,Female,0.14285714285714285,1.0,0.4,1.0,1.2777777777777777,1.25,3.3333333333333335,1.6666666666666667,2.0,2.5555555555555554,1.75,2.0,2.75,2.0,1.0,1.0,0.511476916668471,0.3826703886914167,,,,,,,,,,,,,,,,,,,0.013461952246302623,0.005548228476178399,0.014564411402664259,-0.2781053024293568,-1.97998535811898e+44,-0.216050718487441,,,,,,,,
46,240618_100215,FalseCHOICE,9.0,47,2.0,2583.0,,,,,,,,,,,47.0,47.0,,,A,,,,,,False,cue1.png,Easy,cue2.png,Hard,Left,Easy,Mid,0.0160910000558942,,,,,,,,,,,,,17,27,Female,0.14285714285714285,1.0,0.4,1.0,1.2777777777777777,1.25,3.3333333333333335,1.6666666666666667,2.0,2.5555555555555554,1.75,2.0,2.75,2.0,1.0,1.0,0.4854792999685742,0.04535361627348411,,,,,,,,,,,,,,,,,,,0.004300537826242963,-0.673699745076941,,,-1.2412063737553565e+44,-0.07478557930340793,,,,,,,,
47,240618_100230,FalseCHOICE,9.0,48,2.0,2583.0,,,,,,,,,,,48.0,48.0,,,A,,,,,,False,cue1.png,Easy,cue2.png,Hard,Left,Easy,Mid,0.0160798999713733,,,,,,,,,,,,,17,27,Female,0.14285714285714285,1.0,0.4,1.0,1.2777777777777777,1.25,3.3333333333333335,1.6666666666666667,2.0,2.5555555555555554,1.75,2.0,2.75,2.0,1.0,1.0,0.4744016999805656,-0.09837726172299137,,,,,,,,,,,,,,,,,,,0.005478990531875598,-0.58632659770829,,,7.916976235322278e+43,0.3139348258553559,,,,,,,,
48,240618_100245,FalseCHOICE,9.0,49,2.0,2583.0,,,,,,,,,,,49.0,49.0,,,A,,,,,,False,cue2.png,Hard,cue1.png,Easy,Right,Easy,Mid,0.0169497000752016,,,,,,,,,,,,,17,27,Female,0.14285714285714285,1.0,0.4,1.0,1.2777777777777777,1.25,3.3333333333333335,1.6666666666666667,2.0,2.5555555555555554,1.75,2.0,2.75,2.0,1.0,1.0,0.4764092333304385,-0.07232969444336527,,,,,,,,,,,,,,,,,,,,,,,,,,,,,,,,
49,240618_100301,FalseCHOICE,9.0,50,2.0,2583.0,,,,,,,,,,,50.0,50.0,,,A,,,,,,False,cue1.png,Easy,cue2.png,Hard,Left,Easy,Mid,0.0161380000645294,,,,,,,,,,,,,17,27,Female,0.14285714285714285,1.0,0.4,1.0,1.2777777777777777,1.25,3.3333333333333335,1.6666666666666667,2.0,2.5555555555555554,1.75,2.0,2.75,2.0,1.0,1.0,0.421616733345824,-0.7832575252853817,,,,,,,,,,,,,,,,,,,,,,,-7.494028878911123e+43,0.019254301841356722,,,,,,,,
0,240618_092959,OFFLINERATING,9.0,1,1.0,,,,,,,,,,,,,,,,,T0,cue1.png,Easy,47.0,1.2980878000380471,,,,,,,,,,,,,,,,,,,,,,17,27,Female,0.14285714285714285,1.0,0.4,1.0,1.2777777777777777,1.25,3.3333333333333335,1.6666666666666667,2.0,2.5555555555555554,1.75,2.0,2.75,2.0,,,,,,,,,,,,,,,,,,,,,,,,,,,,,-0.17206757613009782,0.00780895644857757,-1.0,,,265962576.97450808,1.4141042968966493,
1,240618_093006,OFFLINERATING,9.0,2,3.0,,,,,,,,,,,,,,,,,T0,cue2.png,Hard,44.0,1.6186700999969617,,,,,,,,,,,,,,,,,,,,,,17,27,Female,0.14285714285714285,1.0,0.4,1.0,1.2777777777777777,1.25,3.3333333333333335,1.6666666666666667,2.0,2.5555555555555554,1.75,2.0,2.75,2.0,,,,,,,,,,,,,,,,,,,,,,,,,,,,,-0.7620135514332903,,,,,4188352.8026208756,-0.6918278874211092,
2,240618_094514,OFFLINERATING,9.0,3,1.0,,,,,,,,,,,,,,,,,T1,cue1.png,Easy,53.0,1.4624453999567777,,,,,,,,,,,,,,,,,,,,,,17,27,Female,0.14285714285714285,1.0,0.4,1.0,1.2777777777777777,1.25,3.3333333333333335,1.6666666666666667,2.0,2.5555555555555554,1.75,2.0,2.75,2.0,,,,,,,,,,,,,,,,,,,,,,,,,,,,,1.0078243744762871,,,,,,,
3,240618_094522,OFFLINERATING,9.0,4,3.0,,,,,,,,,,,,,,,,,T1,cue2.png,Hard,47.0,1.803747299942188,,,,,,,,,,,,,,,,,,,,,,17,27,Female,0.14285714285714285,1.0,0.4,1.0,1.2777777777777777,1.25,3.3333333333333335,1.6666666666666667,2.0,2.5555555555555554,1.75,2.0,2.75,2.0,,,,,,,,,,,,,,,,,,,,,,,,,,,,,-0.17206757613009782,,,0.01799884536107292,-0.8726565045269958,403502.4179151814,-0.7222764094755398,
4,240618_094858,OFFLINERATING,9.0,5,1.0,,,,,,,,,,,,,,,,,T2,cue1.png,Easy,57.0,1.4520171999465674,,,,,,,,,,,,,,,,,,,,,,17,27,Female,0.14285714285714285,1.0,0.4,1.0,1.2777777777777777,1.25,3.3333333333333335,1.6666666666666667,2.0,2.5555555555555554,1.75,2.0,2.75,2.0,,,,,,,,,,,,,,,,,,,,,,,,,,,,,1.7944190082138773,,,0.030373134441760853,1.4000984369185558,,,
5,240618_094907,OFFLINERATING,9.0,6,3.0,,,,,,,,,,,,,,,,,T2,cue2.png,Hard,39.0,2.853218900039792,,,,,,,,,,,,,,,,,,,,,,17,27,Female,0.14285714285714285,1.0,0.4,1.0,1.2777777777777777,1.25,3.3333333333333335,1.6666666666666667,2.0,2.5555555555555554,1.75,2.0,2.75,2.0,,,,,,,,,,,,,,,,,,,,,,,,,,,,,-1.745256843605278,0.008644336367602236,1.0,0.019878407839442405,-0.5274419323915589,,,
6,240618_100327,OFFLINERATING,9.0,7,1.0,,,,,,,,,,,,,,,,,T3,cue1.png,Easy,49.0,2.783767399960197,,,,,,,,,,,,,,,,,,,,,,17,27,Female,0.14285714285714285,1.0,0.4,1.0,1.2777777777777777,1.25,3.3333333333333335,1.6666666666666667,2.0,2.5555555555555554,1.75,2.0,2.75,2.0,,,,,,,,,,,,,,,,,,,,,,,,,,,,,0.2212297407386972,,,,,,,
7,240618_100344,OFFLINERATING,9.0,8,3.0,,,,,,,,,,,,,,,,,T3,cue2.png,Hard,47.0,1.651961800060235,,,,,,,,,,,,,,,,,,,,,,17,27,Female,0.14285714285714285,1.0,0.4,1.0,1.2777777777777777,1.25,3.3333333333333335,1.6666666666666667,2.0,2.5555555555555554,1.75,2.0,2.75,2.0,,,,,,,,,,,,,,,,,,,,,,,,,,,,,-0.17206757613009782,,,,,,,
0,240618_094927,LEARNINGCHECK,9.0,1,,,,,,,,,,,,1.0,1.0,1.0,,,A,,,,,,,,,,,,,,,cue1.png,Easy,Left,Left,Easy,0.0155616000993177,1.0,,,,,,17,27,Female,0.14285714285714285,1.0,0.4,1.0,1.2777777777777777,1.25,3.3333333333333335,1.6666666666666667,2.0,2.5555555555555554,1.75,2.0,2.75,2.0,,,,,,,,,,,,,,,,,,,,,,,,,,,,,,,,,,,,
1,240618_094933,LEARNINGCHECK,9.0,2,,,,,,,,,,,,2.0,2.0,2.0,,,A,,,,,,,,,,,,,,,cue2.png,Hard,Right,Right,Hard,0.0159953000256791,1.0,,,,,,17,27,Female,0.14285714285714285,1.0,0.4,1.0,1.2777777777777777,1.25,3.3333333333333335,1.6666666666666667,2.0,2.5555555555555554,1.75,2.0,2.75,2.0,,,,,,,,,,,,,,,,,,,,,,,,,,,,,,,,,,,,
2,240618_100357,LEARNINGCHECK,9.0,1,,,,,,,,,,,,1.0,1.0,1.0,,,A,,,,,,,,,,,,,,,cue1.png,Easy,Middle,Middle,Mid,0.0150077000726014,1.0,,,,,,17,27,Female,0.14285714285714285,1.0,0.4,1.0,1.2777777777777777,1.25,3.3333333333333335,1.6666666666666667,2.0,2.5555555555555554,1.75,2.0,2.75,2.0,,,,,,,,,,,,,,,,,,,,,,,,,,,,,,,,,,,,
3,240618_100402,LEARNINGCHECK,9.0,2,,,,,,,,,,,,2.0,2.0,2.0,,,A,,,,,,,,,,,,,,,cue2.png,Hard,Middle,Middle,Mid,0.0136894000461325,1.0,,,,,,17,27,Female,0.14285714285714285,1.0,0.4,1.0,1.2777777777777777,1.25,3.3333333333333335,1.6666666666666667,2.0,2.5555555555555554,1.75,2.0,2.75,2.0,,,,,,,,,,,,,,,,,,,,,,,,,,,,,,,,,,,,
0,240618_100419,DEMANDRATING,9.0,-1,,,,,,,,,,,,,,,,,,,,,,,,,,,,,,,,,,,,,,,1.0,MentalDemand,1.0,21.0,5.360754000023007,17,27,Female,0.14285714285714285,1.0,0.4,1.0,1.2777777777777777,1.25,3.3333333333333335,1.6666666666666667,2.0,2.5555555555555554,1.75,2.0,2.75,2.0,,,,,,,,,,,,,,,,,,,,,,,,,,,,,,,,,,,,-0.880381309686499
1,240618_100427,DEMANDRATING,9.0,-1,,,,,,,,,,,,,,,,,,,,,,,,,,,,,,,,,,,,,,,2.0,Effort,1.0,4.0,6.883793200016953,17,27,Female,0.14285714285714285,1.0,0.4,1.0,1.2777777777777777,1.25,3.3333333333333335,1.6666666666666667,2.0,2.5555555555555554,1.75,2.0,2.75,2.0,,,,,,,,,,,,,,,,,,,,,,,,,,,,,,,,,,,,-1.336985853354412
2,240618_100433,DEMANDRATING,9.0,-1,,,,,,,,,,,,,,,,,,,,,,,,,,,,,,,,,,,,,,,3.0,Frustration,1.0,1.0,4.262374600046314,17,27,Female,0.14285714285714285,1.0,0.4,1.0,1.2777777777777777,1.25,3.3333333333333335,1.6666666666666667,2.0,2.5555555555555554,1.75,2.0,2.75,2.0,,,,,,,,,,,,,,,,,,,,,,,,,,,,,,,,,,,,-1.4175631257663965
3,240618_100439,DEMANDRATING,9.0,-1,,,,,,,,,,,,,,,,,,,,,,,,,,,,,,,,,,,,,,,4.0,MentalDemand,2.0,54.0,4.364603399997577,17,27,Female,0.14285714285714285,1.0,0.4,1.0,1.2777777777777777,1.25,3.3333333333333335,1.6666666666666667,2.0,2.5555555555555554,1.75,2.0,2.75,2.0,,,,,,,,,,,,,,,,,,,,,,,,,,,,,,,,,,,,0.005968686845332175
4,240618_100443,DEMANDRATING,9.0,-1,,,,,,,,,,,,,,,,,,,,,,,,,,,,,,,,,,,,,,,5.0,Effort,2.0,54.0,2.4757670999970287,17,27,Female,0.14285714285714285,1.0,0.4,1.0,1.2777777777777777,1.25,3.3333333333333335,1.6666666666666667,2.0,2.5555555555555554,1.75,2.0,2.75,2.0,,,,,,,,,,,,,,,,,,,,,,,,,,,,,,,,,,,,0.005968686845332175
5,240618_100447,DEMANDRATING,9.0,-1,,,,,,,,,,,,,,,,,,,,,,,,,,,,,,,,,,,,,,,6.0,Frustration,2.0,53.0,2.7721295999363065,17,27,Female,0.14285714285714285,1.0,0.4,1.0,1.2777777777777777,1.25,3.3333333333333335,1.6666666666666667,2.0,2.5555555555555554,1.75,2.0,2.75,2.0,,,,,,,,,,,,,,,,,,,,,,,,,,,,,,,,,,,,-0.020890403958662707
6,240618_100453,DEMANDRATING,9.0,-1,,,,,,,,,,,,,,,,,,,,,,,,,,,,,,,,,,,,,,,7.0,MentalDemand,3.0,99.0,4.337752600084059,17,27,Female,0.14285714285714285,1.0,0.4,1.0,1.2777777777777777,1.25,3.3333333333333335,1.6666666666666667,2.0,2.5555555555555554,1.75,2.0,2.75,2.0,,,,,,,,,,,,,,,,,,,,,,,,,,,,,,,,,,,,1.2146277730251018
7,240618_100458,DEMANDRATING,9.0,-1,,,,,,,,,,,,,,,,,,,,,,,,,,,,,,,,,,,,,,,8.0,Effort,3.0,98.0,3.4048808999359608,17,27,Female,0.14285714285714285,1.0,0.4,1.0,1.2777777777777777,1.25,3.3333333333333335,1.6666666666666667,2.0,2.5555555555555554,1.75,2.0,2.75,2.0,,,,,,,,,,,,,,,,,,,,,,,,,,,,,,,,,,,,1.187768682221107
8,240618_100504,DEMANDRATING,9.0,-1,,,,,,,,,,,,,,,,,,,,,,,,,,,,,,,,,,,,,,,9.0,Frustration,3.0,100.0,5.106356699950993,17,27,Female,0.14285714285714285,1.0,0.4,1.0,1.2777777777777777,1.25,3.3333333333333335,1.6666666666666667,2.0,2.5555555555555554,1.75,2.0,2.75,2.0,,,,,,,,,,,,,,,,,,,,,,,,,,,,,,,,,,,,1.2414868638290968
