,END,Phase,Block,TrialN,NbackLevel,ISI,Letter_Resp,Letter_RT,Letter_Accuracy,Trial_A_measure,Trial_ACC,Trial_RT,TrialCountCali,CaliEnd_A_measure,ISI_calibrated,TrialIndex,TrialNumber_total,TrialNumber_valid,CueLearning,TrialDemandLearning,CueMapping,OfflineRatingTimePoint,CueFigure,TrialDemand,OfflineRating,OfflineRatingRT,PhaseType,CueLeft,CueDemandLeft,CueRight,CueDemandRight,Choice,ChoiceDemand,TaskDemand,ChoiceRT,CueCheck,CueDemandCheck,CorrectAnswer,Answer,AnswerDemand,AnswerRT,AnswerACC,DemandRatingQuesIndex,QuesTLX,DemandLevel,DemandRating,DemandRatingRT,PID,Age,Gender,BAI_bis,BAI_bas_d,BAI_bas_rr,BAI_bas_fs,NFC,BFI_ext,BFI_agr,BFI_con,BFI_neu,BFI_open,UPPS_lps,UPPS_lpm,UPPS_pu,UPPS_ss,Task_A_measure,Task_ACC,Task_RT,Task_RT_z,cue_i_on_zyg_values,cue_i_on_zyg_zvalues,cue_e_on_zyg_values,cue_e_on_zyg_zvalues,cue_i_on_cor_values,cue_i_on_cor_zvalues,cue_e_on_cor_values,cue_e_on_cor_zvalues,cue_i_on_scr_values,cue_i_on_scr_zvalues,cue_e_on_scr_values,cue_e_on_scr_zvalues,cue_e_true_zyg_values,cue_e_true_zyg_zvalues,cue_e_true_cor_values,cue_e_true_cor_zvalues,cue_e_true_scr_values,cue_e_true_scr_zvalues,cue_e_false_zyg_values,cue_e_false_zyg_zvalues,cue_e_false_cor_values,cue_e_false_cor_zvalues,cue_e_false_scr_values,cue_e_false_scr_zvalues,OfflineRating_z,cue_i_off_zyg_values,cue_i_off_zyg_zvalues,cue_i_off_cor_values,cue_i_off_cor_zvalues,cue_i_off_scr_values,cue_i_off_scr_zvalues,DemandRating_z
0,240618_092752,PRACTICE,0.0,1,3.0,2583.0,,,,,,,,,,41.0,1.0,1.0,cue2.png,Hard,A,,,,,,,,,,,,,,,,,,,,,,,,,,,17,27,Female,0.14285714285714285,1.0,0.4,1.0,1.2777777777777777,1.25,3.3333333333333335,1.6666666666666667,2.0,2.5555555555555554,1.75,2.0,2.75,2.0,,,,,,,,,,,,,,,,,,,,,,,,,,,,,,,,,,,,
0,240618_093039,LEARNING,1.0,1,1.0,2583.0,,,,,,,,,,1.0,1.0,1.0,cue1.png,Easy,A,,,,,,,,,,,,,,,,,,,,,,,,,,,17,27,Female,0.14285714285714285,1.0,0.4,1.0,1.2777777777777777,1.25,3.3333333333333335,1.6666666666666667,2.0,2.5555555555555554,1.75,2.0,2.75,2.0,1.0,1.0,0.4523468500119634,0.15510990682786216,-1.4303338460681155e-05,0.03779577349315523,-5.6680108278268655e-05,-1.2660286895314712,-0.00017693330534851708,-1.2411494159961118,0.00048306040081743957,1.221315063681822,,,,,,,,,,,,,,,,,,,,,,,,
1,240618_093056,LEARNING,1.0,2,3.0,2583.0,,,,,,,,,,2.0,2.0,2.0,cue2.png,Hard,A,,,,,,,,,,,,,,,,,,,,,,,,,,,17,27,Female,0.14285714285714285,1.0,0.4,1.0,1.2777777777777777,1.25,3.3333333333333335,1.6666666666666667,2.0,2.5555555555555554,1.75,2.0,2.75,2.0,0.6875,0.75,0.3365627666547273,-1.3443895322975807,0.0001012916790678383,0.5487855542017653,,,0.0006657476208364525,2.630939427799072,,,1.4619999999999997,-0.02506839842944301,1.0990000000000002,-0.5433147088425013,,,,,,,,,,,,,,,,,,,,
2,240618_093113,LEARNING,1.0,3,1.0,2583.0,,,,,,,,,,3.0,3.0,3.0,cue1.png,Easy,A,,,,,,,,,,,,,,,,,,,,,,,,,,,17,27,Female,0.14285714285714285,1.0,0.4,1.0,1.2777777777777777,1.25,3.3333333333333335,1.6666666666666667,2.0,2.5555555555555554,1.75,2.0,2.75,2.0,1.0,1.0,0.3259988833645669,-1.481200539555878,3.5668923052770054e-05,0.25869902259705113,,,,,0.00013314515845650864,0.058399739610826916,1.1119999999999999,-0.5826356009201412,1.579,0.32157428771888613,,,,,,,,,,,,,,,,,,,,
3,240618_093129,LEARNING,1.0,4,3.0,2583.0,,,,,,,,,,4.0,4.0,4.0,cue2.png,Hard,A,,,,,,,,,,,,,,,,,,,,,,,,,,,17,27,Female,0.14285714285714285,1.0,0.4,1.0,1.2777777777777777,1.25,3.3333333333333335,1.6666666666666667,2.0,2.5555555555555554,1.75,2.0,2.75,2.0,1.0,1.0,0.3822435499945034,-0.7527856864955383,,,,,,,,,1.607,0.20592372831670389,1.5939999999999999,0.3486020688614293,,,,,,,,,,,,,,,,,,,,
4,240618_093146,LEARNING,1.0,5,3.0,2583.0,,,,,,,,,,5.0,5.0,5.0,cue2.png,Hard,A,,,,,,,,,,,,,,,,,,,,,,,,,,,17,27,Female,0.14285714285714285,1.0,0.4,1.0,1.2777777777777777,1.25,3.3333333333333335,1.6666666666666667,2.0,2.5555555555555554,1.75,2.0,2.75,2.0,0.6875,0.75,0.3191215166589245,-1.5702681144655708,9.700026819913898e-05,0.529815297995124,-0.00012209334769733987,-2.269301319397623,,,,,1.549,0.11352687761824519,1.561,0.28914095034783405,,,,,,,,,,,,,,,,,,,,
5,240618_093203,LEARNING,1.0,6,1.0,2583.0,,,,,,,,,,6.0,6.0,6.0,cue1.png,Easy,A,,,,,,,,,,,,,,,,,,,,,,,,,,,17,27,Female,0.14285714285714285,1.0,0.4,1.0,1.2777777777777777,1.25,3.3333333333333335,1.6666666666666667,2.0,2.5555555555555554,1.75,2.0,2.75,2.0,1.0,1.0,0.3775501333681556,-0.8135693054069252,,,8.002386053590363e-05,0.8306623094675566,,,,,0.014499999999999957,-2.3310070430159744,0.050999999999999934,-2.4316556846681987,,,,,,,,,,,,,,,,,,,,
6,240618_093220,LEARNING,1.0,7,3.0,2583.0,,,,,,,,,,7.0,7.0,7.0,cue2.png,Hard,A,,,,,,,,,,,,,,,,,,,,,,,,,,,17,27,Female,0.14285714285714285,1.0,0.4,1.0,1.2777777777777777,1.25,3.3333333333333335,1.6666666666666667,2.0,2.5555555555555554,1.75,2.0,2.75,2.0,1.0,1.0,0.4302634333143942,-0.13088856543027594,6.96258838543489e-05,0.40880635701783324,8.320333079338922e-05,0.8794272921398376,0.00015953135810140625,0.30489372938983017,-0.0004413348533043454,-1.8508386363501708,1.4420000000000002,-0.05692938142891082,,,,,,,,,,,,,,,,,,,,,,
7,240618_093238,LEARNING,1.0,8,3.0,2583.0,,,,,,,,,,8.0,8.0,8.0,cue2.png,Hard,A,,,,,,,,,,,,,,,,,,,,,,,,,,,17,27,Female,0.14285714285714285,1.0,0.4,1.0,1.2777777777777777,1.25,3.3333333333333335,1.6666666666666667,2.0,2.5555555555555554,1.75,2.0,2.75,2.0,0.6875,0.75,0.500854583340697,0.7833250881430817,-2.725303673517445e-05,-0.019448592423337824,-3.1618217386166544e-05,-0.8816430604441716,,,0.0006586651332145437,1.8049233480941267,2.015,0.8558877815058612,,,,,,,,,,,,,,,,,,,,,,
8,240618_093254,LEARNING,1.0,9,1.0,2583.0,,,,,,,,,,9.0,9.0,9.0,cue1.png,Easy,A,,,,,,,,,,,,,,,,,,,,,,,,,,,17,27,Female,0.14285714285714285,1.0,0.4,1.0,1.2777777777777777,1.25,3.3333333333333335,1.6666666666666667,2.0,2.5555555555555554,1.75,2.0,2.75,2.0,1.0,1.0,0.3391925333417021,-1.3103318832856448,5.903980026902714e-05,0.3620103908466098,5.716483224053144e-05,0.4800629867959373,-4.771486593614866e-05,-0.6473952890023448,0.0006828559253793318,1.8853195112336312,,,,,,,,,,,,,,,,,,,,,,,,
9,240618_093312,LEARNING,1.0,10,1.0,2583.0,,,,,,,,,,10.0,10.0,10.0,cue1.png,Easy,A,,,,,,,,,,,,,,,,,,,,,,,,,,,17,27,Female,0.14285714285714285,1.0,0.4,1.0,1.2777777777777777,1.25,3.3333333333333335,1.6666666666666667,2.0,2.5555555555555554,1.75,2.0,2.75,2.0,1.0,1.0,0.4771824833199692,0.47675185566790923,7.749587702524574e-05,0.4435957983843927,,,-4.487810196902257e-06,-0.4487685074092029,,,1.423,-0.08719731527840607,,,,,,,,,,,,,,,,,,,,,,
10,240618_093330,LEARNING,1.0,11,3.0,2583.0,,,,,,,,,,11.0,11.0,11.0,cue2.png,Hard,A,,,,,,,,,,,,,,,,,,,,,,,,,,,17,27,Female,0.14285714285714285,1.0,0.4,1.0,1.2777777777777777,1.25,3.3333333333333335,1.6666666666666667,2.0,2.5555555555555554,1.75,2.0,2.75,2.0,0.6875,0.75,0.533173083308308,1.2018763360316778,1.403608106197423e-05,0.16307066921881405,,,-0.0001134152819340789,-0.9492863605969185,,,,,0.9840000000000002,-0.7505276976020004,,,,,,,,,,,,,,,,,,,,
11,240618_093348,LEARNING,1.0,12,1.0,2583.0,,,,,,,,,,12.0,12.0,12.0,cue1.png,Easy,A,,,,,,,,,,,,,,,,,,,,,,,,,,,17,27,Female,0.14285714285714285,1.0,0.4,1.0,1.2777777777777777,1.25,3.3333333333333335,1.6666666666666667,2.0,2.5555555555555554,1.75,2.0,2.75,2.0,1.0,1.0,0.5085322333422179,0.8827569922292534,8.350777176657949e-06,0.13793868474636198,1.631021081258165e-05,-0.14654293956115247,-5.960849607592345e-06,-0.4555370710391239,-0.00012329040324633028,-0.7938433416819386,2.1510000000000002,1.072542465902247,,,,,,,,,,,,,,,,,,,,,,
12,240618_093405,LEARNING,1.0,13,1.0,2583.0,,,,,,,,,,13.0,13.0,13.0,cue1.png,Easy,A,,,,,,,,,,,,,,,,,,,,,,,,,,,17,27,Female,0.14285714285714285,1.0,0.4,1.0,1.2777777777777777,1.25,3.3333333333333335,1.6666666666666667,2.0,2.5555555555555554,1.75,2.0,2.75,2.0,1.0,1.0,0.4600408833357505,0.2547539884589682,,,,,-0.000282618327471331,-1.7267683286854565,8.965693421966086e-05,-0.0861298957386979,,,,,,,,,,,,,,,,,,,,,,,,
13,240618_093423,LEARNING,1.0,14,1.0,2583.0,,,,,,,,,,14.0,14.0,14.0,cue1.png,Easy,A,,,,,,,,,,,,,,,,,,,,,,,,,,,17,27,Female,0.14285714285714285,1.0,0.4,1.0,1.2777777777777777,1.25,3.3333333333333335,1.6666666666666667,2.0,2.5555555555555554,1.75,2.0,2.75,2.0,1.0,1.0,0.5535513333355387,1.465791492590032,-2.726898349128407e-05,-0.019519085335417338,-4.027192656319914e-05,-1.0143689373651532,-3.979495253726966e-05,-0.6110035690016812,,,2.0989999999999998,0.9897039101036282,,,,,,,,,,,,,,,,,,,,,,
14,240618_093440,LEARNING,1.0,15,3.0,2583.0,,,,,,,,,,15.0,15.0,15.0,cue2.png,Hard,A,,,,,,,,,,,,,,,,,,,,,,,,,,,17,27,Female,0.14285714285714285,1.0,0.4,1.0,1.2777777777777777,1.25,3.3333333333333335,1.6666666666666667,2.0,2.5555555555555554,1.75,2.0,2.75,2.0,1.0,1.0,0.4425602999787467,0.028366006800567,3.44847136287893e-06,0.11626795683517457,-5.824926180539574e-06,-0.48603961180609345,0.0003618891574202385,1.2347206103003938,,,,,,,,,,,,,,,,,,,,,,,,,,
15,240618_093457,LEARNING,1.0,16,1.0,2583.0,,,,,,,,,,16.0,16.0,16.0,cue1.png,Easy,A,,,,,,,,,,,,,,,,,,,,,,,,,,,17,27,Female,0.14285714285714285,1.0,0.4,1.0,1.2777777777777777,1.25,3.3333333333333335,1.6666666666666667,2.0,2.5555555555555554,1.75,2.0,2.75,2.0,1.0,1.0,0.3631441166508011,-1.0001391115611562,7.872182558395831e-06,0.13582304893209565,-2.8196608020716538e-05,-0.8291642800483968,,,,,,,,,,,,,,,,,,,,,,,,,,,,
16,240618_093514,LEARNING,1.0,17,1.0,2583.0,,,,,,,,,,17.0,17.0,17.0,cue1.png,Easy,A,,,,,,,,,,,,,,,,,,,,,,,,,,,17,27,Female,0.14285714285714285,1.0,0.4,1.0,1.2777777777777777,1.25,3.3333333333333335,1.6666666666666667,2.0,2.5555555555555554,1.75,2.0,2.75,2.0,1.0,1.0,0.4402818499947898,-0.0011418009563718844,1.3332135009830152e-05,0.15995886348093225,-5.83679709292937e-06,-0.48622168139319827,0.00033998440508629414,1.1340690534622067,,,,,,,,,,,,,,,,,,,,,,,,,,
17,240618_093532,LEARNING,1.0,18,3.0,2583.0,,,,,,,,,,18.0,18.0,18.0,cue2.png,Hard,A,,,,,,,,,,,,,,,,,,,,,,,,,,,17,27,Female,0.14285714285714285,1.0,0.4,1.0,1.2777777777777777,1.25,3.3333333333333335,1.6666666666666667,2.0,2.5555555555555554,1.75,2.0,2.75,2.0,0.6875,0.75,0.4815548333572224,0.5333773972658208,5.865558931155562e-06,0.12695273437035215,-3.227316352020495e-05,-0.8916882674413015,0.0003310765308616546,1.093137688653332,-4.8344219594706646e-05,-0.5447656940177297,,,,,,,,,,,,,,,,,,,,,,,,
18,240618_093549,LEARNING,1.0,19,3.0,2583.0,,,,,,,,,,19.0,19.0,19.0,cue2.png,Hard,A,,,,,,,,,,,,,,,,,,,,,,,,,,,17,27,Female,0.14285714285714285,1.0,0.4,1.0,1.2777777777777777,1.25,3.3333333333333335,1.6666666666666667,2.0,2.5555555555555554,1.75,2.0,2.75,2.0,0.6875,0.75,0.4087299333380845,-0.40976516228737037,,,-1.0408549379434251e-05,-0.556340727328127,,,8.916531701724491e-05,-0.08776374619462263,,,,,,,,,,,,,,,,,,,,,,,,
19,240618_093607,LEARNING,1.0,20,3.0,2583.0,,,,,,,,,,20.0,20.0,20.0,cue2.png,Hard,A,,,,,,,,,,,,,,,,,,,,,,,,,,,17,27,Female,0.14285714285714285,1.0,0.4,1.0,1.2777777777777777,1.25,3.3333333333333335,1.6666666666666667,2.0,2.5555555555555554,1.75,2.0,2.75,2.0,1.0,1.0,0.5722829000054238,1.7083807406196756,2.4463106385133083e-05,0.20916351558227883,,,-1.1522963442099458e-06,-0.4334419400501842,0.0003565578168149893,0.8008938425928456,,,1.5579999999999998,0.2837353941193252,,,,,,,,,,,,,,,,,,,,
20,240618_093625,LEARNING,1.0,21,1.0,2583.0,,,,,,,,,,21.0,21.0,21.0,cue1.png,Easy,A,,,,,,,,,,,,,,,,,,,,,,,,,,,17,27,Female,0.14285714285714285,1.0,0.4,1.0,1.2777777777777777,1.25,3.3333333333333335,1.6666666666666667,2.0,2.5555555555555554,1.75,2.0,2.75,2.0,1.0,1.0,0.4535641499872629,0.1708749461776767,7.001559991981574e-06,0.13197444677082837,-3.073704844782938e-06,-0.4438428777904458,,,0.0003113826996464829,0.6507579534915354,0.8009999999999999,-1.0780738865618762,0.4790000000000001,-1.6604629960676276,,,,,,,,,,,,,,,,,,,,
21,240618_093642,LEARNING,1.0,22,3.0,2583.0,,,,,,,,,,22.0,22.0,22.0,cue2.png,Hard,A,,,,,,,,,,,,,,,,,,,,,,,,,,,17,27,Female,0.14285714285714285,1.0,0.4,1.0,1.2777777777777777,1.25,3.3333333333333335,1.6666666666666667,2.0,2.5555555555555554,1.75,2.0,2.75,2.0,1.0,1.0,0.4897602333221584,0.6396440989441439,0.0001322458010924836,0.6856187877059573,-7.510556271882055e-05,-1.5486282717753976,7.726261352684937e-05,-0.07312822193443026,0.0004416835616951253,1.0838024479057795,1.168,-0.49342484852162943,1.9789999999999999,1.0423151181867092,,,,,,,,,,,,,,,,,,,,
22,240618_093659,LEARNING,1.0,23,3.0,2583.0,,,,,,,,,,23.0,23.0,23.0,cue2.png,Hard,A,,,,,,,,,,,,,,,,,,,,,,,,,,,17,27,Female,0.14285714285714285,1.0,0.4,1.0,1.2777777777777777,1.25,3.3333333333333335,1.6666666666666667,2.0,2.5555555555555554,1.75,2.0,2.75,2.0,1.0,1.0,0.3702680333323466,-0.9078785109793385,-8.717401459539323e-06,0.06248850492996956,1.9893419161622506e-05,-0.09158564199223755,8.65250437952019e-05,-0.030567684732184082,9.205724130283361e-05,-0.07815266710851862,,,2.092,1.2459244027938696,,,,,,,,,,,,,,,,,,,,
23,240618_093717,LEARNING,1.0,24,3.0,2583.0,,,,,,,,,,24.0,24.0,24.0,cue2.png,Hard,A,,,,,,,,,,,,,,,,,,,,,,,,,,,17,27,Female,0.14285714285714285,1.0,0.4,1.0,1.2777777777777777,1.25,3.3333333333333335,1.6666666666666667,2.0,2.5555555555555554,1.75,2.0,2.75,2.0,0.6875,0.75,0.5165178166741194,0.9861768870893317,-4.569350986901666e-05,-0.10096502387766278,7.33071123966934e-05,0.7276444857116924,0.00047001652078463305,1.7315619940109817,-4.915240199861951e-05,-0.5474516236040304,2.264,1.2525570198492433,1.2099999999999997,-0.3433091283876812,,,,,,,,,,,,,,,,,,,,
24,240618_093734,LEARNING,1.0,25,1.0,2583.0,,,,,,,,,,25.0,25.0,25.0,cue1.png,Easy,A,,,,,,,,,,,,,,,,,,,,,,,,,,,17,27,Female,0.14285714285714285,1.0,0.4,1.0,1.2777777777777777,1.25,3.3333333333333335,1.6666666666666667,2.0,2.5555555555555554,1.75,2.0,2.75,2.0,1.0,1.0,0.3693432499809811,-0.919855218627544,,,0.00012529568545528507,1.5250168965370607,-7.812962645718921e-05,-0.787150030376867,0.00013838286762607064,0.07580684715839711,,,0.3190000000000002,-1.9487593282547566,,,,,,,,,,,,,,,,,,,,
25,240618_093751,LEARNING,1.0,26,1.0,2583.0,,,,,,,,,,26.0,26.0,26.0,cue1.png,Easy,A,,,,,,,,,,,,,,,,,,,,,,,,,,,17,27,Female,0.14285714285714285,1.0,0.4,1.0,1.2777777777777777,1.25,3.3333333333333335,1.6666666666666667,2.0,2.5555555555555554,1.75,2.0,2.75,2.0,1.0,1.0,0.4390170833600375,-0.017521572721582942,,,,,0.0001906748536464704,0.4479969822458918,0.00017146569866126728,0.18575499035702345,1.5699999999999998,0.14698090976768696,0.944,-0.8226017806487832,,,,,,,,,,,,,,,,,,,,
26,240618_093809,LEARNING,1.0,27,3.0,2583.0,,,,,,,,,,27.0,27.0,27.0,cue2.png,Hard,A,,,,,,,,,,,,,,,,,,,,,,,,,,,17,27,Female,0.14285714285714285,1.0,0.4,1.0,1.2777777777777777,1.25,3.3333333333333335,1.6666666666666667,2.0,2.5555555555555554,1.75,2.0,2.75,2.0,1.0,1.0,0.5139246999945802,0.9525938859219016,8.207060005639005e-08,0.10138672385168908,8.166352301452844e-05,0.8558105592963696,8.240667184982592e-05,-0.04949145714564568,0.000418472909531667,1.0066637016755553,2.513,1.649226258192626,,,,,,,,,,,,,,,,,,,,,,
27,240618_093826,LEARNING,1.0,28,1.0,2583.0,,,,,,,,,,28.0,28.0,28.0,cue1.png,Easy,A,,,,,,,,,,,,,,,,,,,,,,,,,,,17,27,Female,0.14285714285714285,1.0,0.4,1.0,1.2777777777777777,1.25,3.3333333333333335,1.6666666666666667,2.0,2.5555555555555554,1.75,2.0,2.75,2.0,1.0,1.0,0.5150416833348572,0.9670597420542172,-4.690258991700731e-05,-0.1063097832089157,8.139293277552393e-05,0.8516603936248158,0.000268876223979443,0.8073294937893336,9.094101996322832e-05,-0.08186233946266862,0.897,-0.9251411681644273,0.8299999999999998,-1.028012917332113,,,,,,,,,,,,,,,,,,,,
28,240618_093845,LEARNING,1.0,29,1.0,2583.0,,,,,,,,,,29.0,29.0,29.0,cue1.png,Easy,A,,,,,,,,,,,,,,,,,,,,,,,,,,,17,27,Female,0.14285714285714285,1.0,0.4,1.0,1.2777777777777777,1.25,3.3333333333333335,1.6666666666666667,2.0,2.5555555555555554,1.75,2.0,2.75,2.0,1.0,1.0,0.5948030166327953,2.0000348373886916,-7.257444659700693e-05,-0.21979267110293246,0.00010043361991652353,1.1436960798568574,-0.0003227742919987781,-1.9112835555370886,0.0003730999732161947,0.8558703764595759,1.163,-0.5013900942714964,1.6199999999999999,0.3954502228418379,,,,,,,,,,,,,,,,,,,,
29,240618_093902,LEARNING,1.0,30,3.0,2583.0,,,,,,,,,,30.0,30.0,30.0,cue2.png,Hard,A,,,,,,,,,,,,,,,,,,,,,,,,,,,17,27,Female,0.14285714285714285,1.0,0.4,1.0,1.2777777777777777,1.25,3.3333333333333335,1.6666666666666667,2.0,2.5555555555555554,1.75,2.0,2.75,2.0,1.0,1.0,0.5112146833174241,0.9174969333046904,0.0001026806021607418,0.5549253128335662,0.00010031831186554929,1.1419275477894493,-0.00014223356407724094,-1.0817053406835595,-0.00010599382971769383,-0.7363595628255023,1.275,-0.32296858947447304,1.4609999999999999,0.10895574273087809,,,,,,,,,,,,,,,,,,,,
30,240618_093919,LEARNING,1.0,31,3.0,2583.0,,,,,,,,,,31.0,31.0,31.0,cue2.png,Hard,A,,,,,,,,,,,,,,,,,,,,,,,,,,,17,27,Female,0.14285714285714285,1.0,0.4,1.0,1.2777777777777777,1.25,3.3333333333333335,1.6666666666666667,2.0,2.5555555555555554,1.75,2.0,2.75,2.0,1.0,1.0,0.3582897332962602,-1.0630073824527189,-9.705962167606483e-06,0.058118555167145584,8.566107655272586e-05,0.9171228576463084,9.708049238657578e-05,0.017934225613584227,0.00022205223946185956,0.3538753131295638,,,,,,,,,,,,,,,,,,,,,,,,
31,240618_093937,LEARNING,1.0,32,1.0,2583.0,,,,,,,,,,32.0,32.0,32.0,cue1.png,Easy,A,,,,,,,,,,,,,,,,,,,,,,,,,,,17,27,Female,0.14285714285714285,1.0,0.4,1.0,1.2777777777777777,1.25,3.3333333333333335,1.6666666666666667,2.0,2.5555555555555554,1.75,2.0,2.75,2.0,1.0,1.0,0.499145400011912,0.7611897534013614,7.639209710067233e-05,0.43871652007579975,1.6061070911748635e-05,-0.1503641116317174,0.00011284707654255757,0.09038111828448173,0.00042839419538920386,1.0396363017840056,1.578,0.15972530296747472,1.1260000000000001,-0.4946647027859234,,,,,,,,,,,,,,,,,,,,
32,240618_093954,LEARNING,1.0,33,1.0,2583.0,,,,,,,,,,33.0,33.0,33.0,cue1.png,Easy,A,,,,,,,,,,,,,,,,,,,,,,,,,,,17,27,Female,0.14285714285714285,1.0,0.4,1.0,1.2777777777777777,1.25,3.3333333333333335,1.6666666666666667,2.0,2.5555555555555554,1.75,2.0,2.75,2.0,1.0,1.0,0.4049650000136656,-0.45852415613708947,-6.154337176285515e-05,-0.17102961339507933,5.7207786333765553e-05,0.48072179327709047,-4.370085875917123e-06,-0.44822756834702,0.00031818522422608466,0.6733655999107465,1.417,-0.09675561017824663,1.424,0.042287215912604585,,,,,,,,,,,,,,,,,,,,
33,240618_094011,LEARNING,1.0,34,1.0,2583.0,,,,,,,,,,34.0,34.0,34.0,cue1.png,Easy,A,,,,,,,,,,,,,,,,,,,,,,,,,,,17,27,Female,0.14285714285714285,1.0,0.4,1.0,1.2777777777777777,1.25,3.3333333333333335,1.6666666666666667,2.0,2.5555555555555554,1.75,2.0,2.75,2.0,1.0,1.0,0.3950512833350028,-0.5869149691768887,-3.83517697397852e-05,-0.068510734247662,0.00012716621091775045,1.5537059970406526,-8.947757735207427e-05,-0.8392934605823528,0.0004870482641249332,1.2345684084612452,1.8610000000000002,0.610558212409954,1.577,0.317970583566547,,,,,,,,,,,,,,,,,,,,
34,240618_094028,LEARNING,1.0,35,3.0,2583.0,,,,,,,,,,35.0,35.0,35.0,cue2.png,Hard,A,,,,,,,,,,,,,,,,,,,,,,,,,,,17,27,Female,0.14285714285714285,1.0,0.4,1.0,1.2777777777777777,1.25,3.3333333333333335,1.6666666666666667,2.0,2.5555555555555554,1.75,2.0,2.75,2.0,1.0,1.0,0.4344945666380226,-0.07609189682367301,-0.00012349994624747014,-0.4449097259314105,7.1607198512233135e-06,-0.28687284739418817,0.00024016659603422674,0.6754097758725416,0.00011347081077685804,-0.0069863814777949874,1.592,0.18202799106710268,0.9729999999999999,-0.7703480704398662,,,,,,,,,,,,,,,,,,,,
35,240618_094045,LEARNING,1.0,36,3.0,2583.0,,,,,,,,,,36.0,36.0,36.0,cue2.png,Hard,A,,,,,,,,,,,,,,,,,,,,,,,,,,,17,27,Female,0.14285714285714285,1.0,0.4,1.0,1.2777777777777777,1.25,3.3333333333333335,1.6666666666666667,2.0,2.5555555555555554,1.75,2.0,2.75,2.0,1.0,1.0,0.4206081833302353,-0.2559320214568886,,,-9.639173055818722e-05,-1.8751039176482027,,,0.00029832543978318025,0.6073631945694611,0.7389999999999999,-1.1768429338602284,1.967,1.0206928932726749,,,,,,,,,,,,,,,,,,,,
36,240618_094103,LEARNING,1.0,37,1.0,2583.0,,,,,,,,,,37.0,37.0,37.0,cue1.png,Easy,A,,,,,,,,,,,,,,,,,,,,,,,,,,,17,27,Female,0.14285714285714285,1.0,0.4,1.0,1.2777777777777777,1.25,3.3333333333333335,1.6666666666666667,2.0,2.5555555555555554,1.75,2.0,2.75,2.0,1.0,1.0,0.4975958166954418,0.7411213705412055,,,,,-3.6564864889172214e-05,-0.5961614312980287,-0.00022657838299818336,-1.1371126820951467,0.017000000000000126,-2.3270244201410404,2.169,1.3846670126589256,,,,,,,,,,,,,,,,,,,,
37,240618_094120,LEARNING,1.0,38,3.0,2583.0,,,,,,,,,,38.0,38.0,38.0,cue2.png,Hard,A,,,,,,,,,,,,,,,,,,,,,,,,,,,17,27,Female,0.14285714285714285,1.0,0.4,1.0,1.2777777777777777,1.25,3.3333333333333335,1.6666666666666667,2.0,2.5555555555555554,1.75,2.0,2.75,2.0,1.0,1.0,0.4120723833524001,-0.36647767599007663,,,,,0.0002512599738699632,0.7263834519378418,0.0004115715521183236,0.9837275922374027,2.0439999999999996,0.9020862068550897,1.762,0.6513132176579154,,,,,,,,,,,,,,,,,,,,
38,240618_094137,LEARNING,1.0,39,3.0,2583.0,,,,,,,,,,39.0,39.0,39.0,cue2.png,Hard,A,,,,,,,,,,,,,,,,,,,,,,,,,,,17,27,Female,0.14285714285714285,1.0,0.4,1.0,1.2777777777777777,1.25,3.3333333333333335,1.6666666666666667,2.0,2.5555555555555554,1.75,2.0,2.75,2.0,0.6875,0.75,0.3090593999950215,-1.7005808297926415,,,,,0.0002485131004713128,0.7137616665007555,-6.81051514574843e-06,-0.40673174887364116,1.5170000000000001,0.06254930481909593,0.9940000000000001,-0.732509176840305,,,,,,,,,,,,,,,,,,,,
39,240618_094154,LEARNING,1.0,40,3.0,2583.0,,,,,,,,,,40.0,40.0,40.0,cue2.png,Hard,A,,,,,,,,,,,,,,,,,,,,,,,,,,,17,27,Female,0.14285714285714285,1.0,0.4,1.0,1.2777777777777777,1.25,3.3333333333333335,1.6666666666666667,2.0,2.5555555555555554,1.75,2.0,2.75,2.0,0.6875,0.75,0.4043198000290431,-0.4668800284384673,-1.9372572480644192e-05,0.015387136550110028,9.699384188323031e-05,1.0909386383317743,-0.00025922448612785646,-1.619274460882284,0.00031129705082357526,0.6504733064782303,1.5020000000000002,0.03865356756949472,1.4810000000000003,0.1449927842542701,,,,,,,,,,,,,,,,,,,,
40,240618_094211,LEARNING,1.0,41,1.0,2583.0,,,,,,,,,,41.0,41.0,41.0,cue1.png,Easy,A,,,,,,,,,,,,,,,,,,,,,,,,,,,17,27,Female,0.14285714285714285,1.0,0.4,1.0,1.2777777777777777,1.25,3.3333333333333335,1.6666666666666667,2.0,2.5555555555555554,1.75,2.0,2.75,2.0,1.0,1.0,0.3716854500041033,-0.8895217952488303,9.80367837102869e-05,0.5343972327970447,-7.786473026118786e-05,-1.5909468803790425,,,-0.00048287135964972076,-1.9888818933729244,1.338,-0.22260649302614707,,,,,,,,,,,,,,,,,,,,,,
41,240618_094228,LEARNING,1.0,42,3.0,2583.0,,,,,,,,,,42.0,42.0,42.0,cue2.png,Hard,A,,,,,,,,,,,,,,,,,,,,,,,,,,,17,27,Female,0.14285714285714285,1.0,0.4,1.0,1.2777777777777777,1.25,3.3333333333333335,1.6666666666666667,2.0,2.5555555555555554,1.75,2.0,2.75,2.0,0.6875,0.75,0.3962916166638024,-0.570851628889215,-3.811368468506753e-05,-0.06745827513219742,6.824417906414488e-05,0.6499919724820536,5.182857551982393e-05,-0.18999672074515186,-0.0004029384573400281,-1.7232312850535247,2.6430000000000002,1.8563226476891717,2.2800000000000002,1.5846725931137469,,,,,,,,,,,,,,,,,,,,
42,240618_094244,LEARNING,1.0,43,3.0,2583.0,,,,,,,,,,43.0,43.0,43.0,cue2.png,Hard,A,,,,,,,,,,,,,,,,,,,,,,,,,,,17,27,Female,0.14285714285714285,1.0,0.4,1.0,1.2777777777777777,1.25,3.3333333333333335,1.6666666666666667,2.0,2.5555555555555554,1.75,2.0,2.75,2.0,1.0,1.0,0.3386377166995468,-1.317517216706323,-2.922721786840013e-05,-0.028175494377370387,-2.4442064003304346e-05,-0.7715791293396072,0.0003108231588919313,1.0000741657749397,0.0003800075549768105,0.878827172018106,1.523,0.07210759971893613,1.8610000000000002,0.8296965731987019,,,,,,,,,,,,,,,,,,,,
43,240618_094301,LEARNING,1.0,44,1.0,2583.0,,,,,,,,,,44.0,44.0,44.0,cue1.png,Easy,A,,,,,,,,,,,,,,,,,,,,,,,,,,,17,27,Female,0.14285714285714285,1.0,0.4,1.0,1.2777777777777777,1.25,3.3333333333333335,1.6666666666666667,2.0,2.5555555555555554,1.75,2.0,2.75,2.0,1.0,1.0,0.3402943999972194,-1.2960618006971647,,,-6.012284983905516e-06,-0.48891321906130486,0.0002222364496036063,0.593021391604805,-0.00014948468357368818,-0.8808979375039612,0.3320000000000001,-1.8252139378994119,,,,,,,,,,,,,,,,,,,,,,
44,240618_094319,LEARNING,1.0,45,1.0,2583.0,,,,,,,,,,45.0,45.0,45.0,cue1.png,Easy,A,,,,,,,,,,,,,,,,,,,,,,,,,,,17,27,Female,0.14285714285714285,1.0,0.4,1.0,1.2777777777777777,1.25,3.3333333333333335,1.6666666666666667,2.0,2.5555555555555554,1.75,2.0,2.75,2.0,1.0,1.0,0.6004953999848416,2.0737558998713865,8.165361001041772e-05,0.46197512918741646,,,9.439438447830968e-05,0.005591655440654771,-0.0001418984549557997,-0.8556857133889895,2.727,1.9901387762869387,1.38,-0.03699427543885604,,,,,,,,,,,,,,,,,,,,
45,240618_094337,LEARNING,1.0,46,1.0,2583.0,,,,,,,,,,46.0,46.0,46.0,cue1.png,Easy,A,,,,,,,,,,,,,,,,,,,,,,,,,,,17,27,Female,0.14285714285714285,1.0,0.4,1.0,1.2777777777777777,1.25,3.3333333333333335,1.6666666666666667,2.0,2.5555555555555554,1.75,2.0,2.75,2.0,0.6875,0.75,0.4764596000119733,0.46738992021475545,3.3886954608046155e-05,0.2508218001676807,5.582872096011795e-05,0.45957043987425933,4.8873427269091694e-05,-0.20357552170985943,-0.0004362954401855249,-1.8340905498688285,1.1530000000000002,-0.5173205857712303,2.318,1.6531429720081898,,,,,,,,,,,,,,,,,,,,
46,240618_094355,LEARNING,1.0,47,3.0,2583.0,,,,,,,,,,47.0,47.0,47.0,cue2.png,Hard,A,,,,,,,,,,,,,,,,,,,,,,,,,,,17,27,Female,0.14285714285714285,1.0,0.4,1.0,1.2777777777777777,1.25,3.3333333333333335,1.6666666666666667,2.0,2.5555555555555554,1.75,2.0,2.75,2.0,1.0,1.0,0.6134487666810552,2.241512689341574,-1.1729392283763886e-05,0.049173947229529474,0.00011936315408753086,1.4340269623899542,-2.1751515732465823e-05,-0.528094619499401,-0.0002727236974899459,-1.2904729444103091,1.2659999999999998,-0.3373060318242341,1.384,-0.029786867134177802,,,,,,,,,,,,,,,,,,,,
47,240618_094412,LEARNING,1.0,48,3.0,2583.0,,,,,,,,,,48.0,48.0,48.0,cue2.png,Hard,A,,,,,,,,,,,,,,,,,,,,,,,,,,,17,27,Female,0.14285714285714285,1.0,0.4,1.0,1.2777777777777777,1.25,3.3333333333333335,1.6666666666666667,2.0,2.5555555555555554,1.75,2.0,2.75,2.0,0.6875,0.75,0.3701670666923746,-0.9091861122973993,1.347723241827952e-05,0.1606002690926113,6.749544197505279e-05,0.6385082509124911,-4.0823237800152994e-05,-0.6157285031623193,-0.0001330316124694901,-0.8262174714973796,1.3010000000000002,-0.28154931157516366,0.7230000000000001,-1.2208110894822553,,,,,,,,,,,,,,,,,,,,
48,240618_094429,LEARNING,1.0,49,1.0,2583.0,,,,,,,,,,49.0,49.0,49.0,cue1.png,Easy,A,,,,,,,,,,,,,,,,,,,,,,,,,,,17,27,Female,0.14285714285714285,1.0,0.4,1.0,1.2777777777777777,1.25,3.3333333333333335,1.6666666666666667,2.0,2.5555555555555554,1.75,2.0,2.75,2.0,1.0,1.0,0.4332793999928981,-0.09182930778702764,,,5.29019321872143e-05,0.41468094815467216,0.0005984870886544991,2.321879677902345,0.000292687784570372,0.5886268983322114,,,,,,,,,,,,,,,,,,,,,,,,
49,240618_094447,LEARNING,1.0,50,1.0,2583.0,,,,,,,,,,50.0,50.0,50.0,cue1.png,Easy,A,,,,,,,,,,,,,,,,,,,,,,,,,,,17,27,Female,0.14285714285714285,1.0,0.4,1.0,1.2777777777777777,1.25,3.3333333333333335,1.6666666666666667,2.0,2.5555555555555554,1.75,2.0,2.75,2.0,1.0,1.0,0.4635168833192438,0.2997710570794151,-0.0013571201032851051,-5.898149035029303,,,8.402461844458789e-05,-0.04205705016577402,-0.0001499653803074658,-0.8824954946557135,2.1229999999999998,1.0279370897029905,2.0380000000000003,1.1486243906807139,,,,,,,,,,,,,,,,,,,,
0,240618_094618,TrueCHOICE,9.0,1,1.0,2583.0,,,,,,,,,,,1.0,1.0,,,A,,,,,,True,cue1.png,Easy,cue2.png,Hard,Left,Easy,Easy,0.0136724999174475,,,,,,,,,,,,,17,27,Female,0.14285714285714285,1.0,0.4,1.0,1.2777777777777777,1.25,3.3333333333333335,1.6666666666666667,2.0,2.5555555555555554,1.75,2.0,2.75,2.0,1.0,1.0,0.5047066500022387,0.7170010918808873,,,,,,,,,,,,,3.2166387321974545e-05,0.6757523384833323,-5.791654561697161e-05,-0.5451771932874736,1.448,-0.23344947952852665,,,,,,,,,,,,,,
1,240618_094634,TrueCHOICE,9.0,2,1.0,2583.0,,,,,,,,,,,2.0,2.0,,,A,,,,,,True,cue1.png,Easy,cue2.png,Hard,Left,Easy,Easy,0.0152192000532522,,,,,,,,,,,,,17,27,Female,0.14285714285714285,1.0,0.4,1.0,1.2777777777777777,1.25,3.3333333333333335,1.6666666666666667,2.0,2.5555555555555554,1.75,2.0,2.75,2.0,1.0,1.0,0.5309733166941442,1.0878671623979934,,,,,,,,,,,,,-7.921684024128715e-05,-1.7541922568968837,,,1.078,-1.639575414363136,,,,,,,,,,,,,,
2,240618_094650,TrueCHOICE,9.0,3,1.0,2583.0,,,,,,,,,,,3.0,3.0,,,A,,,,,,True,cue2.png,Hard,cue1.png,Easy,Right,Easy,Easy,0.0175960999913513,,,,,,,,,,,,,17,27,Female,0.14285714285714285,1.0,0.4,1.0,1.2777777777777777,1.25,3.3333333333333335,1.6666666666666667,2.0,2.5555555555555554,1.75,2.0,2.75,2.0,1.0,1.0,0.5691073499813987,1.6262917460765494,,,,,,,,,,,,,,,0.0001848662247290033,1.236703196420931,1.591,0.30999919258322806,,,,,,,,,,,,,,
3,240618_094705,TrueCHOICE,9.0,4,1.0,2583.0,,,,,,,,,,,4.0,4.0,,,A,,,,,,True,cue1.png,Easy,cue2.png,Hard,Left,Easy,Easy,0.0166407999349758,,,,,,,,,,,,,17,27,Female,0.14285714285714285,1.0,0.4,1.0,1.2777777777777777,1.25,3.3333333333333335,1.6666666666666667,2.0,2.5555555555555554,1.75,2.0,2.75,2.0,1.0,1.0,0.3529747999855317,-1.4253413548418348,,,,,,,,,,,,,4.569235848466118e-05,0.9708359093501538,,,,,,,,,,,,,,,,,,
4,240618_094720,TrueCHOICE,9.0,5,1.0,2583.0,,,,,,,,,,,5.0,5.0,,,A,,,,,,True,cue2.png,Hard,cue1.png,Easy,Right,Easy,Easy,0.0170230999356135,,,,,,,,,,,,,17,27,Female,0.14285714285714285,1.0,0.4,1.0,1.2777777777777777,1.25,3.3333333333333335,1.6666666666666667,2.0,2.5555555555555554,1.75,2.0,2.75,2.0,1.0,1.0,0.3584576166661766,-1.3479280042417363,,,,,,,,,,,,,6.375470717640908e-05,1.3648854224014566,-0.00011996630477751572,-1.0005853298564038,,,,,,,,,,,,,,,,
5,240618_094736,TrueCHOICE,9.0,6,1.0,2583.0,,,,,,,,,,,6.0,6.0,,,A,,,,,,True,cue2.png,Hard,cue1.png,Easy,Right,Easy,Easy,0.0155818000202998,,,,,,,,,,,,,17,27,Female,0.14285714285714285,1.0,0.4,1.0,1.2777777777777777,1.25,3.3333333333333335,1.6666666666666667,2.0,2.5555555555555554,1.75,2.0,2.75,2.0,1.0,1.0,0.4533893999760039,-0.007560843982810602,,,,,,,,,,,,,-6.458954907652501e-06,-0.16690093749833015,0.00021925945681406126,1.48912895836327,1.455,-0.20684709697760115,,,,,,,,,,,,,,
6,240618_094751,TrueCHOICE,9.0,7,1.0,2583.0,,,,,,,,,,,7.0,7.0,,,A,,,,,,True,cue1.png,Easy,cue2.png,Hard,Left,Easy,Easy,0.0163488000398501,,,,,,,,,,,,,17,27,Female,0.14285714285714285,1.0,0.4,1.0,1.2777777777777777,1.25,3.3333333333333335,1.6666666666666667,2.0,2.5555555555555554,1.75,2.0,2.75,2.0,1.0,1.0,0.4321046333255556,-0.3080861394881562,,,,,,,,,,,,,,,5.66957526739729e-05,0.29600855664451264,1.462,-0.1802447144266765,,,,,,,,,,,,,,
7,240618_094806,TrueCHOICE,9.0,8,1.0,2583.0,,,,,,,,,,,8.0,8.0,,,A,,,,,,True,cue2.png,Hard,cue1.png,Easy,Right,Easy,Easy,0.0170378999318927,,,,,,,,,,,,,17,27,Female,0.14285714285714285,1.0,0.4,1.0,1.2777777777777777,1.25,3.3333333333333335,1.6666666666666667,2.0,2.5555555555555554,1.75,2.0,2.75,2.0,1.0,1.0,0.3912095499884647,-0.8854947250004677,,,,,,,,,,,,,,,-0.0001691543299707052,-1.361596028331121,,,,,,,,,,,,,,,,
8,240618_094822,TrueCHOICE,9.0,9,1.0,2583.0,,,,,,,,,,,9.0,9.0,,,A,,,,,,True,cue1.png,Easy,cue2.png,Hard,Left,Easy,Easy,0.0150296000065281,,,,,,,,,,,,,17,27,Female,0.14285714285714285,1.0,0.4,1.0,1.2777777777777777,1.25,3.3333333333333335,1.6666666666666667,2.0,2.5555555555555554,1.75,2.0,2.75,2.0,1.0,1.0,0.5174635833051676,0.8971196345722611,,,,,,,,,,,,,-1.7446347926348277e-05,-0.40660270290043415,7.660314914354621e-07,-0.11448215995371512,1.4909999999999999,-0.07003484385855875,,,,,,,,,,,,,,
9,240618_094837,TrueCHOICE,9.0,10,1.0,2583.0,,,,,,,,,,,10.0,10.0,,,A,,,,,,True,cue2.png,Hard,cue1.png,Easy,Right,Easy,Easy,0.0167929000454023,,,,,,,,,,,,,17,27,Female,0.14285714285714285,1.0,0.4,1.0,1.2777777777777777,1.25,3.3333333333333335,1.6666666666666667,2.0,2.5555555555555554,1.75,2.0,2.75,2.0,1.0,1.0,0.428862083334631,-0.35386856737269906,,,,,,,,,,,,,-3.0151433449572204e-05,-0.6837777729392948,,,2.0410000000000004,2.0201523565712685,,,,,,,,,,,,,,
0,240618_095019,FalseCHOICE,9.0,1,2.0,2583.0,,,,,,,,,,,1.0,1.0,,,A,,,,,,False,cue1.png,Easy,cue2.png,Hard,Left,Easy,Mid,0.0168220999184995,,,,,,,,,,,,,17,27,Female,0.14285714285714285,1.0,0.4,1.0,1.2777777777777777,1.25,3.3333333333333335,1.6666666666666667,2.0,2.5555555555555554,1.75,2.0,2.75,2.0,0.6875,0.75,0.741782083370102,3.370859513861364,,,,,,,,,,,,,,,,,,,5.531648480597241e-05,-0.37053433561144833,3.829343752122672e-05,0.331227749494207,,,,,,,,,,
1,240618_095036,FalseCHOICE,9.0,2,2.0,2583.0,,,,,,,,,,,2.0,2.0,,,A,,,,,,False,cue2.png,Hard,cue1.png,Easy,Right,Easy,Mid,0.0155929999891668,,,,,,,,,,,,,17,27,Female,0.14285714285714285,1.0,0.4,1.0,1.2777777777777777,1.25,3.3333333333333335,1.6666666666666667,2.0,2.5555555555555554,1.75,2.0,2.75,2.0,0.6875,0.75,0.5460583833434308,0.8313618537179813,,,,,,,,,,,,,,,,,,,-7.235174085142796e-05,-0.5236838353002223,,,1.959,0.7014038627629805,,,,,,,,
2,240618_095052,FalseCHOICE,9.0,3,2.0,2583.0,,,,,,,,,,,3.0,3.0,,,A,,,,,,False,cue2.png,Hard,cue1.png,Easy,Left,Hard,Mid,0.0152861999813467,,,,,,,,,,,,,17,27,Female,0.14285714285714285,1.0,0.4,1.0,1.2777777777777777,1.25,3.3333333333333335,1.6666666666666667,2.0,2.5555555555555554,1.75,2.0,2.75,2.0,1.0,1.0,0.5915356333134696,1.4214251412653325,,,,,,,,,,,,,,,,,,,-6.861736654227395e-05,-0.5192041180162029,-0.0007882191785812346,-1.332610106315842,1.5990000000000002,0.01778109718547611,,,,,,,,
3,240618_095108,FalseCHOICE,9.0,4,2.0,2583.0,,,,,,,,,,,4.0,4.0,,,A,,,,,,False,cue2.png,Hard,cue1.png,Easy,Left,Hard,Mid,0.0164344999939203,,,,,,,,,,,,,17,27,Female,0.14285714285714285,1.0,0.4,1.0,1.2777777777777777,1.25,3.3333333333333335,1.6666666666666667,2.0,2.5555555555555554,1.75,2.0,2.75,2.0,0.6875,0.75,0.6312729333488581,1.9370130871632154,,,,,,,,,,,,,,,,,,,,,0.00014578603155688706,0.547619179813985,1.5959999999999999,0.012084240805662932,,,,,,,,
4,240618_095124,FalseCHOICE,9.0,5,2.0,2583.0,,,,,,,,,,,5.0,5.0,,,A,,,,,,False,cue1.png,Easy,cue2.png,Hard,Left,Easy,Mid,0.0160425999201834,,,,,,,,,,,,,17,27,Female,0.14285714285714285,1.0,0.4,1.0,1.2777777777777777,1.25,3.3333333333333335,1.6666666666666667,2.0,2.5555555555555554,1.75,2.0,2.75,2.0,0.6875,0.75,0.5253981333225965,0.5632969408906829,,,,,,,,,,,,,,,,,,,-6.992486296932866e-05,-0.5207725773773101,-0.0002807535726578017,-0.31104011548061383,,,,,,,,,,
5,240618_095140,FalseCHOICE,9.0,6,2.0,2583.0,,,,,,,,,,,6.0,6.0,,,A,,,,,,False,cue2.png,Hard,cue1.png,Easy,Right,Easy,Mid,0.0162164000794291,,,,,,,,,,,,,17,27,Female,0.14285714285714285,1.0,0.4,1.0,1.2777777777777777,1.25,3.3333333333333335,1.6666666666666667,2.0,2.5555555555555554,1.75,2.0,2.75,2.0,1.0,1.0,0.5441162833400691,0.806163278309743,,,,,,,,,,,,,,,,,,,0.0013034507181844956,1.1267147441972531,0.0006407922657242402,1.544107430838473,0.10999999999999988,-2.8097586193281474,,,,,,,,
6,240618_095156,FalseCHOICE,9.0,7,2.0,2583.0,,,,,,,,,,,7.0,7.0,,,A,,,,,,False,cue2.png,Hard,cue1.png,Easy,Right,Easy,Mid,0.0169868000084534,,,,,,,,,,,,,17,27,Female,0.14285714285714285,1.0,0.4,1.0,1.2777777777777777,1.25,3.3333333333333335,1.6666666666666667,2.0,2.5555555555555554,1.75,2.0,2.75,2.0,1.0,1.0,0.4509444666521934,-0.4027327850588011,,,,,,,,,,,,,,,,,,,-6.289119475189325e-06,-0.4444357893608184,-0.00047406598519656113,-0.7001938969397511,,,,,,,,,,
7,240618_095211,FalseCHOICE,9.0,8,2.0,2583.0,,,,,,,,,,,8.0,8.0,,,A,,,,,,False,cue1.png,Easy,cue2.png,Hard,Left,Easy,Mid,0.0151393000269308,,,,,,,,,,,,,17,27,Female,0.14285714285714285,1.0,0.4,1.0,1.2777777777777777,1.25,3.3333333333333335,1.6666666666666667,2.0,2.5555555555555554,1.75,2.0,2.75,2.0,1.0,1.0,0.4677000666464058,-0.1853303602436026,,,,,,,,,,,,,,,,,,,1.761378305134391e-05,-0.4157621115980234,-0.00025002731317723967,-0.24918562869457805,,,,,,,,,,
8,240618_095226,FalseCHOICE,9.0,9,2.0,2583.0,,,,,,,,,,,9.0,9.0,,,A,,,,,,False,cue1.png,Easy,cue2.png,Hard,Left,Easy,Mid,0.0160686000017449,,,,,,,,,,,,,17,27,Female,0.14285714285714285,1.0,0.4,1.0,1.2777777777777777,1.25,3.3333333333333335,1.6666666666666667,2.0,2.5555555555555554,1.75,2.0,2.75,2.0,1.0,1.0,0.3700400666760591,-1.4524602038982157,,,,,,,,,,,,,,,,,,,0.0006040343540469834,0.28770201655704264,-7.514663997283937e-05,0.10286354594373849,,,,,,,,,,
9,240618_095241,FalseCHOICE,9.0,10,2.0,2583.0,,,,,,,,,,,10.0,10.0,,,A,,,,,,False,cue2.png,Hard,cue1.png,Easy,Right,Easy,Mid,0.0148866999661549,,,,,,,,,,,,,17,27,Female,0.14285714285714285,1.0,0.4,1.0,1.2777777777777777,1.25,3.3333333333333335,1.6666666666666667,2.0,2.5555555555555554,1.75,2.0,2.75,2.0,0.6875,0.75,0.300493933338051,-2.354815119832384,,,,,,,,,,,,,,,,,,,6.241363843050235e-05,-0.3620206626030374,-0.0006772066670634818,-1.1091327926811179,,,,,,,,,,
10,240618_095255,FalseCHOICE,9.0,11,2.0,2583.0,,,,,,,,,,,11.0,11.0,,,A,,,,,,False,cue1.png,Easy,cue2.png,Hard,Left,Easy,Mid,0.0167018000502139,,,,,,,,,,,,,17,27,Female,0.14285714285714285,1.0,0.4,1.0,1.2777777777777777,1.25,3.3333333333333335,1.6666666666666667,2.0,2.5555555555555554,1.75,2.0,2.75,2.0,0.6875,0.75,0.295290366668875,-2.4223309361539225,,,,,,,,,,,,,,,,,,,-6.372085949631415e-05,-0.5133303181693745,-0.00018192563977282444,-0.112091360504688,,,,,,,,,,
11,240618_095311,FalseCHOICE,9.0,12,2.0,2583.0,,,,,,,,,,,12.0,12.0,,,A,,,,,,False,cue2.png,Hard,cue1.png,Easy,Right,Easy,Mid,0.0165821000700816,,,,,,,,,,,,,17,27,Female,0.14285714285714285,1.0,0.4,1.0,1.2777777777777777,1.25,3.3333333333333335,1.6666666666666667,2.0,2.5555555555555554,1.75,2.0,2.75,2.0,1.0,1.0,0.4884882500045933,0.08439447629665735,,,,,,,,,,,,,,,,,,,-0.0004465024268854702,-0.972511177258379,-0.0003036414675507671,-0.35711532984612127,,,,,,,,,,
12,240618_095326,FalseCHOICE,9.0,13,2.0,2583.0,,,,,,,,,,,13.0,13.0,,,A,,,,,,False,cue1.png,Easy,cue2.png,Hard,Left,Easy,Mid,0.0155276000732555,,,,,,,,,,,,,17,27,Female,0.14285714285714285,1.0,0.4,1.0,1.2777777777777777,1.25,3.3333333333333335,1.6666666666666667,2.0,2.5555555555555554,1.75,2.0,2.75,2.0,1.0,1.0,0.5364689666700239,0.706940022325368,,,,,,,,,,,,,,,,,,,1.5969980003589356e-05,-0.41773400094679575,-8.30228528193918e-05,0.08700808186587766,0.8619999999999999,-1.3817466201218047,,,,,,,,
13,240618_095342,FalseCHOICE,9.0,14,2.0,2583.0,,,,,,,,,,,14.0,14.0,,,A,,,,,,False,cue2.png,Hard,cue1.png,Easy,Right,Easy,Mid,0.0161988000618293,,,,,,,,,,,,,17,27,Female,0.14285714285714285,1.0,0.4,1.0,1.2777777777777777,1.25,3.3333333333333335,1.6666666666666667,2.0,2.5555555555555554,1.75,2.0,2.75,2.0,1.0,1.0,0.4384603999787941,-0.5647124436379681,,,,,,,,,,,,,,,,,,,0.0001801657823263009,-0.22076639332764433,0.0006289636129246457,1.5202953801476955,,,,,,,,,,
14,240618_095358,FalseCHOICE,9.0,15,2.0,2583.0,,,,,,,,,,,15.0,15.0,,,A,,,,,,False,cue1.png,Easy,cue2.png,Hard,Left,Easy,Mid,0.0157641000114381,,,,,,,,,,,,,17,27,Female,0.14285714285714285,1.0,0.4,1.0,1.2777777777777777,1.25,3.3333333333333335,1.6666666666666667,2.0,2.5555555555555554,1.75,2.0,2.75,2.0,1.0,1.0,0.5220440666501721,0.5197782230990917,,,,,,,,,,,,,,,,,,,-0.0001382528696279501,-0.6027381563662472,-0.00021475057406079032,-0.1781706522405377,,,,,,,,,,
15,240618_095414,FalseCHOICE,9.0,16,2.0,2583.0,,,,,,,,,,,16.0,16.0,,,A,,,,,,False,cue1.png,Easy,cue2.png,Hard,Left,Easy,Mid,0.0163678000681102,,,,,,,,,,,,,17,27,Female,0.14285714285714285,1.0,0.4,1.0,1.2777777777777777,1.25,3.3333333333333335,1.6666666666666667,2.0,2.5555555555555554,1.75,2.0,2.75,2.0,1.0,1.0,0.4974683333421126,0.20091026166355608,,,,,,,,,,,,,,,,,,,,,0.000910932607298316,2.0879221505846073,,,,,,,,,,
16,240618_095429,FalseCHOICE,9.0,17,2.0,2583.0,,,,,,,,,,,17.0,17.0,,,A,,,,,,False,cue2.png,Hard,cue1.png,Easy,Right,Easy,Mid,0.0167729000095278,,,,,,,,,,,,,17,27,Female,0.14285714285714285,1.0,0.4,1.0,1.2777777777777777,1.25,3.3333333333333335,1.6666666666666667,2.0,2.5555555555555554,1.75,2.0,2.75,2.0,1.0,1.0,0.4210215333344725,-0.7909801926779277,,,,,,,,,,,,,,,,,,,-1.8149142862131703e-05,-0.4586629522954832,-0.00046584953091291384,-0.6836534988728326,,,,,,,,,,
17,240618_095444,FalseCHOICE,9.0,18,2.0,2583.0,,,,,,,,,,,18.0,18.0,,,A,,,,,,False,cue2.png,Hard,cue1.png,Easy,Right,Easy,Mid,0.0164031999884173,,,,,,,,,,,,,17,27,Female,0.14285714285714285,1.0,0.4,1.0,1.2777777777777777,1.25,3.3333333333333335,1.6666666666666667,2.0,2.5555555555555554,1.75,2.0,2.75,2.0,1.0,1.0,0.4698411333374679,-0.15755020969759176,,,,,,,,,,,,,,,,,,,2.5224868626410723e-05,-0.40663193107027074,-0.0003587747137756567,-0.46810308780104143,,,,,,,,,,
18,240618_095500,FalseCHOICE,9.0,19,2.0,2583.0,,,,,,,,,,,19.0,19.0,,,A,,,,,,False,cue1.png,Easy,cue2.png,Hard,Left,Easy,Mid,0.0161037999205291,,,,,,,,,,,,,17,27,Female,0.14285714285714285,1.0,0.4,1.0,1.2777777777777777,1.25,3.3333333333333335,1.6666666666666667,2.0,2.5555555555555554,1.75,2.0,2.75,2.0,1.0,1.0,0.5572445166568892,0.976500941992465,,,,,,,,,,,,,,,,,,,-1.2791395714779365e-06,-0.438425868632671,-0.0003147840821142575,-0.37954632915846254,2.302,1.352744442188214,,,,,,,,
19,240618_095516,FalseCHOICE,9.0,20,2.0,2583.0,,,,,,,,,,,20.0,20.0,,,A,,,,,,False,cue1.png,Easy,cue2.png,Hard,Left,Easy,Mid,0.0157742000883445,,,,,,,,,,,,,17,27,Female,0.14285714285714285,1.0,0.4,1.0,1.2777777777777777,1.25,3.3333333333333335,1.6666666666666667,2.0,2.5555555555555554,1.75,2.0,2.75,2.0,1.0,1.0,0.5187791167021109,0.47741578690737363,,,,,,,,,,,,,,,,,,,0.0022016122069866725,2.2041400937035847,,,1.766,0.3349061023283737,,,,,,,,
20,240618_095532,FalseCHOICE,9.0,21,2.0,2583.0,,,,,,,,,,,21.0,21.0,,,A,,,,,,False,cue1.png,Easy,cue2.png,Hard,Left,Easy,Mid,0.0171745999250561,,,,,,,,,,,,,17,27,Female,0.14285714285714285,1.0,0.4,1.0,1.2777777777777777,1.25,3.3333333333333335,1.6666666666666667,2.0,2.5555555555555554,1.75,2.0,2.75,2.0,1.0,1.0,0.4441241833652991,-0.4912253561997664,,,,,,,,,,,,,,,,,,,,,2.5755997350119728e-06,0.25932480514880646,,,,,,,,,,
21,240618_095547,FalseCHOICE,9.0,22,2.0,2583.0,,,,,,,,,,,22.0,22.0,,,A,,,,,,False,cue2.png,Hard,cue1.png,Easy,Right,Easy,Mid,0.0170689999358728,,,,,,,,,,,,,17,27,Female,0.14285714285714285,1.0,0.4,1.0,1.2777777777777777,1.25,3.3333333333333335,1.6666666666666667,2.0,2.5555555555555554,1.75,2.0,2.75,2.0,1.0,1.0,0.4311900999940311,-0.6590439415471648,,,,,,,,,,,,,,,,,,,0.00015771628685169996,-0.2476965788338391,0.0008994995303989359,2.064906426706997,,,,,,,,,,
22,240618_095602,FalseCHOICE,9.0,23,2.0,2583.0,,,,,,,,,,,23.0,23.0,,,A,,,,,,False,cue1.png,Easy,cue2.png,Hard,Left,Easy,Mid,0.0161496000364422,,,,,,,,,,,,,17,27,Female,0.14285714285714285,1.0,0.4,1.0,1.2777777777777777,1.25,3.3333333333333335,1.6666666666666667,2.0,2.5555555555555554,1.75,2.0,2.75,2.0,1.0,1.0,0.4871795333456248,0.06741399364285391,,,,,,,,,,,,,,,,,,,-0.0003564583677435249,-0.8644952434853076,-0.0006022286502885298,-0.9581958798823653,2.253,1.2596957879846093,,,,,,,,
23,240618_095618,FalseCHOICE,9.0,24,2.0,2583.0,,,,,,,,,,,24.0,24.0,,,A,,,,,,False,cue2.png,Hard,cue1.png,Easy,Right,Easy,Mid,0.0169102000072598,,,,,,,,,,,,,17,27,Female,0.14285714285714285,1.0,0.4,1.0,1.2777777777777777,1.25,3.3333333333333335,1.6666666666666667,2.0,2.5555555555555554,1.75,2.0,2.75,2.0,1.0,1.0,0.5246807333508817,0.5539887398434492,,,,,,,,,,,,,,,,,,,,,-0.0008818016491532769,-1.5209993143502556,2.396,1.5312459420890066,,,,,,,,
24,240618_095633,FalseCHOICE,9.0,25,2.0,2583.0,,,,,,,,,,,25.0,25.0,,,A,,,,,,False,cue2.png,Hard,cue1.png,Easy,Right,Easy,Mid,0.0153035999974235,,,,,,,,,,,,,17,27,Female,0.14285714285714285,1.0,0.4,1.0,1.2777777777777777,1.25,3.3333333333333335,1.6666666666666667,2.0,2.5555555555555554,1.75,2.0,2.75,2.0,1.0,1.0,0.4649981666589156,-0.2203872731020751,,,,,,,,,,,,,,,,,,,,,,,1.284,-0.5803888226948407,,,,,,,,
25,240618_095649,FalseCHOICE,9.0,26,2.0,2583.0,,,,,,,,,,,26.0,26.0,,,A,,,,,,False,cue1.png,Easy,cue2.png,Hard,Left,Easy,Mid,0.0160931000718846,,,,,,,,,,,,,17,27,Female,0.14285714285714285,1.0,0.4,1.0,1.2777777777777777,1.25,3.3333333333333335,1.6666666666666667,2.0,2.5555555555555554,1.75,2.0,2.75,2.0,1.0,1.0,0.4900150333414785,0.10420435476838849,,,,,,,,,,,,,,,,,,,0.00022564456797077642,-0.16621050651994912,5.0814726695515115e-05,0.3564341341589305,1.193,-0.753193466215821,,,,,,,,
26,240618_095704,FalseCHOICE,9.0,27,2.0,2583.0,,,,,,,,,,,27.0,27.0,,,A,,,,,,False,cue1.png,Easy,cue2.png,Hard,Left,Easy,Mid,0.0160620999522507,,,,,,,,,,,,,17,27,Female,0.14285714285714285,1.0,0.4,1.0,1.2777777777777777,1.25,3.3333333333333335,1.6666666666666667,2.0,2.5555555555555554,1.75,2.0,2.75,2.0,1.0,1.0,0.4540921333051907,-0.3618920892252931,,,,,,,,,,,,,,,,,,,-2.3339173054630347e-05,-0.4648888595112989,,,1.5499999999999998,-0.0752675570181294,,,,,,,,
27,240618_095721,FalseCHOICE,9.0,28,2.0,2583.0,,,,,,,,,,,28.0,28.0,,,A,,,,,,False,cue2.png,Hard,cue1.png,Easy,Right,Easy,Mid,0.0165282000089064,,,,,,,,,,,,,17,27,Female,0.14285714285714285,1.0,0.4,1.0,1.2777777777777777,1.25,3.3333333333333335,1.6666666666666667,2.0,2.5555555555555554,1.75,2.0,2.75,2.0,1.0,1.0,0.4726848166707593,-0.12065367049412216,,,,,,,,,,,,,,,,,,,,,-0.0001730287392179338,-0.09418116814439453,2.017,0.8115430861060225,,,,,,,,
28,240618_095737,FalseCHOICE,9.0,29,2.0,2583.0,,,,,,,,,,,29.0,29.0,,,A,,,,,,False,cue1.png,Easy,cue2.png,Hard,Left,Easy,Mid,0.0160542000085115,,,,,,,,,,,,,17,27,Female,0.14285714285714285,1.0,0.4,1.0,1.2777777777777777,1.25,3.3333333333333335,1.6666666666666667,2.0,2.5555555555555554,1.75,2.0,2.75,2.0,1.0,1.0,0.5845362833157802,1.3306091954231347,,,,,,,,,,,,,,,,,,,,,-6.918877598818991e-06,0.2402116415970476,1.955,0.6938080542565638,,,,,,,,
29,240618_095754,FalseCHOICE,9.0,30,2.0,2583.0,,,,,,,,,,,30.0,30.0,,,A,,,,,,False,cue1.png,Easy,cue2.png,Hard,Right,Hard,Mid,0.0167974999640136,,,,,,,,,,,,,17,27,Female,0.14285714285714285,1.0,0.4,1.0,1.2777777777777777,1.25,3.3333333333333335,1.6666666666666667,2.0,2.5555555555555554,1.75,2.0,2.75,2.0,0.6875,0.75,0.5819609500079727,1.2971944740154797,,,,,,,,,,,,,,,,,,,-8.305912389426021e-05,-0.5365283026494149,-0.0006813824402080106,-1.1175389673719596,0.9950000000000001,-1.1291859872834484,,,,,,,,
30,240618_095808,FalseCHOICE,9.0,31,2.0,2583.0,,,,,,,,,,,31.0,31.0,,,A,,,,,,False,cue2.png,Hard,cue1.png,Easy,Right,Easy,Mid,0.0162416999228298,,,,,,,,,,,,,17,27,Female,0.14285714285714285,1.0,0.4,1.0,1.2777777777777777,1.25,3.3333333333333335,1.6666666666666667,2.0,2.5555555555555554,1.75,2.0,2.75,2.0,1.0,1.0,0.3621470333503869,-1.5548716117105905,,,,,,,,,,,,,,,,,,,0.002557063788050281,2.6305361803035385,,,1.0059999999999998,-1.108297513890803,,,,,,,,
31,240618_095824,FalseCHOICE,9.0,32,2.0,2583.0,,,,,,,,,,,32.0,32.0,,,A,,,,,,False,cue1.png,Easy,cue2.png,Hard,Left,Easy,Mid,0.0158265000209212,,,,,,,,,,,,,17,27,Female,0.14285714285714285,1.0,0.4,1.0,1.2777777777777777,1.25,3.3333333333333335,1.6666666666666667,2.0,2.5555555555555554,1.75,2.0,2.75,2.0,0.6875,0.75,0.4780348333297297,-0.05123767853539656,,,,,,,,,,,,,,,,,,,,,-0.0005842552214568122,-0.9220138897877188,1.297,-0.5557024450489866,,,,,,,,
32,240618_095839,FalseCHOICE,9.0,33,2.0,2583.0,,,,,,,,,,,33.0,33.0,,,A,,,,,,False,cue2.png,Hard,cue1.png,Easy,Right,Easy,Mid,0.0167444999096915,,,,,,,,,,,,,17,27,Female,0.14285714285714285,1.0,0.4,1.0,1.2777777777777777,1.25,3.3333333333333335,1.6666666666666667,2.0,2.5555555555555554,1.75,2.0,2.75,2.0,1.0,1.0,0.5015157999781271,0.2534257825241704,,,,,,,,,,,,,,,,,,,-0.0005981051330123648,-1.154372235287835,0.00015897871132963554,0.5741771289581724,1.121,-0.889918019331322,,,,,,,,
33,240618_095854,FalseCHOICE,9.0,34,2.0,2583.0,,,,,,,,,,,34.0,34.0,,,A,,,,,,False,cue2.png,Hard,cue1.png,Easy,Right,Easy,Mid,0.0164344999939203,,,,,,,,,,,,,17,27,Female,0.14285714285714285,1.0,0.4,1.0,1.2777777777777777,1.25,3.3333333333333335,1.6666666666666667,2.0,2.5555555555555554,1.75,2.0,2.75,2.0,0.6875,0.75,0.4256558500152702,-0.7308503445009037,,,,,,,,,,,,,,,,,,,-0.000639693680770615,-1.2042614324562104,-0.0001839642546944925,-0.11619525996612108,1.8199999999999998,0.4374495171649991,,,,,,,,
34,240618_095909,FalseCHOICE,9.0,35,2.0,2583.0,,,,,,,,,,,35.0,35.0,,,A,,,,,,False,cue2.png,Hard,cue1.png,Easy,Right,Easy,Mid,0.0170312999980524,,,,,,,,,,,,,17,27,Female,0.14285714285714285,1.0,0.4,1.0,1.2777777777777777,1.25,3.3333333333333335,1.6666666666666667,2.0,2.5555555555555554,1.75,2.0,2.75,2.0,1.0,1.0,0.3917755500297062,-1.1704442338795078,,,,,,,,,,,,,,,,,,,0.0020011697901094238,1.9636914174328193,,,1.012,-1.0969038011311776,,,,,,,,
35,240618_095925,FalseCHOICE,9.0,36,2.0,2583.0,,,,,,,,,,,36.0,36.0,,,A,,,,,,False,cue1.png,Easy,cue2.png,Hard,Left,Easy,Mid,0.018519900040701,,,,,,,,,,,,,17,27,Female,0.14285714285714285,1.0,0.4,1.0,1.2777777777777777,1.25,3.3333333333333335,1.6666666666666667,2.0,2.5555555555555554,1.75,2.0,2.75,2.0,1.0,1.0,0.5240873333532363,0.5462894274691978,,,,,,,,,,,,,,,,,,,-3.6462014796096766e-05,-0.48063088644753715,-0.0006590875054432385,-1.072657430500362,1.298,-0.5538034929223822,,,,,,,,
36,240618_095940,FalseCHOICE,9.0,37,2.0,2583.0,,,,,,,,,,,37.0,37.0,,,A,,,,,,False,cue2.png,Hard,cue1.png,Easy,Right,Easy,Mid,0.0155527000315487,,,,,,,,,,,,,17,27,Female,0.14285714285714285,1.0,0.4,1.0,1.2777777777777777,1.25,3.3333333333333335,1.6666666666666667,2.0,2.5555555555555554,1.75,2.0,2.75,2.0,0.6875,0.75,0.5255607833193304,0.5654073101820448,,,,,,,,,,,,,,,,,,,,,,,,,,,,,,,,
37,240618_095956,FalseCHOICE,9.0,38,2.0,2583.0,,,,,,,,,,,38.0,38.0,,,A,,,,,,False,cue1.png,Easy,cue2.png,Hard,Left,Easy,Mid,0.0156485000625252,,,,,,,,,,,,,17,27,Female,0.14285714285714285,1.0,0.4,1.0,1.2777777777777777,1.25,3.3333333333333335,1.6666666666666667,2.0,2.5555555555555554,1.75,2.0,2.75,2.0,1.0,1.0,0.4446534666931256,-0.48435795193352155,,,,,,,,,,,,,,,,,,,,,0.0002778075079522997,0.8133892671993047,2.451,1.6356883090522367,,,,,,,,
38,240618_100011,FalseCHOICE,9.0,39,2.0,2583.0,,,,,,,,,,,39.0,39.0,,,A,,,,,,False,cue1.png,Easy,cue2.png,Hard,Left,Easy,Mid,0.0166150999721139,,,,,,,,,,,,,17,27,Female,0.14285714285714285,1.0,0.4,1.0,1.2777777777777777,1.25,3.3333333333333335,1.6666666666666667,2.0,2.5555555555555554,1.75,2.0,2.75,2.0,1.0,1.0,0.3995616833562962,-1.0694198440802893,,,,,,,,,,,,,,,,,,,0.0013800468145293739,1.2185986391360817,-0.0007761057564137507,-1.3082247914724812,1.5830000000000002,-0.01260213684019079,,,,,,,,
39,240618_100026,FalseCHOICE,9.0,40,2.0,2583.0,,,,,,,,,,,40.0,40.0,,,A,,,,,,False,cue2.png,Hard,cue1.png,Easy,Right,Easy,Mid,0.0176549999741837,,,,,,,,,,,,,17,27,Female,0.14285714285714285,1.0,0.4,1.0,1.2777777777777777,1.25,3.3333333333333335,1.6666666666666667,2.0,2.5555555555555554,1.75,2.0,2.75,2.0,1.0,1.0,0.4313003499992192,-0.6576134575017077,,,,,,,,,,,,,,,,,,,0.001749126311521335,1.6613426345088,0.0010314716263578314,2.3305771072133252,1.5559999999999998,-0.06387384425850431,,,,,,,,
40,240618_100041,FalseCHOICE,9.0,41,2.0,2583.0,,,,,,,,,,,41.0,41.0,,,A,,,,,,False,cue2.png,Hard,cue1.png,Easy,Right,Easy,Mid,0.0156876000110059,,,,,,,,,,,,,17,27,Female,0.14285714285714285,1.0,0.4,1.0,1.2777777777777777,1.25,3.3333333333333335,1.6666666666666667,2.0,2.5555555555555554,1.75,2.0,2.75,2.0,0.6875,0.75,0.4245049333161053,-0.7457833866626394,,,,,,,,,,,,,,,,,,,-0.00010066796341369044,-0.5576516867069133,-0.00021993950047675395,-0.18861638777281028,1.6050000000000002,0.029174809945101195,,,,,,,,
41,240618_100057,FalseCHOICE,9.0,42,2.0,2583.0,,,,,,,,,,,42.0,42.0,,,A,,,,,,False,cue1.png,Easy,cue2.png,Hard,Left,Easy,Mid,0.0160884000360965,,,,,,,,,,,,,17,27,Female,0.14285714285714285,1.0,0.4,1.0,1.2777777777777777,1.25,3.3333333333333335,1.6666666666666667,2.0,2.5555555555555554,1.75,2.0,2.75,2.0,1.0,1.0,0.5242700666810075,0.5486603762007103,,,,,,,,,,,,,,,,,,,0.00047156031345153577,0.12878751034790023,-0.00018180343907661352,-0.11184536045532291,2.503,1.7344338196356541,,,,,,,,
42,240618_100113,FalseCHOICE,9.0,43,2.0,2583.0,,,,,,,,,,,43.0,43.0,,,A,,,,,,False,cue2.png,Hard,cue1.png,Easy,Right,Easy,Mid,0.0171627999516204,,,,,,,,,,,,,17,27,Female,0.14285714285714285,1.0,0.4,1.0,1.2777777777777777,1.25,3.3333333333333335,1.6666666666666667,2.0,2.5555555555555554,1.75,2.0,2.75,2.0,0.6875,0.75,0.5536587166522319,0.9299755047545188,,,,,,,,,,,,,,,,,,,-0.00012717649386598077,-0.5894510491195104,-0.00045807786931885723,-0.6680085050629214,1.4709999999999999,-0.2252847750198595,,,,,,,,
43,240618_100128,FalseCHOICE,9.0,44,2.0,2583.0,,,,,,,,,,,44.0,44.0,,,A,,,,,,False,cue1.png,Easy,cue2.png,Hard,Left,Easy,Mid,0.0168003999860957,,,,,,,,,,,,,17,27,Female,0.14285714285714285,1.0,0.4,1.0,1.2777777777777777,1.25,3.3333333333333335,1.6666666666666667,2.0,2.5555555555555554,1.75,2.0,2.75,2.0,1.0,1.0,0.4666552999988198,-0.19888611489456712,,,,,,,,,,,,,,,,,,,0.0004062000604044447,0.050382018283215625,-0.0004703654128961287,-0.6927443406212324,1.3940000000000001,-0.3715040887683808,,,,,,,,
44,240618_100143,FalseCHOICE,9.0,45,2.0,2583.0,,,,,,,,,,,45.0,45.0,,,A,,,,,,False,cue2.png,Hard,cue1.png,Easy,Right,Easy,Mid,0.0165499000577256,,,,,,,,,,,,,17,27,Female,0.14285714285714285,1.0,0.4,1.0,1.2777777777777777,1.25,3.3333333333333335,1.6666666666666667,2.0,2.5555555555555554,1.75,2.0,2.75,2.0,1.0,1.0,0.4265145333483815,-0.7197090043620078,,,,,,,,,,,,,,,,,,,0.002616083917897102,2.701336125325593,0.0009398998770219287,2.1462356463578316,1.6650000000000003,0.14311193754135207,,,,,,,,
45,240618_100159,FalseCHOICE,9.0,46,2.0,2583.0,,,,,,,,,,,46.0,46.0,,,A,,,,,,False,cue2.png,Hard,cue1.png,Easy,Right,Easy,Mid,0.0170137999812141,,,,,,,,,,,,,17,27,Female,0.14285714285714285,1.0,0.4,1.0,1.2777777777777777,1.25,3.3333333333333335,1.6666666666666667,2.0,2.5555555555555554,1.75,2.0,2.75,2.0,1.0,1.0,0.511476916668471,0.3826703886914167,,,,,,,,,,,,,,,,,,,0.0007157671601327447,0.42173554966791227,-0.00030221095085075774,-0.35423558210546613,1.246,-0.6525490035057996,,,,,,,,
46,240618_100215,FalseCHOICE,9.0,47,2.0,2583.0,,,,,,,,,,,47.0,47.0,,,A,,,,,,False,cue1.png,Easy,cue2.png,Hard,Left,Easy,Mid,0.0160910000558942,,,,,,,,,,,,,17,27,Female,0.14285714285714285,1.0,0.4,1.0,1.2777777777777777,1.25,3.3333333333333335,1.6666666666666667,2.0,2.5555555555555554,1.75,2.0,2.75,2.0,1.0,1.0,0.4854792999685742,0.04535361627348411,,,,,,,,,,,,,,,,,,,-8.701013206764956e-06,-0.4473290724497879,,,1.6030000000000002,0.025376905691892833,,,,,,,,
47,240618_100230,FalseCHOICE,9.0,48,2.0,2583.0,,,,,,,,,,,48.0,48.0,,,A,,,,,,False,cue1.png,Easy,cue2.png,Hard,Left,Easy,Mid,0.0160798999713733,,,,,,,,,,,,,17,27,Female,0.14285714285714285,1.0,0.4,1.0,1.2777777777777777,1.25,3.3333333333333335,1.6666666666666667,2.0,2.5555555555555554,1.75,2.0,2.75,2.0,1.0,1.0,0.4744016999805656,-0.09837726172299137,,,,,,,,,,,,,,,,,,,-4.780419339437932e-05,-0.4942368480622078,,,2.517,1.7610191494081122,,,,,,,,
48,240618_100245,FalseCHOICE,9.0,49,2.0,2583.0,,,,,,,,,,,49.0,49.0,,,A,,,,,,False,cue2.png,Hard,cue1.png,Easy,Right,Easy,Mid,0.0169497000752016,,,,,,,,,,,,,17,27,Female,0.14285714285714285,1.0,0.4,1.0,1.2777777777777777,1.25,3.3333333333333335,1.6666666666666667,2.0,2.5555555555555554,1.75,2.0,2.75,2.0,1.0,1.0,0.4764092333304385,-0.07232969444336527,,,,,,,,,,,,,,,,,,,,,,,,,,,,,,,,
49,240618_100301,FalseCHOICE,9.0,50,2.0,2583.0,,,,,,,,,,,50.0,50.0,,,A,,,,,,False,cue1.png,Easy,cue2.png,Hard,Left,Easy,Mid,0.0161380000645294,,,,,,,,,,,,,17,27,Female,0.14285714285714285,1.0,0.4,1.0,1.2777777777777777,1.25,3.3333333333333335,1.6666666666666667,2.0,2.5555555555555554,1.75,2.0,2.75,2.0,1.0,1.0,0.421616733345824,-0.7832575252853817,,,,,,,,,,,,,,,,,,,,,,,1.4729999999999999,-0.22148687076665113,,,,,,,,
0,240618_092959,OFFLINERATING,9.0,1,1.0,,,,,,,,,,,,,,,,,T0,cue1.png,Easy,47.0,1.2980878000380471,,,,,,,,,,,,,,,,,,,,,,17,27,Female,0.14285714285714285,1.0,0.4,1.0,1.2777777777777777,1.25,3.3333333333333335,1.6666666666666667,2.0,2.5555555555555554,1.75,2.0,2.75,2.0,,,,,,,,,,,,,,,,,,,,,,,,,,,,,-0.17206757613009782,-8.457159124787778e-05,1.0,,,1.464,-0.7656807376336894,
1,240618_093006,OFFLINERATING,9.0,2,3.0,,,,,,,,,,,,,,,,,T0,cue2.png,Hard,44.0,1.6186700999969617,,,,,,,,,,,,,,,,,,,,,,17,27,Female,0.14285714285714285,1.0,0.4,1.0,1.2777777777777777,1.25,3.3333333333333335,1.6666666666666667,2.0,2.5555555555555554,1.75,2.0,2.75,2.0,,,,,,,,,,,,,,,,,,,,,,,,,,,,,-0.7620135514332903,,,,,1.4700000000000002,-0.6468682093801813,
2,240618_094514,OFFLINERATING,9.0,3,1.0,,,,,,,,,,,,,,,,,T1,cue1.png,Easy,53.0,1.4624453999567777,,,,,,,,,,,,,,,,,,,,,,17,27,Female,0.14285714285714285,1.0,0.4,1.0,1.2777777777777777,1.25,3.3333333333333335,1.6666666666666667,2.0,2.5555555555555554,1.75,2.0,2.75,2.0,,,,,,,,,,,,,,,,,,,,,,,,,,,,,1.0078243744762871,,,,,,,
3,240618_094522,OFFLINERATING,9.0,4,3.0,,,,,,,,,,,,,,,,,T1,cue2.png,Hard,47.0,1.803747299942188,,,,,,,,,,,,,,,,,,,,,,17,27,Female,0.14285714285714285,1.0,0.4,1.0,1.2777777777777777,1.25,3.3333333333333335,1.6666666666666667,2.0,2.5555555555555554,1.75,2.0,2.75,2.0,,,,,,,,,,,,,,,,,,,,,,,,,,,,,-0.17206757613009782,,,3.250915185227122e-05,-1.2997008779321744,1.5739999999999998,1.412548947013875,
4,240618_094858,OFFLINERATING,9.0,5,1.0,,,,,,,,,,,,,,,,,T2,cue1.png,Easy,57.0,1.4520171999465674,,,,,,,,,,,,,,,,,,,,,,17,27,Female,0.14285714285714285,1.0,0.4,1.0,1.2777777777777777,1.25,3.3333333333333335,1.6666666666666667,2.0,2.5555555555555554,1.75,2.0,2.75,2.0,,,,,,,,,,,,,,,,,,,,,,,,,,,,,1.7944190082138773,,,0.0003846708359083791,1.1326373701549413,,,
5,240618_094907,OFFLINERATING,9.0,6,3.0,,,,,,,,,,,,,,,,,T2,cue2.png,Hard,39.0,2.853218900039792,,,,,,,,,,,,,,,,,,,,,,17,27,Female,0.14285714285714285,1.0,0.4,1.0,1.2777777777777777,1.25,3.3333333333333335,1.6666666666666667,2.0,2.5555555555555554,1.75,2.0,2.75,2.0,,,,,,,,,,,,,,,,,,,,,,,,,,,,,-1.745256843605278,-0.0009180942064301047,-1.0,0.00024487197457693675,0.1670635077772334,,,
6,240618_100327,OFFLINERATING,9.0,7,1.0,,,,,,,,,,,,,,,,,T3,cue1.png,Easy,49.0,2.783767399960197,,,,,,,,,,,,,,,,,,,,,,17,27,Female,0.14285714285714285,1.0,0.4,1.0,1.2777777777777777,1.25,3.3333333333333335,1.6666666666666667,2.0,2.5555555555555554,1.75,2.0,2.75,2.0,,,,,,,,,,,,,,,,,,,,,,,,,,,,,0.2212297407386972,,,,,,,
7,240618_100344,OFFLINERATING,9.0,8,3.0,,,,,,,,,,,,,,,,,T3,cue2.png,Hard,47.0,1.651961800060235,,,,,,,,,,,,,,,,,,,,,,17,27,Female,0.14285714285714285,1.0,0.4,1.0,1.2777777777777777,1.25,3.3333333333333335,1.6666666666666667,2.0,2.5555555555555554,1.75,2.0,2.75,2.0,,,,,,,,,,,,,,,,,,,,,,,,,,,,,-0.17206757613009782,,,,,,,
0,240618_094927,LEARNINGCHECK,9.0,1,,,,,,,,,,,,1.0,1.0,1.0,,,A,,,,,,,,,,,,,,,cue1.png,Easy,Left,Left,Easy,0.0155616000993177,1.0,,,,,,17,27,Female,0.14285714285714285,1.0,0.4,1.0,1.2777777777777777,1.25,3.3333333333333335,1.6666666666666667,2.0,2.5555555555555554,1.75,2.0,2.75,2.0,,,,,,,,,,,,,,,,,,,,,,,,,,,,,,,,,,,,
1,240618_094933,LEARNINGCHECK,9.0,2,,,,,,,,,,,,2.0,2.0,2.0,,,A,,,,,,,,,,,,,,,cue2.png,Hard,Right,Right,Hard,0.0159953000256791,1.0,,,,,,17,27,Female,0.14285714285714285,1.0,0.4,1.0,1.2777777777777777,1.25,3.3333333333333335,1.6666666666666667,2.0,2.5555555555555554,1.75,2.0,2.75,2.0,,,,,,,,,,,,,,,,,,,,,,,,,,,,,,,,,,,,
2,240618_100357,LEARNINGCHECK,9.0,1,,,,,,,,,,,,1.0,1.0,1.0,,,A,,,,,,,,,,,,,,,cue1.png,Easy,Middle,Middle,Mid,0.0150077000726014,1.0,,,,,,17,27,Female,0.14285714285714285,1.0,0.4,1.0,1.2777777777777777,1.25,3.3333333333333335,1.6666666666666667,2.0,2.5555555555555554,1.75,2.0,2.75,2.0,,,,,,,,,,,,,,,,,,,,,,,,,,,,,,,,,,,,
3,240618_100402,LEARNINGCHECK,9.0,2,,,,,,,,,,,,2.0,2.0,2.0,,,A,,,,,,,,,,,,,,,cue2.png,Hard,Middle,Middle,Mid,0.0136894000461325,1.0,,,,,,17,27,Female,0.14285714285714285,1.0,0.4,1.0,1.2777777777777777,1.25,3.3333333333333335,1.6666666666666667,2.0,2.5555555555555554,1.75,2.0,2.75,2.0,,,,,,,,,,,,,,,,,,,,,,,,,,,,,,,,,,,,
0,240618_100419,DEMANDRATING,9.0,-1,,,,,,,,,,,,,,,,,,,,,,,,,,,,,,,,,,,,,,,1.0,MentalDemand,1.0,21.0,5.360754000023007,17,27,Female,0.14285714285714285,1.0,0.4,1.0,1.2777777777777777,1.25,3.3333333333333335,1.6666666666666667,2.0,2.5555555555555554,1.75,2.0,2.75,2.0,,,,,,,,,,,,,,,,,,,,,,,,,,,,,,,,,,,,-0.880381309686499
1,240618_100427,DEMANDRATING,9.0,-1,,,,,,,,,,,,,,,,,,,,,,,,,,,,,,,,,,,,,,,2.0,Effort,1.0,4.0,6.883793200016953,17,27,Female,0.14285714285714285,1.0,0.4,1.0,1.2777777777777777,1.25,3.3333333333333335,1.6666666666666667,2.0,2.5555555555555554,1.75,2.0,2.75,2.0,,,,,,,,,,,,,,,,,,,,,,,,,,,,,,,,,,,,-1.336985853354412
2,240618_100433,DEMANDRATING,9.0,-1,,,,,,,,,,,,,,,,,,,,,,,,,,,,,,,,,,,,,,,3.0,Frustration,1.0,1.0,4.262374600046314,17,27,Female,0.14285714285714285,1.0,0.4,1.0,1.2777777777777777,1.25,3.3333333333333335,1.6666666666666667,2.0,2.5555555555555554,1.75,2.0,2.75,2.0,,,,,,,,,,,,,,,,,,,,,,,,,,,,,,,,,,,,-1.4175631257663965
3,240618_100439,DEMANDRATING,9.0,-1,,,,,,,,,,,,,,,,,,,,,,,,,,,,,,,,,,,,,,,4.0,MentalDemand,2.0,54.0,4.364603399997577,17,27,Female,0.14285714285714285,1.0,0.4,1.0,1.2777777777777777,1.25,3.3333333333333335,1.6666666666666667,2.0,2.5555555555555554,1.75,2.0,2.75,2.0,,,,,,,,,,,,,,,,,,,,,,,,,,,,,,,,,,,,0.005968686845332175
4,240618_100443,DEMANDRATING,9.0,-1,,,,,,,,,,,,,,,,,,,,,,,,,,,,,,,,,,,,,,,5.0,Effort,2.0,54.0,2.4757670999970287,17,27,Female,0.14285714285714285,1.0,0.4,1.0,1.2777777777777777,1.25,3.3333333333333335,1.6666666666666667,2.0,2.5555555555555554,1.75,2.0,2.75,2.0,,,,,,,,,,,,,,,,,,,,,,,,,,,,,,,,,,,,0.005968686845332175
5,240618_100447,DEMANDRATING,9.0,-1,,,,,,,,,,,,,,,,,,,,,,,,,,,,,,,,,,,,,,,6.0,Frustration,2.0,53.0,2.7721295999363065,17,27,Female,0.14285714285714285,1.0,0.4,1.0,1.2777777777777777,1.25,3.3333333333333335,1.6666666666666667,2.0,2.5555555555555554,1.75,2.0,2.75,2.0,,,,,,,,,,,,,,,,,,,,,,,,,,,,,,,,,,,,-0.020890403958662707
6,240618_100453,DEMANDRATING,9.0,-1,,,,,,,,,,,,,,,,,,,,,,,,,,,,,,,,,,,,,,,7.0,MentalDemand,3.0,99.0,4.337752600084059,17,27,Female,0.14285714285714285,1.0,0.4,1.0,1.2777777777777777,1.25,3.3333333333333335,1.6666666666666667,2.0,2.5555555555555554,1.75,2.0,2.75,2.0,,,,,,,,,,,,,,,,,,,,,,,,,,,,,,,,,,,,1.2146277730251018
7,240618_100458,DEMANDRATING,9.0,-1,,,,,,,,,,,,,,,,,,,,,,,,,,,,,,,,,,,,,,,8.0,Effort,3.0,98.0,3.4048808999359608,17,27,Female,0.14285714285714285,1.0,0.4,1.0,1.2777777777777777,1.25,3.3333333333333335,1.6666666666666667,2.0,2.5555555555555554,1.75,2.0,2.75,2.0,,,,,,,,,,,,,,,,,,,,,,,,,,,,,,,,,,,,1.187768682221107
8,240618_100504,DEMANDRATING,9.0,-1,,,,,,,,,,,,,,,,,,,,,,,,,,,,,,,,,,,,,,,9.0,Frustration,3.0,100.0,5.106356699950993,17,27,Female,0.14285714285714285,1.0,0.4,1.0,1.2777777777777777,1.25,3.3333333333333335,1.6666666666666667,2.0,2.5555555555555554,1.75,2.0,2.75,2.0,,,,,,,,,,,,,,,,,,,,,,,,,,,,,,,,,,,,1.2414868638290968
