,END,Phase,Block,TrialN,NbackLevel,ISI,Letter_Resp,Letter_RT,Letter_Accuracy,Trial_A_measure,Trial_ACC,Trial_RT,TrialCountCali,CaliEnd_A_measure,ISI_calibrated,TrialIndex,TrialNumber_total,TrialNumber_valid,CueLearning,TrialDemandLearning,CueMapping,OfflineRatingTimePoint,CueFigure,TrialDemand,OfflineRating,OfflineRatingRT,PhaseType,CueLeft,CueDemandLeft,CueRight,CueDemandRight,Choice,ChoiceDemand,TaskDemand,ChoiceRT,CueCheck,CueDemandCheck,CorrectAnswer,Answer,AnswerDemand,AnswerRT,AnswerACC,DemandRatingQuesIndex,QuesTLX,DemandLevel,DemandRating,DemandRatingRT,PID,Age,Gender,BAI_bis,BAI_bas_d,BAI_bas_rr,BAI_bas_fs,NFC,BFI_ext,BFI_agr,BFI_con,BFI_neu,BFI_open,UPPS_lps,UPPS_lpm,UPPS_pu,UPPS_ss,Task_A_measure,Task_ACC,Task_RT,Task_RT_z,Task_RT_log,Task_RT_log_z,cue_i_on_zyg_values,cue_i_on_zyg_zvalues,cue_e_on_zyg_values,cue_e_on_zyg_zvalues,cue_i_on_cor_values,cue_i_on_cor_zvalues,cue_e_on_cor_values,cue_e_on_cor_zvalues,cue_i_on_scr_values,cue_i_on_scr_zvalues,cue_e_on_scr_values,cue_e_on_scr_zvalues,cue_e_true_zyg_values,cue_e_true_zyg_zvalues,cue_e_true_cor_values,cue_e_true_cor_zvalues,cue_e_true_scr_values,cue_e_true_scr_zvalues,cue_e_false_zyg_values,cue_e_false_zyg_zvalues,cue_e_false_cor_values,cue_e_false_cor_zvalues,cue_e_false_scr_values,cue_e_false_scr_zvalues,OfflineRating_z,cue_i_off_zyg_values,cue_i_off_zyg_zvalues,cue_i_off_cor_values,cue_i_off_cor_zvalues,cue_i_off_scr_values,cue_i_off_scr_zvalues,DemandRating_z
0,240619_143534,PRACTICE,0.0,1,3.0,303.0,,,,,,,,,,28.0,1.0,1.0,cue2.png,Hard,A,,,,,,,,,,,,,,,,,,,,,,,,,,,19,29,Female,0.14285714285714285,0.25,0.0,0.0,1.7777777777777777,3.375,2.2222222222222223,3.111111111111111,2.75,2.888888888888889,2.25,1.75,2.5,1.75,,,,,,,,,,,,,,,,,,,,,,,,,,,,,,,,,,,,,,
0,240619_143848,LEARNING,1.0,1,1.0,303.0,,,,,,,,,,1.0,1.0,1.0,cue1.png,Easy,A,,,,,,,,,,,,,,,,,,,,,,,,,,,19,29,Female,0.14285714285714285,0.25,0.0,0.0,1.7777777777777777,3.375,2.2222222222222223,3.111111111111111,2.75,2.888888888888889,2.25,1.75,2.5,1.75,1.0,1.0,0.3973747157969659,-0.5941546139650746,-0.9228755749525184,-0.5832824570669534,6.363536358008296e-05,0.31828249743411474,-6.38346882918541e-05,-0.8971705033862983,,,,,1.5350000000000001,0.2327007720756747,,,,,,,,,,,,,,,,,,,,,,
1,240619_143921,LEARNING,1.0,2,3.0,303.0,,,,,,,,,,2.0,2.0,2.0,cue2.png,Hard,A,,,,,,,,,,,,,,,,,,,,,,,,,,,19,29,Female,0.14285714285714285,0.25,0.0,0.0,1.7777777777777777,3.375,2.2222222222222223,3.111111111111111,2.75,2.888888888888889,2.25,1.75,2.5,1.75,0.5857142857142856,0.6992481203007519,0.5891990937379887,1.9508617856947543,-0.5289911325177423,1.8753999680653628,0.000103098201536477,0.5702136720591672,-0.00010249865401408586,-1.2711459678159167,-0.00038281671325137226,-0.7581074700840172,0.0002893260361577399,0.6688776706608522,1.4469999999999998,0.03361233374426411,1.4619999999999997,0.1603597921856701,,,,,,,,,,,,,,,,,,,,
2,240619_143948,LEARNING,1.0,3,1.0,303.0,,,,,,,,,,3.0,3.0,3.0,cue1.png,Easy,A,,,,,,,,,,,,,,,,,,,,,,,,,,,19,29,Female,0.14285714285714285,0.25,0.0,0.0,1.7777777777777777,3.375,2.2222222222222223,3.111111111111111,2.75,2.888888888888889,2.25,1.75,2.5,1.75,1.0,1.0,0.3935470473584964,-0.6449379349012716,-0.9325546570047308,-0.6437006568467761,8.687378423289944e-05,0.4666368205054627,-3.663835373369324e-05,-0.6341151841197779,-0.00024779436107275586,-0.4749152030273531,-0.00018364879237569524,-0.3518811125569755,1.459,0.06076075715309326,1.085,-0.6824945274518158,,,,,,,,,,,,,,,,,,,,
3,240619_144020,LEARNING,1.0,4,3.0,303.0,,,,,,,,,,4.0,4.0,4.0,cue2.png,Hard,A,,,,,,,,,,,,,,,,,,,,,,,,,,,19,29,Female,0.14285714285714285,0.25,0.0,0.0,1.7777777777777777,3.375,2.2222222222222223,3.111111111111111,2.75,2.888888888888889,2.25,1.75,2.5,1.75,0.5256410256410255,0.534412955465587,0.5768436937651131,1.786937388322316,-0.5501839438604768,1.7431114408378516,,,,,5.9546074812530034e-05,0.16969240002639877,0.00025181253382956445,0.5879172586459439,1.1289999999999998,-0.6858208865896945,1.601,0.47112040340479694,,,,,,,,,,,,,,,,,,,,
4,240619_144053,LEARNING,1.0,5,3.0,303.0,,,,,,,,,,5.0,5.0,5.0,cue2.png,Hard,A,,,,,,,,,,,,,,,,,,,,,,,,,,,19,29,Female,0.14285714285714285,0.25,0.0,0.0,1.7777777777777777,3.375,2.2222222222222223,3.111111111111111,2.75,2.888888888888889,2.25,1.75,2.5,1.75,0.725,0.6466165413533835,0.6437675599940121,2.6748450615251187,-0.44041754971561836,2.4282888052593976,-0.00012084528828165512,-0.8594439339613905,3.703371166397396e-05,0.07847454530727033,0.00023076897664102338,0.5288107308690377,0.00012295390949027245,0.30981879620651925,1.5730000000000002,0.31867077953696543,1.5930000000000002,0.4532349006008189,,,,,,,,,,,,,,,,,,,,
5,240619_144121,LEARNING,1.0,6,1.0,303.0,,,,,,,,,,6.0,6.0,6.0,cue1.png,Easy,A,,,,,,,,,,,,,,,,,,,,,,,,,,,19,29,Female,0.14285714285714285,0.25,0.0,0.0,1.7777777777777777,3.375,2.2222222222222223,3.111111111111111,2.75,2.888888888888889,2.25,1.75,2.5,1.75,1.0,1.0,0.380289910526603,-0.8208260624263165,-0.966821394700665,-0.8575984823582865,0.00016870989386922816,0.9890794094091416,6.962264204765124e-05,0.3936895044518369,-0.0003116051267783261,-0.6087501948728288,-0.0002152716473301855,-0.42012852235108356,1.5919999999999999,0.36165578326761,1.557,0.3727501379829151,,,,,,,,,,,,,,,,,,,,
6,240619_144154,LEARNING,1.0,7,3.0,303.0,,,,,,,,,,7.0,7.0,7.0,cue2.png,Hard,A,,,,,,,,,,,,,,,,,,,,,,,,,,,19,29,Female,0.14285714285714285,0.25,0.0,0.0,1.7777777777777777,3.375,2.2222222222222223,3.111111111111111,2.75,2.888888888888889,2.25,1.75,2.5,1.75,0.6794871794871794,0.6356275303643725,0.6617042266763746,2.9128185211647457,-0.4129366103823256,2.5998287171869494,-0.00017744342620756035,-1.2207670447072492,-2.328675244197588e-06,-0.3022563665396088,0.0003747879383925734,0.8308722460144361,-0.00016292988984546817,-0.3071662557390332,,,,,,,,,,,,,,,,,,,,,,,,
7,240619_144227,LEARNING,1.0,8,3.0,303.0,,,,,,,,,,8.0,8.0,8.0,cue2.png,Hard,A,,,,,,,,,,,,,,,,,,,,,,,,,,,19,29,Female,0.14285714285714285,0.25,0.0,0.0,1.7777777777777777,3.375,2.2222222222222223,3.111111111111111,2.75,2.888888888888889,2.25,1.75,2.5,1.75,0.5857142857142856,0.4887218045112783,0.5322635250049643,1.1954731447679103,-0.6306165645309996,1.241039641232068,8.365511225561211e-06,-0.03456082418441554,1.3963116446935944e-05,-0.14467474628230192,-0.0001122139307878911,-0.19055243788979276,-0.0002828534105558389,-0.5659812701851191,,,,,,,,,,,,,,,,,,,,,,,,
8,240619_144254,LEARNING,1.0,9,1.0,303.0,,,,,,,,,,9.0,9.0,9.0,cue1.png,Easy,A,,,,,,,,,,,,,,,,,,,,,,,,,,,19,29,Female,0.14285714285714285,0.25,0.0,0.0,1.7777777777777777,3.375,2.2222222222222223,3.111111111111111,2.75,2.888888888888889,2.25,1.75,2.5,1.75,1.0,1.0,0.4052147894828139,-0.49013698951507223,-0.9033380080564779,-0.46132619989618145,,,,,0.00026419618292181264,0.5989200585120994,-0.00021720399770020025,-0.4242988576278315,,,,,,,,,,,,,,,,,,,,,,,,
9,240619_144323,LEARNING,1.0,10,1.0,303.0,,,,,,,,,,10.0,10.0,10.0,cue1.png,Easy,A,,,,,,,,,,,,,,,,,,,,,,,,,,,19,29,Female,0.14285714285714285,0.25,0.0,0.0,1.7777777777777777,3.375,2.2222222222222223,3.111111111111111,2.75,2.888888888888889,2.25,1.75,2.5,1.75,1.0,1.0,0.4204579262969721,-0.287899747352773,-0.8664108609437818,-0.2308217223518677,-6.669828245778765e-05,-0.5137688764627387,2.649643543793309e-05,-0.023446783683328244,0.00017694070468730807,0.41591275419810947,0.00014766692033607066,0.36315360676890146,1.4199999999999997,-0.027471618925600596,1.21,-0.40303354613965187,,,,,,,,,,,,,,,,,,,,
10,240619_144353,LEARNING,1.0,11,3.0,303.0,,,,,,,,,,11.0,11.0,11.0,cue2.png,Hard,A,,,,,,,,,,,,,,,,,,,,,,,,,,,19,29,Female,0.14285714285714285,0.25,0.0,0.0,1.7777777777777777,3.375,2.2222222222222223,3.111111111111111,2.75,2.888888888888889,2.25,1.75,2.5,1.75,0.725,0.7518796992481204,0.4711709882488803,0.38493222390091747,-0.7525342184704861,0.48001239374433213,3.0139811384521844e-05,0.10444653817880244,,,0.00010485676064303853,0.2647258195691086,0.0006034217550863839,1.3467487634242312,2.0780000000000003,1.4611669313251703,,,,,,,,,,,,,,,,,,,,,,
11,240619_144420,LEARNING,1.0,12,1.0,303.0,,,,,,,,,,12.0,12.0,12.0,cue1.png,Easy,A,,,,,,,,,,,,,,,,,,,,,,,,,,,19,29,Female,0.14285714285714285,0.25,0.0,0.0,1.7777777777777777,3.375,2.2222222222222223,3.111111111111111,2.75,2.888888888888889,2.25,1.75,2.5,1.75,1.0,1.0,0.3765142736956477,-0.8709190576810447,-0.9767993209185881,-0.9198821097075363,-1.2794641594114642e-05,-0.16964746344226964,7.894748563985927e-05,0.48388363348098545,-0.0005195253034189383,-1.0448364075599317,0.0006516086595643143,1.4507441623642594,1.4429999999999996,0.02456285927465406,,,,,,,,,,,,,,,,,,,,,,
12,240619_144447,LEARNING,1.0,13,1.0,303.0,,,,,,,,,,13.0,13.0,13.0,cue1.png,Easy,A,,,,,,,,,,,,,,,,,,,,,,,,,,,19,29,Female,0.14285714285714285,0.25,0.0,0.0,1.7777777777777777,3.375,2.2222222222222223,3.111111111111111,2.75,2.888888888888889,2.25,1.75,2.5,1.75,1.0,1.0,0.393466442118791,-0.6460073592317483,-0.9327594952726003,-0.6449792862998511,5.148389444212817e-05,0.24070739001969713,0.0004265660762023289,3.846208770636238,-0.0007443903525941068,-1.516462342305048,-0.000880468046593157,-1.8557336035304757,,,,,,,,,,,,,,,,,,,,,,,,
13,240619_144515,LEARNING,1.0,14,1.0,303.0,,,,,,,,,,14.0,14.0,14.0,cue1.png,Easy,A,,,,,,,,,,,,,,,,,,,,,,,,,,,19,29,Female,0.14285714285714285,0.25,0.0,0.0,1.7777777777777777,3.375,2.2222222222222223,3.111111111111111,2.75,2.888888888888889,2.25,1.75,2.5,1.75,0.9178571428571428,0.9285714285714286,0.3949929105215951,-0.6257550474015319,-0.928887462288678,-0.6208095085136195,4.299525013934293e-05,0.18651579506806132,-2.9467577440472643e-05,-0.5647561738763952,0.00011803518187862832,0.29236588749650916,-0.00032592304357635573,-0.658932741475844,1.288,-0.3261042764227147,,,,,,,,,,,,,,,,,,,,,,
14,240619_144545,LEARNING,1.0,15,3.0,303.0,,,,,,,,,,15.0,15.0,15.0,cue2.png,Hard,A,,,,,,,,,,,,,,,,,,,,,,,,,,,19,29,Female,0.14285714285714285,0.25,0.0,0.0,1.7777777777777777,3.375,2.2222222222222223,3.111111111111111,2.75,2.888888888888889,2.25,1.75,2.5,1.75,0.8071428571428572,0.8571428571428572,0.4855571894747156,0.5758001336084834,-0.7224582031834806,0.667751136983515,6.633998823085858e-05,0.3355488497918111,0.00010801362584981784,0.7650245635730426,-0.0005658465823137875,-1.1419894179433032,9.342922231304548e-05,0.2460995833863327,,,,,,,,,,,,,,,,,,,,,,,,
15,240619_144612,LEARNING,1.0,16,1.0,303.0,,,,,,,,,,16.0,16.0,16.0,cue1.png,Easy,A,,,,,,,,,,,,,,,,,,,,,,,,,,,19,29,Female,0.14285714285714285,0.25,0.0,0.0,1.7777777777777777,3.375,2.2222222222222223,3.111111111111111,2.75,2.888888888888889,2.25,1.75,2.5,1.75,1.0,1.0,0.3783793473910344,-0.8461743240226739,-0.9718580220702255,-0.8890378230921607,-4.313993614810368e-06,-0.11550691710425527,6.942886805272417e-05,0.3918152342264843,0.0005187670283239246,1.1328501350714753,7.724874941916499e-05,0.21117941675873605,,,,,,,,,,,,,,,,,,,,,,,,
16,240619_144639,LEARNING,1.0,17,1.0,303.0,,,,,,,,,,17.0,17.0,17.0,cue1.png,Easy,A,,,,,,,,,,,,,,,,,,,,,,,,,,,19,29,Female,0.14285714285714285,0.25,0.0,0.0,1.7777777777777777,3.375,2.2222222222222223,3.111111111111111,2.75,2.888888888888889,2.25,1.75,2.5,1.75,1.0,1.0,0.3822211631524719,-0.795203304477201,-0.9617558767767723,-0.8259788026961989,,,0.00010365118945951726,0.7228290943646358,0.0015511323012237562,3.298105423146482,-0.0003039471385868535,-0.6115050631219016,,,,,,,,,,,,,,,,,,,,,,,,
17,240619_144708,LEARNING,1.0,18,3.0,303.0,,,,,,,,,,18.0,18.0,18.0,cue2.png,Hard,A,,,,,,,,,,,,,,,,,,,,,,,,,,,19,29,Female,0.14285714285714285,0.25,0.0,0.0,1.7777777777777777,3.375,2.2222222222222223,3.111111111111111,2.75,2.888888888888889,2.25,1.75,2.5,1.75,0.5256410256410255,0.6923076923076923,0.4533021578834833,0.14785877781026052,-0.79119636065954,0.23867783142803958,-2.0716658380567562e-05,-0.22022170234054161,4.5248176111610874e-05,0.15792858214651773,0.00036616824621513253,0.8127935343813362,-0.0003503478585580814,-0.7116455771638946,,,,,,,,,,,,,,,,,,,,,,,,
18,240619_144737,LEARNING,1.0,19,3.0,303.0,,,,,,,,,,19.0,19.0,19.0,cue2.png,Hard,A,,,,,,,,,,,,,,,,,,,,,,,,,,,19,29,Female,0.14285714285714285,0.25,0.0,0.0,1.7777777777777777,3.375,2.2222222222222223,3.111111111111111,2.75,2.888888888888889,2.25,1.75,2.5,1.75,0.8071428571428572,0.8571428571428572,0.4642378841955705,0.2929477550569913,-0.7673581766761477,0.3874791490041781,-1.1719081241721562e-05,-0.16278107478421266,-2.7838497241544028e-05,-0.5489989691353121,0.00018753598212054717,0.4381350054624338,0.0002564492942902065,0.597924163200576,1.764,0.7507831854608207,,,,,,,,,,,,,,,,,,,,,,
19,240619_144807,LEARNING,1.0,20,3.0,303.0,,,,,,,,,,20.0,20.0,20.0,cue2.png,Hard,A,,,,,,,,,,,,,,,,,,,,,,,,,,,19,29,Female,0.14285714285714285,0.25,0.0,0.0,1.7777777777777777,3.375,2.2222222222222223,3.111111111111111,2.75,2.888888888888889,2.25,1.75,2.5,1.75,0.9178571428571428,0.9285714285714286,0.5127288052616151,0.936297628896472,-0.6680082183074505,1.0076356473639532,0.00014510845369454474,0.8384075658731778,-6.146725728284255e-05,-0.8742716337395385,0.00014006182970435245,0.3385639890165732,-0.0007672006044722015,-1.6112835198841975,1.3890000000000002,-0.09760504606507335,2.1759999999999997,1.7566409174407505,,,,,,,,,,,,,,,,,,,,
20,240619_144834,LEARNING,1.0,21,1.0,303.0,,,,,,,,,,21.0,21.0,21.0,cue1.png,Easy,A,,,,,,,,,,,,,,,,,,,,,,,,,,,19,29,Female,0.14285714285714285,0.25,0.0,0.0,1.7777777777777777,3.375,2.2222222222222223,3.111111111111111,2.75,2.888888888888889,2.25,1.75,2.5,1.75,1.0,1.0,0.380467878948701,-0.8184648789431607,-0.966353523249839,-0.8546779625574635,2.6955056539382932e-05,0.08411502958544562,-0.00011737094066488268,-1.414997489600297,-0.00031449436436435836,-0.6148100044439984,-0.00010792209576636867,-0.18845023627181723,1.309,-0.2785945354572648,0.816,-1.2838945592355926,,,,,,,,,,,,,,,,,,,,
21,240619_144905,LEARNING,1.0,22,3.0,303.0,,,,,,,,,,22.0,22.0,22.0,cue2.png,Hard,A,,,,,,,,,,,,,,,,,,,,,,,,,,,19,29,Female,0.14285714285714285,0.25,0.0,0.0,1.7777777777777777,3.375,2.2222222222222223,3.111111111111111,2.75,2.888888888888889,2.25,1.75,2.5,1.75,0.6625000000000001,0.7330827067669172,0.5467449444372,1.3876043553105228,-0.603772866039203,1.4086018056561176,7.438020783956433e-05,0.38687769675671674,0.0002117383139711702,1.7682969307088208,4.652529690981136e-05,0.14238296900542005,4.220964697747992e-05,0.1355591735328518,0.7070000000000001,-1.6405404431335004,1.618,0.5091270968632515,,,,,,,,,,,,,,,,,,,,
22,240619_144935,LEARNING,1.0,23,3.0,303.0,,,,,,,,,,23.0,23.0,23.0,cue2.png,Hard,A,,,,,,,,,,,,,,,,,,,,,,,,,,,19,29,Female,0.14285714285714285,0.25,0.0,0.0,1.7777777777777777,3.375,2.2222222222222223,3.111111111111111,2.75,2.888888888888889,2.25,1.75,2.5,1.75,0.9178571428571428,0.9285714285714286,0.4811091736804596,0.5167863978996259,-0.7316610623220456,0.6103055880171963,-0.00015444282596293766,-1.073930969635507,9.068674309920411e-05,0.5974310717328507,,,0.0009009095963286263,1.988777278535926,1.867,0.9838071530532663,2.371,2.192600048287727,,,,,,,,,,,,,,,,,,,,
23,240619_145004,LEARNING,1.0,24,3.0,303.0,,,,,,,,,,24.0,24.0,24.0,cue2.png,Hard,A,,,,,,,,,,,,,,,,,,,,,,,,,,,19,29,Female,0.14285714285714285,0.25,0.0,0.0,1.7777777777777777,3.375,2.2222222222222223,3.111111111111111,2.75,2.888888888888889,2.25,1.75,2.5,1.75,0.9178571428571428,0.9285714285714286,0.4652835210527931,0.3068206682825378,-0.7651083365059613,0.40152296970346846,-0.0001056617702010136,-0.7625121940489306,-4.8841943776334416e-05,-0.752153858338889,9.172266049291798e-05,0.23717870949994355,,,1.706,0.6195658056514822,1.674,0.6343256164911005,,,,,,,,,,,,,,,,,,,,
24,240619_145031,LEARNING,1.0,25,1.0,303.0,,,,,,,,,,25.0,25.0,25.0,cue1.png,Easy,A,,,,,,,,,,,,,,,,,,,,,,,,,,,19,29,Female,0.14285714285714285,0.25,0.0,0.0,1.7777777777777777,3.375,2.2222222222222223,3.111111111111111,2.75,2.888888888888889,2.25,1.75,2.5,1.75,1.0,1.0,0.3900859842174931,-0.6908573459201348,-0.9413880918063561,-0.6988402068276174,0.0004612440217258368,2.856620373651668,-8.359202818011098e-05,-1.0882724822595145,,,0.00036761885102524604,0.837846659320689,1.2160000000000002,-0.4889948168756861,0.5429999999999999,-1.8942373424213588,,,,,,,,,,,,,,,,,,,,
25,240619_145059,LEARNING,1.0,26,1.0,303.0,,,,,,,,,,26.0,26.0,26.0,cue1.png,Easy,A,,,,,,,,,,,,,,,,,,,,,,,,,,,19,29,Female,0.14285714285714285,0.25,0.0,0.0,1.7777777777777777,3.375,2.2222222222222223,3.111111111111111,2.75,2.888888888888889,2.25,1.75,2.5,1.75,1.0,1.0,0.3822641473655638,-0.7946330144628683,-0.9616434240911659,-0.8252768571203585,2.340033137048208e-05,0.061421626534707154,4.12926618054317e-06,-0.23979221940769663,-9.664000606788084e-05,-0.15788810507921378,,,1.122,-0.7016574669115105,1.093,-0.6646090246478373,,,,,,,,,,,,,,,,,,,,
26,240619_145127,LEARNING,1.0,27,3.0,303.0,,,,,,,,,,27.0,27.0,27.0,cue2.png,Hard,A,,,,,,,,,,,,,,,,,,,,,,,,,,,19,29,Female,0.14285714285714285,0.25,0.0,0.0,1.7777777777777777,3.375,2.2222222222222223,3.111111111111111,2.75,2.888888888888889,2.25,1.75,2.5,1.75,0.8071428571428572,0.8571428571428572,0.4543181263204467,0.1613380673633514,-0.7889576075620552,0.25265244505068307,-1.1865307785976619e-05,-0.16371458658831164,-5.0452151102437295e-05,-0.7677285160688654,0.0003217543801872858,0.7196410806858301,,,1.509,0.17387918802321212,2.182,1.7700550445437349,,,,,,,,,,,,,,,,,,,,
27,240619_145155,LEARNING,1.0,28,1.0,303.0,,,,,,,,,,28.0,28.0,28.0,cue1.png,Easy,A,,,,,,,,,,,,,,,,,,,,,,,,,,,19,29,Female,0.14285714285714285,0.25,0.0,0.0,1.7777777777777777,3.375,2.2222222222222223,3.111111111111111,2.75,2.888888888888889,2.25,1.75,2.5,1.75,1.0,1.0,0.399844631589459,-0.5613851804595673,-0.916679228355494,-0.5446039848126066,2.4451570208090367e-05,0.06813274638530623,0.00015326165454201826,1.202684080091815,-0.00040809223927106876,-0.8111196817591532,,,1.553,0.27342340718891717,,,,,,,,,,,,,,,,,,,,,,
28,240619_145223,LEARNING,1.0,29,1.0,303.0,,,,,,,,,,29.0,29.0,29.0,cue1.png,Easy,A,,,,,,,,,,,,,,,,,,,,,,,,,,,19,29,Female,0.14285714285714285,0.25,0.0,0.0,1.7777777777777777,3.375,2.2222222222222223,3.111111111111111,2.75,2.888888888888889,2.25,1.75,2.5,1.75,1.0,0.9473684210526316,0.3729896777982099,-0.9176813850631822,-0.9862045331844831,-0.9785907755280302,-2.3556460548761118e-05,-0.23835102939822359,,,-0.00012226138515797694,-0.21162569972609202,,,,,1.162,-0.510346562963523,,,,,,,,,,,,,,,,,,,,
29,240619_145251,LEARNING,1.0,30,3.0,303.0,,,,,,,,,,30.0,30.0,30.0,cue2.png,Hard,A,,,,,,,,,,,,,,,,,,,,,,,,,,,19,29,Female,0.14285714285714285,0.25,0.0,0.0,1.7777777777777777,3.375,2.2222222222222223,3.111111111111111,2.75,2.888888888888889,2.25,1.75,2.5,1.75,0.8269230769230769,0.8461538461538461,0.4258724263084954,-0.21606325048415337,-0.8536154463218902,-0.1509509337046735,-0.00017882706375914456,-1.2296002014612342,3.267634636457345e-05,0.03632812599685234,-0.00040060541687392346,-0.7954170208775427,0.0007826493014332471,1.7335517835667886,1.07,-0.8193006350164347,1.2750000000000001,-0.25771383585732627,,,,,,,,,,,,,,,,,,,,
30,240619_145320,LEARNING,1.0,31,3.0,303.0,,,,,,,,,,31.0,31.0,31.0,cue2.png,Hard,A,,,,,,,,,,,,,,,,,,,,,,,,,,,19,29,Female,0.14285714285714285,0.25,0.0,0.0,1.7777777777777777,3.375,2.2222222222222223,3.111111111111111,2.75,2.888888888888889,2.25,1.75,2.5,1.75,0.8071428571428572,0.8571428571428572,0.4580063473457764,0.21027127958479364,-0.7808722361304119,0.30312247762360006,,,,,,,-0.0007898025788536031,-1.6600623606935856,,,,,,,,,,,,,,,,,,,,,,,,
31,240619_145347,LEARNING,1.0,32,1.0,303.0,,,,,,,,,,32.0,32.0,32.0,cue1.png,Easy,A,,,,,,,,,,,,,,,,,,,,,,,,,,,19,29,Female,0.14285714285714285,0.25,0.0,0.0,1.7777777777777777,3.375,2.2222222222222223,3.111111111111111,2.75,2.888888888888889,2.25,1.75,2.5,1.75,1.0,1.0,0.3629309473571515,-1.0511348814697856,-1.013542690479113,-1.1492394217662976,,,,,0.0007162082972516637,1.5469581672306576,-0.00022131826291918195,-0.43317813006561684,1.69,0.5833679077730439,1.5800000000000003,0.4241709585443541,,,,,,,,,,,,,,,,,,,,
32,240619_145414,LEARNING,1.0,33,1.0,303.0,,,,,,,,,,33.0,33.0,33.0,cue1.png,Easy,A,,,,,,,,,,,,,,,,,,,,,,,,,,,19,29,Female,0.14285714285714285,0.25,0.0,0.0,1.7777777777777777,3.375,2.2222222222222223,3.111111111111111,2.75,2.888888888888889,2.25,1.75,2.5,1.75,1.0,1.0,0.3774385894648731,-0.8586557634303735,-0.9743474004406256,-0.9045768751323304,,,,,,,0.00025703969711794034,0.5991983512454548,1.9869999999999999,1.2552913871415523,0.40400000000000014,-2.2049979536404845,,,,,,,,,,,,,,,,,,,,
33,240619_145441,LEARNING,1.0,34,1.0,303.0,,,,,,,,,,34.0,34.0,34.0,cue1.png,Easy,A,,,,,,,,,,,,,,,,,,,,,,,,,,,19,29,Female,0.14285714285714285,0.25,0.0,0.0,1.7777777777777777,3.375,2.2222222222222223,3.111111111111111,2.75,2.888888888888889,2.25,1.75,2.5,1.75,1.0,1.0,0.3578011000124541,-1.1191947691657087,-1.0277780335342284,-1.238098447446494,,,,,-0.00017203836797114857,-0.3160266110022855,,,1.123,-0.6993950982941084,2.066,1.5107152538860464,,,,,,,,,,,,,,,,,,,,
34,240619_145509,LEARNING,1.0,35,3.0,303.0,,,,,,,,,,35.0,35.0,35.0,cue2.png,Hard,A,,,,,,,,,,,,,,,,,,,,,,,,,,,19,29,Female,0.14285714285714285,0.25,0.0,0.0,1.7777777777777777,3.375,2.2222222222222223,3.111111111111111,2.75,2.888888888888889,2.25,1.75,2.5,1.75,0.7019230769230769,0.7692307692307692,0.4296428684243246,-0.1660391757458341,-0.8448009539308372,-0.09592962493101377,,,-6.780887169290832e-05,-0.9356106130691793,-0.0002418867255790172,-0.4625246864838173,0.00020648278492999342,0.49008807929242826,,,1.601,0.47112040340479694,,,,,,,,,,,,,,,,,,,,
35,240619_145539,LEARNING,1.0,36,3.0,303.0,,,,,,,,,,36.0,36.0,36.0,cue2.png,Hard,A,,,,,,,,,,,,,,,,,,,,,,,,,,,19,29,Female,0.14285714285714285,0.25,0.0,0.0,1.7777777777777777,3.375,2.2222222222222223,3.111111111111111,2.75,2.888888888888889,2.25,1.75,2.5,1.75,0.8071428571428572,0.8045112781954888,0.4836603555530827,0.5506340233893167,-0.7263723633286218,0.6433183954958757,-3.908933628931927e-05,-0.3375130723042065,0.00012165828213800281,0.8970018860498831,0.00012905473834923416,0.3154780102563141,4.952424484655667e-06,0.0551518562644599,,,0.7439999999999998,-1.4448640844713994,,,,,,,,,,,,,,,,,,,,
36,240619_145607,LEARNING,1.0,37,1.0,303.0,,,,,,,,,,37.0,37.0,37.0,cue1.png,Easy,A,,,,,,,,,,,,,,,,,,,,,,,,,,,19,29,Female,0.14285714285714285,0.25,0.0,0.0,1.7777777777777777,3.375,2.2222222222222223,3.111111111111111,2.75,2.888888888888889,2.25,1.75,2.5,1.75,1.0,1.0,0.4080122263158524,-0.45302219371323593,-0.8964581385665382,-0.41838108102436977,,,,,-0.0009158560691434284,-1.876089946243264,-0.00021038932131456876,-0.4095916462589103,1.034,-0.9007459052429206,1.851,1.0300423660291247,,,,,,,,,,,,,,,,,,,,
37,240619_145637,LEARNING,1.0,38,3.0,303.0,,,,,,,,,,38.0,38.0,38.0,cue2.png,Hard,A,,,,,,,,,,,,,,,,,,,,,,,,,,,19,29,Female,0.14285714285714285,0.25,0.0,0.0,1.7777777777777777,3.375,2.2222222222222223,3.111111111111111,2.75,2.888888888888889,2.25,1.75,2.5,1.75,0.8071428571428572,0.8571428571428572,0.4744895947484397,0.42896160148082596,-0.7455155900483814,0.5238236655053904,,,6.376083169041136e-05,0.3369914081805941,0.0001849263525807339,0.4326616383225981,-0.00021677052618751004,-0.4233633536069828,1.5949999999999998,0.36844288911981693,1.6439999999999997,0.5672549809761807,,,,,,,,,,,,,,,,,,,,
38,240619_145706,LEARNING,1.0,39,3.0,303.0,,,,,,,,,,39.0,39.0,39.0,cue2.png,Hard,A,,,,,,,,,,,,,,,,,,,,,,,,,,,19,29,Female,0.14285714285714285,0.25,0.0,0.0,1.7777777777777777,3.375,2.2222222222222223,3.111111111111111,2.75,2.888888888888889,2.25,1.75,2.5,1.75,0.8071428571428572,0.8571428571428572,0.4669592579103712,0.329053388804441,-0.7615132672810045,0.4239639005152991,,,0.00010211487938124571,0.7079692044310189,0.00020279616617180623,0.4701413069928733,-0.00041323028020607677,-0.8473563599263237,0.524,-2.054553900118137,1.3079999999999998,-0.18393613679091567,,,,,,,,,,,,,,,,,,,,
39,240619_145734,LEARNING,1.0,40,3.0,303.0,,,,,,,,,,40.0,40.0,40.0,cue2.png,Hard,A,,,,,,,,,,,,,,,,,,,,,,,,,,,19,29,Female,0.14285714285714285,0.25,0.0,0.0,1.7777777777777777,3.375,2.2222222222222223,3.111111111111111,2.75,2.888888888888889,2.25,1.75,2.5,1.75,1.0,1.0,0.4472651579110932,0.06776330663296028,-0.8046036658068626,0.154987535537344,0.0002639992947125582,1.5974079515759352,-5.395838318977657e-05,-0.8016423877777566,,,,,2.14,1.6014337856041179,1.524,0.29897243891650405,,,,,,,,,,,,,,,,,,,,
40,240619_145802,LEARNING,1.0,41,1.0,303.0,,,,,,,,,,41.0,41.0,41.0,cue1.png,Easy,A,,,,,,,,,,,,,,,,,,,,,,,,,,,19,29,Female,0.14285714285714285,0.25,0.0,0.0,1.7777777777777777,3.375,2.2222222222222223,3.111111111111111,2.75,2.888888888888889,2.25,1.75,2.5,1.75,1.0,1.0,0.3750903842186457,-0.8898104108509078,-0.9805882574704294,-0.9435331878064036,0.0003775931041158985,2.32259203146244,-2.640456753169552e-05,-0.5351293486971873,,,-0.0008882504203154909,-1.8725292675957028,0.532,-2.036454951178918,1.5029999999999997,0.2520229940560597,,,,,,,,,,,,,,,,,,,,
41,240619_145833,LEARNING,1.0,42,3.0,303.0,,,,,,,,,,42.0,42.0,42.0,cue2.png,Hard,A,,,,,,,,,,,,,,,,,,,,,,,,,,,19,29,Female,0.14285714285714285,0.25,0.0,0.0,1.7777777777777777,3.375,2.2222222222222223,3.111111111111111,2.75,2.888888888888889,2.25,1.75,2.5,1.75,0.7596153846153846,0.7408906882591093,0.5824421529507484,1.8612145505537436,-0.5405254067127296,1.8034013964168556,-0.00016411797589642148,-1.1356972290745635,,,-0.0013629109118598213,-2.8137308061805704,,,,,,,,,,,,,,,,,,,,,,,,,,
42,240619_145903,LEARNING,1.0,43,3.0,303.0,,,,,,,,,,43.0,43.0,43.0,cue2.png,Hard,A,,,,,,,,,,,,,,,,,,,,,,,,,,,19,29,Female,0.14285714285714285,0.25,0.0,0.0,1.7777777777777777,3.375,2.2222222222222223,3.111111111111111,2.75,2.888888888888889,2.25,1.75,2.5,1.75,0.8269230769230769,0.8461538461538461,0.4968118105377805,0.7251200244633548,-0.6995439754212508,0.8107849890854617,-4.034903288921985e-05,-0.34555498871262125,0.00012831925653612785,0.9614298604586298,,,,,1.5130000000000001,0.18292866249282216,1.5210000000000001,0.29226537536501235,,,,,,,,,,,,,,,,,,,,
43,240619_145930,LEARNING,1.0,44,1.0,303.0,,,,,,,,,,44.0,44.0,44.0,cue1.png,Easy,A,,,,,,,,,,,,,,,,,,,,,,,,,,,19,29,Female,0.14285714285714285,0.25,0.0,0.0,1.7777777777777777,3.375,2.2222222222222223,3.111111111111111,2.75,2.888888888888889,2.25,1.75,2.5,1.75,1.0,1.0,0.3478110421105827,-1.251737157504019,-1.0560959291168668,-1.414862758713483,0.00013789644684582096,0.79236603792198,-0.00012745925495344845,-1.5125762545020305,,,,,,,0.9050000000000001,-1.0849183405413314,,,,,,,,,,,,,,,,,,,,
44,240619_145957,LEARNING,1.0,45,1.0,303.0,,,,,,,,,,45.0,45.0,45.0,cue1.png,Easy,A,,,,,,,,,,,,,,,,,,,,,,,,,,,19,29,Female,0.14285714285714285,0.25,0.0,0.0,1.7777777777777777,3.375,2.2222222222222223,3.111111111111111,2.75,2.888888888888889,2.25,1.75,2.5,1.75,1.0,1.0,0.3864208526455944,-0.7394842204473184,-0.9508282116258063,-0.7577667705368937,3.7897538527390494e-06,-0.06377250761701952,-3.7924352440191125e-05,-0.6465539486007297,2.8198423165041314e-06,0.05071631848930697,0.00015856726207347498,0.3866783672789521,2.1060000000000003,1.5245132526124372,1.2239999999999998,-0.37173391623269,,,,,,,,,,,,,,,,,,,,
45,240619_150024,LEARNING,1.0,46,1.0,303.0,,,,,,,,,,46.0,46.0,46.0,cue1.png,Easy,A,,,,,,,,,,,,,,,,,,,,,,,,,,,19,29,Female,0.14285714285714285,0.25,0.0,0.0,1.7777777777777777,3.375,2.2222222222222223,3.111111111111111,2.75,2.888888888888889,2.25,1.75,2.5,1.75,1.0,1.0,0.3420869526392045,-1.327681110687366,-1.0726903267518917,-1.5184473368925238,-3.473503441887545e-05,-0.3097151631395101,0.00012637058962142135,0.9425814676248092,0.00019184070443070515,0.4471636148029849,-2.2621015924092786e-05,-0.004356239690743129,1.8589999999999998,0.9657082041140467,0.9599999999999997,-0.9619555087639803,,,,,,,,,,,,,,,,,,,,
46,240619_150055,LEARNING,1.0,47,3.0,303.0,,,,,,,,,,47.0,47.0,47.0,cue2.png,Hard,A,,,,,,,,,,,,,,,,,,,,,,,,,,,19,29,Female,0.14285714285714285,0.25,0.0,0.0,1.7777777777777777,3.375,2.2222222222222223,3.111111111111111,2.75,2.888888888888889,2.25,1.75,2.5,1.75,0.6794871794871794,0.688259109311741,0.4855930124904262,0.5762754129418367,-0.7223844287752494,0.6682116472789238,5.397892096067414e-05,0.25663566568584434,,,,,-0.0004906262826225483,-1.0143898773283533,1.724,0.6602884407647251,1.265,-0.2800707143622999,,,,,,,,,,,,,,,,,,,,
47,240619_150124,LEARNING,1.0,48,3.0,303.0,,,,,,,,,,48.0,48.0,48.0,cue2.png,Hard,A,,,,,,,,,,,,,,,,,,,,,,,,,,,19,29,Female,0.14285714285714285,0.25,0.0,0.0,1.7777777777777777,3.375,2.2222222222222223,3.111111111111111,2.75,2.888888888888889,2.25,1.75,2.5,1.75,0.7019230769230769,0.7165991902834008,0.4583575611145029,0.2149309834805626,-0.7801056983331872,0.30790731502054314,,,-8.47944121206562e-06,-0.3617493729207081,,,-0.00017181633305799133,-0.32634468641551523,0.2719999999999998,-2.624670791703539,1.1179999999999999,-0.6087168283854048,,,,,,,,,,,,,,,,,,,,
48,240619_150151,LEARNING,1.0,49,1.0,303.0,,,,,,,,,,49.0,49.0,49.0,cue1.png,Easy,A,,,,,,,,,,,,,,,,,,,,,,,,,,,19,29,Female,0.14285714285714285,0.25,0.0,0.0,1.7777777777777777,3.375,2.2222222222222223,3.111111111111111,2.75,2.888888888888889,2.25,1.75,2.5,1.75,1.0,1.0,0.3726155947232129,-0.9226445058662917,-0.9872079678976526,-0.9848543569956993,-0.0005028967198441019,-3.2984643112354703,3.165765258446394e-05,0.026474856359046815,0.000126812994362823,0.31077623642828445,,,,,,,,,,,,,,,,,,,,,,,,,,
49,240619_150219,LEARNING,1.0,50,1.0,303.0,,,,,,,,,,50.0,50.0,50.0,cue1.png,Easy,A,,,,,,,,,,,,,,,,,,,,,,,,,,,19,29,Female,0.14285714285714285,0.25,0.0,0.0,1.7777777777777777,3.375,2.2222222222222223,3.111111111111111,2.75,2.888888888888889,2.25,1.75,2.5,1.75,1.0,0.9473684210526316,0.3822332611048801,-0.7950427957472281,-0.9617242255703032,-0.8257812313867084,-2.0757683587748193e-05,-0.220483607696808,,,,,0.001225298928866603,2.6888637110360034,1.85,0.9453468865574259,1.2429999999999999,-0.3292558470732408,,,,,,,,,,,,,,,,,,,,
0,240619_150414,TrueCHOICE,9.0,1,1.0,303.0,,,,,,,,,,,1.0,1.0,,,A,,,,,,True,cue1.png,Easy,cue2.png,Hard,Left,Easy,Easy,0.0158983999863266,,,,,,,,,,,,,19,29,Female,0.14285714285714285,0.25,0.0,0.0,1.7777777777777777,3.375,2.2222222222222223,3.111111111111111,2.75,2.888888888888889,2.25,1.75,2.5,1.75,0.8071428571428572,0.8571428571428572,0.4337174684287196,1.9572293664031144,-0.8353619512744683,1.9117414201997596,,,,,,,,,,,,,0.00047159824038441696,2.27190007865536,,,1.588,0.2963249409533056,,,,,,,,,,,,,,
1,240619_150438,TrueCHOICE,9.0,2,1.0,303.0,,,,,,,,,,,2.0,2.0,,,A,,,,,,True,cue1.png,Easy,cue2.png,Hard,Left,Easy,Easy,0.0166449999669566,,,,,,,,,,,,,19,29,Female,0.14285714285714285,0.25,0.0,0.0,1.7777777777777777,3.375,2.2222222222222223,3.111111111111111,2.75,2.888888888888889,2.25,1.75,2.5,1.75,,,,,,,,,,,,,,,,,,,-3.411194393035215e-05,-0.3369024464676639,0.00012974671121603791,0.7161334444736384,1.59,0.30447533225653994,,,,,,,,,,,,,,
2,240619_150503,TrueCHOICE,9.0,3,1.0,303.0,,,,,,,,,,,3.0,3.0,,,A,,,,,,True,cue2.png,Hard,cue1.png,Easy,Right,Easy,Easy,0.016408999916166,,,,,,,,,,,,,19,29,Female,0.14285714285714285,0.25,0.0,0.0,1.7777777777777777,3.375,2.2222222222222223,3.111111111111111,2.75,2.888888888888889,2.25,1.75,2.5,1.75,1.0,1.0,0.3399655000171869,-0.8969027949033463,-1.0789111370580988,-0.9235696364847978,,,,,,,,,,,,,-8.846725655795333e-05,-0.6173047030069061,1.774436992439503e-05,-0.04197640533222334,,,,,,,,,,,,,,,,
3,240619_150528,TrueCHOICE,9.0,4,1.0,303.0,,,,,,,,,,,4.0,4.0,,,A,,,,,,True,cue1.png,Easy,cue2.png,Hard,Left,Easy,Easy,0.016120700049214,,,,,,,,,,,,,19,29,Female,0.14285714285714285,0.25,0.0,0.0,1.7777777777777777,3.375,2.2222222222222223,3.111111111111111,2.75,2.888888888888889,2.25,1.75,2.5,1.75,1.0,1.0,0.3396446263405347,-0.9066712925228264,-1.079855424637258,-0.9345626891007017,,,,,,,,,,,,,-0.000188573353876083,-1.1337211161301899,8.045096912502386e-05,0.3824655300201781,1.455,-0.24567608071177618,,,,,,,,,,,,,,
4,240619_150552,TrueCHOICE,9.0,5,1.0,303.0,,,,,,,,,,,5.0,5.0,,,A,,,,,,True,cue2.png,Hard,cue1.png,Easy,Right,Easy,Easy,0.0165552000980824,,,,,,,,,,,,,19,29,Female,0.14285714285714285,0.25,0.0,0.0,1.7777777777777777,3.375,2.2222222222222223,3.111111111111111,2.75,2.888888888888889,2.25,1.75,2.5,1.75,0.8269230769230769,0.8461538461538461,0.4097409052713039,1.22730037200818,-0.8922302574036647,1.249701279830422,,,,,,,,,,,,,,,0.000299986608060571,1.8684356297620122,1.4560000000000002,-0.24160088506015856,,,,,,,,,,,,,,
5,240619_150616,TrueCHOICE,9.0,6,1.0,303.0,,,,,,,,,,,6.0,6.0,,,A,,,,,,True,cue2.png,Hard,cue1.png,Easy,Right,Easy,Easy,0.0165455999085679,,,,,,,,,,,,,19,29,Female,0.14285714285714285,0.25,0.0,0.0,1.7777777777777777,3.375,2.2222222222222223,3.111111111111111,2.75,2.888888888888889,2.25,1.75,2.5,1.75,1.0,1.0,0.3421783526182959,-0.8295359557418245,-1.0724231789689114,-0.8480391876910922,,,,,,,,,,,,,,,-0.00015170750279289375,-1.1889446945086135,,,,,,,,,,,,,,,,
6,240619_150640,TrueCHOICE,9.0,7,1.0,303.0,,,,,,,,,,,7.0,7.0,,,A,,,,,,True,cue1.png,Easy,cue2.png,Hard,Left,Easy,Easy,0.0166203000117093,,,,,,,,,,,,,19,29,Female,0.14285714285714285,0.25,0.0,0.0,1.7777777777777777,3.375,2.2222222222222223,3.111111111111111,2.75,2.888888888888889,2.25,1.75,2.5,1.75,,,,,,,,,,,,,,,,,,,-1.497043265198195e-05,-0.23815730645165598,-0.00020401319969708814,-1.5429860794183814,1.587,0.292249745301688,,,,,,,,,,,,,,
7,240619_150705,TrueCHOICE,9.0,8,1.0,303.0,,,,,,,,,,,8.0,8.0,,,A,,,,,,True,cue2.png,Hard,cue1.png,Easy,Right,Easy,Easy,0.0173900999361649,,,,,,,,,,,,,19,29,Female,0.14285714285714285,0.25,0.0,0.0,1.7777777777777777,3.375,2.2222222222222223,3.111111111111111,2.75,2.888888888888889,2.25,1.75,2.5,1.75,1.0,1.0,0.376683968407298,0.22093359106035468,-0.9763487231741014,0.270424690163864,,,,,,,,,,,,,3.9158661055606597e-05,0.04107795660383973,-9.868416670032795e-06,-0.2288789759071918,1.022,-2.010235797862005,,,,,,,,,,,,,,
8,240619_150729,TrueCHOICE,9.0,9,1.0,303.0,,,,,,,,,,,9.0,9.0,,,A,,,,,,True,cue1.png,Easy,cue2.png,Hard,Left,Easy,Easy,0.0160012000706046,,,,,,,,,,,,,19,29,Female,0.14285714285714285,0.25,0.0,0.0,1.7777777777777777,3.375,2.2222222222222223,3.111111111111111,2.75,2.888888888888889,2.25,1.75,2.5,1.75,0.9262820512820512,0.9230769230769232,0.357576994740061,-0.36074836157359597,-1.0284045701345743,-0.3355905505655029,,,,,,,,,,,,,,,,,,,,,,,,,,,,,,,,
9,240619_150754,TrueCHOICE,9.0,10,1.0,303.0,,,,,,,,,,,10.0,10.0,,,A,,,,,,True,cue2.png,Hard,cue1.png,Easy,Right,Easy,Easy,0.0153069999068975,,,,,,,,,,,,,19,29,Female,0.14285714285714285,0.25,0.0,0.0,1.7777777777777777,3.375,2.2222222222222223,3.111111111111111,2.75,2.888888888888889,2.25,1.75,2.5,1.75,1.0,1.0,0.3559064684178386,-0.41160492473006083,-1.0330873118128343,-0.3901053263519574,,,,,,,,,,,,,3.3736661490843794e-05,0.01310753679721604,2.9227815344920645e-05,0.03575155091058126,1.9089999999999998,1.6044627451224116,,,,,,,,,,,,,,
0,240619_150943,FalseCHOICE,9.0,1,2.0,303.0,,,,,,,,,,,1.0,1.0,,,A,,,,,,False,cue1.png,Easy,cue2.png,Hard,Left,Easy,Mid,0.0141834000824019,,,,,,,,,,,,,19,29,Female,0.14285714285714285,0.25,0.0,0.0,1.7777777777777777,3.375,2.2222222222222223,3.111111111111111,2.75,2.888888888888889,2.25,1.75,2.5,1.75,1.0,1.0,0.3261843157846382,-2.539274427131047,-1.120292671543338,-2.746234205504442,,,,,,,,,,,,,,,,,,,,,,,,,,,,,,,,
1,240619_151009,FalseCHOICE,9.0,2,2.0,303.0,,,,,,,,,,,2.0,2.0,,,A,,,,,,False,cue2.png,Hard,cue1.png,Easy,Right,Easy,Mid,0.0155787999974563,,,,,,,,,,,,,19,29,Female,0.14285714285714285,0.25,0.0,0.0,1.7777777777777777,3.375,2.2222222222222223,3.111111111111111,2.75,2.888888888888889,2.25,1.75,2.5,1.75,,,,,,,,,,,,,,,,,,,,,,,,,,,,,1.4569999999999999,-0.224870425816183,,,,,,,,
2,240619_151034,FalseCHOICE,9.0,3,2.0,303.0,,,,,,,,,,,3.0,3.0,,,A,,,,,,False,cue2.png,Hard,cue1.png,Easy,Left,Hard,Mid,0.0164204000029712,,,,,,,,,,,,,19,29,Female,0.14285714285714285,0.25,0.0,0.0,1.7777777777777777,3.375,2.2222222222222223,3.111111111111111,2.75,2.888888888888889,2.25,1.75,2.5,1.75,,,,,,,,,,,,,,,,,,,,,,,,,0.00036812367479911604,1.5279376661414341,,,1.1429999999999998,-0.8453709856542724,,,,,,,,
3,240619_151100,FalseCHOICE,9.0,4,2.0,303.0,,,,,,,,,,,4.0,4.0,,,A,,,,,,False,cue2.png,Hard,cue1.png,Easy,Right,Easy,Mid,0.0166723999427631,,,,,,,,,,,,,19,29,Female,0.14285714285714285,0.25,0.0,0.0,1.7777777777777777,3.375,2.2222222222222223,3.111111111111111,2.75,2.888888888888889,2.25,1.75,2.5,1.75,0.9262820512820512,0.9230769230769232,0.4498299421056321,0.9370040355774615,-0.7988856740743311,0.9214306210761196,,,,,,,,,,,,,,,,,,,-0.00012123910469133067,-0.3629312878500246,-9.555427996779534e-05,0.42664123663732983,1.604,0.06561868977680832,,,,,,,,
4,240619_151126,FalseCHOICE,9.0,5,2.0,303.0,,,,,,,,,,,5.0,5.0,,,A,,,,,,False,cue1.png,Easy,cue2.png,Hard,Right,Hard,Mid,0.0164282000623643,,,,,,,,,,,,,19,29,Female,0.14285714285714285,0.25,0.0,0.0,1.7777777777777777,3.375,2.2222222222222223,3.111111111111111,2.75,2.888888888888889,2.25,1.75,2.5,1.75,,,,,,,,,,,,,,,,,,,,,,,,,-4.766356042216254e-05,-0.07863971876817509,-3.031268815533762e-06,0.6740909325824441,1.5879999999999999,0.03400082685512177,,,,,,,,
5,240619_151151,FalseCHOICE,9.0,6,2.0,303.0,,,,,,,,,,,6.0,6.0,,,A,,,,,,False,cue2.png,Hard,cue1.png,Easy,Right,Easy,Mid,0.0165235000895336,,,,,,,,,,,,,19,29,Female,0.14285714285714285,0.25,0.0,0.0,1.7777777777777777,3.375,2.2222222222222223,3.111111111111111,2.75,2.888888888888889,2.25,1.75,2.5,1.75,1.0,1.0,0.3708148947488026,-1.2844923127313133,-0.9920522768717333,-1.2828473203784931,,,,,,,,,,,,,,,,,,,7.155909084665367e-05,0.3820295829132697,-0.0004644625045688443,-0.5599914601623371,,,,,,,,,,
6,240619_151216,FalseCHOICE,9.0,7,2.0,303.0,,,,,,,,,,,7.0,7.0,,,A,,,,,,False,cue2.png,Hard,cue1.png,Easy,Left,Hard,Mid,0.0160187999717891,,,,,,,,,,,,,19,29,Female,0.14285714285714285,0.25,0.0,0.0,1.7777777777777777,3.375,2.2222222222222223,3.111111111111111,2.75,2.888888888888889,2.25,1.75,2.5,1.75,0.8071428571428572,0.8571428571428572,0.352396405246844,-1.802325415901983,-1.0429985857472714,-1.8642098500631146,,,,,,,,,,,,,,,,,,,,,-0.00015751251827610287,0.2609360024501816,1.4680000000000002,-0.20313314505752314,,,,,,,,
7,240619_151241,FalseCHOICE,9.0,8,2.0,303.0,,,,,,,,,,,8.0,8.0,,,A,,,,,,False,cue1.png,Easy,cue2.png,Hard,Right,Hard,Mid,0.0154665000736713,,,,,,,,,,,,,19,29,Female,0.14285714285714285,0.25,0.0,0.0,1.7777777777777777,3.375,2.2222222222222223,3.111111111111111,2.75,2.888888888888889,2.25,1.75,2.5,1.75,,,,,,,,,,,,,,,,,,,,,,,,,,,0.0001256442478303854,1.0182292941973092,,,,,,,,,,
8,240619_151306,FalseCHOICE,9.0,9,2.0,303.0,,,,,,,,,,,9.0,9.0,,,A,,,,,,False,cue1.png,Easy,cue2.png,Hard,Right,Hard,Mid,0.016038000001572,,,,,,,,,,,,,19,29,Female,0.14285714285714285,0.25,0.0,0.0,1.7777777777777777,3.375,2.2222222222222223,3.111111111111111,2.75,2.888888888888889,2.25,1.75,2.5,1.75,0.9178571428571428,0.9285714285714286,0.3844964789275668,-0.89983660082688,-0.9558206476139559,-0.8693981009000925,,,,,,,,,,,,,,,,,,,1.5575836039552135e-05,0.16571358403741343,,,0.3579999999999999,-2.3966223852494957,,,,,,,,
9,240619_151333,FalseCHOICE,9.0,10,2.0,303.0,,,,,,,,,,,10.0,10.0,,,A,,,,,,False,cue2.png,Hard,cue1.png,Easy,Left,Hard,Mid,0.0159858000697568,,,,,,,,,,,,,19,29,Female,0.14285714285714285,0.25,0.0,0.0,1.7777777777777777,3.375,2.2222222222222223,3.111111111111111,2.75,2.888888888888889,2.25,1.75,2.5,1.75,,,,,,,,,,,,,,,,,,,,,,,,,8.767802634440918e-05,0.4443122001892159,-6.429672642556828e-05,0.5102385171806918,1.448,-0.24265547370963123,,,,,,,,
10,240619_151359,FalseCHOICE,9.0,11,2.0,303.0,,,,,,,,,,,11.0,11.0,,,A,,,,,,False,cue1.png,Easy,cue2.png,Hard,Right,Hard,Mid,0.015937199932523,,,,,,,,,,,,,19,29,Female,0.14285714285714285,0.25,0.0,0.0,1.7777777777777777,3.375,2.2222222222222223,3.111111111111111,2.75,2.888888888888889,2.25,1.75,2.5,1.75,0.9178571428571428,0.9285714285714286,0.4362321052589993,0.5547028675065633,-0.8295808257704332,0.5711596901104534,,,,,,,,,,,,,,,,,,,0.0002571958826697138,1.0993192115652426,-0.00012505534749143472,0.34774161914901147,,,,,,,,,,
11,240619_151425,FalseCHOICE,9.0,12,2.0,303.0,,,,,,,,,,,12.0,12.0,,,A,,,,,,False,cue2.png,Hard,cue1.png,Easy,Left,Hard,Mid,0.0165520999580621,,,,,,,,,,,,,19,29,Female,0.14285714285714285,0.25,0.0,0.0,1.7777777777777777,3.375,2.2222222222222223,3.111111111111111,2.75,2.888888888888889,2.25,1.75,2.5,1.75,,,,,,,,,,,,,,,,,,,,,,,,,0.00024639494382653867,1.057585020105512,-0.00016827361806858376,0.23215580130322247,2.147,1.138649912681529,,,,,,,,
12,240619_151451,FalseCHOICE,9.0,13,2.0,303.0,,,,,,,,,,,13.0,13.0,,,A,,,,,,False,cue1.png,Easy,cue2.png,Hard,Right,Hard,Mid,0.0169599999208003,,,,,,,,,,,,,19,29,Female,0.14285714285714285,0.25,0.0,0.0,1.7777777777777777,3.375,2.2222222222222223,3.111111111111111,2.75,2.888888888888889,2.25,1.75,2.5,1.75,0.9262820512820512,0.9230769230769232,0.430986278953864,0.4072172382428993,-0.841679024759011,0.43310376959597224,,,,,,,,,,,,,,,,,,,-0.0005775454599023797,-2.1260721656176096,,,1.1800000000000002,-0.7722546776478726,,,,,,,,
13,240619_151516,FalseCHOICE,9.0,14,2.0,303.0,,,,,,,,,,,14.0,14.0,,,A,,,,,,False,cue2.png,Hard,cue1.png,Easy,Left,Hard,Mid,0.0159536999417468,,,,,,,,,,,,,19,29,Female,0.14285714285714285,0.25,0.0,0.0,1.7777777777777777,3.375,2.2222222222222223,3.111111111111111,2.75,2.888888888888889,2.25,1.75,2.5,1.75,0.8071428571428572,0.8571428571428572,0.4072083841923526,-0.26129474966521465,-0.8984302240944511,-0.2144999829916698,,,,,,,,,,,,,,,,,,,-9.050874798150876e-05,-0.24419099969776692,-0.0001054461504927896,0.4001857600671811,2.948,2.7215191751984387,,,,,,,,
14,240619_151542,FalseCHOICE,9.0,15,2.0,303.0,,,,,,,,,,,15.0,15.0,,,A,,,,,,False,cue1.png,Easy,cue2.png,Hard,Right,Hard,Mid,0.0165650000562891,,,,,,,,,,,,,19,29,Female,0.14285714285714285,0.25,0.0,0.0,1.7777777777777777,3.375,2.2222222222222223,3.111111111111111,2.75,2.888888888888889,2.25,1.75,2.5,1.75,,,,,,,,,,,,,,,,,,,,,,,,,,,-0.000333640783700274,-0.2101131472022098,,,,,,,,,,
15,240619_151608,FalseCHOICE,9.0,16,2.0,303.0,,,,,,,,,,,16.0,16.0,,,A,,,,,,False,cue1.png,Easy,cue2.png,Hard,Left,Easy,Mid,0.0163398999720811,,,,,,,,,,,,,19,29,Female,0.14285714285714285,0.25,0.0,0.0,1.7777777777777777,3.375,2.2222222222222223,3.111111111111111,2.75,2.888888888888889,2.25,1.75,2.5,1.75,0.9178571428571428,0.9285714285714286,0.3850962684158922,-0.8829736082369795,-0.9542619281176158,-0.8516111183009246,,,,,,,,,,,,,,,,,,,,,,,,,,,,,,,,
16,240619_151633,FalseCHOICE,9.0,17,2.0,303.0,,,,,,,,,,,17.0,17.0,,,A,,,,,,False,cue2.png,Hard,cue1.png,Easy,Right,Easy,Mid,0.0168843000428751,,,,,,,,,,,,,19,29,Female,0.14285714285714285,0.25,0.0,0.0,1.7777777777777777,3.375,2.2222222222222223,3.111111111111111,2.75,2.888888888888889,2.25,1.75,2.5,1.75,0.8269230769230769,0.8461538461538461,0.4077119052495905,-0.24713832975067468,-0.8971944685786334,-0.20039843238664776,,,,,,,,,,,,,,,,,,,0.0003406451372554497,1.421762215698494,8.552204702398907e-05,0.9109238113066467,,,,,,,,,,
17,240619_151659,FalseCHOICE,9.0,18,2.0,303.0,,,,,,,,,,,18.0,18.0,,,A,,,,,,False,cue2.png,Hard,cue1.png,Easy,Left,Hard,Mid,0.0152069999603554,,,,,,,,,,,,,19,29,Female,0.14285714285714285,0.25,0.0,0.0,1.7777777777777777,3.375,2.2222222222222223,3.111111111111111,2.75,2.888888888888889,2.25,1.75,2.5,1.75,0.9178571428571428,0.9285714285714286,0.4192725578874448,0.07788770615208938,-0.8692340743894946,0.11866541847030368,,,,,,,,,,,,,,,,,,,0.00018599189902983575,0.8241912130579727,-3.9340771231951253e-05,0.576982383898539,,,,,,,,,,
18,240619_151723,FalseCHOICE,9.0,19,2.0,303.0,,,,,,,,,,,19.0,19.0,,,A,,,,,,False,cue1.png,Easy,cue2.png,Hard,Right,Hard,Mid,0.016796899959445,,,,,,,,,,,,,19,29,Female,0.14285714285714285,0.25,0.0,0.0,1.7777777777777777,3.375,2.2222222222222223,3.111111111111111,2.75,2.888888888888889,2.25,1.75,2.5,1.75,0.5256410256410255,0.6923076923076923,0.3383041842240153,-2.198526121830792,-1.083809834888825,-2.329918388408568,,,,,,,,,,,,,,,,,,,0.00012035297687649094,0.5705662843242073,8.548640366407489e-05,0.9108284843337846,,,,,,,,,,
19,240619_151749,FalseCHOICE,9.0,20,2.0,303.0,,,,,,,,,,,20.0,20.0,,,A,,,,,,False,cue1.png,Easy,cue2.png,Hard,Right,Hard,Mid,0.0159564999630674,,,,,,,,,,,,,19,29,Female,0.14285714285714285,0.25,0.0,0.0,1.7777777777777777,3.375,2.2222222222222223,3.111111111111111,2.75,2.888888888888889,2.25,1.75,2.5,1.75,0.6625000000000001,0.7857142857142857,0.4223004420974144,0.16301622205581306,-0.8620382701628099,0.20077874602384074,,,,,,,,,,,,,,,,,,,0.00033325740368028364,1.3932164483391793,-0.0005533911983105675,-0.7978282745194941,,,,,,,,,,
20,240619_151815,FalseCHOICE,9.0,21,2.0,303.0,,,,,,,,,,,21.0,21.0,,,A,,,,,,False,cue1.png,Easy,cue2.png,Hard,Right,Hard,Mid,0.0153132999548688,,,,,,,,,,,,,19,29,Female,0.14285714285714285,0.25,0.0,0.0,1.7777777777777777,3.375,2.2222222222222223,3.111111111111111,2.75,2.888888888888889,2.25,1.75,2.5,1.75,0.6625000000000001,0.7857142857142857,0.3983613052711773,-0.5100290626098711,-0.9203958833120137,-0.46515624231184316,,,,,,,,,,,,,,,,,,,-0.0002412955866891173,-0.826822462351335,-0.00021140925156753554,0.11679099355664062,,,,,,,,,,
21,240619_151842,FalseCHOICE,9.0,22,2.0,303.0,,,,,,,,,,,22.0,22.0,,,A,,,,,,False,cue2.png,Hard,cue1.png,Easy,Left,Hard,Mid,0.0165012000361457,,,,,,,,,,,,,19,29,Female,0.14285714285714285,0.25,0.0,0.0,1.7777777777777777,3.375,2.2222222222222223,3.111111111111111,2.75,2.888888888888889,2.25,1.75,2.5,1.75,0.7019230769230769,0.7692307692307692,0.4608880631490855,1.2479014701667333,-0.7746000785949964,1.1985603196624395,,,,,,,,,,,,,,,,,,,0.00023089618081835548,0.9976987127979556,6.940618407844708e-05,0.8678224753675815,0.7450000000000003,-1.6318653258312126,,,,,,,,
22,240619_151908,FalseCHOICE,9.0,23,2.0,303.0,,,,,,,,,,,23.0,23.0,,,A,,,,,,False,cue1.png,Easy,cue2.png,Hard,Left,Easy,Mid,0.0159321000101044,,,,,,,,,,,,,19,29,Female,0.14285714285714285,0.25,0.0,0.0,1.7777777777777777,3.375,2.2222222222222223,3.111111111111111,2.75,2.888888888888889,2.25,1.75,2.5,1.75,1.0,1.0,0.4278892473758836,0.3201446543335284,-0.8488908846998638,0.3508072258132193,,,,,,,,,,,,,,,,,,,,,-0.0010663539551190033,-2.169729995211735,1.1600000000000001,-0.8117770062999803,,,,,,,,
23,240619_151934,FalseCHOICE,9.0,24,2.0,303.0,,,,,,,,,,,24.0,24.0,,,A,,,,,,False,cue2.png,Hard,cue1.png,Easy,Right,Easy,Mid,0.0168213999131694,,,,,,,,,,,,,19,29,Female,0.14285714285714285,0.25,0.0,0.0,1.7777777777777777,3.375,2.2222222222222223,3.111111111111111,2.75,2.888888888888889,2.25,1.75,2.5,1.75,0.9178571428571428,0.9285714285714286,0.4487268947199673,0.9059920217745728,-0.8013408285944149,0.8934141685780683,,,,,,,,,,,,,,,,,,,,,-0.0015425780462064494,-3.4433753843290402,2.106,1.0576291389447086,,,,,,,,
24,240619_152001,FalseCHOICE,9.0,25,2.0,303.0,,,,,,,,,,,25.0,25.0,,,A,,,,,,False,cue2.png,Hard,cue1.png,Easy,Left,Hard,Mid,0.0130486000562086,,,,,,,,,,,,,19,29,Female,0.14285714285714285,0.25,0.0,0.0,1.7777777777777777,3.375,2.2222222222222223,3.111111111111111,2.75,2.888888888888889,2.25,1.75,2.5,1.75,0.8071428571428572,0.8571428571428572,0.424026726291662,0.21155044638331008,-0.8579587920299699,0.24733080797782592,,,,,,,,,,,,,,,,,,,-0.00012800471822084188,-0.3890732199989674,-0.00010883405367309931,0.3911249264278661,,,,,,,,,,
25,240619_152027,FalseCHOICE,9.0,26,2.0,303.0,,,,,,,,,,,26.0,26.0,,,A,,,,,,False,cue1.png,Easy,cue2.png,Hard,Left,Easy,Mid,0.0161439999938011,,,,,,,,,,,,,19,29,Female,0.14285714285714285,0.25,0.0,0.0,1.7777777777777777,3.375,2.2222222222222223,3.111111111111111,2.75,2.888888888888889,2.25,1.75,2.5,1.75,0.8071428571428572,0.8571428571428572,0.4255298368424471,0.25381017679382295,-0.8544202115882408,0.2877105356264359,,,,,,,,,,,,,,,,,,,-0.00019619201668043566,-0.6525449246677375,-0.0003782710727292674,-0.3294753611274862,1.9469999999999998,0.7434266261604531,,,,,,,,
26,240619_152053,FalseCHOICE,9.0,27,2.0,303.0,,,,,,,,,,,27.0,27.0,,,A,,,,,,False,cue1.png,Easy,cue2.png,Hard,Left,Easy,Mid,0.0163985999533906,,,,,,,,,,,,,19,29,Female,0.14285714285714285,0.25,0.0,0.0,1.7777777777777777,3.375,2.2222222222222223,3.111111111111111,2.75,2.888888888888889,2.25,1.75,2.5,1.75,0.7019230769230769,0.7692307692307692,0.4098677684087306,-0.18652655647848845,-0.8919206873795451,-0.14021784528277448,,,,,,,,,,,,,,,,,,,-0.00029674811987141043,-1.041087784131138,-0.0006294019810669255,-1.0011165683976293,1.093,-0.944176807284541,,,,,,,,
27,240619_152120,FalseCHOICE,9.0,28,2.0,303.0,,,,,,,,,,,28.0,28.0,,,A,,,,,,False,cue2.png,Hard,cue1.png,Easy,Right,Easy,Mid,0.0150352999335154,,,,,,,,,,,,,19,29,Female,0.14285714285714285,0.25,0.0,0.0,1.7777777777777777,3.375,2.2222222222222223,3.111111111111111,2.75,2.888888888888889,2.25,1.75,2.5,1.75,0.9262820512820512,0.8178137651821863,0.4438808117787737,0.7697451179557836,-0.8121991945265981,0.7695063286205731,,,,,,,,,,,,,,,,,,,-0.0003145792951946445,-1.1099863952330886,,,1.469,-0.201157028624918,,,,,,,,
28,240619_152146,FalseCHOICE,9.0,29,2.0,303.0,,,,,,,,,,,29.0,29.0,,,A,,,,,,False,cue1.png,Easy,cue2.png,Hard,Left,Easy,Mid,0.0153688999125733,,,,,,,,,,,,,19,29,Female,0.14285714285714285,0.25,0.0,0.0,1.7777777777777777,3.375,2.2222222222222223,3.111111111111111,2.75,2.888888888888889,2.25,1.75,2.5,1.75,0.9178571428571428,0.9285714285714286,0.4176051210624313,0.031007966890845604,-0.8732189794083643,0.07319255667804547,,,,,,,,,,,,,,,,,,,-2.201508030514514e-05,0.020464497577894977,-0.0006176602622872097,-0.9697137345973731,2.375,1.589204459315556,,,,,,,,
29,240619_152212,FalseCHOICE,9.0,30,2.0,303.0,,,,,,,,,,,30.0,30.0,,,A,,,,,,False,cue1.png,Easy,cue2.png,Hard,Right,Hard,Mid,0.0164510000031441,,,,,,,,,,,,,19,29,Female,0.14285714285714285,0.25,0.0,0.0,1.7777777777777777,3.375,2.2222222222222223,3.111111111111111,2.75,2.888888888888889,2.25,1.75,2.5,1.75,0.9178571428571428,0.9285714285714286,0.3913308894935701,-0.7076881604588697,-0.9382018121874027,-0.6683446593504514,,,,,,,,,,,,,,,,,,,-1.0532987793146053e-05,0.06483062669054179,,,1.638,0.13280664848539087,,,,,,,,
30,240619_152237,FalseCHOICE,9.0,31,2.0,303.0,,,,,,,,,,,31.0,31.0,,,A,,,,,,False,cue2.png,Hard,cue1.png,Easy,Left,Hard,Mid,0.0164159999694675,,,,,,,,,,,,,19,29,Female,0.14285714285714285,0.25,0.0,0.0,1.7777777777777777,3.375,2.2222222222222223,3.111111111111111,2.75,2.888888888888889,2.25,1.75,2.5,1.75,0.8071428571428572,0.8571428571428572,0.3680188315797989,-1.363103214418578,-0.999621169351295,-1.3692180619680117,,,,,,,,,,,,,,,,,,,-0.0004631212957073609,-1.6839439353339942,-0.0008383937261857133,-1.5600579943265538,,,,,,,,,,
31,240619_152304,FalseCHOICE,9.0,32,2.0,303.0,,,,,,,,,,,32.0,32.0,,,A,,,,,,False,cue1.png,Easy,cue2.png,Hard,Left,Easy,Mid,0.0169718000106513,,,,,,,,,,,,,19,29,Female,0.14285714285714285,0.25,0.0,0.0,1.7777777777777777,3.375,2.2222222222222223,3.111111111111111,2.75,2.888888888888889,2.25,1.75,2.5,1.75,1.0,1.0,0.460967031583239,1.2501216559917374,-0.7744287535466283,1.2005153575389007,,,,,,,,,,,,,,,,,,,-0.0008832737050355243,-3.3073880958616235,-0.0005423461989957508,-0.7682887936041178,,,,,,,,,,
32,240619_152329,FalseCHOICE,9.0,33,2.0,303.0,,,,,,,,,,,33.0,33.0,,,A,,,,,,False,cue2.png,Hard,cue1.png,Easy,Right,Easy,Mid,0.0179265999468043,,,,,,,,,,,,,19,29,Female,0.14285714285714285,0.25,0.0,0.0,1.7777777777777777,3.375,2.2222222222222223,3.111111111111111,2.75,2.888888888888889,2.25,1.75,2.5,1.75,1.0,1.0,0.41601517369456,-0.013693167764919549,-0.8770335441587711,0.02966349516428666,,,,,,,,,,,,,,,,,,,0.00015929819470566998,0.7210483119445096,7.426811138670037e-05,0.8808255371913548,1.5139999999999998,-0.11223178915767647,,,,,,,,
33,240619_152355,FalseCHOICE,9.0,34,2.0,303.0,,,,,,,,,,,34.0,34.0,,,A,,,,,,False,cue2.png,Hard,cue1.png,Easy,Right,Easy,Mid,0.0164108000462874,,,,,,,,,,,,,19,29,Female,0.14285714285714285,0.25,0.0,0.0,1.7777777777777777,3.375,2.2222222222222223,3.111111111111111,2.75,2.888888888888889,2.25,1.75,2.5,1.75,0.7019230769230769,0.7692307692307692,0.4047459105250278,-0.33052683194271515,-0.9044957901813581,-0.2837158481266345,,,,,,,,,,,,,,,,,,,,,-0.0004545414841522228,-0.5334580231828788,1.105,-0.9204634100932765,,,,,,,,
34,240619_152420,FalseCHOICE,9.0,35,2.0,303.0,,,,,,,,,,,35.0,35.0,,,A,,,,,,False,cue2.png,Hard,cue1.png,Easy,Right,Easy,Mid,0.0157615999924018,,,,,,,,,,,,,19,29,Female,0.14285714285714285,0.25,0.0,0.0,1.7777777777777777,3.375,2.2222222222222223,3.111111111111111,2.75,2.888888888888889,2.25,1.75,2.5,1.75,0.9262820512820512,0.9230769230769232,0.4141791789535139,-0.06531188785919306,-0.8814565993828475,-0.020809220735225287,,,,,,,,,,,,,,,,,,,0.00013888027091724662,0.6421546571457243,-4.076792823675714e-05,0.5731655002659473,1.684,0.2237080043852384,,,,,,,,
35,240619_152447,FalseCHOICE,9.0,36,2.0,303.0,,,,,,,,,,,36.0,36.0,,,A,,,,,,False,cue1.png,Easy,cue2.png,Hard,Left,Easy,Mid,0.0140357000054791,,,,,,,,,,,,,19,29,Female,0.14285714285714285,0.25,0.0,0.0,1.7777777777777777,3.375,2.2222222222222223,3.111111111111111,2.75,2.888888888888889,2.25,1.75,2.5,1.75,0.9262820512820512,0.9230769230769232,0.4934686842055893,2.1639008035063645,-0.7062958786456797,1.977998582160106,,,,,,,,,,,,,,,,,,,-0.00023417590842124327,-0.7993124449095744,,,1.1309999999999998,-0.869084382845537,,,,,,,,
36,240619_152514,FalseCHOICE,9.0,37,2.0,303.0,,,,,,,,,,,37.0,37.0,,,A,,,,,,False,cue2.png,Hard,cue1.png,Easy,Right,Easy,Mid,0.0170918999938294,,,,,,,,,,,,,19,29,Female,0.14285714285714285,0.25,0.0,0.0,1.7777777777777777,3.375,2.2222222222222223,3.111111111111111,2.75,2.888888888888889,2.25,1.75,2.5,1.75,1.0,1.0,0.4564690999993074,1.123662975994717,-0.7842342701771992,1.0886218743988416,,,,,,,,,,,,,,,,,,,-0.00015141296250555363,-0.47952129705030655,-0.0001456858836811803,0.29256594075549175,1.8200000000000003,0.49245983921957076,,,,,,,,
37,240619_152541,FalseCHOICE,9.0,38,2.0,303.0,,,,,,,,,,,38.0,38.0,,,A,,,,,,False,cue1.png,Easy,cue2.png,Hard,Left,Easy,Mid,0.0160222999984398,,,,,,,,,,,,,19,29,Female,0.14285714285714285,0.25,0.0,0.0,1.7777777777777777,3.375,2.2222222222222223,3.111111111111111,2.75,2.888888888888889,2.25,1.75,2.5,1.75,1.0,0.9473684210526316,0.4585963111086231,1.1834692011316335,-0.7795849524009264,1.141676535342481,,,,,,,,,,,,,,,,,,,-0.00012450010078839157,-0.3755315846797922,-0.0007714176648249121,-1.3809327603665642,0.9260000000000002,-1.2741882515296392,,,,,,,,
38,240619_152608,FalseCHOICE,9.0,39,2.0,303.0,,,,,,,,,,,39.0,39.0,,,A,,,,,,False,cue1.png,Easy,cue2.png,Hard,Left,Easy,Mid,0.0155664000194519,,,,,,,,,,,,,19,29,Female,0.14285714285714285,0.25,0.0,0.0,1.7777777777777777,3.375,2.2222222222222223,3.111111111111111,2.75,2.888888888888889,2.25,1.75,2.5,1.75,0.8071428571428572,0.8045112781954888,0.4625240555679839,1.2938971546093574,-0.7710567113433522,1.238994670933108,,,,,,,,,,,,,,,,,,,3.44479650874834e-05,0.23863437901411894,-0.00012108403424266733,0.3583627634856685,1.526,-0.08851839196641145,,,,,,,,
39,240619_152634,FalseCHOICE,9.0,40,2.0,303.0,,,,,,,,,,,40.0,40.0,,,A,,,,,,False,cue2.png,Hard,cue1.png,Easy,Right,Easy,Mid,0.0168598999734967,,,,,,,,,,,,,19,29,Female,0.14285714285714285,0.25,0.0,0.0,1.7777777777777777,3.375,2.2222222222222223,3.111111111111111,2.75,2.888888888888889,2.25,1.75,2.5,1.75,0.9262820512820512,0.9230769230769232,0.4479567578773161,0.8843397385591806,-0.803058573821034,0.8738124990490629,,,,,,,,,,,,,,,,,,,-0.00027299828181429195,-0.9493198088648317,-0.0003368244164825007,-0.21862766650018708,1.707,0.2691586823351624,,,,,,,,
40,240619_152701,FalseCHOICE,9.0,41,2.0,303.0,,,,,,,,,,,41.0,41.0,,,A,,,,,,False,cue2.png,Hard,cue1.png,Easy,Right,Easy,Mid,0.0167349999537691,,,,,,,,,,,,,19,29,Female,0.14285714285714285,0.25,0.0,0.0,1.7777777777777777,3.375,2.2222222222222223,3.111111111111111,2.75,2.888888888888889,2.25,1.75,2.5,1.75,0.9262820512820512,0.9230769230769232,0.443825694732368,0.7681955103631071,-0.8123233730609949,0.7680892927551125,,,,,,,,,,,,,,,,,,,0.0003166172442292904,1.3289198524106673,0.00012276903530646435,1.0105396345552229,2.026,0.8995398243362781,,,,,,,,
41,240619_152726,FalseCHOICE,9.0,42,2.0,303.0,,,,,,,,,,,42.0,42.0,,,A,,,,,,False,cue1.png,Easy,cue2.png,Hard,Left,Easy,Mid,0.0161422999808564,,,,,,,,,,,,,19,29,Female,0.14285714285714285,0.25,0.0,0.0,1.7777777777777777,3.375,2.2222222222222223,3.111111111111111,2.75,2.888888888888889,2.25,1.75,2.5,1.75,0.9178571428571428,0.9285714285714286,0.4187708684414821,0.06378278171715107,-0.8704313620004511,0.10500283584893662,,,,,,,,,,,,,,,,,,,-7.398607003768253e-05,-0.18034834539268946,0.0003315061231815601,1.5687999882110226,,,,,,,,,,
42,240619_152752,FalseCHOICE,9.0,43,2.0,303.0,,,,,,,,,,,43.0,43.0,,,A,,,,,,False,cue2.png,Hard,cue1.png,Easy,Right,Easy,Mid,0.01622580003459,,,,,,,,,,,,,19,29,Female,0.14285714285714285,0.25,0.0,0.0,1.7777777777777777,3.375,2.2222222222222223,3.111111111111111,2.75,2.888888888888889,2.25,1.75,2.5,1.75,1.0,1.0,0.4238517947286661,0.20663227141032772,-0.8583714255880591,0.24262213144250433,,,,,,,,,,,,,,,,,,,1.4276082808169308e-05,0.16069141411343407,-1.0082982318078242e-05,0.6552313608892456,2.2190000000000003,1.2809302958291173,,,,,,,,
43,240619_152819,FalseCHOICE,9.0,44,2.0,303.0,,,,,,,,,,,44.0,44.0,,,A,,,,,,False,cue1.png,Easy,cue2.png,Hard,Left,Easy,Mid,0.0160604000557214,,,,,,,,,,,,,19,29,Female,0.14285714285714285,0.25,0.0,0.0,1.7777777777777777,3.375,2.2222222222222223,3.111111111111111,2.75,2.888888888888889,2.25,1.75,2.5,1.75,1.0,1.0,0.4734026421118821,1.5997470033463266,-0.7478090007773927,1.5042807755068492,,,,,,,,,,,,,,,,,,,,,0.00027651998377270764,1.4217413991263588,1.8870000000000002,0.6248596402041311,,,,,,,,
44,240619_152844,FalseCHOICE,9.0,45,2.0,303.0,,,,,,,,,,,45.0,45.0,,,A,,,,,,False,cue2.png,Hard,cue1.png,Easy,Right,Easy,Mid,0.0163204000564292,,,,,,,,,,,,,19,29,Female,0.14285714285714285,0.25,0.0,0.0,1.7777777777777777,3.375,2.2222222222222223,3.111111111111111,2.75,2.888888888888889,2.25,1.75,2.5,1.75,0.9178571428571428,0.9285714285714286,0.3954585052499744,-0.591640855080885,-0.927709414472113,-0.5486129847139234,,,,,,,,,,,,,,,,,,,0.000269105674249653,1.1453379446827572,9.828023484159069e-05,0.9450451575205179,,,,,,,,,,
45,240619_152909,FalseCHOICE,9.0,46,2.0,303.0,,,,,,,,,,,46.0,46.0,,,A,,,,,,False,cue2.png,Hard,cue1.png,Easy,Right,Easy,Mid,0.0166393000399693,,,,,,,,,,,,,19,29,Female,0.14285714285714285,0.25,0.0,0.0,1.7777777777777777,3.375,2.2222222222222223,3.111111111111111,2.75,2.888888888888889,2.25,1.75,2.5,1.75,0.9178571428571428,0.9285714285714286,0.4074706157890001,-0.25392214718188183,-0.8977864573944133,-0.2071537817550899,,,,,,,,,,,,,,,,,,,-7.305325909802603e-06,0.07730212208206018,-0.000510412572558678,-0.6828833787363011,1.96,0.7691161397843234,,,,,,,,
46,240619_152935,FalseCHOICE,9.0,47,2.0,303.0,,,,,,,,,,,47.0,47.0,,,A,,,,,,False,cue1.png,Easy,cue2.png,Hard,Left,Easy,Mid,0.0153200000058859,,,,,,,,,,,,,19,29,Female,0.14285714285714285,0.25,0.0,0.0,1.7777777777777777,3.375,2.2222222222222223,3.111111111111111,2.75,2.888888888888889,2.25,1.75,2.5,1.75,0.6625000000000001,0.7330827067669172,0.3647699055533546,-1.45444628823941,-1.0084885199268223,-1.4704058707802847,,,,,,,,,,,,,,,,,,,-2.926486537011214e-05,-0.007548244863880084,,,0.978,-1.1714301970341596,,,,,,,,
47,240619_153001,FalseCHOICE,9.0,48,2.0,303.0,,,,,,,,,,,48.0,48.0,,,A,,,,,,False,cue1.png,Easy,cue2.png,Hard,Left,Easy,Mid,0.0160361999878659,,,,,,,,,,,,,19,29,Female,0.14285714285714285,0.25,0.0,0.0,1.7777777777777777,3.375,2.2222222222222223,3.111111111111111,2.75,2.888888888888889,2.25,1.75,2.5,1.75,1.0,1.0,0.422605047370062,0.17158015416112896,-0.8613172302603788,0.20900673330953345,,,,,,,,,,,,,,,,,,,-0.00013586953816995418,-0.41946242100439335,-0.0004075638708008261,-0.4078179689384259,1.4110000000000003,-0.3157717817160297,,,,,,,,
48,240619_153026,FalseCHOICE,9.0,49,2.0,303.0,,,,,,,,,,,49.0,49.0,,,A,,,,,,False,cue2.png,Hard,cue1.png,Easy,Right,Easy,Mid,0.0164416000479832,,,,,,,,,,,,,19,29,Female,0.14285714285714285,0.25,0.0,0.0,1.7777777777777777,3.375,2.2222222222222223,3.111111111111111,2.75,2.888888888888889,2.25,1.75,2.5,1.75,0.9178571428571428,0.9285714285714286,0.3890386736878243,-0.7721334681861933,-0.9440765220847265,-0.735382611313077,,,,,,,,,,,,,,,,,,,-5.048546743492222e-05,-0.08954340124078583,-0.0003738154731666851,-0.3175590092569254,1.538,-0.06480499477514687,,,,,,,,
49,240619_153052,FalseCHOICE,9.0,50,2.0,303.0,,,,,,,,,,,50.0,50.0,,,A,,,,,,False,cue1.png,Easy,cue2.png,Hard,Left,Easy,Mid,0.0160991000011563,,,,,,,,,,,,,19,29,Female,0.14285714285714285,0.25,0.0,0.0,1.7777777777777777,3.375,2.2222222222222223,3.111111111111111,2.75,2.888888888888889,2.25,1.75,2.5,1.75,1.0,1.0,0.4085197473667856,-0.22442596832849543,-0.8952150246833143,-0.17781044641178848,,,,,,,,,,,,,,,,,,,0.0001899674719619336,0.8395525926861088,,,2.101,1.047748556781682,,,,,,,,
0,240619_143801,OFFLINERATING,9.0,1,1.0,,,,,,,,,,,,,,,,,T0,cue1.png,Easy,82.0,1.0851192000554877,,,,,,,,,,,,,,,,,,,,,,19,29,Female,0.14285714285714285,0.25,0.0,0.0,1.7777777777777777,3.375,2.2222222222222223,3.111111111111111,2.75,2.888888888888889,2.25,1.75,2.5,1.75,,,,,,,,,,,,,,,,,,,,,,,,,,,,,,,1.2872557489419418,5.48091764903196e-05,0.14714727084696066,,,,,
1,240619_143808,OFFLINERATING,9.0,2,3.0,,,,,,,,,,,,,,,,,T0,cue2.png,Hard,37.0,0.9090432000812144,,,,,,,,,,,,,,,,,,,,,,19,29,Female,0.14285714285714285,0.25,0.0,0.0,1.7777777777777777,3.375,2.2222222222222223,3.111111111111111,2.75,2.888888888888889,2.25,1.75,2.5,1.75,,,,,,,,,,,,,,,,,,,,,,,,,,,,,,,-0.29977188673990424,0.00012653418405332226,0.9771481640390842,-0.00012388797973124496,-1.0,,,
2,240619_150256,OFFLINERATING,9.0,3,1.0,,,,,,,,,,,,,,,,,T1,cue1.png,Easy,42.0,1.0817998999264091,,,,,,,,,,,,,,,,,,,,,,19,29,Female,0.14285714285714285,0.25,0.0,0.0,1.7777777777777777,3.375,2.2222222222222223,3.111111111111111,2.75,2.888888888888889,2.25,1.75,2.5,1.75,,,,,,,,,,,,,,,,,,,,,,,,,,,,,,,-0.12343548277525469,,,3.3609366718118094e-05,1.0,1.4589999999999999,-0.6989480673590671,
3,240619_150304,OFFLINERATING,9.0,4,3.0,,,,,,,,,,,,,,,,,T1,cue2.png,Hard,4.0,1.085106800077483,,,,,,,,,,,,,,,,,,,,,,19,29,Female,0.14285714285714285,0.25,0.0,0.0,1.7777777777777777,3.375,2.2222222222222223,3.111111111111111,2.75,2.888888888888889,2.25,1.75,2.5,1.75,,,,,,,,,,,,,,,,,,,,,,,,,,,,,,,-1.4635921529065914,,,,,1.455,-0.7152342359188891,
4,240619_150823,OFFLINERATING,9.0,5,1.0,,,,,,,,,,,,,,,,,T2,cue1.png,Easy,96.0,1.402159700053744,,,,,,,,,,,,,,,,,,,,,,19,29,Female,0.14285714285714285,0.25,0.0,0.0,1.7777777777777777,3.375,2.2222222222222223,3.111111111111111,2.75,2.888888888888889,2.25,1.75,2.5,1.75,,,,,,,,,,,,,,,,,,,,,,,,,,,,,,,1.7809976800429606,-0.00010098088052579385,-1.6556533264237303,,,1.9779999999999998,1.414182303277957,
5,240619_150830,OFFLINERATING,9.0,6,3.0,,,,,,,,,,,,,,,,,T2,cue2.png,Hard,27.0,0.9349556000670418,,,,,,,,,,,,,,,,,,,,,,19,29,Female,0.14285714285714285,0.25,0.0,0.0,1.7777777777777777,3.375,2.2222222222222223,3.111111111111111,2.75,2.888888888888889,2.25,1.75,2.5,1.75,,,,,,,,,,,,,,,,,,,,,,,,,,,,,,,-0.6524446946692034,8.80109596460509e-05,0.5313578915376855,,,,,
6,240619_153106,OFFLINERATING,9.0,7,1.0,,,,,,,,,,,,,,,,,T3,cue1.png,Easy,50.0,1.618670199997723,,,,,,,,,,,,,,,,,,,,,,19,29,Female,0.14285714285714285,0.25,0.0,0.0,1.7777777777777777,3.375,2.2222222222222223,3.111111111111111,2.75,2.888888888888889,2.25,1.75,2.5,1.75,,,,,,,,,,,,,,,,,,,,,,,,,,,,,,,0.1587027635681846,,,,,,,
7,240619_153113,OFFLINERATING,9.0,8,3.0,,,,,,,,,,,,,,,,,T3,cue2.png,Hard,26.0,0.7849035999970511,,,,,,,,,,,,,,,,,,,,,,19,29,Female,0.14285714285714285,0.25,0.0,0.0,1.7777777777777777,3.375,2.2222222222222223,3.111111111111111,2.75,2.888888888888889,2.25,1.75,2.5,1.75,,,,,,,,,,,,,,,,,,,,,,,,,,,,,,,-0.6877119754621333,,,,,,,
0,240619_150847,LEARNINGCHECK,9.0,1,,,,,,,,,,,,1.0,1.0,1.0,,,A,,,,,,,,,,,,,,,cue1.png,Easy,Left,Left,Easy,0.0159215000458061,1.0,,,,,,19,29,Female,0.14285714285714285,0.25,0.0,0.0,1.7777777777777777,3.375,2.2222222222222223,3.111111111111111,2.75,2.888888888888889,2.25,1.75,2.5,1.75,,,,,,,,,,,,,,,,,,,,,,,,,,,,,,,,,,,,,,
1,240619_153133,LEARNINGCHECK,9.0,1,,,,,,,,,,,,1.0,1.0,1.0,,,A,,,,,,,,,,,,,,,cue1.png,Easy,Middle,Middle,Mid,0.0143458999227732,1.0,,,,,,19,29,Female,0.14285714285714285,0.25,0.0,0.0,1.7777777777777777,3.375,2.2222222222222223,3.111111111111111,2.75,2.888888888888889,2.25,1.75,2.5,1.75,,,,,,,,,,,,,,,,,,,,,,,,,,,,,,,,,,,,,,
2,240619_150851,LEARNINGCHECK,9.0,2,,,,,,,,,,,,2.0,2.0,2.0,,,A,,,,,,,,,,,,,,,cue2.png,Hard,Right,Right,Hard,0.0157064999220892,1.0,,,,,,19,29,Female,0.14285714285714285,0.25,0.0,0.0,1.7777777777777777,3.375,2.2222222222222223,3.111111111111111,2.75,2.888888888888889,2.25,1.75,2.5,1.75,,,,,,,,,,,,,,,,,,,,,,,,,,,,,,,,,,,,,,
3,240619_153137,LEARNINGCHECK,9.0,2,,,,,,,,,,,,2.0,2.0,2.0,,,A,,,,,,,,,,,,,,,cue2.png,Hard,Middle,Middle,Mid,0.0150067000649869,1.0,,,,,,19,29,Female,0.14285714285714285,0.25,0.0,0.0,1.7777777777777777,3.375,2.2222222222222223,3.111111111111111,2.75,2.888888888888889,2.25,1.75,2.5,1.75,,,,,,,,,,,,,,,,,,,,,,,,,,,,,,,,,,,,,,
0,240619_153151,DEMANDRATING,9.0,-1,,,,,,,,,,,,,,,,,,,,,,,,,,,,,,,,,,,,,,,1.0,MentalDemand,1.0,100.0,1.8827647001016885,19,29,Female,0.14285714285714285,0.25,0.0,0.0,1.7777777777777777,3.375,2.2222222222222223,3.111111111111111,2.75,2.888888888888889,2.25,1.75,2.5,1.75,,,,,,,,,,,,,,,,,,,,,,,,,,,,,,,,,,,,,,0.7222355802233539
1,240619_153159,DEMANDRATING,9.0,-1,,,,,,,,,,,,,,,,,,,,,,,,,,,,,,,,,,,,,,,2.0,Effort,1.0,7.0,6.646304500056431,19,29,Female,0.14285714285714285,0.25,0.0,0.0,1.7777777777777777,3.375,2.2222222222222223,3.111111111111111,2.75,2.888888888888889,2.25,1.75,2.5,1.75,,,,,,,,,,,,,,,,,,,,,,,,,,,,,,,,,,,,,,-1.9060739008503294
2,240619_153204,DEMANDRATING,9.0,-1,,,,,,,,,,,,,,,,,,,,,,,,,,,,,,,,,,,,,,,3.0,Frustration,1.0,16.0,3.895887100021355,19,29,Female,0.14285714285714285,0.25,0.0,0.0,1.7777777777777777,3.375,2.2222222222222223,3.111111111111111,2.75,2.888888888888889,2.25,1.75,2.5,1.75,,,,,,,,,,,,,,,,,,,,,,,,,,,,,,,,,,,,,,-1.651721370423844
3,240619_153211,DEMANDRATING,9.0,-1,,,,,,,,,,,,,,,,,,,,,,,,,,,,,,,,,,,,,,,4.0,MentalDemand,2.0,92.0,5.296177099924535,19,29,Female,0.14285714285714285,0.25,0.0,0.0,1.7777777777777777,3.375,2.2222222222222223,3.111111111111111,2.75,2.888888888888889,2.25,1.75,2.5,1.75,,,,,,,,,,,,,,,,,,,,,,,,,,,,,,,,,,,,,,0.4961444420664779
4,240619_153218,DEMANDRATING,9.0,-1,,,,,,,,,,,,,,,,,,,,,,,,,,,,,,,,,,,,,,,5.0,Effort,2.0,91.0,5.592425799928606,19,29,Female,0.14285714285714285,0.25,0.0,0.0,1.7777777777777777,3.375,2.2222222222222223,3.111111111111111,2.75,2.888888888888889,2.25,1.75,2.5,1.75,,,,,,,,,,,,,,,,,,,,,,,,,,,,,,,,,,,,,,0.4678830497968684
5,240619_153223,DEMANDRATING,9.0,-1,,,,,,,,,,,,,,,,,,,,,,,,,,,,,,,,,,,,,,,6.0,Frustration,2.0,64.0,3.4686023999238387,19,29,Female,0.14285714285714285,0.25,0.0,0.0,1.7777777777777777,3.375,2.2222222222222223,3.111111111111111,2.75,2.888888888888889,2.25,1.75,2.5,1.75,,,,,,,,,,,,,,,,,,,,,,,,,,,,,,,,,,,,,,-0.29517454148258804
6,240619_153226,DEMANDRATING,9.0,-1,,,,,,,,,,,,,,,,,,,,,,,,,,,,,,,,,,,,,,,7.0,MentalDemand,3.0,100.0,1.6316202000016349,19,29,Female,0.14285714285714285,0.25,0.0,0.0,1.7777777777777777,3.375,2.2222222222222223,3.111111111111111,2.75,2.888888888888889,2.25,1.75,2.5,1.75,,,,,,,,,,,,,,,,,,,,,,,,,,,,,,,,,,,,,,0.7222355802233539
7,240619_153231,DEMANDRATING,9.0,-1,,,,,,,,,,,,,,,,,,,,,,,,,,,,,,,,,,,,,,,8.0,Effort,3.0,100.0,3.1718051000498235,19,29,Female,0.14285714285714285,0.25,0.0,0.0,1.7777777777777777,3.375,2.2222222222222223,3.111111111111111,2.75,2.888888888888889,2.25,1.75,2.5,1.75,,,,,,,,,,,,,,,,,,,,,,,,,,,,,,,,,,,,,,0.7222355802233539
8,240619_153234,DEMANDRATING,9.0,-1,,,,,,,,,,,,,,,,,,,,,,,,,,,,,,,,,,,,,,,9.0,Frustration,3.0,100.0,1.3122395999962464,19,29,Female,0.14285714285714285,0.25,0.0,0.0,1.7777777777777777,3.375,2.2222222222222223,3.111111111111111,2.75,2.888888888888889,2.25,1.75,2.5,1.75,,,,,,,,,,,,,,,,,,,,,,,,,,,,,,,,,,,,,,0.7222355802233539
