,END,Phase,Block,TrialN,NbackLevel,ISI,Letter_Resp,Letter_RT,Letter_Accuracy,Trial_A_measure,Trial_ACC,Trial_RT,TrialCountCali,CaliEnd_A_measure,ISI_calibrated,TrialIndex,TrialNumber_total,TrialNumber_valid,CueLearning,TrialDemandLearning,CueMapping,OfflineRatingTimePoint,CueFigure,TrialDemand,OfflineRating,OfflineRatingRT,PhaseType,CueLeft,CueDemandLeft,CueRight,CueDemandRight,Choice,ChoiceDemand,TaskDemand,ChoiceRT,CueCheck,CueDemandCheck,CorrectAnswer,Answer,AnswerDemand,AnswerRT,AnswerACC,DemandRatingQuesIndex,QuesTLX,DemandLevel,DemandRating,DemandRatingRT,PID,Age,Gender,Task_A_measure,Task_ACC,Task_RT,cue_i_on_zyg_values,cue_i_on_zyg_zvalues,cue_e_on_zyg_values,cue_e_on_zyg_zvalues,cue_i_on_cor_values,cue_i_on_cor_zvalues,cue_e_on_cor_values,cue_e_on_cor_zvalues,cue_i_on_scr_values,cue_i_on_scr_zvalues,cue_e_on_scr_values,cue_e_on_scr_zvalues,BAI_bis,BAI_bas_d,BAI_bas_rr,BAI_bas_fs,NFC,BFI_ext,BFI_agr,BFI_con,BFI_neu,BFI_open,UPPS_lps,UPPS_lpm,UPPS_pu,UPPS_ss,cue_e_true_zyg_values,cue_e_true_zyg_zvalues,cue_e_true_cor_values,cue_e_true_cor_zvalues,cue_e_true_scr_values,cue_e_true_scr_zvalues,cue_i_off_zyg_values,cue_i_off_zyg_zvalues,cue_i_off_cor_values,cue_i_off_cor_zvalues,cue_i_off_scr_values,cue_i_off_scr_zvalues
0,240620_093630,LEARNING,1.0,1,1.0,788.0,,,,,,,,,,1.0,1.0,1.0,cue2.png,Easy,B,,,,,,,,,,,,,,,,,,,,,,,,,,,20,27,Male,1.0,1.0,0.6774794615160388,-0.00010586409165502624,0.08461752333041513,-0.00014012427916351364,-0.8813287313932415,0.00016942280221009156,0.12074762706547015,0.00019050971607665734,0.2918055710539669,,,,,1.2857142857142858,1.0,0.4,0.5,2.5555555555555554,2.75,3.6666666666666665,2.4444444444444446,0.625,3.2222222222222223,1.5,1.75,2.25,0.0,,,,,,,,,,,,
1,240620_093702,LEARNING,1.0,2,3.0,788.0,,,,,,,,,,2.0,2.0,2.0,cue1.png,Hard,B,,,,,,,,,,,,,,,,,,,,,,,,,,,20,27,Male,0.6736111111111112,0.5042735042735043,0.9540736249909968,-0.00039495551667527613,-0.2592208704943542,-0.0002067282922342431,-1.2969037493516722,0.00013261421305099663,0.02681428548081106,0.0003270836033188026,0.7138765077140689,1.5809999999999997,-0.04400888848035204,1.598,0.13198372290358606,1.2857142857142858,1.0,0.4,0.5,2.5555555555555554,2.75,3.6666666666666665,2.4444444444444446,0.625,3.2222222222222223,1.5,1.75,2.25,0.0,,,,,,,,,,,,
2,240620_093727,LEARNING,1.0,3,1.0,788.0,,,,,,,,,,3.0,3.0,3.0,cue2.png,Easy,B,,,,,,,,,,,,,,,,,,,,,,,,,,,20,27,Male,1.0,1.0,0.5955375076916355,-0.0026615333622570106,-2.955034092380959,-2.6012704814333803e-05,-0.16933079954090702,0.0006769776194202742,1.4159974887723563,0.0008859742368597882,2.4410843799698125,1.585,-0.03754227629548368,1.5910000000000002,0.12213390753633978,1.2857142857142858,1.0,0.4,0.5,2.5555555555555554,2.75,3.6666666666666665,2.4444444444444446,0.625,3.2222222222222223,1.5,1.75,2.25,0.0,,,,,,,,,,,,
3,240620_093757,LEARNING,1.0,4,3.0,788.0,,,,,,,,,,4.0,4.0,4.0,cue1.png,Hard,B,,,,,,,,,,,,,,,,,,,,,,,,,,,20,27,Male,1.0,0.9230769230769232,0.8696541166379271,-5.502253626202226e-05,0.1450872475522907,-5.834100207431593e-05,-0.37104286004566334,-0.00015043171825451698,-0.695502183497445,0.00017438509294966792,0.24197368207483128,,,,,1.2857142857142858,1.0,0.4,0.5,2.5555555555555554,2.75,3.6666666666666665,2.4444444444444446,0.625,3.2222222222222223,1.5,1.75,2.25,0.0,,,,,,,,,,,,
4,240620_093828,LEARNING,1.0,5,3.0,788.0,,,,,,,,,,5.0,5.0,5.0,cue1.png,Hard,B,,,,,,,,,,,,,,,,,,,,,,,,,,,20,27,Male,0.5347222222222222,0.5470085470085471,0.9107717100181616,0.0001598040813404998,0.4005968640761466,7.897534427106067e-06,0.042251770818193424,-0.0005683270338428074,-1.7619463021817539,0.00025292572208971634,0.4846973650307066,1.452,-0.2525571314423445,1.4640000000000002,-0.05656988555513136,1.2857142857142858,1.0,0.4,0.5,2.5555555555555554,2.75,3.6666666666666665,2.4444444444444446,0.625,3.2222222222222223,1.5,1.75,2.25,0.0,,,,,,,,,,,,
5,240620_093853,LEARNING,1.0,6,1.0,788.0,,,,,,,,,,6.0,6.0,6.0,cue2.png,Easy,B,,,,,,,,,,,,,,,,,,,,,,,,,,,20,27,Male,1.0,1.0,0.6147779846080363,0.00030101346931195056,0.5685479167567349,-5.1691382472710164e-05,-0.32955263058427237,-0.00019605739115007795,-0.8119362010742825,0.00040830499098639186,0.964884865621552,,,1.775,0.3810433400468173,1.2857142857142858,1.0,0.4,0.5,2.5555555555555554,2.75,3.6666666666666665,2.4444444444444446,0.625,3.2222222222222223,1.5,1.75,2.25,0.0,,,,,,,,,,,,
6,240620_093924,LEARNING,1.0,7,3.0,788.0,,,,,,,,,,7.0,7.0,7.0,cue1.png,Hard,B,,,,,,,,,,,,,,,,,,,,,,,,,,,20,27,Male,0.7083333333333333,0.7777777777777778,0.9858986846117588,0.00014099280411355736,0.37822318299220825,0.00016617416077191688,1.0298170661074524,1.8899488751994778e-05,-0.26337896247594167,0.00013829832119765465,0.1304503311475292,,,,,1.2857142857142858,1.0,0.4,0.5,2.5555555555555554,2.75,3.6666666666666665,2.4444444444444446,0.625,3.2222222222222223,1.5,1.75,2.25,0.0,,,,,,,,,,,,
7,240620_093954,LEARNING,1.0,8,3.0,788.0,,,,,,,,,,8.0,8.0,8.0,cue1.png,Hard,B,,,,,,,,,,,,,,,,,,,,,,,,,,,20,27,Male,0.9375,0.9230769230769232,0.9003129666768169,-0.0011192699617679526,-1.1207030656417891,,,,,0.0002444181256870872,0.45840530250767614,,,1.5639999999999998,0.08414176254838872,1.2857142857142858,1.0,0.4,0.5,2.5555555555555554,2.75,3.6666666666666665,2.4444444444444446,0.625,3.2222222222222223,1.5,1.75,2.25,0.0,,,,,,,,,,,,
8,240620_094018,LEARNING,1.0,9,1.0,788.0,,,,,,,,,,9.0,9.0,9.0,cue2.png,Easy,B,,,,,,,,,,,,,,,,,,,,,,,,,,,20,27,Male,1.0,1.0,0.517006107695544,0.00010126013482144539,0.3309661009434634,-0.00010220117266263821,-0.6447079192448093,,,-0.00035957424189731694,-1.4081859578693228,2.551,1.524144566350137,2.463,1.3491394789990392,1.2857142857142858,1.0,0.4,0.5,2.5555555555555554,2.75,3.6666666666666665,2.4444444444444446,0.625,3.2222222222222223,1.5,1.75,2.25,0.0,,,,,,,,,,,,
9,240620_094041,LEARNING,1.0,10,1.0,788.0,,,,,,,,,,10.0,10.0,10.0,cue2.png,Easy,B,,,,,,,,,,,,,,,,,,,,,,,,,,,20,27,Male,1.0,1.0,0.3984328384708183,0.0001729837183876118,0.41627240766293744,-6.93503586988017e-05,-0.43973562142736633,6.923283462546403e-05,-0.13493124201059056,0.00023785243436476224,0.43811454603735994,,,,,1.2857142857142858,1.0,0.4,0.5,2.5555555555555554,2.75,3.6666666666666665,2.4444444444444446,0.625,3.2222222222222223,1.5,1.75,2.25,0.0,,,,,,,,,,,,
10,240620_094112,LEARNING,1.0,11,3.0,788.0,,,,,,,,,,11.0,11.0,11.0,cue1.png,Hard,B,,,,,,,,,,,,,,,,,,,,,,,,,,,20,27,Male,0.8819444444444444,0.811965811965812,0.9802272333375488,-0.00014406276569467425,0.0391849383718385,,,-0.0002579225137545908,-0.9698123334266862,-0.00031551778130400627,-1.2720329057446609,,,0.2144999999999998,-1.8147619286086214,1.2857142857142858,1.0,0.4,0.5,2.5555555555555554,2.75,3.6666666666666665,2.4444444444444446,0.625,3.2222222222222223,1.5,1.75,2.25,0.0,,,,,,,,,,,,
11,240620_094137,LEARNING,1.0,12,1.0,788.0,,,,,,,,,,12.0,12.0,12.0,cue2.png,Easy,B,,,,,,,,,,,,,,,,,,,,,,,,,,,20,27,Male,1.0,0.9230769230769232,0.5435679333556133,-0.00010407707598894967,0.08674295682025464,0.0003318084975123185,2.0632907156956257,-2.24514048864791e-05,-0.3689039963256547,-3.494292021108663e-05,-0.4049382010680361,2.184,0.9308328983884986,,,1.2857142857142858,1.0,0.4,0.5,2.5555555555555554,2.75,3.6666666666666665,2.4444444444444446,0.625,3.2222222222222223,1.5,1.75,2.25,0.0,,,,,,,,,,,,
12,240620_094204,LEARNING,1.0,13,1.0,788.0,,,,,,,,,,13.0,13.0,13.0,cue2.png,Easy,B,,,,,,,,,,,,,,,,,,,,,,,,,,,20,27,Male,0.8819444444444444,0.8888888888888888,0.6394813153803205,-0.0007178303316818947,-0.6432404165274781,9.326297215587597e-05,0.5748884946667964,0.00021191253123331848,0.2291789014326433,2.7120105488178357e-05,-0.21313726519509676,2.212,0.9760991836825746,,,1.2857142857142858,1.0,0.4,0.5,2.5555555555555554,2.75,3.6666666666666665,2.4444444444444446,0.625,3.2222222222222223,1.5,1.75,2.25,0.0,,,,,,,,,,,,
13,240620_094230,LEARNING,1.0,14,1.0,788.0,,,,,,,,,,14.0,14.0,14.0,cue2.png,Easy,B,,,,,,,,,,,,,,,,,,,,,,,,,,,20,27,Male,0.9375,0.9230769230769232,0.6133605833359373,-0.0005140757750801373,-0.40089964328759764,,,0.0004114335582078377,0.7383447566930497,0.0004743832332810274,1.169094514928096,,,-0.195,-2.390976127592538,1.2857142857142858,1.0,0.4,0.5,2.5555555555555554,2.75,3.6666666666666665,2.4444444444444446,0.625,3.2222222222222223,1.5,1.75,2.25,0.0,,,,,,,,,,,,
14,240620_094259,LEARNING,1.0,15,3.0,788.0,,,,,,,,,,15.0,15.0,15.0,cue1.png,Hard,B,,,,,,,,,,,,,,,,,,,,,,,,,,,20,27,Male,1.0,1.0,0.875731484633154,6.148661503551419e-05,0.2836604322990395,-0.00011226462871675525,-0.7074987442657042,0.0005298229036318717,1.040467361165441,7.94576688777195e-05,-0.05139211135638917,,,,,1.2857142857142858,1.0,0.4,0.5,2.5555555555555554,2.75,3.6666666666666665,2.4444444444444446,0.625,3.2222222222222223,1.5,1.75,2.25,0.0,,,,,,,,,,,,
15,240620_094325,LEARNING,1.0,16,1.0,788.0,,,,,,,,,,16.0,16.0,16.0,cue2.png,Easy,B,,,,,,,,,,,,,,,,,,,,,,,,,,,20,27,Male,1.0,1.0,0.5953492076906304,-0.0002554153491700242,-0.09325514852358215,0.00017509459557143179,1.0854760223938955,0.0003902642444739545,0.6843219206239217,-0.0007635800937837315,-2.6567345037529972,,,-0.033999999999999975,-2.16443037414587,1.2857142857142858,1.0,0.4,0.5,2.5555555555555554,2.75,3.6666666666666665,2.4444444444444446,0.625,3.2222222222222223,1.5,1.75,2.25,0.0,,,,,,,,,,,,
16,240620_094350,LEARNING,1.0,17,1.0,788.0,,,,,,,,,,17.0,17.0,17.0,cue2.png,Easy,B,,,,,,,,,,,,,,,,,,,,,,,,,,,20,27,Male,1.0,1.0,0.616837946160768,0.00016718677184089344,0.4093776587454555,-7.027282023918269e-06,-0.050871459730605,2.5432081006508504e-05,-0.24670817357326738,-8.647337314501499e-05,-0.5641890430520575,,,,,1.2857142857142858,1.0,0.4,0.5,2.5555555555555554,2.75,3.6666666666666665,2.4444444444444446,0.625,3.2222222222222223,1.5,1.75,2.25,0.0,,,,,,,,,,,,
17,240620_094419,LEARNING,1.0,18,3.0,788.0,,,,,,,,,,18.0,18.0,18.0,cue1.png,Hard,B,,,,,,,,,,,,,,,,,,,,,,,,,,,20,27,Male,0.5347222222222222,0.6239316239316239,0.7649752818132666,-0.0005587810599662324,-0.4540710348279623,-0.00013682003327039963,-0.8607119249417787,8.722190401852948e-05,-0.08902420132545656,0.00040555909035184644,0.9563988740736705,,,,,1.2857142857142858,1.0,0.4,0.5,2.5555555555555554,2.75,3.6666666666666665,2.4444444444444446,0.625,3.2222222222222223,1.5,1.75,2.25,0.0,,,,,,,,,,,,
18,240620_094448,LEARNING,1.0,19,3.0,788.0,,,,,,,,,,19.0,19.0,19.0,cue1.png,Hard,B,,,,,,,,,,,,,,,,,,,,,,,,,,,20,27,Male,1.0,1.0,0.8232074692272223,9.734461460380976e-05,0.326309075289638,-2.185173825812719e-06,-0.020659178088544162,0.00024662509655127684,0.31776331419560583,-0.00025177598236067553,-1.075043852217089,0.512,-1.7722109948863227,,,1.2857142857142858,1.0,0.4,0.5,2.5555555555555554,2.75,3.6666666666666665,2.4444444444444446,0.625,3.2222222222222223,1.5,1.75,2.25,0.0,,,,,,,,,,,,
19,240620_094517,LEARNING,1.0,20,3.0,788.0,,,,,,,,,,20.0,20.0,20.0,cue1.png,Hard,B,,,,,,,,,,,,,,,,,,,,,,,,,,,20,27,Male,0.7916666666666666,0.811965811965812,0.8619274333468638,,,,,0.0001765682501984958,0.13898238753860684,0.0005484159293370917,1.3978867826070172,-0.10599999999999987,-2.7713025774484277,2.344,1.1816926177558493,1.2857142857142858,1.0,0.4,0.5,2.5555555555555554,2.75,3.6666666666666665,2.4444444444444446,0.625,3.2222222222222223,1.5,1.75,2.25,0.0,,,,,,,,,,,,
20,240620_094543,LEARNING,1.0,21,1.0,788.0,,,,,,,,,,21.0,21.0,21.0,cue2.png,Easy,B,,,,,,,,,,,,,,,,,,,,,,,,,,,20,27,Male,0.8819444444444444,0.8888888888888888,0.6364797307626129,,,,,-0.00026632249658302756,-0.9912485925812661,0.0002903707397579631,0.6004182689284605,1.957,0.5638526568972398,1.632,0.17982568325878281,1.2857142857142858,1.0,0.4,0.5,2.5555555555555554,2.75,3.6666666666666665,2.4444444444444446,0.625,3.2222222222222223,1.5,1.75,2.25,0.0,,,,,,,,,,,,
21,240620_094613,LEARNING,1.0,22,3.0,788.0,,,,,,,,,,22.0,22.0,22.0,cue1.png,Hard,B,,,,,,,,,,,,,,,,,,,,,,,,,,,20,27,Male,0.8819444444444444,0.8888888888888888,0.8866397769262011,-0.0037304709135034912,-4.226402728423438,-0.00014697571632360735,-0.9240781993243008,,,0.00018941399249611246,0.2884193228677292,2.4739999999999998,1.3996622817914275,1.7820000000000003,0.39089315541406416,1.2857142857142858,1.0,0.4,0.5,2.5555555555555554,2.75,3.6666666666666665,2.4444444444444446,0.625,3.2222222222222223,1.5,1.75,2.25,0.0,,,,,,,,,,,,
22,240620_094642,LEARNING,1.0,23,3.0,788.0,,,,,,,,,,23.0,23.0,23.0,cue1.png,Hard,B,,,,,,,,,,,,,,,,,,,,,,,,,,,20,27,Male,0.875,0.8461538461538461,0.8475982181685553,,,,,0.0002836782445903461,0.4123207555715093,-0.0005745143290518846,-2.072441517574422,2.152,0.8791000009095546,1.1320000000000001,-0.5237325572588198,1.2857142857142858,1.0,0.4,0.5,2.5555555555555554,2.75,3.6666666666666665,2.4444444444444446,0.625,3.2222222222222223,1.5,1.75,2.25,0.0,,,,,,,,,,,,
23,240620_094713,LEARNING,1.0,24,3.0,788.0,,,,,,,,,,24.0,24.0,24.0,cue1.png,Hard,B,,,,,,,,,,,,,,,,,,,,,,,,,,,20,27,Male,0.8819444444444444,0.811965811965812,0.9739731583395042,,,-6.661054240379195e-05,-0.42264056733817273,0.00015054825297913885,0.07258089422753218,-0.0001769877318460707,-0.8439166024676312,1.597,-0.018142439740879684,1.4490000000000003,-0.07767663277065931,1.2857142857142858,1.0,0.4,0.5,2.5555555555555554,2.75,3.6666666666666665,2.4444444444444446,0.625,3.2222222222222223,1.5,1.75,2.25,0.0,,,,,,,,,,,,
24,240620_094739,LEARNING,1.0,25,1.0,788.0,,,,,,,,,,25.0,25.0,25.0,cue2.png,Easy,B,,,,,,,,,,,,,,,,,,,,,,,,,,,20,27,Male,1.0,1.0,0.6093741230792008,0.00017371024103816305,0.4171365162445924,,,-0.00011568846997192603,-0.6068394696242386,0.00014100984951478848,0.1388300977317807,2.035,0.6899515945021658,1.303,-0.28311563900179987,1.2857142857142858,1.0,0.4,0.5,2.5555555555555554,2.75,3.6666666666666665,2.4444444444444446,0.625,3.2222222222222223,1.5,1.75,2.25,0.0,,,,,,,,,,,,
25,240620_094804,LEARNING,1.0,26,1.0,788.0,,,,,,,,,,26.0,26.0,26.0,cue2.png,Easy,B,,,,,,,,,,,,,,,,,,,,,,,,,,,20,27,Male,1.0,1.0,0.5823953999654174,0.0002475158513551268,0.5049191355487245,-0.00023562029061171804,-1.4771750602083262,,,,,1.4100000000000001,-0.3204565593834581,0.7330000000000001,-1.0851720331918668,1.2857142857142858,1.0,0.4,0.5,2.5555555555555554,2.75,3.6666666666666665,2.4444444444444446,0.625,3.2222222222222223,1.5,1.75,2.25,0.0,,,,,,,,,,,,
26,240620_094834,LEARNING,1.0,27,3.0,788.0,,,,,,,,,,27.0,27.0,27.0,cue1.png,Hard,B,,,,,,,,,,,,,,,,,,,,,,,,,,,20,27,Male,0.7916666666666666,0.735042735042735,0.8409205909014087,3.55286745038581e-05,0.25278668162041484,-0.00015928722039626128,-1.0008956956012172,,,,,1.2049999999999998,-0.6518704338579432,1.089,-0.5842385659433339,1.2857142857142858,1.0,0.4,0.5,2.5555555555555554,2.75,3.6666666666666665,2.4444444444444446,0.625,3.2222222222222223,1.5,1.75,2.25,0.0,,,,,,,,,,,,
27,240620_094900,LEARNING,1.0,28,1.0,788.0,,,,,,,,,,28.0,28.0,28.0,cue2.png,Easy,B,,,,,,,,,,,,,,,,,,,,,,,,,,,20,27,Male,1.0,1.0,0.6750823461558096,0.00019831362503990816,0.44639918993759975,-0.0001570925365439635,-0.9872019894822904,,,,,1.577,-0.05047550066521968,0.9859999999999998,-0.7291715634899604,1.2857142857142858,1.0,0.4,0.5,2.5555555555555554,2.75,3.6666666666666665,2.4444444444444446,0.625,3.2222222222222223,1.5,1.75,2.25,0.0,,,,,,,,,,,,
28,240620_094926,LEARNING,1.0,29,1.0,788.0,,,,,,,,,,29.0,29.0,29.0,cue2.png,Easy,B,,,,,,,,,,,,,,,,,,,,,,,,,,,20,27,Male,1.0,1.0,0.5811164461774752,,,-0.00027585975412374765,-1.7282487568321472,-0.00046632669198687707,-1.5016474650844427,-0.00020267733425783502,-0.9233083132207611,1.9549999999999998,0.5606193508048055,2.399,1.2590840242127859,1.2857142857142858,1.0,0.4,0.5,2.5555555555555554,2.75,3.6666666666666665,2.4444444444444446,0.625,3.2222222222222223,1.5,1.75,2.25,0.0,,,,,,,,,,,,
29,240620_094957,LEARNING,1.0,30,3.0,788.0,,,,,,,,,,30.0,30.0,30.0,cue1.png,Hard,B,,,,,,,,,,,,,,,,,,,,,,,,,,,20,27,Male,0.7916666666666666,0.735042735042735,0.9695482272443108,4.8192215106450734e-05,0.26784839249829784,-0.0001575591228378439,-0.9901132496079016,0.00010312796260466672,-0.048432880968695385,0.00018409033677020334,0.27196698044661527,1.444,-0.26549035581208047,1.5499999999999998,0.06444213181389583,1.2857142857142858,1.0,0.4,0.5,2.5555555555555554,2.75,3.6666666666666665,2.4444444444444446,0.625,3.2222222222222223,1.5,1.75,2.25,0.0,,,,,,,,,,,,
30,240620_095028,LEARNING,1.0,31,3.0,788.0,,,,,,,,,,31.0,31.0,31.0,cue1.png,Hard,B,,,,,,,,,,,,,,,,,,,,,,,,,,,20,27,Male,0.875,0.7692307692307692,0.9592537199961952,0.00026223702883302865,0.5224281502794679,8.828772747771375e-05,0.5438455093998396,0.00044023022247210563,0.8118321400084697,-1.1283495681967647e-05,-0.3318205965720964,0.6609999999999998,-1.5313296909999903,,,1.2857142857142858,1.0,0.4,0.5,2.5555555555555554,2.75,3.6666666666666665,2.4444444444444446,0.625,3.2222222222222223,1.5,1.75,2.25,0.0,,,,,,,,,,,,
31,240620_095054,LEARNING,1.0,32,1.0,788.0,,,,,,,,,,32.0,32.0,32.0,cue2.png,Easy,B,,,,,,,,,,,,,,,,,,,,,,,,,,,20,27,Male,1.0,1.0,0.6106426769312328,-5.0718287086596626e-05,0.1502066180870489,0.00044785111420452776,2.787337365326133,-0.00012740081401244312,-0.6367286786009728,-0.00021174644280293198,-0.9513356851847334,1.814,0.33267127128820906,1.105,-0.5617247022467705,1.2857142857142858,1.0,0.4,0.5,2.5555555555555554,2.75,3.6666666666666665,2.4444444444444446,0.625,3.2222222222222223,1.5,1.75,2.25,0.0,,,,,,,,,,,,
32,240620_095119,LEARNING,1.0,33,1.0,788.0,,,,,,,,,,33.0,33.0,33.0,cue2.png,Easy,B,,,,,,,,,,,,,,,,,,,,,,,,,,,20,27,Male,1.0,1.0,0.61904258460093,0.00020433077728022322,0.45355584621532957,,,-0.0003897888406712074,-1.3063273972405975,,,,,1.6840000000000002,0.2529957402726139,1.2857142857142858,1.0,0.4,0.5,2.5555555555555554,2.75,3.6666666666666665,2.4444444444444446,0.625,3.2222222222222223,1.5,1.75,2.25,0.0,,,,,,,,,,,,
33,240620_095144,LEARNING,1.0,34,1.0,788.0,,,,,,,,,,34.0,34.0,34.0,cue2.png,Easy,B,,,,,,,,,,,,,,,,,,,,,,,,,,,20,27,Male,1.0,1.0,0.5505485230913529,0.0005154214328735216,0.8235595962248695,-1.610412540095727e-05,-0.10750632564195922,0.0008454528813073466,1.845936388494977,0.00013471364564367292,0.11937217119145271,2.2289999999999996,1.0035822854682628,-0.121,-2.286849507995933,1.2857142857142858,1.0,0.4,0.5,2.5555555555555554,2.75,3.6666666666666665,2.4444444444444446,0.625,3.2222222222222223,1.5,1.75,2.25,0.0,,,,,,,,,,,,
34,240620_095215,LEARNING,1.0,35,3.0,788.0,,,,,,,,,,35.0,35.0,35.0,cue1.png,Hard,B,,,,,,,,,,,,,,,,,,,,,,,,,,,20,27,Male,1.0,0.9230769230769232,0.9390414583322126,,,-0.00010393288921020259,-0.6555129458816991,,,,,1.474,-0.21699076442557047,1.6980000000000002,0.2726953710071068,1.2857142857142858,1.0,0.4,0.5,2.5555555555555554,2.75,3.6666666666666665,2.4444444444444446,0.625,3.2222222222222223,1.5,1.75,2.25,0.0,,,,,,,,,,,,
35,240620_095245,LEARNING,1.0,36,3.0,788.0,,,,,,,,,,36.0,36.0,36.0,cue1.png,Hard,B,,,,,,,,,,,,,,,,,,,,,,,,,,,20,27,Male,1.0,1.0,0.9521845923020288,,,0.000238297516805958,1.4798299646881998,0.00024016712831810214,0.30128296137991556,,,1.9809999999999999,0.6026523300064475,1.5499999999999998,0.06444213181389583,1.2857142857142858,1.0,0.4,0.5,2.5555555555555554,2.75,3.6666666666666665,2.4444444444444446,0.625,3.2222222222222223,1.5,1.75,2.25,0.0,,,,,,,,,,,,
36,240620_095308,LEARNING,1.0,37,1.0,788.0,,,,,,,,,,37.0,37.0,37.0,cue2.png,Easy,B,,,,,,,,,,,,,,,,,,,,,,,,,,,20,27,Male,1.0,1.0,0.4473540999998266,-5.710550081848304e-05,0.14260981956411278,-5.538415950960551e-06,-0.041581695998950535,-0.0003369819651001249,-1.1715673753446902,-3.807730415926729e-05,-0.41462476996912806,1.6640000000000001,0.09017331435565948,2.498,1.3983885558352716,1.2857142857142858,1.0,0.4,0.5,2.5555555555555554,2.75,3.6666666666666665,2.4444444444444446,0.625,3.2222222222222223,1.5,1.75,2.25,0.0,,,,,,,,,,,,
37,240620_095341,LEARNING,1.0,38,3.0,788.0,,,,,,,,,,38.0,38.0,38.0,cue1.png,Hard,B,,,,,,,,,,,,,,,,,,,,,,,,,,,20,27,Male,0.875,0.6153846153846154,1.025328024974442,0.000995602386316326,1.3946752831237639,-1.6915472404814644e-05,-0.11256871648229022,-0.0002522769333909826,-0.9554051463854676,-0.00012222049920832673,-0.6746627454934184,1.363,-0.39643925255565726,2.231,1.022688455398871,1.2857142857142858,1.0,0.4,0.5,2.5555555555555554,2.75,3.6666666666666665,2.4444444444444446,0.625,3.2222222222222223,1.5,1.75,2.25,0.0,,,,,,,,,,,,
38,240620_095410,LEARNING,1.0,39,3.0,788.0,,,,,,,,,,39.0,39.0,39.0,cue1.png,Hard,B,,,,,,,,,,,,,,,,,,,,,,,,,,,20,27,Male,1.0,1.0,0.913367884609705,0.0001097650615020521,0.3410816563572997,9.067887629644498e-05,0.5587650565483013,0.0002617662258420205,0.35640258025108,0.00019156713845622318,0.2950734523686241,1.427,-0.29297345759776927,0.859,-0.9078753565814311,1.2857142857142858,1.0,0.4,0.5,2.5555555555555554,2.75,3.6666666666666665,2.4444444444444446,0.625,3.2222222222222223,1.5,1.75,2.25,0.0,,,,,,,,,,,,
39,240620_095440,LEARNING,1.0,40,3.0,788.0,,,,,,,,,,40.0,40.0,40.0,cue1.png,Hard,B,,,,,,,,,,,,,,,,,,,,,,,,,,,20,27,Male,1.0,1.0,0.9376654461599312,0.0001643598484270428,0.4060153839702146,1.6117069633489467e-05,0.09353747168692826,-0.0002524040545237565,-0.9557295519946005,0.00028069104120870617,0.5705039162233297,1.4760000000000002,-0.2137574583331361,1.7600000000000002,0.35993659283128965,1.2857142857142858,1.0,0.4,0.5,2.5555555555555554,2.75,3.6666666666666665,2.4444444444444446,0.625,3.2222222222222223,1.5,1.75,2.25,0.0,,,,,,,,,,,,
40,240620_095504,LEARNING,1.0,41,1.0,788.0,,,,,,,,,,41.0,41.0,41.0,cue2.png,Easy,B,,,,,,,,,,,,,,,,,,,,,,,,,,,20,27,Male,1.0,1.0,0.4519337615392242,-7.558440470627984e-05,0.12063145534256149,-8.49588755303483e-06,-0.060034808018467875,0.0011006542327302296,2.497195137165303,0.00026298695420369674,0.5157908174325795,1.681,0.1176564161413483,1.2150000000000003,-0.40694188933289743,1.2857142857142858,1.0,0.4,0.5,2.5555555555555554,2.75,3.6666666666666665,2.4444444444444446,0.625,3.2222222222222223,1.5,1.75,2.25,0.0,,,,,,,,,,,,
41,240620_095535,LEARNING,1.0,42,3.0,788.0,,,,,,,,,,42.0,42.0,42.0,cue1.png,Hard,B,,,,,,,,,,,,,,,,,,,,,,,,,,,20,27,Male,0.9375,0.6923076923076923,0.9346944777708914,-3.931109399545399e-06,0.20585416289534936,5.739600139405493e-05,0.35109691918575686,6.72400647153508e-05,-0.14001667290980896,,,2.037,0.6931849005945995,,,1.2857142857142858,1.0,0.4,0.5,2.5555555555555554,2.75,3.6666666666666665,2.4444444444444446,0.625,3.2222222222222223,1.5,1.75,2.25,0.0,,,,,,,,,,,,
42,240620_095605,LEARNING,1.0,43,3.0,788.0,,,,,,,,,,43.0,43.0,43.0,cue1.png,Hard,B,,,,,,,,,,,,,,,,,,,,,,,,,,,20,27,Male,1.0,0.8461538461538461,0.8269675000232052,0.0006811124601303446,1.0206285223584326,,,,,0.0001523124774423729,0.1737599869840217,2.741,1.8313086451313665,2.2830000000000004,1.0958585124127025,1.2857142857142858,1.0,0.4,0.5,2.5555555555555554,2.75,3.6666666666666665,2.4444444444444446,0.625,3.2222222222222223,1.5,1.75,2.25,0.0,,,,,,,,,,,,
43,240620_095628,LEARNING,1.0,44,1.0,788.0,,,,,,,,,,44.0,44.0,44.0,cue2.png,Easy,B,,,,,,,,,,,,,,,,,,,,,,,,,,,20,27,Male,1.0,1.0,0.4770329307872228,,,0.000349286157592344,2.172342386409743,0.0008190525165214391,1.778564219660261,-0.0003594430820123987,-1.407780618484192,1.273,-0.5419380267151872,2.665,1.6333770081681507,1.2857142857142858,1.0,0.4,0.5,2.5555555555555554,2.75,3.6666666666666665,2.4444444444444446,0.625,3.2222222222222223,1.5,1.75,2.25,0.0,,,,,,,,,,,,
44,240620_095652,LEARNING,1.0,45,1.0,788.0,,,,,,,,,,45.0,45.0,45.0,cue2.png,Easy,B,,,,,,,,,,,,,,,,,,,,,,,,,,,20,27,Male,1.0,1.0,0.4320359692299881,2.7914169513157394e-05,0.24373017236701922,0.00016197609559455818,1.0036232839156973,0.0008830872847250867,1.9419771592046025,0.0005861935317326818,1.5146355136408602,1.266,-0.553254598038706,1.75,0.3458654280209372,1.2857142857142858,1.0,0.4,0.5,2.5555555555555554,2.75,3.6666666666666665,2.4444444444444446,0.625,3.2222222222222223,1.5,1.75,2.25,0.0,,,,,,,,,,,,
45,240620_095715,LEARNING,1.0,46,1.0,788.0,,,,,,,,,,46.0,46.0,46.0,cue2.png,Easy,B,,,,,,,,,,,,,,,,,,,,,,,,,,,20,27,Male,1.0,1.0,0.4390727384642769,,,0.00017259647271775612,1.0698890119133684,0.00031159809599947894,0.48357056436128704,,,1.035,-0.9267014517148329,1.4849999999999999,-0.02702043945339248,1.2857142857142858,1.0,0.4,0.5,2.5555555555555554,2.75,3.6666666666666665,2.4444444444444446,0.625,3.2222222222222223,1.5,1.75,2.25,0.0,,,,,,,,,,,,
46,240620_095745,LEARNING,1.0,47,3.0,788.0,,,,,,,,,,47.0,47.0,47.0,cue1.png,Hard,B,,,,,,,,,,,,,,,,,,,,,,,,,,,20,27,Male,1.0,1.0,0.9340703461247568,,,,,-0.0004884849453871305,-1.558194016666987,0.00044817546035106313,1.08810143864029,0.8519999999999999,-1.2225489591725436,1.927,0.5949250451641688,1.2857142857142858,1.0,0.4,0.5,2.5555555555555554,2.75,3.6666666666666665,2.4444444444444446,0.625,3.2222222222222223,1.5,1.75,2.25,0.0,,,,,,,,,,,,
47,240620_095815,LEARNING,1.0,48,3.0,788.0,,,,,,,,,,48.0,48.0,48.0,cue1.png,Hard,B,,,,,,,,,,,,,,,,,,,,,,,,,,,20,27,Male,1.0,1.0,0.9423701769421592,0.0001896545451235722,0.43610028836961057,-9.95357815930264e-05,-0.6280772405431538,,,,,0.542,-1.7237114034998129,2.267,1.0733446487161384,1.2857142857142858,1.0,0.4,0.5,2.5555555555555554,2.75,3.6666666666666665,2.4444444444444446,0.625,3.2222222222222223,1.5,1.75,2.25,0.0,,,,,,,,,,,,
48,240620_095840,LEARNING,1.0,49,1.0,788.0,,,,,,,,,,49.0,49.0,49.0,cue2.png,Easy,B,,,,,,,,,,,,,,,,,,,,,,,,,,,20,27,Male,1.0,1.0,0.5195445999986708,-0.0018862564280358743,-2.03293833733283,,,,,,,,,,,1.2857142857142858,1.0,0.4,0.5,2.5555555555555554,2.75,3.6666666666666665,2.4444444444444446,0.625,3.2222222222222223,1.5,1.75,2.25,0.0,,,,,,,,,,,,
49,240620_095903,LEARNING,1.0,50,1.0,788.0,,,,,,,,,,50.0,50.0,50.0,cue2.png,Easy,B,,,,,,,,,,,,,,,,,,,,,,,,,,,20,27,Male,1.0,1.0,0.4636684230689962,0.00029888146460737034,0.566012161594857,9.457928193725481e-06,0.05198783081950987,,,,,2.603,1.608210524753421,1.9600000000000002,0.6413598890383307,1.2857142857142858,1.0,0.4,0.5,2.5555555555555554,2.75,3.6666666666666665,2.4444444444444446,0.625,3.2222222222222223,1.5,1.75,2.25,0.0,,,,,,,,,,,,
0,240620_100055,TrueCHOICE,9.0,1,1.0,788.0,,,,,,,,,,,1.0,1.0,,,B,,,,,,True,cue2.png,Easy,cue1.png,Hard,Left,Easy,Easy,0.0159647000255063,,,,,,,,,,,,,20,27,Male,1.0,1.0,0.7322460538349472,,,,,,,,,,,,,1.2857142857142858,1.0,0.4,0.5,2.5555555555555554,2.75,3.6666666666666665,2.4444444444444446,0.625,3.2222222222222223,1.5,1.75,2.25,0.0,,,,,,,,,,,,
1,240620_100117,TrueCHOICE,9.0,2,1.0,788.0,,,,,,,,,,,2.0,2.0,,,B,,,,,,True,cue2.png,Easy,cue1.png,Hard,Left,Easy,Easy,0.0160964999813586,,,,,,,,,,,,,20,27,Male,,,,,,,,,,,,,,,,1.2857142857142858,1.0,0.4,0.5,2.5555555555555554,2.75,3.6666666666666665,2.4444444444444446,0.625,3.2222222222222223,1.5,1.75,2.25,0.0,0.0009425154639600827,0.9836402866806642,-0.0006957509213298715,-1.4785062256602093,1.463,0.8484465674101898,,,,,,
2,240620_100143,TrueCHOICE,9.0,3,3.0,788.0,,,,,,,,,,,3.0,3.0,,,B,,,,,,True,cue1.png,Hard,cue2.png,Easy,Left,Hard,Hard,0.0164359000045806,,,,,,,,,,,,,20,27,Male,1.0,1.0,0.7634249615232245,,,,,,,,,,,,,1.2857142857142858,1.0,0.4,0.5,2.5555555555555554,2.75,3.6666666666666665,2.4444444444444446,0.625,3.2222222222222223,1.5,1.75,2.25,0.0,,,,,1.457,0.8012012829140307,,,,,,
3,240620_100211,TrueCHOICE,9.0,4,3.0,788.0,,,,,,,,,,,4.0,4.0,,,B,,,,,,True,cue2.png,Easy,cue1.png,Hard,Right,Hard,Hard,0.0170073999324813,,,,,,,,,,,,,20,27,Male,1.0,1.0,0.8827013692442471,,,,,,,,,,,,,1.2857142857142858,1.0,0.4,0.5,2.5555555555555554,2.75,3.6666666666666665,2.4444444444444446,0.625,3.2222222222222223,1.5,1.75,2.25,0.0,0.00026930537947459244,0.3511275333858245,0.0005200548342901381,0.9422783948074034,,,,,,,,
4,240620_100239,TrueCHOICE,9.0,5,3.0,788.0,,,,,,,,,,,5.0,5.0,,,B,,,,,,True,cue1.png,Hard,cue2.png,Easy,Left,Hard,Hard,0.0162070000078529,,,,,,,,,,,,,20,27,Male,1.0,1.0,0.7906602769284151,,,,,,,,,,,,,1.2857142857142858,1.0,0.4,0.5,2.5555555555555554,2.75,3.6666666666666665,2.4444444444444446,0.625,3.2222222222222223,1.5,1.75,2.25,0.0,0.0004144600645526451,0.4875072336134779,-0.00013227509261230352,-0.3565723856043843,,,,,,,,
5,240620_100301,TrueCHOICE,9.0,6,1.0,788.0,,,,,,,,,,,6.0,6.0,,,B,,,,,,True,cue1.png,Hard,cue2.png,Easy,Right,Easy,Easy,0.016588500002399,,,,,,,,,,,,,20,27,Male,0.9375,0.9230769230769232,0.9875014083324156,,,,,,,,,,,,,1.2857142857142858,1.0,0.4,0.5,2.5555555555555554,2.75,3.6666666666666665,2.4444444444444446,0.625,3.2222222222222223,1.5,1.75,2.25,0.0,0.00012735454075135611,0.21775799852217803,0.0006912739172400227,1.2831918349845965,,,,,,,,
6,240620_100327,TrueCHOICE,9.0,7,3.0,788.0,,,,,,,,,,,7.0,7.0,,,B,,,,,,True,cue2.png,Easy,cue1.png,Hard,Right,Hard,Hard,0.0167728000087663,,,,,,,,,,,,,20,27,Male,,,,,,,,,,,,,,,,1.2857142857142858,1.0,0.4,0.5,2.5555555555555554,2.75,3.6666666666666665,2.4444444444444446,0.625,3.2222222222222223,1.5,1.75,2.25,0.0,1.014975842491021e-05,0.10763855545816008,-0.0001492603368553544,-0.3903916185274061,,,,,,,,
7,240620_100401,TrueCHOICE,9.0,8,3.0,788.0,,,,,,,,,,,9.0,8.0,,,B,,,,,,True,cue1.png,Hard,cue2.png,Easy,Left,Hard,Hard,0.0149204999906942,,,,,,,,,,,,,20,27,Male,0.9375,0.8461538461538461,0.8745343909196724,,,,,,,,,,,,,1.2857142857142858,1.0,0.4,0.5,2.5555555555555554,2.75,3.6666666666666665,2.4444444444444446,0.625,3.2222222222222223,1.5,1.75,2.25,0.0,,,,,1.1489999999999998,-1.6240566545554695,,,,,,
8,240620_100423,TrueCHOICE,9.0,9,1.0,788.0,,,,,,,,,,,10.0,9.0,,,B,,,,,,True,cue2.png,Easy,cue1.png,Hard,Left,Easy,Easy,0.0166806998895481,,,,,,,,,,,,,20,27,Male,1.0,1.0,0.5087324461469857,,,,,,,,,,,,,1.2857142857142858,1.0,0.4,0.5,2.5555555555555554,2.75,3.6666666666666665,2.4444444444444446,0.625,3.2222222222222223,1.5,1.75,2.25,0.0,-0.00239027226871203,-2.1476716076603046,,,,,,,,,,
9,240620_100445,TrueCHOICE,9.0,10,1.0,788.0,,,,,,,,,,,11.0,10.0,,,B,,,,,,True,cue1.png,Hard,cue2.png,Easy,Right,Easy,Easy,0.0172310000052675,,,,,,,,,,,,,20,27,Male,0.8819444444444444,0.8888888888888888,0.4581382615366377,,,,,,,,,,,,,1.2857142857142858,1.0,0.4,0.5,2.5555555555555554,2.75,3.6666666666666665,2.4444444444444446,0.625,3.2222222222222223,1.5,1.75,2.25,0.0,,,,,1.3520000000000003,-0.025591195768750876,,,,,,
0,240620_100638,FalseCHOICE,9.0,1,2.0,788.0,,,,,,,,,,,1.0,1.0,,,B,,,,,,False,cue2.png,Easy,cue1.png,Hard,Right,Hard,Mid,0.0166818000143393,,,,,,,,,,,,,20,27,Male,1.0,1.0,0.4231156000079444,,,,,,,,,,,,,1.2857142857142858,1.0,0.4,0.5,2.5555555555555554,2.75,3.6666666666666665,2.4444444444444446,0.625,3.2222222222222223,1.5,1.75,2.25,0.0,,,,,,,,,,,,
1,240620_100705,FalseCHOICE,9.0,2,2.0,788.0,,,,,,,,,,,2.0,2.0,,,B,,,,,,False,cue1.png,Hard,cue2.png,Easy,Left,Hard,Mid,0.01624239992816,,,,,,,,,,,,,20,27,Male,,,,,,,,,,,,,,,,1.2857142857142858,1.0,0.4,0.5,2.5555555555555554,2.75,3.6666666666666665,2.4444444444444446,0.625,3.2222222222222223,1.5,1.75,2.25,0.0,0.0009425154639600827,0.9836402866806642,-0.0006957509213298715,-1.4785062256602093,1.463,0.8484465674101898,,,,,,
2,240620_100731,FalseCHOICE,9.0,3,2.0,788.0,,,,,,,,,,,3.0,3.0,,,B,,,,,,False,cue1.png,Hard,cue2.png,Easy,Right,Easy,Mid,0.0164242999162524,,,,,,,,,,,,,20,27,Male,,,,,,,,,,,,,,,,1.2857142857142858,1.0,0.4,0.5,2.5555555555555554,2.75,3.6666666666666665,2.4444444444444446,0.625,3.2222222222222223,1.5,1.75,2.25,0.0,,,,,1.457,0.8012012829140307,,,,,,
3,240620_100756,FalseCHOICE,9.0,4,2.0,788.0,,,,,,,,,,,4.0,4.0,,,B,,,,,,False,cue1.png,Hard,cue2.png,Easy,Left,Hard,Mid,0.0157009001122787,,,,,,,,,,,,,20,27,Male,1.0,1.0,0.7032543000174113,,,,,,,,,,,,,1.2857142857142858,1.0,0.4,0.5,2.5555555555555554,2.75,3.6666666666666665,2.4444444444444446,0.625,3.2222222222222223,1.5,1.75,2.25,0.0,0.00026930537947459244,0.3511275333858245,0.0005200548342901381,0.9422783948074034,,,,,,,,
4,240620_100822,FalseCHOICE,9.0,5,2.0,788.0,,,,,,,,,,,5.0,5.0,,,B,,,,,,False,cue2.png,Easy,cue1.png,Hard,Right,Hard,Mid,0.0165113999973982,,,,,,,,,,,,,20,27,Male,,,,,,,,,,,,,,,,1.2857142857142858,1.0,0.4,0.5,2.5555555555555554,2.75,3.6666666666666665,2.4444444444444446,0.625,3.2222222222222223,1.5,1.75,2.25,0.0,0.0004144600645526451,0.4875072336134779,-0.00013227509261230352,-0.3565723856043843,,,,,,,,
5,240620_100849,FalseCHOICE,9.0,6,2.0,788.0,,,,,,,,,,,6.0,6.0,,,B,,,,,,False,cue1.png,Hard,cue2.png,Easy,Left,Hard,Mid,0.0163209999445825,,,,,,,,,,,,,20,27,Male,0.5347222222222222,0.7008547008547008,0.8357444833188007,,,,,,,,,,,,,1.2857142857142858,1.0,0.4,0.5,2.5555555555555554,2.75,3.6666666666666665,2.4444444444444446,0.625,3.2222222222222223,1.5,1.75,2.25,0.0,0.00012735454075135611,0.21775799852217803,0.0006912739172400227,1.2831918349845965,,,,,,,,
6,240620_100916,FalseCHOICE,9.0,7,2.0,788.0,,,,,,,,,,,7.0,7.0,,,B,,,,,,False,cue1.png,Hard,cue2.png,Easy,Right,Easy,Mid,0.0168204999063164,,,,,,,,,,,,,20,27,Male,1.0,0.9230769230769232,0.7759070416796021,,,,,,,,,,,,,1.2857142857142858,1.0,0.4,0.5,2.5555555555555554,2.75,3.6666666666666665,2.4444444444444446,0.625,3.2222222222222223,1.5,1.75,2.25,0.0,1.014975842491021e-05,0.10763855545816008,-0.0001492603368553544,-0.3903916185274061,,,,,,,,
7,240620_100944,FalseCHOICE,9.0,8,2.0,788.0,,,,,,,,,,,8.0,8.0,,,B,,,,,,False,cue2.png,Easy,cue1.png,Hard,Right,Hard,Mid,0.0168244000524282,,,,,,,,,,,,,20,27,Male,,,,,,,,,,,,,,,,1.2857142857142858,1.0,0.4,0.5,2.5555555555555554,2.75,3.6666666666666665,2.4444444444444446,0.625,3.2222222222222223,1.5,1.75,2.25,0.0,,,,,1.1489999999999998,-1.6240566545554695,,,,,,
8,240620_101011,FalseCHOICE,9.0,9,2.0,788.0,,,,,,,,,,,9.0,9.0,,,B,,,,,,False,cue2.png,Easy,cue1.png,Hard,Right,Hard,Mid,0.0169920000480487,,,,,,,,,,,,,20,27,Male,1.0,0.9230769230769232,0.9528285583364776,,,,,,,,,,,,,1.2857142857142858,1.0,0.4,0.5,2.5555555555555554,2.75,3.6666666666666665,2.4444444444444446,0.625,3.2222222222222223,1.5,1.75,2.25,0.0,-0.00239027226871203,-2.1476716076603046,,,,,,,,,,
9,240620_101039,FalseCHOICE,9.0,10,2.0,788.0,,,,,,,,,,,10.0,10.0,,,B,,,,,,False,cue1.png,Hard,cue2.png,Easy,Right,Easy,Mid,0.0163134000031277,,,,,,,,,,,,,20,27,Male,,,,,,,,,,,,,,,,1.2857142857142858,1.0,0.4,0.5,2.5555555555555554,2.75,3.6666666666666665,2.4444444444444446,0.625,3.2222222222222223,1.5,1.75,2.25,0.0,,,,,1.3520000000000003,-0.025591195768750876,,,,,,
0,240620_093540,OFFLINERATING,9.0,1,1.0,,,,,,,,,,,,,,,,,T0,cue2.png,Easy,33.0,2.6591432999121025,,,,,,,,,,,,,,,,,,,,,,20,27,Male,,,,,,,,,,,,,,,,1.2857142857142858,1.0,0.4,0.5,2.5555555555555554,2.75,3.6666666666666665,2.4444444444444446,0.625,3.2222222222222223,1.5,1.75,2.25,0.0,,,,,,,,,0.0002759086353318462,0.9004681135468169,,
1,240620_093547,OFFLINERATING,9.0,2,3.0,,,,,,,,,,,,,,,,,T0,cue1.png,Hard,49.0,1.5768748000264168,,,,,,,,,,,,,,,,,,,,,,20,27,Male,,,,,,,,,,,,,,,,1.2857142857142858,1.0,0.4,0.5,2.5555555555555554,2.75,3.6666666666666665,2.4444444444444446,0.625,3.2222222222222223,1.5,1.75,2.25,0.0,,,,,,,0.00020053930325295228,1.6417047723407066,,,,
2,240620_095941,OFFLINERATING,9.0,3,1.0,,,,,,,,,,,,,,,,,T1,cue2.png,Easy,60.0,0.8242758000269532,,,,,,,,,,,,,,,,,,,,,,20,27,Male,,,,,,,,,,,,,,,,1.2857142857142858,1.0,0.4,0.5,2.5555555555555554,2.75,3.6666666666666665,2.4444444444444446,0.625,3.2222222222222223,1.5,1.75,2.25,0.0,,,,,,,,,,,,
3,240620_095948,OFFLINERATING,9.0,4,3.0,,,,,,,,,,,,,,,,,T1,cue1.png,Hard,57.0,0.9184518000110984,,,,,,,,,,,,,,,,,,,,,,20,27,Male,,,,,,,,,,,,,,,,1.2857142857142858,1.0,0.4,0.5,2.5555555555555554,2.75,3.6666666666666665,2.4444444444444446,0.625,3.2222222222222223,1.5,1.75,2.25,0.0,,,,,,,,,,,1.1260000000000001,-1.3961244865917581
4,240620_100505,OFFLINERATING,9.0,5,1.0,,,,,,,,,,,,,,,,,T2,cue2.png,Easy,77.0,0.9180365999927744,,,,,,,,,,,,,,,,,,,,,,20,27,Male,,,,,,,,,,,,,,,,1.2857142857142858,1.0,0.4,0.5,2.5555555555555554,2.75,3.6666666666666665,2.4444444444444446,0.625,3.2222222222222223,1.5,1.75,2.25,0.0,,,,,,,-7.052644682040837e-06,-0.7211642646572158,,,1.595,0.8933244092527673
5,240620_100512,OFFLINERATING,9.0,6,3.0,,,,,,,,,,,,,,,,,T2,cue1.png,Hard,76.0,1.1518843999365345,,,,,,,,,,,,,,,,,,,,,,20,27,Male,,,,,,,,,,,,,,,,1.2857142857142858,1.0,0.4,0.5,2.5555555555555554,2.75,3.6666666666666665,2.4444444444444446,0.625,3.2222222222222223,1.5,1.75,2.25,0.0,,,,,,,,,0.00021541422652674933,0.49415351322318907,,
6,240620_102815,OFFLINERATING,9.0,7,1.0,,,,,,,,,,,,,,,,,T3,cue2.png,Easy,50.0,1.2400736000854522,,,,,,,,,,,,,,,,,,,,,,20,27,Male,,,,,,,,,,,,,,,,1.2857142857142858,1.0,0.4,0.5,2.5555555555555554,2.75,3.6666666666666665,2.4444444444444446,0.625,3.2222222222222223,1.5,1.75,2.25,0.0,,,,,,,-2.145895686624967e-05,-0.8851408992810817,,,,
7,240620_102822,OFFLINERATING,9.0,8,3.0,,,,,,,,,,,,,,,,,T3,cue1.png,Hard,68.0,0.7347620000364259,,,,,,,,,,,,,,,,,,,,,,20,27,Male,,,,,,,,,,,,,,,,1.2857142857142858,1.0,0.4,0.5,2.5555555555555554,2.75,3.6666666666666665,2.4444444444444446,0.625,3.2222222222222223,1.5,1.75,2.25,0.0,,,,,,,5.319581538402226e-05,-0.03539960840240906,-6.579726665770572e-05,-1.3946216267700058,1.5150000000000001,0.5028000773389897
