,END,Phase,Block,TrialN,NbackLevel,ISI,Letter_Resp,Letter_RT,Letter_Accuracy,Trial_A_measure,Trial_ACC,Trial_RT,TrialCountCali,CaliEnd_A_measure,ISI_calibrated,TrialIndex,TrialNumber_total,TrialNumber_valid,CueLearning,TrialDemandLearning,CueMapping,OfflineRatingTimePoint,CueFigure,TrialDemand,OfflineRating,OfflineRatingRT,PhaseType,CueLeft,CueDemandLeft,CueRight,CueDemandRight,Choice,ChoiceDemand,TaskDemand,ChoiceRT,CueCheck,CueDemandCheck,CorrectAnswer,Answer,AnswerDemand,AnswerRT,AnswerACC,DemandRatingQuesIndex,QuesTLX,DemandLevel,DemandRating,DemandRatingRT,PID,Age,Gender,BAI_bis,BAI_bas_d,BAI_bas_rr,BAI_bas_fs,NFC,BFI_ext,BFI_agr,BFI_con,BFI_neu,BFI_open,UPPS_lps,UPPS_lpm,UPPS_pu,UPPS_ss,Task_A_measure,Task_ACC,Task_RT,Task_RT_z,cue_i_on_zyg_values,cue_i_on_zyg_zvalues,cue_e_on_zyg_values,cue_e_on_zyg_zvalues,cue_i_on_cor_values,cue_i_on_cor_zvalues,cue_e_on_cor_values,cue_e_on_cor_zvalues,cue_i_on_scr_values,cue_i_on_scr_zvalues,cue_e_on_scr_values,cue_e_on_scr_zvalues,cue_e_true_zyg_values,cue_e_true_zyg_zvalues,cue_e_true_cor_values,cue_e_true_cor_zvalues,cue_e_true_scr_values,cue_e_true_scr_zvalues,cue_e_false_zyg_values,cue_e_false_zyg_zvalues,cue_e_false_cor_values,cue_e_false_cor_zvalues,cue_e_false_scr_values,cue_e_false_scr_zvalues,OfflineRating_z,cue_i_off_zyg_values,cue_i_off_zyg_zvalues,cue_i_off_cor_values,cue_i_off_cor_zvalues,cue_i_off_scr_values,cue_i_off_scr_zvalues,DemandRating_z
0,240620_093239,PRACTICE,0.0,1,3.0,788.0,,,,,,,,,,7.0,1.0,1.0,cue1.png,Hard,B,,,,,,,,,,,,,,,,,,,,,,,,,,,20,27,Male,1.2857142857142858,1.0,0.4,0.5,2.5555555555555554,2.75,3.6666666666666665,2.4444444444444446,0.625,3.2222222222222223,1.5,1.75,2.25,0.0,,,,,,,,,,,,,,,,,,,,,,,,,,,,,,,,,,,,
0,240620_093630,LEARNING,1.0,1,1.0,788.0,,,,,,,,,,1.0,1.0,1.0,cue2.png,Easy,B,,,,,,,,,,,,,,,,,,,,,,,,,,,20,27,Male,1.2857142857142858,1.0,0.4,0.5,2.5555555555555554,2.75,3.6666666666666665,2.4444444444444446,0.625,3.2222222222222223,1.5,1.75,2.25,0.0,1.0,1.0,0.6774794615160388,-0.2966177082120668,0.010861853205957965,-0.2853134620901661,0.011442998379699035,0.34676057423740025,0.01279822317073847,-0.6653158909520823,0.023168456066538907,1.1302992596637105,,,,,,,,,,,,,,,,,,,,,,,,
1,240620_093702,LEARNING,1.0,2,3.0,788.0,,,,,,,,,,2.0,2.0,2.0,cue1.png,Hard,B,,,,,,,,,,,,,,,,,,,,,,,,,,,20,27,Male,1.2857142857142858,1.0,0.4,0.5,2.5555555555555554,2.75,3.6666666666666665,2.4444444444444446,0.625,3.2222222222222223,1.5,1.75,2.25,0.0,0.6736111111111112,0.5042735042735043,0.9540736249909968,1.1459750877599038,0.013281331946546179,-0.0852793558012289,0.010538719725227418,0.007934089868774922,0.01719896073420019,-0.09571390472765756,0.02013567895505957,0.5065941292162444,1.847828174738079e+44,-0.18887065569471173,1.6286344999263115e+44,-0.19217372214193232,,,,,,,,,,,,,,,,,,,,
2,240620_093727,LEARNING,1.0,3,1.0,788.0,,,,,,,,,,3.0,3.0,3.0,cue2.png,Easy,B,,,,,,,,,,,,,,,,,,,,,,,,,,,20,27,Male,1.2857142857142858,1.0,0.4,0.5,2.5555555555555554,2.75,3.6666666666666665,2.4444444444444446,0.625,3.2222222222222223,1.5,1.75,2.25,0.0,1.0,1.0,0.5955375076916355,-0.723990689586109,0.010030032869914326,-0.35408548092303266,0.012604006238746199,0.7817815816006146,0.033489083689013904,2.0127704702422062,0.02319631238607381,1.136028045120294,-5.026077161830505e+44,-0.18935875414146497,-1.436123103149195e+45,-0.19265880353992862,,,,,,,,,,,,,,,,,,,,
3,240620_093757,LEARNING,1.0,4,3.0,788.0,,,,,,,,,,4.0,4.0,4.0,cue1.png,Hard,B,,,,,,,,,,,,,,,,,,,,,,,,,,,20,27,Male,1.2857142857142858,1.0,0.4,0.5,2.5555555555555554,2.75,3.6666666666666665,2.4444444444444446,0.625,3.2222222222222223,1.5,1.75,2.25,0.0,1.0,0.9230769230769232,0.8696541166379271,0.7056802779937542,0.009328802968173108,-0.412060735817722,0.006744584742092901,-1.413700061505338,0.012713891242031882,-0.6762312507981766,0.025728153893191618,1.6567133706234771,,,,,,,,,,,,,,,,,,,,,,,,
4,240620_093828,LEARNING,1.0,5,3.0,788.0,,,,,,,,,,5.0,5.0,5.0,cue1.png,Hard,B,,,,,,,,,,,,,,,,,,,,,,,,,,,20,27,Male,1.2857142857142858,1.0,0.4,0.5,2.5555555555555554,2.75,3.6666666666666665,2.4444444444444446,0.625,3.2222222222222223,1.5,1.75,2.25,0.0,0.5347222222222222,0.5470085470085471,0.9107717100181616,0.920131455317318,0.010882341463388352,-0.2836195640633916,0.011657019997223598,0.4269528820908975,0.012824084004338977,-0.6619686379128257,0.016785412192453303,-0.18240426776317997,8.535438369497463e+48,5.8717947365687895,2.0150170162208793e+49,5.920694263465504,,,,,,,,,,,,,,,,,,,,
5,240620_093853,LEARNING,1.0,6,1.0,788.0,,,,,,,,,,6.0,6.0,6.0,cue2.png,Easy,B,,,,,,,,,,,,,,,,,,,,,,,,,,,20,27,Male,1.2857142857142858,1.0,0.4,0.5,2.5555555555555554,2.75,3.6666666666666665,2.4444444444444446,0.625,3.2222222222222223,1.5,1.75,2.25,0.0,1.0,1.0,0.6147779846080363,-0.6236408736610242,0.014378849497972843,0.005459586787157535,0.012734218470211665,0.8305711360051882,0.014209163926707674,-0.48269317249739174,0.014907728232695268,-0.56855896229289,,,-1.7062200373237857e+44,-0.19227489096651468,,,,,,,,,,,,,,,,,,,,
6,240620_093924,LEARNING,1.0,7,3.0,788.0,,,,,,,,,,7.0,7.0,7.0,cue1.png,Hard,B,,,,,,,,,,,,,,,,,,,,,,,,,,,20,27,Male,1.2857142857142858,1.0,0.4,0.5,2.5555555555555554,2.75,3.6666666666666665,2.4444444444444446,0.625,3.2222222222222223,1.5,1.75,2.25,0.0,0.7083333333333333,0.7777777777777778,0.9858986846117588,1.3119605198583155,0.012290953742661835,-0.167160388925696,0.013628948597781703,1.1658198583809112,0.01526445208597762,-0.3461037433639617,0.015817638193795693,-0.3814316231833024,,,,,,,,,,,,,,,,,,,,,,,,
7,240620_093954,LEARNING,1.0,8,3.0,788.0,,,,,,,,,,8.0,8.0,8.0,cue1.png,Hard,B,,,,,,,,,,,,,,,,,,,,,,,,,,,20,27,Male,1.2857142857142858,1.0,0.4,0.5,2.5555555555555554,2.75,3.6666666666666665,2.4444444444444446,0.625,3.2222222222222223,1.5,1.75,2.25,0.0,0.9375,0.9230769230769232,0.9003129666768169,0.8655832768250787,0.01118099264816006,-0.2589281204744239,,,,,0.024574174648556303,1.419392015030069,,,4.599834291186089e+44,-0.19208358543967935,,,,,,,,,,,,,,,,,,,,
8,240620_094018,LEARNING,1.0,9,1.0,788.0,,,,,,,,,,9.0,9.0,9.0,cue2.png,Easy,B,,,,,,,,,,,,,,,,,,,,,,,,,,,20,27,Male,1.2857142857142858,1.0,0.4,0.5,2.5555555555555554,2.75,3.6666666666666665,2.4444444444444446,0.625,3.2222222222222223,1.5,1.75,2.25,0.0,1.0,1.0,0.517006107695544,-1.1335757309646544,0.01054518850419664,-0.3114942007540155,0.012478538196755519,0.7347696396974216,,,0.016997624570568894,-0.13876177637330345,1.0470103375319804e+48,0.5544534115710035,3.2953054554415835e+48,0.8074671891463556,,,,,,,,,,,,,,,,,,,,
9,240620_094041,LEARNING,1.0,10,1.0,788.0,,,,,,,,,,10.0,10.0,10.0,cue2.png,Easy,B,,,,,,,,,,,,,,,,,,,,,,,,,,,20,27,Male,1.2857142857142858,1.0,0.4,0.5,2.5555555555555554,2.75,3.6666666666666665,2.4444444444444446,0.625,3.2222222222222223,1.5,1.75,2.25,0.0,1.0,1.0,0.3984328384708183,-1.7520014483747068,0.010914858848222775,-0.2809311395258709,0.011152358874458165,0.23786011386222758,0.019158468080315596,0.15791159787802525,0.017372976606085392,-0.061568833512644236,,,,,,,,,,,,,,,,,,,,,,,,
10,240620_094112,LEARNING,1.0,11,3.0,788.0,,,,,,,,,,11.0,11.0,11.0,cue1.png,Hard,B,,,,,,,,,,,,,,,,,,,,,,,,,,,20,27,Male,1.2857142857142858,1.0,0.4,0.5,2.5555555555555554,2.75,3.6666666666666665,2.4444444444444446,0.625,3.2222222222222223,1.5,1.75,2.25,0.0,0.8819444444444444,0.811965811965812,0.9802272333375488,1.2823807389688966,0.010790355955687001,-0.29122460663553695,,,0.014202183902791068,-0.48359662002850645,0.03996401834328823,4.584387039839787,,,4.847929043205383e+44,-0.19207605903810276,,,,,,,,,,,,,,,,,,,,
11,240620_094137,LEARNING,1.0,12,1.0,788.0,,,,,,,,,,12.0,12.0,12.0,cue2.png,Easy,B,,,,,,,,,,,,,,,,,,,,,,,,,,,20,27,Male,1.2857142857142858,1.0,0.4,0.5,2.5555555555555554,2.75,3.6666666666666665,2.4444444444444446,0.625,3.2222222222222223,1.5,1.75,2.25,0.0,1.0,0.9230769230769232,0.5435679333556133,-0.9950409988369877,0.016541436498299554,0.18425477544719823,0.011255877395126382,0.2766477334213198,0.016374735280395847,-0.20239612533578158,0.01937611764933434,0.35038671078214845,2.2500409284479754e+43,-0.1889858882844758,,,,,,,,,,,,,,,,,,,,,,
12,240620_094204,LEARNING,1.0,13,1.0,788.0,,,,,,,,,,13.0,13.0,13.0,cue2.png,Easy,B,,,,,,,,,,,,,,,,,,,,,,,,,,,20,27,Male,1.2857142857142858,1.0,0.4,0.5,2.5555555555555554,2.75,3.6666666666666665,2.4444444444444446,0.625,3.2222222222222223,1.5,1.75,2.25,0.0,0.8819444444444444,0.8888888888888888,0.6394813153803205,-0.49479922870044185,0.012792875325382527,-0.12566325421549257,0.011130593421615077,0.22970476060795483,0.02100721474913219,0.39720098048673685,0.019437652660003663,0.3630416802856192,-1.0390961094461947e+44,-0.18907564880852554,,,,,,,,,,,,,,,,,,,,,,
13,240620_094230,LEARNING,1.0,14,1.0,788.0,,,,,,,,,,14.0,14.0,14.0,cue2.png,Easy,B,,,,,,,,,,,,,,,,,,,,,,,,,,,20,27,Male,1.2857142857142858,1.0,0.4,0.5,2.5555555555555554,2.75,3.6666666666666665,2.4444444444444446,0.625,3.2222222222222223,1.5,1.75,2.25,0.0,0.9375,0.9230769230769232,0.6133605833359373,-0.631033411661258,0.04029542842136085,2.148152397448625,,,0.017812610661732283,-0.01628716942972225,0.017609311020910342,-0.01296552980473663,,,-3.400308552400688e+44,-0.19232628419578282,,,,,,,,,,,,,,,,,,,,
14,240620_094259,LEARNING,1.0,15,3.0,788.0,,,,,,,,,,15.0,15.0,15.0,cue1.png,Hard,B,,,,,,,,,,,,,,,,,,,,,,,,,,,20,27,Male,1.2857142857142858,1.0,0.4,0.5,2.5555555555555554,2.75,3.6666666666666665,2.4444444444444446,0.625,3.2222222222222223,1.5,1.75,2.25,0.0,1.0,1.0,0.875731484633154,0.737377140929109,0.00764377305120722,-0.5513731620258763,0.009158275775946507,-0.5093079879906144,0.01600551592606796,-0.25018540487014923,0.01553765928940709,-0.4390106250899256,,,,,,,,,,,,,,,,,,,,,,,,
15,240620_094325,LEARNING,1.0,16,1.0,788.0,,,,,,,,,,16.0,16.0,16.0,cue2.png,Easy,B,,,,,,,,,,,,,,,,,,,,,,,,,,,20,27,Male,1.2857142857142858,1.0,0.4,0.5,2.5555555555555554,2.75,3.6666666666666665,2.4444444444444446,0.625,3.2222222222222223,1.5,1.75,2.25,0.0,1.0,1.0,0.5953492076906304,-0.724972779090525,0.008975708867095854,-0.44125333080109963,0.010393457080600146,-0.04649474237863312,0.01755290815537989,-0.04990132190134168,0.018803617108399152,0.2326492340603416,,,-1.1120380021308692e+44,-0.1922568653832645,,,,,,,,,,,,,,,,,,,,
16,240620_094350,LEARNING,1.0,17,1.0,788.0,,,,,,,,,,17.0,17.0,17.0,cue2.png,Easy,B,,,,,,,,,,,,,,,,,,,,,,,,,,,20,27,Male,1.2857142857142858,1.0,0.4,0.5,2.5555555555555554,2.75,3.6666666666666665,2.4444444444444446,0.625,3.2222222222222223,1.5,1.75,2.25,0.0,1.0,1.0,0.616837946160768,-0.6128970254951209,0.007898336044307936,-0.5303267771311039,0.01485147141383522,1.623890062488384,0.01267193961026835,-0.681661188946787,0.014315474395966562,-0.6903587988508451,,,,,,,,,,,,,,,,,,,,,,,,
17,240620_094419,LEARNING,1.0,18,3.0,788.0,,,,,,,,,,18.0,18.0,18.0,cue1.png,Hard,B,,,,,,,,,,,,,,,,,,,,,,,,,,,20,27,Male,1.2857142857142858,1.0,0.4,0.5,2.5555555555555554,2.75,3.6666666666666665,2.4444444444444446,0.625,3.2222222222222223,1.5,1.75,2.25,0.0,0.5347222222222222,0.6239316239316239,0.7649752818132666,0.15972178374495197,0.009058948694384252,-0.43437135073657046,0.008461037852427123,-0.7705578507694647,0.01610256965361553,-0.2376234206153794,0.017100741952881304,-0.11755519309254542,,,,,,,,,,,,,,,,,,,,,,,,
18,240620_094448,LEARNING,1.0,19,3.0,788.0,,,,,,,,,,19.0,19.0,19.0,cue1.png,Hard,B,,,,,,,,,,,,,,,,,,,,,,,,,,,20,27,Male,1.2857142857142858,1.0,0.4,0.5,2.5555555555555554,2.75,3.6666666666666665,2.4444444444444446,0.625,3.2222222222222223,1.5,1.75,2.25,0.0,1.0,1.0,0.8232074692272223,0.4634351123332025,0.012768702560783194,-0.12766177450915916,0.01161836128519039,0.4124677502969982,0.01706322400178469,-0.11328275796476447,0.01491090647513666,-0.5679053415210241,8.291325250024412e+43,-0.18894299066879186,,,,,,,,,,,,,,,,,,,,,,
19,240620_094517,LEARNING,1.0,20,3.0,788.0,,,,,,,,,,20.0,20.0,20.0,cue1.png,Hard,B,,,,,,,,,,,,,,,,,,,,,,,,,,,20,27,Male,1.2857142857142858,1.0,0.4,0.5,2.5555555555555554,2.75,3.6666666666666665,2.4444444444444446,0.625,3.2222222222222223,1.5,1.75,2.25,0.0,0.7916666666666666,0.811965811965812,0.8619274333468638,0.6653813161053047,,,,,0.01724082717806465,-0.09029499272996248,0.016451950662105058,-0.25098222771211065,5.871495512414406e+43,-0.18896017326119757,1.7899481462268557e+44,-0.19216882840164978,,,,,,,,,,,,,,,,,,,,
20,240620_094543,LEARNING,1.0,21,1.0,788.0,,,,,,,,,,21.0,21.0,21.0,cue2.png,Easy,B,,,,,,,,,,,,,,,,,,,,,,,,,,,20,27,Male,1.2857142857142858,1.0,0.4,0.5,2.5555555555555554,2.75,3.6666666666666665,2.4444444444444446,0.625,3.2222222222222223,1.5,1.75,2.25,0.0,0.8819444444444444,0.8888888888888888,0.6364797307626129,-0.5104541662146866,,,,,0.013777592466578226,-0.5385528908610877,0.01442702586578997,-0.6674177051006756,2.2962741586801844e+43,-0.1889855599941261,9.128842237819441e+43,-0.1921954357169393,,,,,,,,,,,,,,,,,,,,
21,240620_094613,LEARNING,1.0,22,3.0,788.0,,,,,,,,,,22.0,22.0,22.0,cue1.png,Hard,B,,,,,,,,,,,,,,,,,,,,,,,,,,,20,27,Male,1.2857142857142858,1.0,0.4,0.5,2.5555555555555554,2.75,3.6666666666666665,2.4444444444444446,0.625,3.2222222222222223,1.5,1.75,2.25,0.0,0.8819444444444444,0.8888888888888888,0.8866397769262011,0.7942699678803584,0.009100051535098451,-0.4309731104998315,0.015741059906169686,1.9572122523929936,,,0.017460321746269807,-0.043605887324983356,-1.553148843799028e+43,-0.1890128937628705,-2.432701225485652e+43,-0.1922305097433916,,,,,,,,,,,,,,,,,,,,
22,240620_094642,LEARNING,1.0,23,3.0,788.0,,,,,,,,,,23.0,23.0,23.0,cue1.png,Hard,B,,,,,,,,,,,,,,,,,,,,,,,,,,,20,27,Male,1.2857142857142858,1.0,0.4,0.5,2.5555555555555554,2.75,3.6666666666666665,2.4444444444444446,0.625,3.2222222222222223,1.5,1.75,2.25,0.0,0.875,0.8461538461538461,0.8475982181685553,0.5906464687446097,,,,,0.01606512245970997,-0.24247033450641364,0.012617708680098063,-1.039512445281684,-4.647908342692227e+43,-0.18903486885898435,-1.1516456436735822e+44,-0.19225806695247677,,,,,,,,,,,,,,,,,,,,
23,240620_094713,LEARNING,1.0,24,3.0,788.0,,,,,,,,,,24.0,24.0,24.0,cue1.png,Hard,B,,,,,,,,,,,,,,,,,,,,,,,,,,,20,27,Male,1.2857142857142858,1.0,0.4,0.5,2.5555555555555554,2.75,3.6666666666666665,2.4444444444444446,0.625,3.2222222222222223,1.5,1.75,2.25,0.0,0.8819444444444444,0.811965811965812,0.9739731583395042,1.2497622504791188,,,0.007901781692981901,-0.9801069730773955,0.01851355438681572,0.07443829017369172,0.013376823232920837,-0.8833969037205205,-6.513517608132711e+43,-0.18904811607348795,-1.6628003613909965e+44,-0.1922735737523667,,,,,,,,,,,,,,,,,,,,
24,240620_094739,LEARNING,1.0,25,1.0,788.0,,,,,,,,,,25.0,25.0,25.0,cue2.png,Easy,B,,,,,,,,,,,,,,,,,,,,,,,,,,,20,27,Male,1.2857142857142858,1.0,0.4,0.5,2.5555555555555554,2.75,3.6666666666666665,2.4444444444444446,0.625,3.2222222222222223,1.5,1.75,2.25,0.0,1.0,1.0,0.6093741230792008,-0.6518250248158768,0.011104429303131087,-0.2652581121542179,,,0.020506247355993094,0.33235911749201724,0.01423723654152556,-0.706448788130094,-6.126509589414549e+43,-0.1890453680284747,-1.6751519437870075e+44,-0.19227394845988657,,,,,,,,,,,,,,,,,,,,
25,240620_094804,LEARNING,1.0,26,1.0,788.0,,,,,,,,,,26.0,26.0,26.0,cue2.png,Easy,B,,,,,,,,,,,,,,,,,,,,,,,,,,,20,27,Male,1.2857142857142858,1.0,0.4,0.5,2.5555555555555554,2.75,3.6666666666666665,2.4444444444444446,0.625,3.2222222222222223,1.5,1.75,2.25,0.0,1.0,1.0,0.5823953999654174,-0.7925341096335323,0.01469264304797106,0.03140294858659455,0.009173301957378624,-0.5036777895966201,,,,,-4.1769986652183196e+43,-0.18903152504973936,-1.2542437990871912e+44,-0.19226117945248886,,,,,,,,,,,,,,,,,,,,
26,240620_094834,LEARNING,1.0,27,3.0,788.0,,,,,,,,,,27.0,27.0,27.0,cue1.png,Hard,B,,,,,,,,,,,,,,,,,,,,,,,,,,,20,27,Male,1.2857142857142858,1.0,0.4,0.5,2.5555555555555554,2.75,3.6666666666666665,2.4444444444444446,0.625,3.2222222222222223,1.5,1.75,2.25,0.0,0.7916666666666666,0.735042735042735,0.8409205909014087,0.555818918991761,0.00887594103077907,-0.4495017892972288,0.007951404023637216,-0.9615138549506139,,,,,1.3294628005018395e+44,-0.18890746349488163,2.131089264122753e+44,-0.19215847927081703,,,,,,,,,,,,,,,,,,,,
27,240620_094900,LEARNING,1.0,28,1.0,788.0,,,,,,,,,,28.0,28.0,28.0,cue2.png,Easy,B,,,,,,,,,,,,,,,,,,,,,,,,,,,20,27,Male,1.2857142857142858,1.0,0.4,0.5,2.5555555555555554,2.75,3.6666666666666665,2.4444444444444446,0.625,3.2222222222222223,1.5,1.75,2.25,0.0,1.0,1.0,0.6750823461558096,-0.30912000148657176,0.016107181316458604,0.14835206394836692,0.009863078896853355,-0.24522350203264387,,,,,1.6610814619586716e+43,-0.18899007033509646,3.073368634280896e+43,-0.19221380608781807,,,,,,,,,,,,,,,,,,,,
28,240620_094926,LEARNING,1.0,29,1.0,788.0,,,,,,,,,,29.0,29.0,29.0,cue2.png,Easy,B,,,,,,,,,,,,,,,,,,,,,,,,,,,20,27,Male,1.2857142857142858,1.0,0.4,0.5,2.5555555555555554,2.75,3.6666666666666665,2.4444444444444446,0.625,3.2222222222222223,1.5,1.75,2.25,0.0,1.0,1.0,0.5811164461774752,-0.7992045668032971,,,0.007574085140605212,-1.1028924333251444,0.014292634449799568,-0.4718893072228322,0.015106516479183759,-0.5276772078315312,4.080288645591646e+43,-0.18897289216328744,1.0134432485035637e+44,-0.192192385077633,,,,,,,,,,,,,,,,,,,,
29,240620_094957,LEARNING,1.0,30,3.0,788.0,,,,,,,,,,30.0,30.0,30.0,cue1.png,Hard,B,,,,,,,,,,,,,,,,,,,,,,,,,,,20,27,Male,1.2857142857142858,1.0,0.4,0.5,2.5555555555555554,2.75,3.6666666666666665,2.4444444444444446,0.625,3.2222222222222223,1.5,1.75,2.25,0.0,0.7916666666666666,0.735042735042735,0.9695482272443108,1.2266837674034041,0.008434374826235342,-0.4860089507826935,0.011389080790376005,0.3265580546427867,0.013247543817557411,-0.6071588367790112,0.011695249798433756,-1.229220529975128,5.408098716907727e+43,-0.18896346372338815,1.4294612876278237e+44,-0.192179764420404,,,,,,,,,,,,,,,,,,,,
30,240620_095028,LEARNING,1.0,31,3.0,788.0,,,,,,,,,,31.0,31.0,31.0,cue1.png,Hard,B,,,,,,,,,,,,,,,,,,,,,,,,,,,20,27,Male,1.2857142857142858,1.0,0.4,0.5,2.5555555555555554,2.75,3.6666666666666665,2.4444444444444446,0.625,3.2222222222222223,1.5,1.75,2.25,0.0,0.875,0.7692307692307692,0.9592537199961952,1.1729921717180987,0.011637170843646577,-0.2212128902837833,0.009539580662011153,-0.3664358839339789,0.0153845565994506,-0.33055821981428823,0.013572838092274348,-0.8430855095992791,5.390819342393587e+43,-0.1889635864198096,,,,,,,,,,,,,,,,,,,,,,
31,240620_095054,LEARNING,1.0,32,1.0,788.0,,,,,,,,,,32.0,32.0,32.0,cue2.png,Easy,B,,,,,,,,,,,,,,,,,,,,,,,,,,,20,27,Male,1.2857142857142858,1.0,0.4,0.5,2.5555555555555554,2.75,3.6666666666666665,2.4444444444444446,0.625,3.2222222222222223,1.5,1.75,2.25,0.0,1.0,1.0,0.6106426769312328,-0.6452088091110596,0.008270218608979604,-0.4995808171767504,0.0192496278971573,3.2718465763108293,0.013433454144066619,-0.5830958496746457,0.02229986144232793,0.9516686173560661,4.017154539415813e+43,-0.18897334046243694,1.1309133953416413e+44,-0.19218882140894927,,,,,,,,,,,,,,,,,,,,
32,240620_095119,LEARNING,1.0,33,1.0,788.0,,,,,,,,,,33.0,33.0,33.0,cue2.png,Easy,B,,,,,,,,,,,,,,,,,,,,,,,,,,,20,27,Male,1.2857142857142858,1.0,0.4,0.5,2.5555555555555554,2.75,3.6666666666666665,2.4444444444444446,0.625,3.2222222222222223,1.5,1.75,2.25,0.0,1.0,1.0,0.61904258460093,-0.6013986066870594,0.012422481965460884,-0.15628609188889564,,,0.014795641808477235,-0.40678340475612784,,,,,5.619685097646249e+43,-0.19220608137776743,,,,,,,,,,,,,,,,,,,,
33,240620_095144,LEARNING,1.0,34,1.0,788.0,,,,,,,,,,34.0,34.0,34.0,cue2.png,Easy,B,,,,,,,,,,,,,,,,,,,,,,,,,,,20,27,Male,1.2857142857142858,1.0,0.4,0.5,2.5555555555555554,2.75,3.6666666666666665,2.4444444444444446,0.625,3.2222222222222223,1.5,1.75,2.25,0.0,1.0,1.0,0.5505485230913529,-0.9586333308735758,0.022367687849894895,0.6659490191617544,0.008946781811560441,-0.5885532030178183,0.059870795764874384,5.4274425295754565,0.015330472813669033,-0.48161951559758426,-1.0235952184638138e+43,-0.18900913353794244,-2.5740528704862375e+43,-0.1922309385590901,,,,,,,,,,,,,,,,,,,,
34,240620_095215,LEARNING,1.0,35,3.0,788.0,,,,,,,,,,35.0,35.0,35.0,cue1.png,Hard,B,,,,,,,,,,,,,,,,,,,,,,,,,,,20,27,Male,1.2857142857142858,1.0,0.4,0.5,2.5555555555555554,2.75,3.6666666666666665,2.4444444444444446,0.625,3.2222222222222223,1.5,1.75,2.25,0.0,1.0,0.9230769230769232,0.9390414583322126,1.0675739564512332,,,0.006235332034925774,-1.60451326224982,,,,,-3.5944852218397407e+43,-0.18902738877068104,-8.828660933856301e+43,-0.19224991304025343,,,,,,,,,,,,,,,,,,,,
35,240620_095245,LEARNING,1.0,36,3.0,788.0,,,,,,,,,,36.0,36.0,36.0,cue1.png,Hard,B,,,,,,,,,,,,,,,,,,,,,,,,,,,20,27,Male,1.2857142857142858,1.0,0.4,0.5,2.5555555555555554,2.75,3.6666666666666665,2.4444444444444446,0.625,3.2222222222222223,1.5,1.75,2.25,0.0,1.0,1.0,0.9521845923020288,1.1361227289312708,,,0.0129031509134961,0.8938688657158522,0.01814129946004499,0.026256106480001623,,,-4.81243494063685e+43,-0.18903603712029976,-1.283051695405885e+44,-0.19226205339195962,,,,,,,,,,,,,,,,,,,,
36,240620_095308,LEARNING,1.0,37,1.0,788.0,,,,,,,,,,37.0,37.0,37.0,cue2.png,Easy,B,,,,,,,,,,,,,,,,,,,,,,,,,,,20,27,Male,1.2857142857142858,1.0,0.4,0.5,2.5555555555555554,2.75,3.6666666666666665,2.4444444444444446,0.625,3.2222222222222223,1.5,1.75,2.25,0.0,1.0,1.0,0.4473540999998266,-1.4968497902017113,0.009561810247988358,-0.3927965024955775,0.007700412928294927,-1.055558351104678,0.01264807966401434,-0.6847494605334257,0.01680549170988047,-0.17827481888649543,-4.696955072593819e+43,-0.18903521712727597,-1.2811811032346231e+44,-0.19226199664417373,,,,,,,,,,,,,,,,,,,,
37,240620_095341,LEARNING,1.0,38,3.0,788.0,,,,,,,,,,38.0,38.0,38.0,cue1.png,Hard,B,,,,,,,,,,,,,,,,,,,,,,,,,,,20,27,Male,1.2857142857142858,1.0,0.4,0.5,2.5555555555555554,2.75,3.6666666666666665,2.4444444444444446,0.625,3.2222222222222223,1.5,1.75,2.25,0.0,0.875,0.6153846153846154,1.025328024974442,1.517606516297729,0.03690900183908538,1.868174399074526,0.007022319977655183,-1.3096347349762643,0.01805983099531107,0.015711374225939656,0.014281225361789662,-0.6974022766745691,-3.2800271060539846e+43,-0.18902515588398316,-8.925690979070866e+43,-0.1922502073983885,,,,,,,,,,,,,,,,,,,,
38,240620_095410,LEARNING,1.0,39,3.0,788.0,,,,,,,,,,39.0,39.0,39.0,cue1.png,Hard,B,,,,,,,,,,,,,,,,,,,,,,,,,,,20,27,Male,1.2857142857142858,1.0,0.4,0.5,2.5555555555555554,2.75,3.6666666666666665,2.4444444444444446,0.625,3.2222222222222223,1.5,1.75,2.25,0.0,1.0,1.0,0.913367884609705,0.9336719534818247,0.009869557237543123,-0.36735304933106144,0.009369372394852768,-0.43021165535860634,0.016115138364542793,-0.23599661088059987,0.01642146004991407,-0.2572527680634014,-4.0937303139854337e+42,-0.18900477210320063,-2.1651377625305113e+43,-0.19222969804138942,,,,,,,,,,,,,,,,,,,,
39,240620_095440,LEARNING,1.0,40,3.0,788.0,,,,,,,,,,40.0,40.0,40.0,cue1.png,Hard,B,,,,,,,,,,,,,,,,,,,,,,,,,,,20,27,Male,1.2857142857142858,1.0,0.4,0.5,2.5555555555555554,2.75,3.6666666666666665,2.4444444444444446,0.625,3.2222222222222223,1.5,1.75,2.25,0.0,1.0,1.0,0.9376654461599312,1.06039728568579,0.014183423741227167,-0.010697536621563397,0.009145306167315879,-0.5141676038559481,0.02283320281152256,0.6335446415573799,0.015709205274253544,-0.40373137214007526,2.701680727825793e+43,-0.18898268130570936,6.629428102671923e+43,-0.19220301814032162,,,,,,,,,,,,,,,,,,,,
40,240620_095504,LEARNING,1.0,41,1.0,788.0,,,,,,,,,,41.0,41.0,41.0,cue2.png,Easy,B,,,,,,,,,,,,,,,,,,,,,,,,,,,20,27,Male,1.2857142857142858,1.0,0.4,0.5,2.5555555555555554,2.75,3.6666666666666665,2.4444444444444446,0.625,3.2222222222222223,1.5,1.75,2.25,0.0,1.0,1.0,0.4519337615392242,-1.4729643015792335,0.009975588032252923,-0.3585867911684772,0.008543122279400241,-0.7398014266570699,0.01813846455020846,0.025889174744043716,0.01405804261225654,-0.7433008774600652,4.2482155768289623e+43,-0.18897169975707453,1.1951309207655072e+44,-0.1921868732545419,,,,,,,,,,,,,,,,,,,,
41,240620_095535,LEARNING,1.0,42,3.0,788.0,,,,,,,,,,42.0,42.0,42.0,cue1.png,Hard,B,,,,,,,,,,,,,,,,,,,,,,,,,,,20,27,Male,1.2857142857142858,1.0,0.4,0.5,2.5555555555555554,2.75,3.6666666666666665,2.4444444444444446,0.625,3.2222222222222223,1.5,1.75,2.25,0.0,0.9375,0.6923076923076923,0.9346944777708914,1.0449020288761601,0.009734910773386594,-0.3784851517424961,0.009033744090844394,-0.5559690839337721,0.018438748501911822,0.06475591761498407,,,5.044951708530011e+43,-0.1889660423374664,,,,,,,,,,,,,,,,,,,,,,
42,240620_095605,LEARNING,1.0,43,3.0,788.0,,,,,,,,,,43.0,43.0,43.0,cue1.png,Hard,B,,,,,,,,,,,,,,,,,,,,,,,,,,,20,27,Male,1.2857142857142858,1.0,0.4,0.5,2.5555555555555554,2.75,3.6666666666666665,2.4444444444444446,0.625,3.2222222222222223,1.5,1.75,2.25,0.0,1.0,0.8461538461538461,0.8269675000232052,0.4830457695892032,0.07778502978691088,5.247662543366728,,,,,0.017378572923254586,-0.060417924098026946,3.5874795297503006e+43,-0.18897639147484632,1.0329575872145683e+44,-0.19219179307498704,,,,,,,,,,,,,,,,,,,,
43,240620_095628,LEARNING,1.0,44,1.0,788.0,,,,,,,,,,44.0,44.0,44.0,cue2.png,Easy,B,,,,,,,,,,,,,,,,,,,,,,,,,,,20,27,Male,1.2857142857142858,1.0,0.4,0.5,2.5555555555555554,2.75,3.6666666666666665,2.4444444444444446,0.625,3.2222222222222223,1.5,1.75,2.25,0.0,1.0,1.0,0.4770329307872228,-1.3420581382417627,,,0.013741815039012232,1.208110074230011,0.016777112907669006,-0.1503150611046365,0.015066503341878056,-0.535906101055634,3.5760210854640785e+42,-0.1889993260087874,2.3877709224321165e+43,-0.19221588597207898,,,,,,,,,,,,,,,,,,,,
44,240620_095652,LEARNING,1.0,45,1.0,788.0,,,,,,,,,,45.0,45.0,45.0,cue2.png,Easy,B,,,,,,,,,,,,,,,,,,,,,,,,,,,20,27,Male,1.2857142857142858,1.0,0.4,0.5,2.5555555555555554,2.75,3.6666666666666665,2.4444444444444446,0.625,3.2222222222222223,1.5,1.75,2.25,0.0,1.0,1.0,0.4320359692299881,-1.5767423838078172,0.011137020277706801,-0.2625636034722555,0.009069685723171336,-0.5425020216918537,0.019301131357067458,0.17637697660768156,0.016448181158203203,-0.25175744423360497,-2.8250721604659336e+43,-0.18902192536521092,-8.147245100900998e+43,-0.1922478458424761,,,,,,,,,,,,,,,,,,,,
45,240620_095715,LEARNING,1.0,46,1.0,788.0,,,,,,,,,,46.0,46.0,46.0,cue2.png,Easy,B,,,,,,,,,,,,,,,,,,,,,,,,,,,20,27,Male,1.2857142857142858,1.0,0.4,0.5,2.5555555555555554,2.75,3.6666666666666665,2.4444444444444446,0.625,3.2222222222222223,1.5,1.75,2.25,0.0,1.0,1.0,0.4390727384642769,-1.5400417084328601,,,0.010034465396679002,-0.18100625559316083,0.019223756188836122,0.16636205322871295,,,-5.407356742230696e+43,-0.18904026150793796,-1.437263698333135e+44,-0.1922667316910873,,,,,,,,,,,,,,,,,,,,
46,240620_095745,LEARNING,1.0,47,3.0,788.0,,,,,,,,,,47.0,47.0,47.0,cue1.png,Hard,B,,,,,,,,,,,,,,,,,,,,,,,,,,,20,27,Male,1.2857142857142858,1.0,0.4,0.5,2.5555555555555554,2.75,3.6666666666666665,2.4444444444444446,0.625,3.2222222222222223,1.5,1.75,2.25,0.0,1.0,1.0,0.9340703461247568,1.0416468343155074,,,,,0.016345395637836997,-0.20619365209933835,0.02073754689631804,0.6303711523920931,-3.697920911044737e+43,-0.18902812324106966,-1.0921383433598728e+44,-0.19225626169123988,,,,,,,,,,,,,,,,,,,,
47,240620_095815,LEARNING,1.0,48,3.0,788.0,,,,,,,,,,48.0,48.0,48.0,cue1.png,Hard,B,,,,,,,,,,,,,,,,,,,,,,,,,,,20,27,Male,1.2857142857142858,1.0,0.4,0.5,2.5555555555555554,2.75,3.6666666666666665,2.4444444444444446,0.625,3.2222222222222223,1.5,1.75,2.25,0.0,1.0,1.0,0.9423701769421592,1.084935080150293,0.010053332458129205,-0.3521591518227693,0.0075929396914374385,-1.0958277733984256,,,,,2.0801435407934862e+43,-0.18898709468239605,4.3249145986451986e+43,-0.19221000929750198,,,,,,,,,,,,,,,,,,,,
48,240620_095840,LEARNING,1.0,49,1.0,788.0,,,,,,,,,,49.0,49.0,49.0,cue2.png,Easy,B,,,,,,,,,,,,,,,,,,,,,,,,,,,20,27,Male,1.2857142857142858,1.0,0.4,0.5,2.5555555555555554,2.75,3.6666666666666665,2.4444444444444446,0.625,3.2222222222222223,1.5,1.75,2.25,0.0,1.0,1.0,0.5195445999986708,-1.120336078098832,0.01006935085945934,-0.35083480598723943,,,,,,,,,,,,,,,,,,,,,,,,,,,,,,
49,240620_095903,LEARNING,1.0,50,1.0,788.0,,,,,,,,,,50.0,50.0,50.0,cue2.png,Easy,B,,,,,,,,,,,,,,,,,,,,,,,,,,,20,27,Male,1.2857142857142858,1.0,0.4,0.5,2.5555555555555554,2.75,3.6666666666666665,2.4444444444444446,0.625,3.2222222222222223,1.5,1.75,2.25,0.0,1.0,1.0,0.4636684230689962,-1.4117614982614002,0.009760582836315868,-0.3763626746657179,0.012612330033441376,0.7849004455472827,,,,,-1.6580571815408362e+43,-0.18901363869015997,-7.913173665086567e+43,-0.1922471357445763,,,,,,,,,,,,,,,,,,,,
0,240620_100055,TrueCHOICE,9.0,1,1.0,788.0,,,,,,,,,,,1.0,1.0,,,B,,,,,,True,cue2.png,Easy,cue1.png,Hard,Left,Easy,Easy,0.0159647000255063,,,,,,,,,,,,,20,27,Male,1.2857142857142858,1.0,0.4,0.5,2.5555555555555554,2.75,3.6666666666666665,2.4444444444444446,0.625,3.2222222222222223,1.5,1.75,2.25,0.0,1.0,1.0,0.4231156000079444,-1.145045257889039,,,,,,,,,,,,,,,,,,,,,,,,,,,,,,,,
1,240620_100117,TrueCHOICE,9.0,2,1.0,788.0,,,,,,,,,,,2.0,2.0,,,B,,,,,,True,cue2.png,Easy,cue1.png,Hard,Left,Easy,Easy,0.0160964999813586,,,,,,,,,,,,,20,27,Male,1.2857142857142858,1.0,0.4,0.5,2.5555555555555554,2.75,3.6666666666666665,2.4444444444444446,0.625,3.2222222222222223,1.5,1.75,2.25,0.0,1.0,1.0,0.453575707712354,-0.9975208622119549,,,,,,,,,,,,,0.01878763174080554,1.7624159524455614,0.010152014314373793,-1.0539576992674826,19122447.585891243,-0.5158892006840216,,,,,,,,,,,,,,
2,240620_100143,TrueCHOICE,9.0,3,3.0,788.0,,,,,,,,,,,3.0,3.0,,,B,,,,,,True,cue1.png,Hard,cue2.png,Easy,Left,Hard,Hard,0.0164359000045806,,,,,,,,,,,,,20,27,Male,1.2857142857142858,1.0,0.4,0.5,2.5555555555555554,2.75,3.6666666666666665,2.4444444444444446,0.625,3.2222222222222223,1.5,1.75,2.25,0.0,1.0,1.0,0.7634249615232245,0.5031410646277454,,,,,,,,,,,,,,,,,14861879.312493071,-0.5502925622449073,,,,,,,,,,,,,,
3,240620_100211,TrueCHOICE,9.0,4,3.0,788.0,,,,,,,,,,,4.0,4.0,,,B,,,,,,True,cue2.png,Easy,cue1.png,Hard,Right,Hard,Hard,0.0170073999324813,,,,,,,,,,,,,20,27,Male,1.2857142857142858,1.0,0.4,0.5,2.5555555555555554,2.75,3.6666666666666665,2.4444444444444446,0.625,3.2222222222222223,1.5,1.75,2.25,0.0,1.0,1.0,0.8827013692442471,1.0808205705025726,,,,,,,,,,,,,0.012517399101922826,0.3271661844383959,0.018728100944110437,1.4393512969221562,,,,,,,,,,,,,,,,
4,240620_100239,TrueCHOICE,9.0,5,3.0,788.0,,,,,,,,,,,5.0,5.0,,,B,,,,,,True,cue1.png,Hard,cue2.png,Easy,Left,Hard,Hard,0.0162070000078529,,,,,,,,,,,,,20,27,Male,1.2857142857142858,1.0,0.4,0.5,2.5555555555555554,2.75,3.6666666666666665,2.4444444444444446,0.625,3.2222222222222223,1.5,1.75,2.25,0.0,0.9375,0.9230769230769232,0.9875014083324156,1.5883881268437696,,,,,,,,,,,,,0.009688964757056186,-0.3202595126752447,0.010879167687643305,-0.8425538124531781,,,,,,,,,,,,,,,,
5,240620_100301,TrueCHOICE,9.0,6,1.0,788.0,,,,,,,,,,,6.0,6.0,,,B,,,,,,True,cue1.png,Hard,cue2.png,Easy,Right,Easy,Easy,0.016588500002399,,,,,,,,,,,,,20,27,Male,1.2857142857142858,1.0,0.4,0.5,2.5555555555555554,2.75,3.6666666666666665,2.4444444444444446,0.625,3.2222222222222223,1.5,1.75,2.25,0.0,1.0,1.0,0.4677576384453389,-0.9288349343347208,,,,,,,,,,,,,0.006847080119495054,-0.9707639678798833,0.016999378285141906,0.9367631184658162,,,,,,,,,,,,,,,,
6,240620_100327,TrueCHOICE,9.0,7,3.0,788.0,,,,,,,,,,,7.0,7.0,,,B,,,,,,True,cue2.png,Easy,cue1.png,Hard,Right,Hard,Hard,0.0167728000087663,,,,,,,,,,,,,20,27,Male,1.2857142857142858,1.0,0.4,0.5,2.5555555555555554,2.75,3.6666666666666665,2.4444444444444446,0.625,3.2222222222222223,1.5,1.75,2.25,0.0,1.0,0.9230769230769232,0.7759070416796021,0.5635942760783392,,,,,,,,,,,,,0.005658623887897178,-1.2428003705023325,0.012127588337007734,-0.4796029036673107,,,,,,,,,,,,,,,,
7,240620_100401,TrueCHOICE,9.0,8,3.0,788.0,,,,,,,,,,,9.0,8.0,,,B,,,,,,True,cue1.png,Hard,cue2.png,Easy,Left,Hard,Hard,0.0149204999906942,,,,,,,,,,,,,20,27,Male,1.2857142857142858,1.0,0.4,0.5,2.5555555555555554,2.75,3.6666666666666665,2.4444444444444446,0.625,3.2222222222222223,1.5,1.75,2.25,0.0,0.9375,0.8461538461538461,0.8745343909196724,1.0412662605331988,,,,,,,,,,,,,,,,,297191867.36983645,1.7294738997229184,,,,,,,,,,,,,,
8,240620_100423,TrueCHOICE,9.0,9,1.0,788.0,,,,,,,,,,,10.0,9.0,,,B,,,,,,True,cue2.png,Easy,cue1.png,Hard,Left,Easy,Easy,0.0166806998895481,,,,,,,,,,,,,20,27,Male,1.2857142857142858,1.0,0.4,0.5,2.5555555555555554,2.75,3.6666666666666665,2.4444444444444446,0.625,3.2222222222222223,1.5,1.75,2.25,0.0,1.0,1.0,0.5087324461469857,-0.7303857429257525,,,,,,,,,,,,,0.013028871616409855,0.44424171417350244,,,,,,,,,,,,,,,,,,
9,240620_100445,TrueCHOICE,9.0,10,1.0,788.0,,,,,,,,,,,11.0,10.0,,,B,,,,,,True,cue1.png,Hard,cue2.png,Easy,Right,Easy,Easy,0.0172310000052675,,,,,,,,,,,,,20,27,Male,1.2857142857142858,1.0,0.4,0.5,2.5555555555555554,2.75,3.6666666666666665,2.4444444444444446,0.625,3.2222222222222223,1.5,1.75,2.25,0.0,0.8819444444444444,0.8888888888888888,0.4581382615366377,-0.9754235012241543,,,,,,,,,,,,,,,,,867828.1387647259,-0.6632921367939899,,,,,,,,,,,,,,
0,240620_100638,FalseCHOICE,9.0,1,2.0,788.0,,,,,,,,,,,1.0,1.0,,,B,,,,,,False,cue2.png,Easy,cue1.png,Hard,Right,Hard,Mid,0.0166818000143393,,,,,,,,,,,,,20,27,Male,1.2857142857142858,1.0,0.4,0.5,2.5555555555555554,2.75,3.6666666666666665,2.4444444444444446,0.625,3.2222222222222223,1.5,1.75,2.25,0.0,1.0,1.0,0.7322460538349472,-0.38993941365609613,,,,,,,,,,,,,,,,,,,0.007617118756262239,-0.4140036164711626,0.020616377096477626,0.19860217558983245,,,,,,,,,,
1,240620_100705,FalseCHOICE,9.0,2,2.0,788.0,,,,,,,,,,,2.0,2.0,,,B,,,,,,False,cue1.png,Hard,cue2.png,Easy,Left,Hard,Mid,0.01624239992816,,,,,,,,,,,,,20,27,Male,1.2857142857142858,1.0,0.4,0.5,2.5555555555555554,2.75,3.6666666666666665,2.4444444444444446,0.625,3.2222222222222223,1.5,1.75,2.25,0.0,1.0,1.0,0.795938130772601,0.33644254286470493,,,,,,,,,,,,,,,,,,,0.008198411957203958,-0.33423290755673424,0.021591947385016134,0.4900794914901832,2.428848069927468e+44,-0.1684537865548552,,,,,,,,
2,240620_100731,FalseCHOICE,9.0,3,2.0,788.0,,,,,,,,,,,3.0,3.0,,,B,,,,,,False,cue1.png,Hard,cue2.png,Easy,Right,Easy,Mid,0.0164242999162524,,,,,,,,,,,,,20,27,Male,1.2857142857142858,1.0,0.4,0.5,2.5555555555555554,2.75,3.6666666666666665,2.4444444444444446,0.625,3.2222222222222223,1.5,1.75,2.25,0.0,0.7916666666666666,0.811965811965812,0.8075674416710777,0.4690700533742623,,,,,,,,,,,,,,,,,,,0.010337070646157177,-0.040745353483475924,0.018852648338967343,-0.3283582395182439,-2.516029236497868e+44,-0.16959242251271403,,,,,,,,
3,240620_100756,FalseCHOICE,9.0,4,2.0,788.0,,,,,,,,,,,4.0,4.0,,,B,,,,,,False,cue1.png,Hard,cue2.png,Easy,Left,Hard,Mid,0.0157009001122787,,,,,,,,,,,,,20,27,Male,1.2857142857142858,1.0,0.4,0.5,2.5555555555555554,2.75,3.6666666666666665,2.4444444444444446,0.625,3.2222222222222223,1.5,1.75,2.25,0.0,1.0,1.0,0.7032543000174113,-0.7205784487367899,,,,,,,,,,,,,,,,,,,0.01459618072892314,0.5437311724700667,0.020459517642124003,0.15173628261857178,-2.6728878126813163e+44,-0.16962854167282118,,,,,,,,
4,240620_100822,FalseCHOICE,9.0,5,2.0,788.0,,,,,,,,,,,5.0,5.0,,,B,,,,,,False,cue2.png,Easy,cue1.png,Hard,Right,Hard,Mid,0.0165113999973982,,,,,,,,,,,,,20,27,Male,1.2857142857142858,1.0,0.4,0.5,2.5555555555555554,2.75,3.6666666666666665,2.4444444444444446,0.625,3.2222222222222223,1.5,1.75,2.25,0.0,1.0,1.0,0.7906602769284151,0.27625078926051166,,,,,,,,,,,,,,,,,,,0.01328527144643896,0.36383544580948224,0.01792374158205706,-0.6058935964339667,2.642638927832014e+48,5.9160796872739745,,,,,,,,
5,240620_100849,FalseCHOICE,9.0,6,2.0,788.0,,,,,,,,,,,6.0,6.0,,,B,,,,,,False,cue1.png,Hard,cue2.png,Easy,Left,Hard,Mid,0.0163209999445825,,,,,,,,,,,,,20,27,Male,1.2857142857142858,1.0,0.4,0.5,2.5555555555555554,2.75,3.6666666666666665,2.4444444444444446,0.625,3.2222222222222223,1.5,1.75,2.25,0.0,0.5347222222222222,0.7008547008547008,0.8357444833188007,0.7904176310498324,,,,,,,,,,,,,,,,,,,0.011822847961322196,0.1631474660569555,0.01927856683724827,-0.20110387135045737,-5.244415296188778e+43,-0.16913382804499377,,,,,,,,
6,240620_100916,FalseCHOICE,9.0,7,2.0,788.0,,,,,,,,,,,7.0,7.0,,,B,,,,,,False,cue1.png,Hard,cue2.png,Easy,Right,Easy,Mid,0.0168204999063164,,,,,,,,,,,,,20,27,Male,1.2857142857142858,1.0,0.4,0.5,2.5555555555555554,2.75,3.6666666666666665,2.4444444444444446,0.625,3.2222222222222223,1.5,1.75,2.25,0.0,1.0,1.0,0.792705276927266,0.29957317363972424,,,,,,,,,,,,,,,,,,,0.012975504800519216,0.32132625268107307,0.019535895490410286,-0.12422015932158713,,,,,,,,,,
7,240620_100944,FalseCHOICE,9.0,8,2.0,788.0,,,,,,,,,,,8.0,8.0,,,B,,,,,,False,cue2.png,Easy,cue1.png,Hard,Right,Hard,Mid,0.0168244000524282,,,,,,,,,,,,,20,27,Male,1.2857142857142858,1.0,0.4,0.5,2.5555555555555554,2.75,3.6666666666666665,2.4444444444444446,0.625,3.2222222222222223,1.5,1.75,2.25,0.0,1.0,0.9230769230769232,0.9528285583364776,2.125713378620116,,,,,,,,,,,,,,,,,,,0.011773328618241622,0.15635193998488944,0.01844882001814179,-0.4490125854138257,8.498667154931437e+43,-0.16881737190501372,,,,,,,,
8,240620_101011,FalseCHOICE,9.0,9,2.0,788.0,,,,,,,,,,,9.0,9.0,,,B,,,,,,False,cue2.png,Easy,cue1.png,Hard,Right,Hard,Mid,0.0169920000480487,,,,,,,,,,,,,20,27,Male,1.2857142857142858,1.0,0.4,0.5,2.5555555555555554,2.75,3.6666666666666665,2.4444444444444446,0.625,3.2222222222222223,1.5,1.75,2.25,0.0,1.0,1.0,0.8567306922945696,1.029756717930219,,,,,,,,,,,,,,,,,,,0.010116541994022466,-0.07100844083462654,0.022819849376619107,0.856947548980233,,,,,,,,,,
9,240620_101039,FalseCHOICE,9.0,10,2.0,788.0,,,,,,,,,,,10.0,10.0,,,B,,,,,,False,cue1.png,Hard,cue2.png,Easy,Right,Easy,Mid,0.0163134000031277,,,,,,,,,,,,,20,27,Male,1.2857142857142858,1.0,0.4,0.5,2.5555555555555554,2.75,3.6666666666666665,2.4444444444444446,0.625,3.2222222222222223,1.5,1.75,2.25,0.0,0.8819444444444444,0.811965811965812,0.919560666681112,1.7463067492272473,,,,,,,,,,,,,,,,,,,0.009071999670291767,-0.21435070171112408,0.019814424965928508,-0.04100214327806229,,,,,,,,,,
10,240620_101106,FalseCHOICE,9.0,11,2.0,788.0,,,,,,,,,,,11.0,11.0,,,B,,,,,,False,cue2.png,Easy,cue1.png,Hard,Right,Hard,Mid,0.0169112000148743,,,,,,,,,,,,,20,27,Male,1.2857142857142858,1.0,0.4,0.5,2.5555555555555554,2.75,3.6666666666666665,2.4444444444444446,0.625,3.2222222222222223,1.5,1.75,2.25,0.0,1.0,0.9230769230769232,0.8695413499954157,1.1758570031221693,,,,,,,,,,,,,,,,,,,0.011083735295136336,0.061719234565924125,0.022409983880579108,0.7344894379968855,,,,,,,,,,
11,240620_101134,FalseCHOICE,9.0,12,2.0,788.0,,,,,,,,,,,12.0,12.0,,,B,,,,,,False,cue1.png,Hard,cue2.png,Easy,Left,Hard,Mid,0.0160811999812722,,,,,,,,,,,,,20,27,Male,1.2857142857142858,1.0,0.4,0.5,2.5555555555555554,2.75,3.6666666666666665,2.4444444444444446,0.625,3.2222222222222223,1.5,1.75,2.25,0.0,1.0,1.0,0.8746369923106753,1.2339707091379368,,,,,,,,,,,,,,,,,,,0.009477590397769318,-0.15869159575979394,0.02534943176080316,1.6127269042487733,2.8580698347369894e+43,-0.16894725555094828,,,,,,,,
12,240620_101200,FalseCHOICE,9.0,13,2.0,788.0,,,,,,,,,,,13.0,13.0,,,B,,,,,,False,cue2.png,Easy,cue1.png,Hard,Right,Hard,Mid,0.0157775999978184,,,,,,,,,,,,,20,27,Male,1.2857142857142858,1.0,0.4,0.5,2.5555555555555554,2.75,3.6666666666666665,2.4444444444444446,0.625,3.2222222222222223,1.5,1.75,2.25,0.0,1.0,1.0,0.8321662230614143,0.7496090436764734,,,,,,,,,,,,,,,,,,,,,0.02153490433843247,0.4730363790621762,,,,,,,,,,
13,240620_101226,FalseCHOICE,9.0,14,2.0,788.0,,,,,,,,,,,14.0,14.0,,,B,,,,,,False,cue1.png,Hard,cue2.png,Easy,Left,Hard,Mid,0.0161469999002292,,,,,,,,,,,,,20,27,Male,1.2857142857142858,1.0,0.4,0.5,2.5555555555555554,2.75,3.6666666666666665,2.4444444444444446,0.625,3.2222222222222223,1.5,1.75,2.25,0.0,1.0,1.0,0.7885865999940926,0.2526013562200462,,,,,,,,,,,,,,,,,,,0.04411767458129672,4.5949577978661,0.030872712413671066,3.262952458036463,-6.593181602067343e+43,-0.16916488551557302,,,,,,,,
14,240620_101254,FalseCHOICE,9.0,15,2.0,788.0,,,,,,,,,,,15.0,15.0,,,B,,,,,,False,cue2.png,Easy,cue1.png,Hard,Right,Hard,Mid,0.014191500027664,,,,,,,,,,,,,20,27,Male,1.2857142857142858,1.0,0.4,0.5,2.5555555555555554,2.75,3.6666666666666665,2.4444444444444446,0.625,3.2222222222222223,1.5,1.75,2.25,0.0,0.8819444444444444,0.811965811965812,0.813878183340421,0.5410414680505651,,,,,,,,,,,,,,,,,,,,,0.018587948899238354,-0.40744416814786216,,,,,,,,,,
15,240620_101320,FalseCHOICE,9.0,16,2.0,788.0,,,,,,,,,,,16.0,16.0,,,B,,,,,,False,cue2.png,Easy,cue1.png,Hard,Left,Easy,Mid,0.0163893999997526,,,,,,,,,,,,,20,27,Male,1.2857142857142858,1.0,0.4,0.5,2.5555555555555554,2.75,3.6666666666666665,2.4444444444444446,0.625,3.2222222222222223,1.5,1.75,2.25,0.0,1.0,0.9230769230769232,0.8009213166757642,0.3932737297262943,,,,,,,,,,,,,,,,,,,,,0.0191999399740335,-0.2245957174191184,,,,,,,,,,
16,240620_101347,FalseCHOICE,9.0,17,2.0,788.0,,,,,,,,,,,17.0,17.0,,,B,,,,,,False,cue1.png,Hard,cue2.png,Easy,Left,Hard,Mid,0.0161342000355944,,,,,,,,,,,,,20,27,Male,1.2857142857142858,1.0,0.4,0.5,2.5555555555555554,2.75,3.6666666666666665,2.4444444444444446,0.625,3.2222222222222223,1.5,1.75,2.25,0.0,0.8819444444444444,0.8888888888888888,0.7502181384748278,-0.18497517585533155,,,,,,,,,,,,,,,,,,,,,,,,,,,,,,,,
17,240620_101413,FalseCHOICE,9.0,18,2.0,788.0,,,,,,,,,,,18.0,18.0,,,B,,,,,,False,cue1.png,Hard,cue2.png,Easy,Right,Easy,Mid,0.0145206999732181,,,,,,,,,,,,,20,27,Male,1.2857142857142858,1.0,0.4,0.5,2.5555555555555554,2.75,3.6666666666666665,2.4444444444444446,0.625,3.2222222222222223,1.5,1.75,2.25,0.0,1.0,1.0,0.7766990076768427,0.11702825229727583,,,,,,,,,,,,,,,,,,,0.013693226641239297,0.4198190269726987,,,,,,,,,,,,
18,240620_101438,FalseCHOICE,9.0,19,2.0,788.0,,,,,,,,,,,19.0,19.0,,,B,,,,,,False,cue2.png,Easy,cue1.png,Hard,Right,Hard,Mid,0.0166618999792262,,,,,,,,,,,,,20,27,Male,1.2857142857142858,1.0,0.4,0.5,2.5555555555555554,2.75,3.6666666666666665,2.4444444444444446,0.625,3.2222222222222223,1.5,1.75,2.25,0.0,1.0,1.0,0.7211765769170597,-0.5161822477396469,,,,,,,,,,,,,,,,,,,0.003993274332430063,-0.911302807682026,0.01724747168776772,-0.8079470373059406,,,,,,,,,,
19,240620_101502,FalseCHOICE,9.0,20,2.0,788.0,,,,,,,,,,,20.0,20.0,,,B,,,,,,False,cue2.png,Easy,cue1.png,Hard,Left,Easy,Mid,0.0167106000008061,,,,,,,,,,,,,20,27,Male,1.2857142857142858,1.0,0.4,0.5,2.5555555555555554,2.75,3.6666666666666665,2.4444444444444446,0.625,3.2222222222222223,1.5,1.75,2.25,0.0,1.0,1.0,0.6322734615443131,-1.5300857344867234,,,,,,,,,,,,,,,,,,,0.009564390504504444,-0.14678004056373853,,,3.3751642400655994e+43,-0.16893534863704465,,,,,,,,
20,240620_101525,FalseCHOICE,9.0,21,2.0,788.0,,,,,,,,,,,21.0,21.0,,,B,,,,,,False,cue2.png,Easy,cue1.png,Hard,Right,Hard,Mid,0.0168030000058934,,,,,,,,,,,,,20,27,Male,1.2857142857142858,1.0,0.4,0.5,2.5555555555555554,2.75,3.6666666666666665,2.4444444444444446,0.625,3.2222222222222223,1.5,1.75,2.25,0.0,1.0,1.0,0.6572282846139458,-1.245486235184888,,,,,,,,,,,,,,,,,,,0.0057088348118973006,-0.6758769065860334,0.01648246430675255,-1.0365131392895373,1.4525087569200703e+43,-0.16897962081069068,,,,,,,,
21,240620_101550,FalseCHOICE,9.0,22,2.0,788.0,,,,,,,,,,,22.0,22.0,,,B,,,,,,False,cue1.png,Hard,cue2.png,Easy,Left,Hard,Mid,0.0162560000317171,,,,,,,,,,,,,20,27,Male,1.2857142857142858,1.0,0.4,0.5,2.5555555555555554,2.75,3.6666666666666665,2.4444444444444446,0.625,3.2222222222222223,1.5,1.75,2.25,0.0,1.0,1.0,0.6866194384727771,-0.9102922068086453,,,,,,,,,,,,,,,,,,,,,0.015526380802487224,-1.3221682651927067,-5.513658593008716e+42,-0.16902576318292115,,,,,,,,
22,240620_101613,FalseCHOICE,9.0,23,2.0,788.0,,,,,,,,,,,23.0,23.0,,,B,,,,,,False,cue2.png,Easy,cue1.png,Hard,Right,Hard,Mid,0.016472699935548,,,,,,,,,,,,,20,27,Male,1.2857142857142858,1.0,0.4,0.5,2.5555555555555554,2.75,3.6666666666666665,2.4444444444444446,0.625,3.2222222222222223,1.5,1.75,2.25,0.0,0.8819444444444444,0.8888888888888888,0.5968264769046352,-1.9343440236383862,,,,,,,,,,,,,,,,,,,0.005615250630155676,-0.6887194385623441,0.013006766782934045,-2.0749693090052106,-2.381902244287822e+43,-0.16906791416910247,,,,,,,,
23,240620_101638,FalseCHOICE,9.0,24,2.0,788.0,,,,,,,,,,,24.0,24.0,,,B,,,,,,False,cue1.png,Hard,cue2.png,Easy,Left,Hard,Mid,0.0161766000092029,,,,,,,,,,,,,20,27,Male,1.2857142857142858,1.0,0.4,0.5,2.5555555555555554,2.75,3.6666666666666665,2.4444444444444446,0.625,3.2222222222222223,1.5,1.75,2.25,0.0,1.0,1.0,0.6868339923228353,-0.9078453083421861,,,,,,,,,,,,,,,,,,,0.006485210819168926,-0.56933503686542,,,-3.283177632515259e+43,-0.16908866745581466,,,,,,,,
24,240620_101703,FalseCHOICE,9.0,25,2.0,788.0,,,,,,,,,,,25.0,25.0,,,B,,,,,,False,cue1.png,Hard,cue2.png,Easy,Left,Hard,Mid,0.0160379000008106,,,,,,,,,,,,,20,27,Male,1.2857142857142858,1.0,0.4,0.5,2.5555555555555554,2.75,3.6666666666666665,2.4444444444444446,0.625,3.2222222222222223,1.5,1.75,2.25,0.0,1.0,1.0,0.7096174461677527,-0.6480093824958321,,,,,,,,,,,,,,,,,,,0.007037675483135884,-0.4935204602912925,0.022254650440036817,0.6880794818402036,-3.2949827115062974e+43,-0.16908893928636964,,,,,,,,
25,240620_101728,FalseCHOICE,9.0,26,2.0,788.0,,,,,,,,,,,26.0,26.0,,,B,,,,,,False,cue2.png,Easy,cue1.png,Hard,Left,Easy,Mid,0.0159786000149324,,,,,,,,,,,,,20,27,Male,1.2857142857142858,1.0,0.4,0.5,2.5555555555555554,2.75,3.6666666666666665,2.4444444444444446,0.625,3.2222222222222223,1.5,1.75,2.25,0.0,0.8819444444444444,0.8888888888888888,0.737869515370291,-0.3258061463980518,,,,,,,,,,,,,,,,,,,0.005229725594475391,-0.7416249350495807,0.019949972944151934,-0.0005036150505661615,-2.380846945610049e+43,-0.1690678898691867,,,,,,,,
26,240620_101754,FalseCHOICE,9.0,27,2.0,788.0,,,,,,,,,,,27.0,27.0,,,B,,,,,,False,cue2.png,Easy,cue1.png,Hard,Right,Hard,Mid,0.0171885000308975,,,,,,,,,,,,,20,27,Male,1.2857142857142858,1.0,0.4,0.5,2.5555555555555554,2.75,3.6666666666666665,2.4444444444444446,0.625,3.2222222222222223,1.5,1.75,2.25,0.0,0.8819444444444444,0.8888888888888888,0.8511548153518771,0.9661661333914733,,,,,,,,,,,,,,,,,,,0.006136840135768453,-0.6171418516274696,0.018489147137621786,-0.4369637964315055,3.002554171107084e+43,-0.16894392857131776,,,,,,,,
27,240620_101822,FalseCHOICE,9.0,28,2.0,788.0,,,,,,,,,,,28.0,28.0,,,B,,,,,,False,cue1.png,Hard,cue2.png,Easy,Left,Hard,Mid,0.0160951999714598,,,,,,,,,,,,,20,27,Male,1.2857142857142858,1.0,0.4,0.5,2.5555555555555554,2.75,3.6666666666666665,2.4444444444444446,0.625,3.2222222222222223,1.5,1.75,2.25,0.0,1.0,1.0,0.9130833769181314,1.6724359220034526,,,,,,,,,,,,,,,,,,,0.007025854969737067,-0.49514258615140666,,,6.693343218755102e+42,-0.16899765463676478,,,,,,,,
28,240620_101849,FalseCHOICE,9.0,29,2.0,788.0,,,,,,,,,,,29.0,29.0,,,B,,,,,,False,cue2.png,Easy,cue1.png,Hard,Left,Easy,Mid,0.0167112000053748,,,,,,,,,,,,,20,27,Male,1.2857142857142858,1.0,0.4,0.5,2.5555555555555554,2.75,3.6666666666666665,2.4444444444444446,0.625,3.2222222222222223,1.5,1.75,2.25,0.0,1.0,1.0,0.8186135846100604,0.5950467730199541,,,,,,,,,,,,,,,,,,,0.006360883095471158,-0.5863964967982405,0.021479699573170273,0.45654250159114357,2.1285746294225042e+43,-0.16896405332813028,,,,,,,,
29,240620_101914,FalseCHOICE,9.0,30,2.0,788.0,,,,,,,,,,,30.0,30.0,,,B,,,,,,False,cue2.png,Easy,cue1.png,Hard,Left,Easy,Mid,0.0164492001058533,,,,,,,,,,,,,20,27,Male,1.2857142857142858,1.0,0.4,0.5,2.5555555555555554,2.75,3.6666666666666665,2.4444444444444446,0.625,3.2222222222222223,1.5,1.75,2.25,0.0,0.8819444444444444,0.8888888888888888,0.7084296461678325,-0.6615557532436719,,,,,,,,,,,,,,,,,,,0.010232846126104842,-0.05504805621141365,0.01777647148665008,-0.6498944158786851,2.8029774636035986e+43,-0.16894852413964903,,,,,,,,
30,240620_101938,FalseCHOICE,9.0,31,2.0,788.0,,,,,,,,,,,31.0,31.0,,,B,,,,,,False,cue1.png,Hard,cue2.png,Easy,Left,Hard,Mid,0.0155786999966949,,,,,,,,,,,,,20,27,Male,1.2857142857142858,1.0,0.4,0.5,2.5555555555555554,2.75,3.6666666666666665,2.4444444444444446,0.625,3.2222222222222223,1.5,1.75,2.25,0.0,1.0,1.0,0.6725051769216617,-1.071259558059904,,,,,,,,,,,,,,,,,,,0.021626729903389208,1.5085315362044718,0.019495865280863625,-0.13618023864203155,2.8359572785807106e+43,-0.16894776472741513,,,,,,,,
31,240620_102003,FalseCHOICE,9.0,32,2.0,788.0,,,,,,,,,,,32.0,32.0,,,B,,,,,,False,cue2.png,Easy,cue1.png,Hard,Right,Hard,Mid,0.0165482000447809,,,,,,,,,,,,,20,27,Male,1.2857142857142858,1.0,0.4,0.5,2.5555555555555554,2.75,3.6666666666666665,2.4444444444444446,0.625,3.2222222222222223,1.5,1.75,2.25,0.0,0.8819444444444444,0.8888888888888888,0.7337070769325902,-0.37327704578847565,,,,,,,,,,,,,,,,,,,0.028752965087254483,2.486462865156777,0.02610303070229298,1.8378844344764154,2.1149905470314004e+43,-0.1689643661230432,,,,,,,,
32,240620_102032,FalseCHOICE,9.0,33,2.0,788.0,,,,,,,,,,,33.0,33.0,,,B,,,,,,False,cue1.png,Hard,cue2.png,Easy,Left,Hard,Mid,0.016945399926044,,,,,,,,,,,,,20,27,Male,1.2857142857142858,1.0,0.4,0.5,2.5555555555555554,2.75,3.6666666666666665,2.4444444444444446,0.625,3.2222222222222223,1.5,1.75,2.25,0.0,0.9375,0.9230769230769232,0.9378784166668388,1.9552131582098844,,,,,,,,,,,,,,,,,,,0.007143057979864739,-0.479058848736892,0.01779723282271704,-0.6436914199670648,9.90245292494683e+42,-0.16899026515573673,,,,,,,,
33,240620_102059,FalseCHOICE,9.0,34,2.0,788.0,,,,,,,,,,,34.0,34.0,,,B,,,,,,False,cue1.png,Hard,cue2.png,Easy,Right,Easy,Mid,0.0160866000223904,,,,,,,,,,,,,20,27,Male,1.2857142857142858,1.0,0.4,0.5,2.5555555555555554,2.75,3.6666666666666665,2.4444444444444446,0.625,3.2222222222222223,1.5,1.75,2.25,0.0,1.0,0.9230769230769232,0.8373013000042798,0.8081724854102815,,,,,,,,,,,,,,,,,,,0.00795567762050104,-0.36754327500176237,0.01951309493668472,-0.13103242521267489,-5.0707195985587294e+42,-0.16902474324605524,,,,,,,,
34,240620_102125,FalseCHOICE,9.0,35,2.0,788.0,,,,,,,,,,,35.0,35.0,,,B,,,,,,False,cue1.png,Hard,cue2.png,Easy,Right,Easy,Mid,0.017709800042212,,,,,,,,,,,,,20,27,Male,1.2857142857142858,1.0,0.4,0.5,2.5555555555555554,2.75,3.6666666666666665,2.4444444444444446,0.625,3.2222222222222223,1.5,1.75,2.25,0.0,0.8819444444444444,0.811965811965812,0.8021975833398756,0.4078290264145619,,,,,,,,,,,,,,,,,,,0.005486306924669545,-0.7064143484288596,0.016875292451856178,-0.9191453855867763,,,,,,,,,,
35,240620_102151,FalseCHOICE,9.0,36,2.0,788.0,,,,,,,,,,,36.0,36.0,,,B,,,,,,False,cue2.png,Easy,cue1.png,Hard,Left,Easy,Mid,0.0167080000974237,,,,,,,,,,,,,20,27,Male,1.2857142857142858,1.0,0.4,0.5,2.5555555555555554,2.75,3.6666666666666665,2.4444444444444446,0.625,3.2222222222222223,1.5,1.75,2.25,0.0,1.0,1.0,0.7536941307525222,-0.14533291275258417,,,,,,,,,,,,,,,,,,,0.018353557412396408,1.059354959594419,0.016773546990441823,-0.9495445217090202,-2.4942284521857624e+43,-0.16907050065712628,,,,,,,,
36,240620_102216,FalseCHOICE,9.0,37,2.0,788.0,,,,,,,,,,,37.0,37.0,,,B,,,,,,False,cue1.png,Hard,cue2.png,Easy,Left,Hard,Mid,0.0162627999670803,,,,,,,,,,,,,20,27,Male,1.2857142857142858,1.0,0.4,0.5,2.5555555555555554,2.75,3.6666666666666665,2.4444444444444446,0.625,3.2222222222222223,1.5,1.75,2.25,0.0,1.0,1.0,0.6660450230567501,-1.1449349574100194,,,,,,,,,,,,,,,,,,,,,0.016996242376649633,-0.8830084102695394,-2.5353229997908746e+43,-0.16907144692387216,,,,,,,,
37,240620_102242,FalseCHOICE,9.0,38,2.0,788.0,,,,,,,,,,,38.0,38.0,,,B,,,,,,False,cue2.png,Easy,cue1.png,Hard,Right,Hard,Mid,0.0162801999831572,,,,,,,,,,,,,20,27,Male,1.2857142857142858,1.0,0.4,0.5,2.5555555555555554,2.75,3.6666666666666665,2.4444444444444446,0.625,3.2222222222222223,1.5,1.75,2.25,0.0,1.0,1.0,0.7971773692406714,0.35057554819775366,,,,,,,,,,,,,,,,,,,0.018424844448115003,1.0691376602461173,0.022583007684914655,0.786184856222614,-1.7754907142395214e+43,-0.16905395058759,,,,,,,,
38,240620_102309,FalseCHOICE,9.0,39,2.0,788.0,,,,,,,,,,,39.0,39.0,,,B,,,,,,False,cue2.png,Easy,cue1.png,Hard,Right,Hard,Mid,0.016272300039418,,,,,,,,,,,,,20,27,Male,1.2857142857142858,1.0,0.4,0.5,2.5555555555555554,2.75,3.6666666666666665,2.4444444444444446,0.625,3.2222222222222223,1.5,1.75,2.25,0.0,0.8819444444444444,0.811965811965812,0.8472662916756235,0.9218191192612949,,,,,,,,,,,,,,,,,,,0.004900867927528247,-0.7867539838356663,0.01985357016836886,-0.029306483137793746,-3.1348706859616185e+42,-0.16902028564873933,,,,,,,,
39,240620_102335,FalseCHOICE,9.0,40,2.0,788.0,,,,,,,,,,,40.0,40.0,,,B,,,,,,False,cue1.png,Hard,cue2.png,Easy,Left,Hard,Mid,0.0138314999639987,,,,,,,,,,,,,20,27,Male,1.2857142857142858,1.0,0.4,0.5,2.5555555555555554,2.75,3.6666666666666665,2.4444444444444446,0.625,3.2222222222222223,1.5,1.75,2.25,0.0,1.0,1.0,0.8176649307760482,0.5842277659920427,,,,,,,,,,,,,,,,,,,0.008081372534530798,-0.3502941959090634,0.016951646612139926,-0.8963325693716853,1.1576542131571796e+43,-0.16898641030141134,,,,,,,,
40,240620_102359,FalseCHOICE,9.0,41,2.0,788.0,,,,,,,,,,,41.0,41.0,,,B,,,,,,False,cue1.png,Hard,cue2.png,Easy,Left,Hard,Mid,0.0160118000349029,,,,,,,,,,,,,20,27,Male,1.2857142857142858,1.0,0.4,0.5,2.5555555555555554,2.75,3.6666666666666665,2.4444444444444446,0.625,3.2222222222222223,1.5,1.75,2.25,0.0,0.8819444444444444,0.8888888888888888,0.6433262538361865,-1.4040331817045628,,,,,,,,,,,,,,,,,,,0.006989166875196932,-0.500177283452949,0.019405629640384475,-0.16314051264218984,2.3273948303286387e+43,-0.16895947517955606,,,,,,,,
41,240620_102425,FalseCHOICE,9.0,42,2.0,788.0,,,,,,,,,,,42.0,42.0,,,B,,,,,,False,cue2.png,Easy,cue1.png,Hard,Left,Easy,Mid,0.016111799981445,,,,,,,,,,,,,20,27,Male,1.2857142857142858,1.0,0.4,0.5,2.5555555555555554,2.75,3.6666666666666665,2.4444444444444446,0.625,3.2222222222222223,1.5,1.75,2.25,0.0,1.0,1.0,0.7844027153735694,0.20488587193009564,,,,,,,,,,,,,,,,,,,0.009268372039522375,-0.18740257453648326,0.021330279741277255,0.41189939175668566,2.626824634680872e+43,-0.16895258033624727,,,,,,,,
42,240620_102452,FalseCHOICE,9.0,43,2.0,788.0,,,,,,,,,,,43.0,43.0,,,B,,,,,,False,cue1.png,Hard,cue2.png,Easy,Left,Hard,Mid,0.0161722999764606,,,,,,,,,,,,,20,27,Male,1.2857142857142858,1.0,0.4,0.5,2.5555555555555554,2.75,3.6666666666666665,2.4444444444444446,0.625,3.2222222222222223,1.5,1.75,2.25,0.0,1.0,1.0,0.8359868846153125,0.7931821181962596,,,,,,,,,,,,,,,,,,,0.005310101301831384,-0.7305949984446126,0.023614194563690086,1.0942790931508422,1.8546177723150122e+43,-0.1689703616166696,,,,,,,,
43,240620_102517,FalseCHOICE,9.0,44,2.0,788.0,,,,,,,,,,,44.0,44.0,,,B,,,,,,False,cue2.png,Easy,cue1.png,Hard,Right,Hard,Mid,0.0154557999921962,,,,,,,,,,,,,20,27,Male,1.2857142857142858,1.0,0.4,0.5,2.5555555555555554,2.75,3.6666666666666665,2.4444444444444446,0.625,3.2222222222222223,1.5,1.75,2.25,0.0,1.0,1.0,0.7290902999946132,-0.42592948901639144,,,,,,,,,,,,,,,,,,,0.006532052977143874,-0.562906900182091,,,,,,,,,,,,
44,240620_102541,FalseCHOICE,9.0,45,2.0,788.0,,,,,,,,,,,45.0,45.0,,,B,,,,,,False,cue1.png,Hard,cue2.png,Easy,Left,Hard,Mid,0.0167524999706074,,,,,,,,,,,,,20,27,Male,1.2857142857142858,1.0,0.4,0.5,2.5555555555555554,2.75,3.6666666666666665,2.4444444444444446,0.625,3.2222222222222223,1.5,1.75,2.25,0.0,1.0,0.9230769230769232,0.6362554166698828,-1.4846731730825677,,,,,,,,,,,,,,,,,,,0.006314553032157425,-0.5927543588695662,0.024853260571760794,1.4644826945713632,-1.6032803783284117e+43,-0.1690499851731089,,,,,,,,
45,240620_102606,FalseCHOICE,9.0,46,2.0,788.0,,,,,,,,,,,46.0,46.0,,,B,,,,,,False,cue1.png,Hard,cue2.png,Easy,Left,Hard,Mid,0.0144394000526517,,,,,,,,,,,,,20,27,Male,1.2857142857142858,1.0,0.4,0.5,2.5555555555555554,2.75,3.6666666666666665,2.4444444444444446,0.625,3.2222222222222223,1.5,1.75,2.25,0.0,0.7083333333333333,0.7777777777777778,0.671222592318932,-1.0858869082410922,,,,,,,,,,,,,,,,,,,,,,,-2.78412653511939e+43,-0.16907717601752226,,,,,,,,
46,240620_102630,FalseCHOICE,9.0,47,2.0,788.0,,,,,,,,,,,47.0,47.0,,,B,,,,,,False,cue2.png,Easy,cue1.png,Hard,Right,Hard,Mid,0.0173404000233858,,,,,,,,,,,,,20,27,Male,1.2857142857142858,1.0,0.4,0.5,2.5555555555555554,2.75,3.6666666666666665,2.4444444444444446,0.625,3.2222222222222223,1.5,1.75,2.25,0.0,1.0,1.0,0.6846915615650897,-0.932278850477182,,,,,,,,,,,,,,,,,,,,,,,-1.7978516051692433e+43,-0.1690544654823566,,,,,,,,
47,240620_102656,FalseCHOICE,9.0,48,2.0,788.0,,,,,,,,,,,48.0,48.0,,,B,,,,,,False,cue2.png,Easy,cue1.png,Hard,Right,Hard,Mid,0.0165644999360665,,,,,,,,,,,,,20,27,Male,1.2857142857142858,1.0,0.4,0.5,2.5555555555555554,2.75,3.6666666666666665,2.4444444444444446,0.625,3.2222222222222223,1.5,1.75,2.25,0.0,1.0,1.0,0.8035555538596012,0.4233161219913232,,,,,,,,,,,,,,,,,,,,,0.024999193840365752,1.5080841018028823,8.222863147537421e+42,-0.16899413267599356,,,,,,,,
48,240620_102720,FalseCHOICE,9.0,49,2.0,788.0,,,,,,,,,,,49.0,49.0,,,B,,,,,,False,cue1.png,Hard,cue2.png,Easy,Left,Hard,Mid,0.0164806999964639,,,,,,,,,,,,,20,27,Male,1.2857142857142858,1.0,0.4,0.5,2.5555555555555554,2.75,3.6666666666666665,2.4444444444444446,0.625,3.2222222222222223,1.5,1.75,2.25,0.0,1.0,1.0,0.6107095461517859,-1.7760133255810693,,,,,,,,,,,,,,,,,,,,,0.01516041609594752,-1.4315098591605326,,,,,,,,,,
49,240620_102743,FalseCHOICE,9.0,50,2.0,788.0,,,,,,,,,,,50.0,50.0,,,B,,,,,,False,cue2.png,Easy,cue1.png,Hard,Right,Hard,Mid,0.0177967000054195,,,,,,,,,,,,,20,27,Male,1.2857142857142858,1.0,0.4,0.5,2.5555555555555554,2.75,3.6666666666666665,2.4444444444444446,0.625,3.2222222222222223,1.5,1.75,2.25,0.0,0.8819444444444444,0.8888888888888888,0.6435866769170389,-1.4010631635156772,,,,,,,,,,,,,,,,,,,0.008662448063904205,-0.27055335800514524,0.01615441888366969,-1.1345253486986933,-1.4033550667419838e+43,-0.16904538157761903,,,,,,,,
0,240620_093540,OFFLINERATING,9.0,1,1.0,,,,,,,,,,,,,,,,,T0,cue2.png,Easy,33.0,2.6591432999121025,,,,,,,,,,,,,,,,,,,,,,20,27,Male,1.2857142857142858,1.0,0.4,0.5,2.5555555555555554,2.75,3.6666666666666665,2.4444444444444446,0.625,3.2222222222222223,1.5,1.75,2.25,0.0,,,,,,,,,,,,,,,,,,,,,,,,,,,,,-1.8466611778085336,,,0.017576090146377885,1.2782568476923546,,,
1,240620_093547,OFFLINERATING,9.0,2,3.0,,,,,,,,,,,,,,,,,T0,cue1.png,Hard,49.0,1.5768748000264168,,,,,,,,,,,,,,,,,,,,,,20,27,Male,1.2857142857142858,1.0,0.4,0.5,2.5555555555555554,2.75,3.6666666666666665,2.4444444444444446,0.625,3.2222222222222223,1.5,1.75,2.25,0.0,,,,,,,,,,,,,,,,,,,,,,,,,,,,,-0.6992212226653671,0.00984393469717386,1.6019205443177589,,,,,
2,240620_095941,OFFLINERATING,9.0,3,1.0,,,,,,,,,,,,,,,,,T1,cue2.png,Easy,60.0,0.8242758000269532,,,,,,,,,,,,,,,,,,,,,,20,27,Male,1.2857142857142858,1.0,0.4,0.5,2.5555555555555554,2.75,3.6666666666666665,2.4444444444444446,0.625,3.2222222222222223,1.5,1.75,2.25,0.0,,,,,,,,,,,,,,,,,,,,,,,,,,,,,0.08964374649555988,,,,,,,
3,240620_095948,OFFLINERATING,9.0,4,3.0,,,,,,,,,,,,,,,,,T1,cue1.png,Hard,57.0,0.9184518000110984,,,,,,,,,,,,,,,,,,,,,,20,27,Male,1.2857142857142858,1.0,0.4,0.5,2.5555555555555554,2.75,3.6666666666666665,2.4444444444444446,0.625,3.2222222222222223,1.5,1.75,2.25,0.0,,,,,,,,,,,,,,,,,,,,,,,,,,,,,-0.12550124509378383,,,,,-6211.211185208619,-0.7071081481726773,
4,240620_100505,OFFLINERATING,9.0,5,1.0,,,,,,,,,,,,,,,,,T2,cue2.png,Easy,77.0,0.9180365999927744,,,,,,,,,,,,,,,,,,,,,,20,27,Male,1.2857142857142858,1.0,0.4,0.5,2.5555555555555554,2.75,3.6666666666666665,2.4444444444444446,0.625,3.2222222222222223,1.5,1.75,2.25,0.0,,,,,,,,,,,,,,,,,,,,,,,,,,,,,1.3087986988351743,0.007083475074653702,-0.9492140093621829,,,6781943455.4739,1.4142135623722143,
5,240620_100512,OFFLINERATING,9.0,6,3.0,,,,,,,,,,,,,,,,,T2,cue1.png,Hard,76.0,1.1518843999365345,,,,,,,,,,,,,,,,,,,,,,20,27,Male,1.2857142857142858,1.0,0.4,0.5,2.5555555555555554,2.75,3.6666666666666665,2.4444444444444446,0.625,3.2222222222222223,1.5,1.75,2.25,0.0,,,,,,,,,,,,,,,,,,,,,,,,,,,,,1.2370837016387264,,,0.01647499864921591,-0.1151584118266885,,,
6,240620_102815,OFFLINERATING,9.0,7,1.0,,,,,,,,,,,,,,,,,T3,cue2.png,Easy,50.0,1.2400736000854522,,,,,,,,,,,,,,,,,,,,,,20,27,Male,1.2857142857142858,1.0,0.4,0.5,2.5555555555555554,2.75,3.6666666666666665,2.4444444444444446,0.625,3.2222222222222223,1.5,1.75,2.25,0.0,,,,,,,,,,,,,,,,,,,,,,,,,,,,,-0.6275062254689192,0.008190148639488781,0.07354073331267091,,,,,
7,240620_102822,OFFLINERATING,9.0,8,3.0,,,,,,,,,,,,,,,,,T3,cue1.png,Hard,68.0,0.7347620000364259,,,,,,,,,,,,,,,,,,,,,,20,27,Male,1.2857142857142858,1.0,0.4,0.5,2.5555555555555554,2.75,3.6666666666666665,2.4444444444444446,0.625,3.2222222222222223,1.5,1.75,2.25,0.0,,,,,,,,,,,,,,,,,,,,,,,,,,,,,0.6633637240671432,0.007324736628289466,-0.7262472682682518,0.015646905342412806,-1.1630984358656662,2529.4094086643286,-0.7071054141995369,
0,240620_100530,LEARNINGCHECK,9.0,1,,,,,,,,,,,,1.0,1.0,1.0,,,B,,,,,,,,,,,,,,,cue2.png,Easy,Left,Left,Easy,0.0140420999377965,1.0,,,,,,20,27,Male,1.2857142857142858,1.0,0.4,0.5,2.5555555555555554,2.75,3.6666666666666665,2.4444444444444446,0.625,3.2222222222222223,1.5,1.75,2.25,0.0,,,,,,,,,,,,,,,,,,,,,,,,,,,,,,,,,,,,
1,240620_100535,LEARNINGCHECK,9.0,2,,,,,,,,,,,,2.0,2.0,2.0,,,B,,,,,,,,,,,,,,,cue1.png,Hard,Right,Right,Hard,0.0127311999676749,1.0,,,,,,20,27,Male,1.2857142857142858,1.0,0.4,0.5,2.5555555555555554,2.75,3.6666666666666665,2.4444444444444446,0.625,3.2222222222222223,1.5,1.75,2.25,0.0,,,,,,,,,,,,,,,,,,,,,,,,,,,,,,,,,,,,
2,240620_102836,LEARNINGCHECK,9.0,1,,,,,,,,,,,,1.0,1.0,1.0,,,B,,,,,,,,,,,,,,,cue2.png,Easy,Middle,Middle,Mid,0.0138351999921724,1.0,,,,,,20,27,Male,1.2857142857142858,1.0,0.4,0.5,2.5555555555555554,2.75,3.6666666666666665,2.4444444444444446,0.625,3.2222222222222223,1.5,1.75,2.25,0.0,,,,,,,,,,,,,,,,,,,,,,,,,,,,,,,,,,,,
3,240620_102841,LEARNINGCHECK,9.0,2,,,,,,,,,,,,2.0,2.0,2.0,,,B,,,,,,,,,,,,,,,cue1.png,Hard,Middle,Middle,Mid,0.0154889998957514,1.0,,,,,,20,27,Male,1.2857142857142858,1.0,0.4,0.5,2.5555555555555554,2.75,3.6666666666666665,2.4444444444444446,0.625,3.2222222222222223,1.5,1.75,2.25,0.0,,,,,,,,,,,,,,,,,,,,,,,,,,,,,,,,,,,,
0,240620_102856,DEMANDRATING,9.0,-1,,,,,,,,,,,,,,,,,,,,,,,,,,,,,,,,,,,,,,,1.0,MentalDemand,1.0,22.0,3.375697100069374,20,27,Male,1.2857142857142858,1.0,0.4,0.5,2.5555555555555554,2.75,3.6666666666666665,2.4444444444444446,0.625,3.2222222222222223,1.5,1.75,2.25,0.0,,,,,,,,,,,,,,,,,,,,,,,,,,,,,,,,,,,,-1.0765322867362368
1,240620_102902,DEMANDRATING,9.0,-1,,,,,,,,,,,,,,,,,,,,,,,,,,,,,,,,,,,,,,,2.0,Effort,1.0,24.0,3.788399199955165,20,27,Male,1.2857142857142858,1.0,0.4,0.5,2.5555555555555554,2.75,3.6666666666666665,2.4444444444444446,0.625,3.2222222222222223,1.5,1.75,2.25,0.0,,,,,,,,,,,,,,,,,,,,,,,,,,,,,,,,,,,,-0.9907907771731738
2,240620_102908,DEMANDRATING,9.0,-1,,,,,,,,,,,,,,,,,,,,,,,,,,,,,,,,,,,,,,,3.0,Frustration,1.0,24.0,4.607867000042461,20,27,Male,1.2857142857142858,1.0,0.4,0.5,2.5555555555555554,2.75,3.6666666666666665,2.4444444444444446,0.625,3.2222222222222223,1.5,1.75,2.25,0.0,,,,,,,,,,,,,,,,,,,,,,,,,,,,,,,,,,,,-0.9907907771731738
3,240620_102913,DEMANDRATING,9.0,-1,,,,,,,,,,,,,,,,,,,,,,,,,,,,,,,,,,,,,,,4.0,MentalDemand,2.0,50.0,3.9924548000562936,20,27,Male,1.2857142857142858,1.0,0.4,0.5,2.5555555555555554,2.75,3.6666666666666665,2.4444444444444446,0.625,3.2222222222222223,1.5,1.75,2.25,0.0,,,,,,,,,,,,,,,,,,,,,,,,,,,,,,,,,,,,0.12384884714664657
4,240620_102919,DEMANDRATING,9.0,-1,,,,,,,,,,,,,,,,,,,,,,,,,,,,,,,,,,,,,,,5.0,Effort,2.0,37.0,3.9665264000650495,20,27,Male,1.2857142857142858,1.0,0.4,0.5,2.5555555555555554,2.75,3.6666666666666665,2.4444444444444446,0.625,3.2222222222222223,1.5,1.75,2.25,0.0,,,,,,,,,,,,,,,,,,,,,,,,,,,,,,,,,,,,-0.4334709650132636
5,240620_102924,DEMANDRATING,9.0,-1,,,,,,,,,,,,,,,,,,,,,,,,,,,,,,,,,,,,,,,6.0,Frustration,2.0,35.0,3.3056904999539256,20,27,Male,1.2857142857142858,1.0,0.4,0.5,2.5555555555555554,2.75,3.6666666666666665,2.4444444444444446,0.625,3.2222222222222223,1.5,1.75,2.25,0.0,,,,,,,,,,,,,,,,,,,,,,,,,,,,,,,,,,,,-0.5192124745763267
6,240620_102927,DEMANDRATING,9.0,-1,,,,,,,,,,,,,,,,,,,,,,,,,,,,,,,,,,,,,,,7.0,MentalDemand,3.0,81.0,1.749830499989912,20,27,Male,1.2857142857142858,1.0,0.4,0.5,2.5555555555555554,2.75,3.6666666666666665,2.4444444444444446,0.625,3.2222222222222223,1.5,1.75,2.25,0.0,,,,,,,,,,,,,,,,,,,,,,,,,,,,,,,,,,,,1.4528422453741248
7,240620_102931,DEMANDRATING,9.0,-1,,,,,,,,,,,,,,,,,,,,,,,,,,,,,,,,,,,,,,,8.0,Effort,3.0,85.0,2.030191699974239,20,27,Male,1.2857142857142858,1.0,0.4,0.5,2.5555555555555554,2.75,3.6666666666666665,2.4444444444444446,0.625,3.2222222222222223,1.5,1.75,2.25,0.0,,,,,,,,,,,,,,,,,,,,,,,,,,,,,,,,,,,,1.6243252645002508
8,240620_102934,DEMANDRATING,9.0,-1,,,,,,,,,,,,,,,,,,,,,,,,,,,,,,,,,,,,,,,9.0,Frustration,3.0,66.0,2.084827000042424,20,27,Male,1.2857142857142858,1.0,0.4,0.5,2.5555555555555554,2.75,3.6666666666666665,2.4444444444444446,0.625,3.2222222222222223,1.5,1.75,2.25,0.0,,,,,,,,,,,,,,,,,,,,,,,,,,,,,,,,,,,,0.8097809236511514
