,END,Phase,Block,TrialN,NbackLevel,ISI,Letter_Resp,Letter_RT,Letter_Accuracy,Trial_A_measure,Trial_ACC,Trial_RT,TrialCountCali,CaliEnd_A_measure,ISI_calibrated,TrialIndex,TrialNumber_total,TrialNumber_valid,CueLearning,TrialDemandLearning,CueMapping,OfflineRatingTimePoint,CueFigure,TrialDemand,OfflineRating,OfflineRatingRT,PhaseType,CueLeft,CueDemandLeft,CueRight,CueDemandRight,Choice,ChoiceDemand,TaskDemand,ChoiceRT,CueCheck,CueDemandCheck,CorrectAnswer,Answer,AnswerDemand,AnswerRT,AnswerACC,DemandRatingQuesIndex,QuesTLX,DemandLevel,DemandRating,DemandRatingRT,PID,Age,Gender,BAI_bis,BAI_bas_d,BAI_bas_rr,BAI_bas_fs,NFC,BFI_ext,BFI_agr,BFI_con,BFI_neu,BFI_open,UPPS_lps,UPPS_lpm,UPPS_pu,UPPS_ss,Task_A_measure,Task_ACC,Task_RT,Task_RT_z,Task_RT_log,Task_RT_log_z,cue_i_on_zyg_values,cue_i_on_zyg_zvalues,cue_e_on_zyg_values,cue_e_on_zyg_zvalues,cue_i_on_cor_values,cue_i_on_cor_zvalues,cue_e_on_cor_values,cue_e_on_cor_zvalues,cue_i_on_scr_values,cue_i_on_scr_zvalues,cue_e_on_scr_values,cue_e_on_scr_zvalues,cue_e_true_zyg_values,cue_e_true_zyg_zvalues,cue_e_true_cor_values,cue_e_true_cor_zvalues,cue_e_true_scr_values,cue_e_true_scr_zvalues,cue_e_false_zyg_values,cue_e_false_zyg_zvalues,cue_e_false_cor_values,cue_e_false_cor_zvalues,cue_e_false_scr_values,cue_e_false_scr_zvalues,OfflineRating_z,cue_i_off_zyg_values,cue_i_off_zyg_zvalues,cue_i_off_cor_values,cue_i_off_cor_zvalues,cue_i_off_scr_values,cue_i_off_scr_zvalues,DemandRating_z
0,240620_093239,PRACTICE,0.0,1,3.0,788.0,,,,,,,,,,7.0,1.0,1.0,cue1.png,Hard,B,,,,,,,,,,,,,,,,,,,,,,,,,,,20,27,Male,1.2857142857142858,1.0,0.4,0.5,2.5555555555555554,2.75,3.6666666666666665,2.4444444444444446,0.625,3.2222222222222223,1.5,1.75,2.25,0.0,,,,,,,,,,,,,,,,,,,,,,,,,,,,,,,,,,,,,,
0,240620_093630,LEARNING,1.0,1,1.0,788.0,,,,,,,,,,1.0,1.0,1.0,cue2.png,Easy,B,,,,,,,,,,,,,,,,,,,,,,,,,,,20,27,Male,1.2857142857142858,1.0,0.4,0.5,2.5555555555555554,2.75,3.6666666666666665,2.4444444444444446,0.625,3.2222222222222223,1.5,1.75,2.25,0.0,1.0,1.0,0.6774794615160388,-0.2966177082120668,-0.389376041793271,-0.1571228995485935,-0.00010586409165502624,0.08461752333041513,-0.00014012427916351364,-0.8813287313932415,0.00016942280221009156,0.12074762706547015,0.00019050971607665734,0.2918055710539669,,,,,,,,,,,,,,,,,,,,,,,,
1,240620_093702,LEARNING,1.0,2,3.0,788.0,,,,,,,,,,2.0,2.0,2.0,cue1.png,Hard,B,,,,,,,,,,,,,,,,,,,,,,,,,,,20,27,Male,1.2857142857142858,1.0,0.4,0.5,2.5555555555555554,2.75,3.6666666666666665,2.4444444444444446,0.625,3.2222222222222223,1.5,1.75,2.25,0.0,0.6736111111111112,0.5042735042735043,0.9540736249909968,1.1459750877599038,-0.04701443546871737,1.0755255630527363,-0.00039495551667527613,-0.2592208704943542,-0.0002067282922342431,-1.2969037493516722,0.00013261421305099663,0.02681428548081106,0.0003270836033188026,0.7138765077140689,1.5809999999999997,-0.04400888848035204,1.598,0.13198372290358606,,,,,,,,,,,,,,,,,,,,
2,240620_093727,LEARNING,1.0,3,1.0,788.0,,,,,,,,,,3.0,3.0,3.0,cue2.png,Easy,B,,,,,,,,,,,,,,,,,,,,,,,,,,,20,27,Male,1.2857142857142858,1.0,0.4,0.5,2.5555555555555554,2.75,3.6666666666666665,2.4444444444444446,0.625,3.2222222222222223,1.5,1.75,2.25,0.0,1.0,1.0,0.5955375076916355,-0.723990689586109,-0.5182909069618113,-0.6212716458476099,-0.0026615333622570106,-2.955034092380959,-2.6012704814333803e-05,-0.16933079954090702,0.0006769776194202742,1.4159974887723563,0.0008859742368597882,2.4410843799698125,1.585,-0.03754227629548368,1.5910000000000002,0.12213390753633978,,,,,,,,,,,,,,,,,,,,
3,240620_093757,LEARNING,1.0,4,3.0,788.0,,,,,,,,,,4.0,4.0,4.0,cue1.png,Hard,B,,,,,,,,,,,,,,,,,,,,,,,,,,,20,27,Male,1.2857142857142858,1.0,0.4,0.5,2.5555555555555554,2.75,3.6666666666666665,2.4444444444444446,0.625,3.2222222222222223,1.5,1.75,2.25,0.0,1.0,0.9230769230769232,0.8696541166379271,0.7056802779937542,-0.13965971346709538,0.7419628697415172,-5.502253626202226e-05,0.1450872475522907,-5.834100207431593e-05,-0.37104286004566334,-0.00015043171825451698,-0.695502183497445,0.00017438509294966792,0.24197368207483128,,,,,,,,,,,,,,,,,,,,,,,,
4,240620_093828,LEARNING,1.0,5,3.0,788.0,,,,,,,,,,5.0,5.0,5.0,cue1.png,Hard,B,,,,,,,,,,,,,,,,,,,,,,,,,,,20,27,Male,1.2857142857142858,1.0,0.4,0.5,2.5555555555555554,2.75,3.6666666666666665,2.4444444444444446,0.625,3.2222222222222223,1.5,1.75,2.25,0.0,0.5347222222222222,0.5470085470085471,0.9107717100181616,0.920131455317318,-0.09346300586106283,0.9082908094282963,0.0001598040813404998,0.4005968640761466,7.897534427106067e-06,0.042251770818193424,-0.0005683270338428074,-1.7619463021817539,0.00025292572208971634,0.4846973650307066,1.452,-0.2525571314423445,1.4640000000000002,-0.05656988555513136,,,,,,,,,,,,,,,,,,,,
5,240620_093853,LEARNING,1.0,6,1.0,788.0,,,,,,,,,,6.0,6.0,6.0,cue2.png,Easy,B,,,,,,,,,,,,,,,,,,,,,,,,,,,20,27,Male,1.2857142857142858,1.0,0.4,0.5,2.5555555555555554,2.75,3.6666666666666665,2.4444444444444446,0.625,3.2222222222222223,1.5,1.75,2.25,0.0,1.0,1.0,0.6147779846080363,-0.6236408736610242,-0.48649407698937486,-0.5067894350591603,0.00030101346931195056,0.5685479167567349,-5.1691382472710164e-05,-0.32955263058427237,-0.00019605739115007795,-0.8119362010742825,0.00040830499098639186,0.964884865621552,,,1.775,0.3810433400468173,,,,,,,,,,,,,,,,,,,,
6,240620_093924,LEARNING,1.0,7,3.0,788.0,,,,,,,,,,7.0,7.0,7.0,cue1.png,Hard,B,,,,,,,,,,,,,,,,,,,,,,,,,,,20,27,Male,1.2857142857142858,1.0,0.4,0.5,2.5555555555555554,2.75,3.6666666666666665,2.4444444444444446,0.625,3.2222222222222223,1.5,1.75,2.25,0.0,0.7083333333333333,0.7777777777777778,0.9858986846117588,1.3119605198583155,-0.014201683602499262,1.1936655279157062,0.00014099280411355736,0.37822318299220825,0.00016617416077191688,1.0298170661074524,1.8899488751994778e-05,-0.26337896247594167,0.00013829832119765465,0.1304503311475292,,,,,,,,,,,,,,,,,,,,,,,,
7,240620_093954,LEARNING,1.0,8,3.0,788.0,,,,,,,,,,8.0,8.0,8.0,cue1.png,Hard,B,,,,,,,,,,,,,,,,,,,,,,,,,,,20,27,Male,1.2857142857142858,1.0,0.4,0.5,2.5555555555555554,2.75,3.6666666666666665,2.4444444444444446,0.625,3.2222222222222223,1.5,1.75,2.25,0.0,0.9375,0.9230769230769232,0.9003129666768169,0.8655832768250787,-0.10501283535360977,0.8667064748992687,-0.0011192699617679526,-1.1207030656417891,,,,,0.0002444181256870872,0.45840530250767614,,,1.5639999999999998,0.08414176254838872,,,,,,,,,,,,,,,,,,,,
8,240620_094018,LEARNING,1.0,9,1.0,788.0,,,,,,,,,,9.0,9.0,9.0,cue2.png,Easy,B,,,,,,,,,,,,,,,,,,,,,,,,,,,20,27,Male,1.2857142857142858,1.0,0.4,0.5,2.5555555555555554,2.75,3.6666666666666665,2.4444444444444446,0.625,3.2222222222222223,1.5,1.75,2.25,0.0,1.0,1.0,0.517006107695544,-1.1335757309646544,-0.6597005908190329,-1.1304070926485645,0.00010126013482144539,0.3309661009434634,-0.00010220117266263821,-0.6447079192448093,,,-0.00035957424189731694,-1.4081859578693228,2.551,1.524144566350137,2.463,1.3491394789990392,,,,,,,,,,,,,,,,,,,,
9,240620_094041,LEARNING,1.0,10,1.0,788.0,,,,,,,,,,10.0,10.0,10.0,cue2.png,Easy,B,,,,,,,,,,,,,,,,,,,,,,,,,,,20,27,Male,1.2857142857142858,1.0,0.4,0.5,2.5555555555555554,2.75,3.6666666666666665,2.4444444444444446,0.625,3.2222222222222223,1.5,1.75,2.25,0.0,1.0,1.0,0.3984328384708183,-1.7520014483747068,-0.9202163307879522,-2.068375370702837,0.0001729837183876118,0.41627240766293744,-6.93503586988017e-05,-0.43973562142736633,6.923283462546403e-05,-0.13493124201059056,0.00023785243436476224,0.43811454603735994,,,,,,,,,,,,,,,,,,,,,,,,
10,240620_094112,LEARNING,1.0,11,3.0,788.0,,,,,,,,,,11.0,11.0,11.0,cue1.png,Hard,B,,,,,,,,,,,,,,,,,,,,,,,,,,,20,27,Male,1.2857142857142858,1.0,0.4,0.5,2.5555555555555554,2.75,3.6666666666666665,2.4444444444444446,0.625,3.2222222222222223,1.5,1.75,2.25,0.0,0.8819444444444444,0.811965811965812,0.9802272333375488,1.2823807389688966,-0.019970863442786875,1.1728940087697783,-0.00014406276569467425,0.0391849383718385,,,-0.0002579225137545908,-0.9698123334266862,-0.00031551778130400627,-1.2720329057446609,,,0.2144999999999998,-1.8147619286086214,,,,,,,,,,,,,,,,,,,,
11,240620_094137,LEARNING,1.0,12,1.0,788.0,,,,,,,,,,12.0,12.0,12.0,cue2.png,Easy,B,,,,,,,,,,,,,,,,,,,,,,,,,,,20,27,Male,1.2857142857142858,1.0,0.4,0.5,2.5555555555555554,2.75,3.6666666666666665,2.4444444444444446,0.625,3.2222222222222223,1.5,1.75,2.25,0.0,1.0,0.9230769230769232,0.5435679333556133,-0.9950409988369877,-0.6096005878571354,-0.9500256173707513,-0.00010407707598894967,0.08674295682025464,0.0003318084975123185,2.0632907156956257,-2.24514048864791e-05,-0.3689039963256547,-3.494292021108663e-05,-0.4049382010680361,2.184,0.9308328983884986,,,,,,,,,,,,,,,,,,,,,,
12,240620_094204,LEARNING,1.0,13,1.0,788.0,,,,,,,,,,13.0,13.0,13.0,cue2.png,Easy,B,,,,,,,,,,,,,,,,,,,,,,,,,,,20,27,Male,1.2857142857142858,1.0,0.4,0.5,2.5555555555555554,2.75,3.6666666666666665,2.4444444444444446,0.625,3.2222222222222223,1.5,1.75,2.25,0.0,0.8819444444444444,0.8888888888888888,0.6394813153803205,-0.49479922870044185,-0.44709787593453626,-0.36494623253444747,-0.0007178303316818947,-0.6432404165274781,9.326297215587597e-05,0.5748884946667964,0.00021191253123331848,0.2291789014326433,2.7120105488178357e-05,-0.21313726519509676,2.212,0.9760991836825746,,,,,,,,,,,,,,,,,,,,,,
13,240620_094230,LEARNING,1.0,14,1.0,788.0,,,,,,,,,,14.0,14.0,14.0,cue2.png,Easy,B,,,,,,,,,,,,,,,,,,,,,,,,,,,20,27,Male,1.2857142857142858,1.0,0.4,0.5,2.5555555555555554,2.75,3.6666666666666665,2.4444444444444446,0.625,3.2222222222222223,1.5,1.75,2.25,0.0,0.9375,0.9230769230769232,0.6133605833359373,-0.631033411661258,-0.48880228868209813,-0.515099986072572,-0.0005140757750801373,-0.40089964328759764,,,0.0004114335582078377,0.7383447566930497,0.0004743832332810274,1.169094514928096,,,-0.195,-2.390976127592538,,,,,,,,,,,,,,,,,,,,
14,240620_094259,LEARNING,1.0,15,3.0,788.0,,,,,,,,,,15.0,15.0,15.0,cue1.png,Hard,B,,,,,,,,,,,,,,,,,,,,,,,,,,,20,27,Male,1.2857142857142858,1.0,0.4,0.5,2.5555555555555554,2.75,3.6666666666666665,2.4444444444444446,0.625,3.2222222222222223,1.5,1.75,2.25,0.0,1.0,1.0,0.875731484633154,0.737377140929109,-0.13269575942532588,0.7670360878963469,6.148661503551419e-05,0.2836604322990395,-0.00011226462871675525,-0.7074987442657042,0.0005298229036318717,1.040467361165441,7.94576688777195e-05,-0.05139211135638917,,,,,,,,,,,,,,,,,,,,,,,,
15,240620_094325,LEARNING,1.0,16,1.0,788.0,,,,,,,,,,16.0,16.0,16.0,cue2.png,Easy,B,,,,,,,,,,,,,,,,,,,,,,,,,,,20,27,Male,1.2857142857142858,1.0,0.4,0.5,2.5555555555555554,2.75,3.6666666666666665,2.4444444444444446,0.625,3.2222222222222223,1.5,1.75,2.25,0.0,1.0,1.0,0.5953492076906304,-0.724972779090525,-0.5186071419153836,-0.6224102271667199,-0.0002554153491700242,-0.09325514852358215,0.00017509459557143179,1.0854760223938955,0.0003902642444739545,0.6843219206239217,-0.0007635800937837315,-2.6567345037529972,,,-0.033999999999999975,-2.16443037414587,,,,,,,,,,,,,,,,,,,,
16,240620_094350,LEARNING,1.0,17,1.0,788.0,,,,,,,,,,17.0,17.0,17.0,cue2.png,Easy,B,,,,,,,,,,,,,,,,,,,,,,,,,,,20,27,Male,1.2857142857142858,1.0,0.4,0.5,2.5555555555555554,2.75,3.6666666666666665,2.4444444444444446,0.625,3.2222222222222223,1.5,1.75,2.25,0.0,1.0,1.0,0.616837946160768,-0.6128970254951209,-0.4831489376124389,-0.49474550012605223,0.00016718677184089344,0.4093776587454555,-7.027282023918269e-06,-0.050871459730605,2.5432081006508504e-05,-0.24670817357326738,-8.647337314501499e-05,-0.5641890430520575,,,,,,,,,,,,,,,,,,,,,,,,
17,240620_094419,LEARNING,1.0,18,3.0,788.0,,,,,,,,,,18.0,18.0,18.0,cue1.png,Hard,B,,,,,,,,,,,,,,,,,,,,,,,,,,,20,27,Male,1.2857142857142858,1.0,0.4,0.5,2.5555555555555554,2.75,3.6666666666666665,2.4444444444444446,0.625,3.2222222222222223,1.5,1.75,2.25,0.0,0.5347222222222222,0.6239316239316239,0.7649752818132666,0.15972178374495197,-0.2679117570328314,0.2802005651888372,-0.0005587810599662324,-0.4540710348279623,-0.00013682003327039963,-0.8607119249417787,8.722190401852948e-05,-0.08902420132545656,0.00040555909035184644,0.9563988740736705,,,,,,,,,,,,,,,,,,,,,,,,
18,240620_094448,LEARNING,1.0,19,3.0,788.0,,,,,,,,,,19.0,19.0,19.0,cue1.png,Hard,B,,,,,,,,,,,,,,,,,,,,,,,,,,,20,27,Male,1.2857142857142858,1.0,0.4,0.5,2.5555555555555554,2.75,3.6666666666666665,2.4444444444444446,0.625,3.2222222222222223,1.5,1.75,2.25,0.0,1.0,1.0,0.8232074692272223,0.4634351123332025,-0.19454702109818536,0.5443450466038031,9.734461460380976e-05,0.326309075289638,-2.185173825812719e-06,-0.020659178088544162,0.00024662509655127684,0.31776331419560583,-0.00025177598236067553,-1.075043852217089,0.512,-1.7722109948863227,,,,,,,,,,,,,,,,,,,,,,
19,240620_094517,LEARNING,1.0,20,3.0,788.0,,,,,,,,,,20.0,20.0,20.0,cue1.png,Hard,B,,,,,,,,,,,,,,,,,,,,,,,,,,,20,27,Male,1.2857142857142858,1.0,0.4,0.5,2.5555555555555554,2.75,3.6666666666666665,2.4444444444444446,0.625,3.2222222222222223,1.5,1.75,2.25,0.0,0.7916666666666666,0.811965811965812,0.8619274333468638,0.6653813161053047,-0.14858419591448233,0.709830909366686,,,,,0.0001765682501984958,0.13898238753860684,0.0005484159293370917,1.3978867826070172,-0.10599999999999987,-2.7713025774484277,2.344,1.1816926177558493,,,,,,,,,,,,,,,,,,,,
20,240620_094543,LEARNING,1.0,21,1.0,788.0,,,,,,,,,,21.0,21.0,21.0,cue2.png,Easy,B,,,,,,,,,,,,,,,,,,,,,,,,,,,20,27,Male,1.2857142857142858,1.0,0.4,0.5,2.5555555555555554,2.75,3.6666666666666665,2.4444444444444446,0.625,3.2222222222222223,1.5,1.75,2.25,0.0,0.8819444444444444,0.8888888888888888,0.6364797307626129,-0.5104541662146866,-0.45180270632659136,-0.3818856376617531,,,,,-0.00026632249658302756,-0.9912485925812661,0.0002903707397579631,0.6004182689284605,1.957,0.5638526568972398,1.632,0.17982568325878281,,,,,,,,,,,,,,,,,,,,
21,240620_094613,LEARNING,1.0,22,3.0,788.0,,,,,,,,,,22.0,22.0,22.0,cue1.png,Hard,B,,,,,,,,,,,,,,,,,,,,,,,,,,,20,27,Male,1.2857142857142858,1.0,0.4,0.5,2.5555555555555554,2.75,3.6666666666666665,2.4444444444444446,0.625,3.2222222222222223,1.5,1.75,2.25,0.0,0.8819444444444444,0.8888888888888888,0.8866397769262011,0.7942699678803584,-0.12031649310932908,0.8116067503498942,-0.0037304709135034912,-4.226402728423438,-0.00014697571632360735,-0.9240781993243008,,,0.00018941399249611246,0.2884193228677292,2.4739999999999998,1.3996622817914275,1.7820000000000003,0.39089315541406416,,,,,,,,,,,,,,,,,,,,
22,240620_094642,LEARNING,1.0,23,3.0,788.0,,,,,,,,,,23.0,23.0,23.0,cue1.png,Hard,B,,,,,,,,,,,,,,,,,,,,,,,,,,,20,27,Male,1.2857142857142858,1.0,0.4,0.5,2.5555555555555554,2.75,3.6666666666666665,2.4444444444444446,0.625,3.2222222222222223,1.5,1.75,2.25,0.0,0.875,0.8461538461538461,0.8475982181685553,0.5906464687446097,-0.1653485547981365,0.6494720349406689,,,,,0.0002836782445903461,0.4123207555715093,-0.0005745143290518846,-2.072441517574422,2.152,0.8791000009095546,1.1320000000000001,-0.5237325572588198,,,,,,,,,,,,,,,,,,,,
23,240620_094713,LEARNING,1.0,24,3.0,788.0,,,,,,,,,,24.0,24.0,24.0,cue1.png,Hard,B,,,,,,,,,,,,,,,,,,,,,,,,,,,20,27,Male,1.2857142857142858,1.0,0.4,0.5,2.5555555555555554,2.75,3.6666666666666665,2.4444444444444446,0.625,3.2222222222222223,1.5,1.75,2.25,0.0,0.8819444444444444,0.811965811965812,0.9739731583395042,1.2497622504791188,-0.02637153389232906,1.1498488528775999,,,-6.661054240379195e-05,-0.42264056733817273,0.00015054825297913885,0.07258089422753218,-0.0001769877318460707,-0.8439166024676312,1.597,-0.018142439740879684,1.4490000000000003,-0.07767663277065931,,,,,,,,,,,,,,,,,,,,
24,240620_094739,LEARNING,1.0,25,1.0,788.0,,,,,,,,,,25.0,25.0,25.0,cue2.png,Easy,B,,,,,,,,,,,,,,,,,,,,,,,,,,,20,27,Male,1.2857142857142858,1.0,0.4,0.5,2.5555555555555554,2.75,3.6666666666666665,2.4444444444444446,0.625,3.2222222222222223,1.5,1.75,2.25,0.0,1.0,1.0,0.6093741230792008,-0.6518250248158768,-0.4953228762805775,-0.5385768950776761,0.00017371024103816305,0.4171365162445924,,,-0.00011568846997192603,-0.6068394696242386,0.00014100984951478848,0.1388300977317807,2.035,0.6899515945021658,1.303,-0.28311563900179987,,,,,,,,,,,,,,,,,,,,
25,240620_094804,LEARNING,1.0,26,1.0,788.0,,,,,,,,,,26.0,26.0,26.0,cue2.png,Easy,B,,,,,,,,,,,,,,,,,,,,,,,,,,,20,27,Male,1.2857142857142858,1.0,0.4,0.5,2.5555555555555554,2.75,3.6666666666666665,2.4444444444444446,0.625,3.2222222222222223,1.5,1.75,2.25,0.0,1.0,1.0,0.5823953999654174,-0.7925341096335323,-0.5406056805418812,-0.7016143911748833,0.0002475158513551268,0.5049191355487245,-0.00023562029061171804,-1.4771750602083262,,,,,1.4100000000000001,-0.3204565593834581,0.7330000000000001,-1.0851720331918668,,,,,,,,,,,,,,,,,,,,
26,240620_094834,LEARNING,1.0,27,3.0,788.0,,,,,,,,,,27.0,27.0,27.0,cue1.png,Hard,B,,,,,,,,,,,,,,,,,,,,,,,,,,,20,27,Male,1.2857142857142858,1.0,0.4,0.5,2.5555555555555554,2.75,3.6666666666666665,2.4444444444444446,0.625,3.2222222222222223,1.5,1.75,2.25,0.0,0.7916666666666666,0.735042735042735,0.8409205909014087,0.555818918991761,-0.17325804570100772,0.6209944789844063,3.55286745038581e-05,0.25278668162041484,-0.00015928722039626128,-1.0008956956012172,,,,,1.2049999999999998,-0.6518704338579432,1.089,-0.5842385659433339,,,,,,,,,,,,,,,,,,,,
27,240620_094900,LEARNING,1.0,28,1.0,788.0,,,,,,,,,,28.0,28.0,28.0,cue2.png,Easy,B,,,,,,,,,,,,,,,,,,,,,,,,,,,20,27,Male,1.2857142857142858,1.0,0.4,0.5,2.5555555555555554,2.75,3.6666666666666665,2.4444444444444446,0.625,3.2222222222222223,1.5,1.75,2.25,0.0,1.0,1.0,0.6750823461558096,-0.30912000148657176,-0.3929206012454041,-0.16988483219103165,0.00019831362503990816,0.44639918993759975,-0.0001570925365439635,-0.9872019894822904,,,,,1.577,-0.05047550066521968,0.9859999999999998,-0.7291715634899604,,,,,,,,,,,,,,,,,,,,
28,240620_094926,LEARNING,1.0,29,1.0,788.0,,,,,,,,,,29.0,29.0,29.0,cue2.png,Easy,B,,,,,,,,,,,,,,,,,,,,,,,,,,,20,27,Male,1.2857142857142858,1.0,0.4,0.5,2.5555555555555554,2.75,3.6666666666666665,2.4444444444444446,0.625,3.2222222222222223,1.5,1.75,2.25,0.0,1.0,1.0,0.5811164461774752,-0.7992045668032971,-0.5428041184989927,-0.7095297097091379,,,-0.00027585975412374765,-1.7282487568321472,-0.00046632669198687707,-1.5016474650844427,-0.00020267733425783502,-0.9233083132207611,1.9549999999999998,0.5606193508048055,2.399,1.2590840242127859,,,,,,,,,,,,,,,,,,,,
29,240620_094957,LEARNING,1.0,30,3.0,788.0,,,,,,,,,,30.0,30.0,30.0,cue1.png,Hard,B,,,,,,,,,,,,,,,,,,,,,,,,,,,20,27,Male,1.2857142857142858,1.0,0.4,0.5,2.5555555555555554,2.75,3.6666666666666665,2.4444444444444446,0.625,3.2222222222222223,1.5,1.75,2.25,0.0,0.7916666666666666,0.735042735042735,0.9695482272443108,1.2266837674034041,-0.030925061086607777,1.133454204085936,4.8192215106450734e-05,0.26784839249829784,-0.0001575591228378439,-0.9901132496079016,0.00010312796260466672,-0.048432880968695385,0.00018409033677020334,0.27196698044661527,1.444,-0.26549035581208047,1.5499999999999998,0.06444213181389583,,,,,,,,,,,,,,,,,,,,
30,240620_095028,LEARNING,1.0,31,3.0,788.0,,,,,,,,,,31.0,31.0,31.0,cue1.png,Hard,B,,,,,,,,,,,,,,,,,,,,,,,,,,,20,27,Male,1.2857142857142858,1.0,0.4,0.5,2.5555555555555554,2.75,3.6666666666666665,2.4444444444444446,0.625,3.2222222222222223,1.5,1.75,2.25,0.0,0.875,0.7692307692307692,0.9592537199961952,1.1729921717180987,-0.04159967183685049,1.0950210320038984,0.00026223702883302865,0.5224281502794679,8.828772747771375e-05,0.5438455093998396,0.00044023022247210563,0.8118321400084697,-1.1283495681967647e-05,-0.3318205965720964,0.6609999999999998,-1.5313296909999903,,,,,,,,,,,,,,,,,,,,,,
31,240620_095054,LEARNING,1.0,32,1.0,788.0,,,,,,,,,,32.0,32.0,32.0,cue2.png,Easy,B,,,,,,,,,,,,,,,,,,,,,,,,,,,20,27,Male,1.2857142857142858,1.0,0.4,0.5,2.5555555555555554,2.75,3.6666666666666665,2.4444444444444446,0.625,3.2222222222222223,1.5,1.75,2.25,0.0,1.0,1.0,0.6106426769312328,-0.6452088091110596,-0.4932433076890838,-0.5310895571874905,-5.0718287086596626e-05,0.1502066180870489,0.00044785111420452776,2.787337365326133,-0.00012740081401244312,-0.6367286786009728,-0.00021174644280293198,-0.9513356851847334,1.814,0.33267127128820906,1.105,-0.5617247022467705,,,,,,,,,,,,,,,,,,,,
32,240620_095119,LEARNING,1.0,33,1.0,788.0,,,,,,,,,,33.0,33.0,33.0,cue2.png,Easy,B,,,,,,,,,,,,,,,,,,,,,,,,,,,20,27,Male,1.2857142857142858,1.0,0.4,0.5,2.5555555555555554,2.75,3.6666666666666665,2.4444444444444446,0.625,3.2222222222222223,1.5,1.75,2.25,0.0,1.0,1.0,0.61904258460093,-0.6013986066870594,-0.4795812128626843,-0.4819001624873431,0.00020433077728022322,0.45355584621532957,,,-0.0003897888406712074,-1.3063273972405975,,,,,1.6840000000000002,0.2529957402726139,,,,,,,,,,,,,,,,,,,,
33,240620_095144,LEARNING,1.0,34,1.0,788.0,,,,,,,,,,34.0,34.0,34.0,cue2.png,Easy,B,,,,,,,,,,,,,,,,,,,,,,,,,,,20,27,Male,1.2857142857142858,1.0,0.4,0.5,2.5555555555555554,2.75,3.6666666666666665,2.4444444444444446,0.625,3.2222222222222223,1.5,1.75,2.25,0.0,1.0,1.0,0.5505485230913529,-0.9586333308735758,-0.5968401830319785,-0.9040826929909966,0.0005154214328735216,0.8235595962248695,-1.610412540095727e-05,-0.10750632564195922,0.0008454528813073466,1.845936388494977,0.00013471364564367292,0.11937217119145271,2.2289999999999996,1.0035822854682628,-0.121,-2.286849507995933,,,,,,,,,,,,,,,,,,,,
34,240620_095215,LEARNING,1.0,35,3.0,788.0,,,,,,,,,,35.0,35.0,35.0,cue1.png,Hard,B,,,,,,,,,,,,,,,,,,,,,,,,,,,20,27,Male,1.2857142857142858,1.0,0.4,0.5,2.5555555555555554,2.75,3.6666666666666665,2.4444444444444446,0.625,3.2222222222222223,1.5,1.75,2.25,0.0,1.0,0.9230769230769232,0.9390414583322126,1.0675739564512332,-0.06289564917002519,1.0183463896538285,,,-0.00010393288921020259,-0.6555129458816991,,,,,1.474,-0.21699076442557047,1.6980000000000002,0.2726953710071068,,,,,,,,,,,,,,,,,,,,
35,240620_095245,LEARNING,1.0,36,3.0,788.0,,,,,,,,,,36.0,36.0,36.0,cue1.png,Hard,B,,,,,,,,,,,,,,,,,,,,,,,,,,,20,27,Male,1.2857142857142858,1.0,0.4,0.5,2.5555555555555554,2.75,3.6666666666666665,2.4444444444444446,0.625,3.2222222222222223,1.5,1.75,2.25,0.0,1.0,1.0,0.9521845923020288,1.1361227289312708,-0.04899636350992466,1.0683897729762502,,,0.000238297516805958,1.4798299646881998,0.00024016712831810214,0.30128296137991556,,,1.9809999999999999,0.6026523300064475,1.5499999999999998,0.06444213181389583,,,,,,,,,,,,,,,,,,,,
36,240620_095308,LEARNING,1.0,37,1.0,788.0,,,,,,,,,,37.0,37.0,37.0,cue2.png,Easy,B,,,,,,,,,,,,,,,,,,,,,,,,,,,20,27,Male,1.2857142857142858,1.0,0.4,0.5,2.5555555555555554,2.75,3.6666666666666665,2.4444444444444446,0.625,3.2222222222222223,1.5,1.75,2.25,0.0,1.0,1.0,0.4473540999998266,-1.4968497902017113,-0.8044048279476507,-1.651404342729806,-5.710550081848304e-05,0.14260981956411278,-5.538415950960551e-06,-0.041581695998950535,-0.0003369819651001249,-1.1715673753446902,-3.807730415926729e-05,-0.41462476996912806,1.6640000000000001,0.09017331435565948,2.498,1.3983885558352716,,,,,,,,,,,,,,,,,,,,
37,240620_095341,LEARNING,1.0,38,3.0,788.0,,,,,,,,,,38.0,38.0,38.0,cue1.png,Hard,B,,,,,,,,,,,,,,,,,,,,,,,,,,,20,27,Male,1.2857142857142858,1.0,0.4,0.5,2.5555555555555554,2.75,3.6666666666666665,2.4444444444444446,0.625,3.2222222222222223,1.5,1.75,2.25,0.0,0.875,0.6153846153846154,1.025328024974442,1.517606516297729,0.0250125857588062,1.3348536983977213,0.000995602386316326,1.3946752831237639,-1.6915472404814644e-05,-0.11256871648229022,-0.0002522769333909826,-0.9554051463854676,-0.00012222049920832673,-0.6746627454934184,1.363,-0.39643925255565726,2.231,1.022688455398871,,,,,,,,,,,,,,,,,,,,
38,240620_095410,LEARNING,1.0,39,3.0,788.0,,,,,,,,,,39.0,39.0,39.0,cue1.png,Hard,B,,,,,,,,,,,,,,,,,,,,,,,,,,,20,27,Male,1.2857142857142858,1.0,0.4,0.5,2.5555555555555554,2.75,3.6666666666666665,2.4444444444444446,0.625,3.2222222222222223,1.5,1.75,2.25,0.0,1.0,1.0,0.913367884609705,0.9336719534818247,-0.09061653911902164,0.9185393092267717,0.0001097650615020521,0.3410816563572997,9.067887629644498e-05,0.5587650565483013,0.0002617662258420205,0.35640258025108,0.00019156713845622318,0.2950734523686241,1.427,-0.29297345759776927,0.859,-0.9078753565814311,,,,,,,,,,,,,,,,,,,,
39,240620_095440,LEARNING,1.0,40,3.0,788.0,,,,,,,,,,40.0,40.0,40.0,cue1.png,Hard,B,,,,,,,,,,,,,,,,,,,,,,,,,,,20,27,Male,1.2857142857142858,1.0,0.4,0.5,2.5555555555555554,2.75,3.6666666666666665,2.4444444444444446,0.625,3.2222222222222223,1.5,1.75,2.25,0.0,1.0,1.0,0.9376654461599312,1.06039728568579,-0.0643620608036851,1.013066679509993,0.0001643598484270428,0.4060153839702146,1.6117069633489467e-05,0.09353747168692826,-0.0002524040545237565,-0.9557295519946005,0.00028069104120870617,0.5705039162233297,1.4760000000000002,-0.2137574583331361,1.7600000000000002,0.35993659283128965,,,,,,,,,,,,,,,,,,,,
40,240620_095504,LEARNING,1.0,41,1.0,788.0,,,,,,,,,,41.0,41.0,41.0,cue2.png,Easy,B,,,,,,,,,,,,,,,,,,,,,,,,,,,20,27,Male,1.2857142857142858,1.0,0.4,0.5,2.5555555555555554,2.75,3.6666666666666665,2.4444444444444446,0.625,3.2222222222222223,1.5,1.75,2.25,0.0,1.0,1.0,0.4519337615392242,-1.4729643015792335,-0.7942196551559157,-1.614733356990946,-7.558440470627984e-05,0.12063145534256149,-8.49588755303483e-06,-0.060034808018467875,0.0011006542327302296,2.497195137165303,0.00026298695420369674,0.5157908174325795,1.681,0.1176564161413483,1.2150000000000003,-0.40694188933289743,,,,,,,,,,,,,,,,,,,,
41,240620_095535,LEARNING,1.0,42,3.0,788.0,,,,,,,,,,42.0,42.0,42.0,cue1.png,Hard,B,,,,,,,,,,,,,,,,,,,,,,,,,,,20,27,Male,1.2857142857142858,1.0,0.4,0.5,2.5555555555555554,2.75,3.6666666666666665,2.4444444444444446,0.625,3.2222222222222223,1.5,1.75,2.25,0.0,0.9375,0.6923076923076923,0.9346944777708914,1.0449020288761601,-0.06753556483406295,1.001640705359153,-3.931109399545399e-06,0.20585416289534936,5.739600139405493e-05,0.35109691918575686,6.72400647153508e-05,-0.14001667290980896,,,2.037,0.6931849005945995,,,,,,,,,,,,,,,,,,,,,,
42,240620_095605,LEARNING,1.0,43,3.0,788.0,,,,,,,,,,43.0,43.0,43.0,cue1.png,Hard,B,,,,,,,,,,,,,,,,,,,,,,,,,,,20,27,Male,1.2857142857142858,1.0,0.4,0.5,2.5555555555555554,2.75,3.6666666666666665,2.4444444444444446,0.625,3.2222222222222223,1.5,1.75,2.25,0.0,1.0,0.8461538461538461,0.8269675000232052,0.4830457695892032,-0.1899898833724893,0.5607526948554491,0.0006811124601303446,1.0206285223584326,,,,,0.0001523124774423729,0.1737599869840217,2.741,1.8313086451313665,2.2830000000000004,1.0958585124127025,,,,,,,,,,,,,,,,,,,,
43,240620_095628,LEARNING,1.0,44,1.0,788.0,,,,,,,,,,44.0,44.0,44.0,cue2.png,Easy,B,,,,,,,,,,,,,,,,,,,,,,,,,,,20,27,Male,1.2857142857142858,1.0,0.4,0.5,2.5555555555555554,2.75,3.6666666666666665,2.4444444444444446,0.625,3.2222222222222223,1.5,1.75,2.25,0.0,1.0,1.0,0.4770329307872228,-1.3420581382417627,-0.7401697531869845,-1.4201305530112363,,,0.000349286157592344,2.172342386409743,0.0008190525165214391,1.778564219660261,-0.0003594430820123987,-1.407780618484192,1.273,-0.5419380267151872,2.665,1.6333770081681507,,,,,,,,,,,,,,,,,,,,
44,240620_095652,LEARNING,1.0,45,1.0,788.0,,,,,,,,,,45.0,45.0,45.0,cue2.png,Easy,B,,,,,,,,,,,,,,,,,,,,,,,,,,,20,27,Male,1.2857142857142858,1.0,0.4,0.5,2.5555555555555554,2.75,3.6666666666666665,2.4444444444444446,0.625,3.2222222222222223,1.5,1.75,2.25,0.0,1.0,1.0,0.4320359692299881,-1.5767423838078172,-0.8392464320976696,-1.7768490450466055,2.7914169513157394e-05,0.24373017236701922,0.00016197609559455818,1.0036232839156973,0.0008830872847250867,1.9419771592046025,0.0005861935317326818,1.5146355136408602,1.266,-0.553254598038706,1.75,0.3458654280209372,,,,,,,,,,,,,,,,,,,,
45,240620_095715,LEARNING,1.0,46,1.0,788.0,,,,,,,,,,46.0,46.0,46.0,cue2.png,Easy,B,,,,,,,,,,,,,,,,,,,,,,,,,,,20,27,Male,1.2857142857142858,1.0,0.4,0.5,2.5555555555555554,2.75,3.6666666666666665,2.4444444444444446,0.625,3.2222222222222223,1.5,1.75,2.25,0.0,1.0,1.0,0.4390727384642769,-1.5400417084328601,-0.8230901883696571,-1.7186796457189604,,,0.00017259647271775612,1.0698890119133684,0.00031159809599947894,0.48357056436128704,,,1.035,-0.9267014517148329,1.4849999999999999,-0.02702043945339248,,,,,,,,,,,,,,,,,,,,
46,240620_095745,LEARNING,1.0,47,3.0,788.0,,,,,,,,,,47.0,47.0,47.0,cue1.png,Hard,B,,,,,,,,,,,,,,,,,,,,,,,,,,,20,27,Male,1.2857142857142858,1.0,0.4,0.5,2.5555555555555554,2.75,3.6666666666666665,2.4444444444444446,0.625,3.2222222222222223,1.5,1.75,2.25,0.0,1.0,1.0,0.9340703461247568,1.0416468343155074,-0.06820352653942022,0.9992357570414243,,,,,-0.0004884849453871305,-1.558194016666987,0.00044817546035106313,1.08810143864029,0.8519999999999999,-1.2225489591725436,1.927,0.5949250451641688,,,,,,,,,,,,,,,,,,,,
47,240620_095815,LEARNING,1.0,48,3.0,788.0,,,,,,,,,,48.0,48.0,48.0,cue1.png,Hard,B,,,,,,,,,,,,,,,,,,,,,,,,,,,20,27,Male,1.2857142857142858,1.0,0.4,0.5,2.5555555555555554,2.75,3.6666666666666665,2.4444444444444446,0.625,3.2222222222222223,1.5,1.75,2.25,0.0,1.0,1.0,0.9423701769421592,1.084935080150293,-0.059357112444894285,1.0310866378987094,0.0001896545451235722,0.43610028836961057,-9.95357815930264e-05,-0.6280772405431538,,,,,0.542,-1.7237114034998129,2.267,1.0733446487161384,,,,,,,,,,,,,,,,,,,,
48,240620_095840,LEARNING,1.0,49,1.0,788.0,,,,,,,,,,49.0,49.0,49.0,cue2.png,Easy,B,,,,,,,,,,,,,,,,,,,,,,,,,,,20,27,Male,1.2857142857142858,1.0,0.4,0.5,2.5555555555555554,2.75,3.6666666666666665,2.4444444444444446,0.625,3.2222222222222223,1.5,1.75,2.25,0.0,1.0,1.0,0.5195445999986708,-1.120336078098832,-0.6548026203499084,-1.1127723004957626,-0.0018862564280358743,-2.03293833733283,,,,,,,,,,,,,,,,,,,,,,,,,,,,,,
49,240620_095903,LEARNING,1.0,50,1.0,788.0,,,,,,,,,,50.0,50.0,50.0,cue2.png,Easy,B,,,,,,,,,,,,,,,,,,,,,,,,,,,20,27,Male,1.2857142857142858,1.0,0.4,0.5,2.5555555555555554,2.75,3.6666666666666665,2.4444444444444446,0.625,3.2222222222222223,1.5,1.75,2.25,0.0,1.0,1.0,0.4636684230689962,-1.4117614982614002,-0.7685855876628149,-1.5224397314737341,0.00029888146460737034,0.566012161594857,9.457928193725481e-06,0.05198783081950987,,,,,2.603,1.608210524753421,1.9600000000000002,0.6413598890383307,,,,,,,,,,,,,,,,,,,,
0,240620_100055,TrueCHOICE,9.0,1,1.0,788.0,,,,,,,,,,,1.0,1.0,,,B,,,,,,True,cue2.png,Easy,cue1.png,Hard,Left,Easy,Easy,0.0159647000255063,,,,,,,,,,,,,20,27,Male,1.2857142857142858,1.0,0.4,0.5,2.5555555555555554,2.75,3.6666666666666665,2.4444444444444446,0.625,3.2222222222222223,1.5,1.75,2.25,0.0,1.0,1.0,0.7322460538349472,-0.10206963493826152,-0.31163868238414183,0.0251980439177804,,,,,,,,,,,,,,,,,,,,,,,,,,,,,,,,
1,240620_100117,TrueCHOICE,9.0,2,1.0,788.0,,,,,,,,,,,2.0,2.0,,,B,,,,,,True,cue2.png,Easy,cue1.png,Hard,Left,Easy,Easy,0.0160964999813586,,,,,,,,,,,,,20,27,Male,1.2857142857142858,1.0,0.4,0.5,2.5555555555555554,2.75,3.6666666666666665,2.4444444444444446,0.625,3.2222222222222223,1.5,1.75,2.25,0.0,,,,,,,,,,,,,,,,,,,0.0009425154639600827,0.9836402866806642,-0.0006957509213298715,-1.4785062256602093,1.463,0.8484465674101898,,,,,,,,,,,,,,
2,240620_100143,TrueCHOICE,9.0,3,3.0,788.0,,,,,,,,,,,3.0,3.0,,,B,,,,,,True,cue1.png,Hard,cue2.png,Easy,Left,Hard,Hard,0.0164359000045806,,,,,,,,,,,,,20,27,Male,1.2857142857142858,1.0,0.4,0.5,2.5555555555555554,2.75,3.6666666666666665,2.4444444444444446,0.625,3.2222222222222223,1.5,1.75,2.25,0.0,1.0,1.0,0.7634249615232245,0.07982093881064707,-0.2699404413758288,0.1894259770036863,,,,,,,,,,,,,,,,,1.457,0.8012012829140307,,,,,,,,,,,,,,
3,240620_100211,TrueCHOICE,9.0,4,3.0,788.0,,,,,,,,,,,4.0,4.0,,,B,,,,,,True,cue2.png,Easy,cue1.png,Hard,Right,Hard,Hard,0.0170073999324813,,,,,,,,,,,,,20,27,Male,1.2857142857142858,1.0,0.4,0.5,2.5555555555555554,2.75,3.6666666666666665,2.4444444444444446,0.625,3.2222222222222223,1.5,1.75,2.25,0.0,1.0,1.0,0.8827013692442471,0.7756520581042399,-0.1247683357571449,0.7611842639475463,,,,,,,,,,,,,0.00026930537947459244,0.3511275333858245,0.0005200548342901381,0.9422783948074034,,,,,,,,,,,,,,,,
4,240620_100239,TrueCHOICE,9.0,5,3.0,788.0,,,,,,,,,,,5.0,5.0,,,B,,,,,,True,cue1.png,Hard,cue2.png,Easy,Left,Hard,Hard,0.0162070000078529,,,,,,,,,,,,,20,27,Male,1.2857142857142858,1.0,0.4,0.5,2.5555555555555554,2.75,3.6666666666666665,2.4444444444444446,0.625,3.2222222222222223,1.5,1.75,2.25,0.0,1.0,1.0,0.7906602769284151,0.23870550252950948,-0.2348868890217591,0.3274838977030216,,,,,,,,,,,,,0.0004144600645526451,0.4875072336134779,-0.00013227509261230352,-0.3565723856043843,,,,,,,,,,,,,,,,
5,240620_100301,TrueCHOICE,9.0,6,1.0,788.0,,,,,,,,,,,6.0,6.0,,,B,,,,,,True,cue1.png,Hard,cue2.png,Easy,Right,Easy,Easy,0.016588500002399,,,,,,,,,,,,,20,27,Male,1.2857142857142858,1.0,0.4,0.5,2.5555555555555554,2.75,3.6666666666666665,2.4444444444444446,0.625,3.2222222222222223,1.5,1.75,2.25,0.0,0.9375,0.9230769230769232,0.9875014083324156,1.3870313735451738,-0.01257735604846886,1.2030468524621423,,,,,,,,,,,,,0.00012735454075135611,0.21775799852217803,0.0006912739172400227,1.2831918349845965,,,,,,,,,,,,,,,,
6,240620_100327,TrueCHOICE,9.0,7,3.0,788.0,,,,,,,,,,,7.0,7.0,,,B,,,,,,True,cue2.png,Easy,cue1.png,Hard,Right,Hard,Hard,0.0167728000087663,,,,,,,,,,,,,20,27,Male,1.2857142857142858,1.0,0.4,0.5,2.5555555555555554,2.75,3.6666666666666665,2.4444444444444446,0.625,3.2222222222222223,1.5,1.75,2.25,0.0,,,,,,,,,,,,,,,,,,,1.014975842491021e-05,0.10763855545816008,-0.0001492603368553544,-0.3903916185274061,,,,,,,,,,,,,,,,
7,240620_100401,TrueCHOICE,9.0,8,3.0,788.0,,,,,,,,,,,9.0,8.0,,,B,,,,,,True,cue1.png,Hard,cue2.png,Easy,Left,Hard,Hard,0.0149204999906942,,,,,,,,,,,,,20,27,Male,1.2857142857142858,1.0,0.4,0.5,2.5555555555555554,2.75,3.6666666666666665,2.4444444444444446,0.625,3.2222222222222223,1.5,1.75,2.25,0.0,0.9375,0.8461538461538461,0.8745343909196724,0.7280077856331323,-0.13406365891632765,0.7245747650122364,,,,,,,,,,,,,,,,,1.1489999999999998,-1.6240566545554695,,,,,,,,,,,,,,
8,240620_100423,TrueCHOICE,9.0,9,1.0,788.0,,,,,,,,,,,10.0,9.0,,,B,,,,,,True,cue2.png,Easy,cue1.png,Hard,Left,Easy,Easy,0.0166806998895481,,,,,,,,,,,,,20,27,Male,1.2857142857142858,1.0,0.4,0.5,2.5555555555555554,2.75,3.6666666666666665,2.4444444444444446,0.625,3.2222222222222223,1.5,1.75,2.25,0.0,1.0,1.0,0.5087324461469857,-1.4059965957386686,-0.675833046708594,-1.4091763145261682,,,,,,,,,,,,,-0.00239027226871203,-2.1476716076603046,,,,,,,,,,,,,,,,,,
9,240620_100445,TrueCHOICE,9.0,10,1.0,788.0,,,,,,,,,,,11.0,10.0,,,B,,,,,,True,cue1.png,Hard,cue2.png,Easy,Right,Easy,Easy,0.0172310000052675,,,,,,,,,,,,,20,27,Male,1.2857142857142858,1.0,0.4,0.5,2.5555555555555554,2.75,3.6666666666666665,2.4444444444444446,0.625,3.2222222222222223,1.5,1.75,2.25,0.0,0.8819444444444444,0.8888888888888888,0.4581382615366377,-1.701151427945777,-0.7805842593405166,-1.8217374855202453,,,,,,,,,,,,,,,,,1.3520000000000003,-0.025591195768750876,,,,,,,,,,,,,,
0,240620_100638,FalseCHOICE,9.0,1,2.0,788.0,,,,,,,,,,,1.0,1.0,,,B,,,,,,False,cue2.png,Easy,cue1.png,Hard,Right,Hard,Mid,0.0166818000143393,,,,,,,,,,,,,20,27,Male,1.2857142857142858,1.0,0.4,0.5,2.5555555555555554,2.75,3.6666666666666665,2.4444444444444446,0.625,3.2222222222222223,1.5,1.75,2.25,0.0,1.0,1.0,0.4231156000079444,-3.196603316558969,-0.8601098512009047,-3.8523629737017955,,,,,,,,,,,,,,,,,,,0.00019134471972170062,0.4146065247031128,0.0006772066017925668,1.47276196391914,,,,,,,,,,
1,240620_100705,FalseCHOICE,9.0,2,2.0,788.0,,,,,,,,,,,2.0,2.0,,,B,,,,,,False,cue1.png,Hard,cue2.png,Easy,Left,Hard,Mid,0.01624239992816,,,,,,,,,,,,,20,27,Male,1.2857142857142858,1.0,0.4,0.5,2.5555555555555554,2.75,3.6666666666666665,2.4444444444444446,0.625,3.2222222222222223,1.5,1.75,2.25,0.0,,,,,,,,,,,,,,,,,,,,,,,,,-7.91755825911818e-05,0.14376346237284646,0.0006511688798006496,1.418104015047826,1.1149999999999998,-0.7508172313869003,,,,,,,,
2,240620_100731,FalseCHOICE,9.0,3,2.0,788.0,,,,,,,,,,,3.0,3.0,,,B,,,,,,False,cue1.png,Hard,cue2.png,Easy,Right,Easy,Mid,0.0164242999162524,,,,,,,,,,,,,20,27,Male,1.2857142857142858,1.0,0.4,0.5,2.5555555555555554,2.75,3.6666666666666665,2.4444444444444446,0.625,3.2222222222222223,1.5,1.75,2.25,0.0,,,,,,,,,,,,,,,,,,,,,,,,,8.820001534471126e-05,0.3113387575234682,-0.0007123039135122312,-1.4440751820208566,1.587,0.14933703346360497,,,,,,,,
3,240620_100756,FalseCHOICE,9.0,4,2.0,788.0,,,,,,,,,,,4.0,4.0,,,B,,,,,,False,cue1.png,Hard,cue2.png,Easy,Left,Hard,Mid,0.0157009001122787,,,,,,,,,,,,,20,27,Male,1.2857142857142858,1.0,0.4,0.5,2.5555555555555554,2.75,3.6666666666666665,2.4444444444444446,0.625,3.2222222222222223,1.5,1.75,2.25,0.0,1.0,1.0,0.7032543000174113,-0.4433059465154492,-0.352036717137567,-0.3584435881918476,,,,,,,,,,,,,,,,,,,0.00022043501860172753,0.44373153146011585,0.0005312240061031018,1.1663177498756299,1.596,0.16650099190355125,,,,,,,,
4,240620_100822,FalseCHOICE,9.0,5,2.0,788.0,,,,,,,,,,,5.0,5.0,,,B,,,,,,False,cue2.png,Easy,cue1.png,Hard,Right,Hard,Mid,0.0165113999973982,,,,,,,,,,,,,20,27,Male,1.2857142857142858,1.0,0.4,0.5,2.5555555555555554,2.75,3.6666666666666665,2.4444444444444446,0.625,3.2222222222222223,1.5,1.75,2.25,0.0,,,,,,,,,,,,,,,,,,,,,,,,,-1.4632296769329697e-05,0.20838375532457298,-0.000109874400245253,-0.17946526165460197,1.53,0.040631963343946656,,,,,,,,
5,240620_100849,FalseCHOICE,9.0,6,2.0,788.0,,,,,,,,,,,6.0,6.0,,,B,,,,,,False,cue1.png,Hard,cue2.png,Easy,Left,Hard,Mid,0.0163209999445825,,,,,,,,,,,,,20,27,Male,1.2857142857142858,1.0,0.4,0.5,2.5555555555555554,2.75,3.6666666666666665,2.4444444444444446,0.625,3.2222222222222223,1.5,1.75,2.25,0.0,0.5347222222222222,0.7008547008547008,0.8357444833188007,0.8588521388471654,-0.1794323545786169,0.8285227911269291,,,,,,,,,,,,,,,,,,,-7.5035093642988535e-06,0.21552104814500925,2.2444604069080283e-05,0.09829657076534251,0.05999999999999983,-2.7628145818472447,,,,,,,,
6,240620_100916,FalseCHOICE,9.0,7,2.0,788.0,,,,,,,,,,,7.0,7.0,,,B,,,,,,False,cue1.png,Hard,cue2.png,Easy,Right,Easy,Mid,0.0168204999063164,,,,,,,,,,,,,20,27,Male,1.2857142857142858,1.0,0.4,0.5,2.5555555555555554,2.75,3.6666666666666665,2.4444444444444446,0.625,3.2222222222222223,1.5,1.75,2.25,0.0,1.0,0.9230769230769232,0.7759070416796021,0.27074963573077865,-0.25372255762450835,0.31764362202063173,,,,,,,,,,,,,,,,,,,7.25893244310329e-05,0.295709441364928,-8.45216519248914e-05,-0.12624519801494163,,,,,,,,,,
7,240620_100944,FalseCHOICE,9.0,8,2.0,788.0,,,,,,,,,,,8.0,8.0,,,B,,,,,,False,cue2.png,Easy,cue1.png,Hard,Right,Hard,Mid,0.0168244000524282,,,,,,,,,,,,,20,27,Male,1.2857142857142858,1.0,0.4,0.5,2.5555555555555554,2.75,3.6666666666666665,2.4444444444444446,0.625,3.2222222222222223,1.5,1.75,2.25,0.0,,,,,,,,,,,,,,,,,,,,,,,,,0.0001714263965533155,0.39466443681807933,0.000186588967386608,0.4428656625049696,2.714,2.298646051443518,,,,,,,,
8,240620_101011,FalseCHOICE,9.0,9,2.0,788.0,,,,,,,,,,,9.0,9.0,,,B,,,,,,False,cue2.png,Easy,cue1.png,Hard,Right,Hard,Mid,0.0169920000480487,,,,,,,,,,,,,20,27,Male,1.2857142857142858,1.0,0.4,0.5,2.5555555555555554,2.75,3.6666666666666665,2.4444444444444446,0.625,3.2222222222222223,1.5,1.75,2.25,0.0,1.0,0.9230769230769232,0.9528285583364776,2.0095938100595117,-0.04832028832507722,1.7301547792107541,,,,,,,,,,,,,,,,,,,0.00011730520943022994,0.34047867725755626,5.609580753190586e-05,0.1689366121215055,,,,,,,,,,
9,240620_101039,FalseCHOICE,9.0,10,2.0,788.0,,,,,,,,,,,10.0,10.0,,,B,,,,,,False,cue1.png,Hard,cue2.png,Easy,Right,Easy,Mid,0.0163134000031277,,,,,,,,,,,,,20,27,Male,1.2857142857142858,1.0,0.4,0.5,2.5555555555555554,2.75,3.6666666666666665,2.4444444444444446,0.625,3.2222222222222223,1.5,1.75,2.25,0.0,,,,,,,,,,,,,,,,,,,,,,,,,0.00024143178640059467,0.46475335067686857,-0.00019749652417114846,-0.3634001531564101,,,,,,,,,,
10,240620_101106,FalseCHOICE,9.0,11,2.0,788.0,,,,,,,,,,,11.0,11.0,,,B,,,,,,False,cue2.png,Easy,cue1.png,Hard,Right,Hard,Mid,0.0169112000148743,,,,,,,,,,,,,20,27,Male,1.2857142857142858,1.0,0.4,0.5,2.5555555555555554,2.75,3.6666666666666665,2.4444444444444446,0.625,3.2222222222222223,1.5,1.75,2.25,0.0,1.0,0.9230769230769232,0.8695413499954157,1.1910191123259846,-0.13978939025712037,1.1011396886869742,,,,,,,,,,,,,,,,,,,-0.00010178643194517015,0.12112563582687597,0.00018554816677784133,0.44068083134052055,,,,,,,,,,
11,240620_101134,FalseCHOICE,9.0,12,2.0,788.0,,,,,,,,,,,12.0,12.0,,,B,,,,,,False,cue1.png,Hard,cue2.png,Easy,Left,Hard,Mid,0.0160811999812722,,,,,,,,,,,,,20,27,Male,1.2857142857142858,1.0,0.4,0.5,2.5555555555555554,2.75,3.6666666666666665,2.4444444444444446,0.625,3.2222222222222223,1.5,1.75,2.25,0.0,,,,,,,,,,,,,,,,,,,,,,,,,0.000156938983791675,0.38015973900406086,0.000408444939208448,0.9085819939259022,2.003,0.942693334687779,,,,,,,,
12,240620_101200,FalseCHOICE,9.0,13,2.0,788.0,,,,,,,,,,,13.0,13.0,,,B,,,,,,False,cue2.png,Easy,cue1.png,Hard,Right,Hard,Mid,0.0157775999978184,,,,,,,,,,,,,20,27,Male,1.2857142857142858,1.0,0.4,0.5,2.5555555555555554,2.75,3.6666666666666665,2.4444444444444446,0.625,3.2222222222222223,1.5,1.75,2.25,0.0,1.0,1.0,0.8746369923106753,1.241100798950548,-0.13394634463585844,1.141321168473703,,,,,,,,,,,,,,,,,,,,,-0.0001534569105615417,-0.27095293562587713,,,,,,,,,,
13,240620_101226,FalseCHOICE,9.0,14,2.0,788.0,,,,,,,,,,,14.0,14.0,,,B,,,,,,False,cue1.png,Hard,cue2.png,Easy,Left,Hard,Mid,0.0161469999002292,,,,,,,,,,,,,20,27,Male,1.2857142857142858,1.0,0.4,0.5,2.5555555555555554,2.75,3.6666666666666665,2.4444444444444446,0.625,3.2222222222222223,1.5,1.75,2.25,0.0,1.0,1.0,0.7885865999940926,0.39536859969191807,-0.23751304982843535,0.42911323086480624,,,,,,,,,,,,,,,,,,,0.0020081107956910786,2.233540199352697,0.0003341660103043237,0.7526569134016571,1.436,-0.13863604702882354,,,,,,,,
14,240620_101254,FalseCHOICE,9.0,15,2.0,788.0,,,,,,,,,,,15.0,15.0,,,B,,,,,,False,cue2.png,Easy,cue1.png,Hard,Right,Hard,Mid,0.014191500027664,,,,,,,,,,,,,20,27,Male,1.2857142857142858,1.0,0.4,0.5,2.5555555555555554,2.75,3.6666666666666665,2.4444444444444446,0.625,3.2222222222222223,1.5,1.75,2.25,0.0,,,,,,,,,,,,,,,,,,,,,,,,,,,-0.0005336698024983912,-1.0690894551781613,,,,,,,,,,
15,240620_101320,FalseCHOICE,9.0,16,2.0,788.0,,,,,,,,,,,16.0,16.0,,,B,,,,,,False,cue2.png,Easy,cue1.png,Hard,Left,Easy,Mid,0.0163893999997526,,,,,,,,,,,,,20,27,Male,1.2857142857142858,1.0,0.4,0.5,2.5555555555555554,2.75,3.6666666666666665,2.4444444444444446,0.625,3.2222222222222223,1.5,1.75,2.25,0.0,1.0,0.9230769230769232,0.8009213166757642,0.516598344096138,-0.22199256810488163,0.5358445424236203,,,,,,,,,,,,,,,,,,,,,0.00036523648060341005,0.81787952302712,,,,,,,,,,
16,240620_101347,FalseCHOICE,9.0,17,2.0,788.0,,,,,,,,,,,17.0,17.0,,,B,,,,,,False,cue1.png,Hard,cue2.png,Easy,Left,Hard,Mid,0.0161342000355944,,,,,,,,,,,,,20,27,Male,1.2857142857142858,1.0,0.4,0.5,2.5555555555555554,2.75,3.6666666666666665,2.4444444444444446,0.625,3.2222222222222223,1.5,1.75,2.25,0.0,0.8819444444444444,0.8888888888888888,0.7502181384748278,0.018270454415888697,-0.2873912634410502,0.0861105295371737,,,,,,,,,,,,,,,,,,,,,,,,,,,,,,,,
17,240620_101413,FalseCHOICE,9.0,18,2.0,788.0,,,,,,,,,,,18.0,18.0,,,B,,,,,,False,cue1.png,Hard,cue2.png,Easy,Right,Easy,Mid,0.0145206999732181,,,,,,,,,,,,,20,27,Male,1.2857142857142858,1.0,0.4,0.5,2.5555555555555554,2.75,3.6666666666666665,2.4444444444444446,0.625,3.2222222222222223,1.5,1.75,2.25,0.0,1.0,1.0,0.7766990076768427,0.27853334393422513,-0.2527023811718195,0.32465917558116714,,,,,,,,,,,,,,,,,,,-0.0032725048042736636,-3.0533757469012905,,,,,,,,,,,,
18,240620_101438,FalseCHOICE,9.0,19,2.0,788.0,,,,,,,,,,,19.0,19.0,,,B,,,,,,False,cue2.png,Easy,cue1.png,Hard,Right,Hard,Mid,0.0166618999792262,,,,,,,,,,,,,20,27,Male,1.2857142857142858,1.0,0.4,0.5,2.5555555555555554,2.75,3.6666666666666665,2.4444444444444446,0.625,3.2222222222222223,1.5,1.75,2.25,0.0,1.0,1.0,0.7211765769170597,-0.2671597808791905,-0.3268712661101506,-0.18538571267184348,,,,,,,,,,,,,,,,,,,-0.002688457345889235,-2.468631456648017,-0.0014455130442735517,-2.983215479838516,,,,,,,,,,
19,240620_101502,FalseCHOICE,9.0,20,2.0,788.0,,,,,,,,,,,20.0,20.0,,,B,,,,,,False,cue2.png,Easy,cue1.png,Hard,Left,Easy,Mid,0.0167106000008061,,,,,,,,,,,,,20,27,Male,1.2857142857142858,1.0,0.4,0.5,2.5555555555555554,2.75,3.6666666666666665,2.4444444444444446,0.625,3.2222222222222223,1.5,1.75,2.25,0.0,1.0,1.0,0.6322734615443131,-1.140929501864499,-0.4584332861026546,-1.0901119444496368,,,,,,,,,,,,,,,,,,,0.0003568340427901259,0.5802932944560706,,,1.8559999999999999,0.6623486801686594,,,,,,,,
20,240620_101525,FalseCHOICE,9.0,21,2.0,788.0,,,,,,,,,,,21.0,21.0,,,B,,,,,,False,cue2.png,Easy,cue1.png,Hard,Right,Hard,Mid,0.0168030000058934,,,,,,,,,,,,,20,27,Male,1.2857142857142858,1.0,0.4,0.5,2.5555555555555554,2.75,3.6666666666666665,2.4444444444444446,0.625,3.2222222222222223,1.5,1.75,2.25,0.0,1.0,1.0,0.6572282846139458,-0.895665107030086,-0.41972385568374443,-0.8239147766107673,,,,,,,,,,,,,,,,,,,-7.48073010963593e-05,0.1481369557005671,0.00013101468078022954,0.3262050530693927,1.2269999999999999,-0.537221304134238,,,,,,,,
21,240620_101550,FalseCHOICE,9.0,22,2.0,788.0,,,,,,,,,,,22.0,22.0,,,B,,,,,,False,cue1.png,Hard,cue2.png,Easy,Left,Hard,Mid,0.0162560000317171,,,,,,,,,,,,,20,27,Male,1.2857142857142858,1.0,0.4,0.5,2.5555555555555554,2.75,3.6666666666666665,2.4444444444444446,0.625,3.2222222222222223,1.5,1.75,2.25,0.0,1.0,1.0,0.6866194384727771,-0.606798961012667,-0.3759750871551388,-0.5230630680549129,,,,,,,,,,,,,,,,,,,,,0.00011557719956368888,0.2937989516716789,1.2800000000000002,-0.43614465998788815,,,,,,,,
22,240620_101613,FalseCHOICE,9.0,23,2.0,788.0,,,,,,,,,,,23.0,23.0,,,B,,,,,,False,cue2.png,Easy,cue1.png,Hard,Right,Hard,Mid,0.016472699935548,,,,,,,,,,,,,20,27,Male,1.2857142857142858,1.0,0.4,0.5,2.5555555555555554,2.75,3.6666666666666665,2.4444444444444446,0.625,3.2222222222222223,1.5,1.75,2.25,0.0,0.8819444444444444,0.8888888888888888,0.5968264769046352,-1.4893143897114836,-0.5161288662900869,-1.4868731438914153,,,,,,,,,,,,,,,,,,,-0.00013836063137851557,0.08450779941270513,-5.4777657689103476e-05,-0.06380710467202054,1.648,0.26567052955657267,,,,,,,,
23,240620_101638,FalseCHOICE,9.0,24,2.0,788.0,,,,,,,,,,,24.0,24.0,,,B,,,,,,False,cue1.png,Hard,cue2.png,Easy,Left,Hard,Mid,0.0161766000092029,,,,,,,,,,,,,20,27,Male,1.2857142857142858,1.0,0.4,0.5,2.5555555555555554,2.75,3.6666666666666665,2.4444444444444446,0.625,3.2222222222222223,1.5,1.75,2.25,0.0,1.0,1.0,0.6868339923228353,-0.6046902536078065,-0.37566265741126437,-0.5209145499272123,,,,,,,,,,,,,,,,,,,6.819767727979636e-05,0.2913125545030348,,,1.6059999999999999,0.18557205683682426,,,,,,,,
24,240620_101703,FalseCHOICE,9.0,25,2.0,788.0,,,,,,,,,,,25.0,25.0,,,B,,,,,,False,cue1.png,Hard,cue2.png,Easy,Left,Hard,Mid,0.0160379000008106,,,,,,,,,,,,,20,27,Male,1.2857142857142858,1.0,0.4,0.5,2.5555555555555554,2.75,3.6666666666666665,2.4444444444444446,0.625,3.2222222222222223,1.5,1.75,2.25,0.0,1.0,1.0,0.7096174461677527,-0.3807668058671009,-0.34302926237051706,-0.2965010867787016,,,,,,,,,,,,,,,,,,,-0.00021626754356219267,0.00650793584565404,-1.3109726346801145e-05,0.02366151725995858,2.103,1.1334039840205132,,,,,,,,
25,240620_101728,FalseCHOICE,9.0,26,2.0,788.0,,,,,,,,,,,26.0,26.0,,,B,,,,,,False,cue2.png,Easy,cue1.png,Hard,Left,Easy,Mid,0.0159786000149324,,,,,,,,,,,,,20,27,Male,1.2857142857142858,1.0,0.4,0.5,2.5555555555555554,2.75,3.6666666666666665,2.4444444444444446,0.625,3.2222222222222223,1.5,1.75,2.25,0.0,0.8819444444444444,0.8888888888888888,0.737869515370291,-0.10309596698976062,-0.3039882784554598,-0.028023890515070756,,,,,,,,,,,,,,,,,,,-9.756676740448056e-07,0.22205667825734998,-0.0003446019467191058,-0.6722013864906964,1.154,-0.6764400781471337,,,,,,,,
26,240620_101754,FalseCHOICE,9.0,27,2.0,788.0,,,,,,,,,,,27.0,27.0,,,B,,,,,,False,cue2.png,Easy,cue1.png,Hard,Right,Hard,Mid,0.0171885000308975,,,,,,,,,,,,,20,27,Male,1.2857142857142858,1.0,0.4,0.5,2.5555555555555554,2.75,3.6666666666666665,2.4444444444444446,0.625,3.2222222222222223,1.5,1.75,2.25,0.0,0.8819444444444444,0.8888888888888888,0.8511548153518771,1.0103100654268662,-0.16116124527192377,0.9541696295867406,,,,,,,,,,,,,,,,,,,-4.7168893318495775e-05,0.1758083390920854,6.504642211320986e-05,0.18772559198324687,1.975,0.8892943528746134,,,,,,,,
27,240620_101822,FalseCHOICE,9.0,28,2.0,788.0,,,,,,,,,,,28.0,28.0,,,B,,,,,,False,cue1.png,Hard,cue2.png,Easy,Left,Hard,Mid,0.0160951999714598,,,,,,,,,,,,,20,27,Male,1.2857142857142858,1.0,0.4,0.5,2.5555555555555554,2.75,3.6666666666666665,2.4444444444444446,0.625,3.2222222222222223,1.5,1.75,2.25,0.0,1.0,1.0,0.9130833769181314,1.618964798547224,-0.09092808063109765,1.4371493405621756,,,,,,,,,,,,,,,,,,,7.056373110537074e-05,0.2936814312870612,,,0.639,-1.658599922210714,,,,,,,,
28,240620_101849,FalseCHOICE,9.0,29,2.0,788.0,,,,,,,,,,,29.0,29.0,,,B,,,,,,False,cue2.png,Easy,cue1.png,Hard,Left,Easy,Mid,0.0167112000053748,,,,,,,,,,,,,20,27,Male,1.2857142857142858,1.0,0.4,0.5,2.5555555555555554,2.75,3.6666666666666665,2.4444444444444446,0.625,3.2222222222222223,1.5,1.75,2.25,0.0,1.0,1.0,0.8186135846100604,0.6904839042560051,-0.20014312013108607,0.6860989147180204,,,,,,,,,,,,,,,,,,,9.09588073126676e-06,0.23214024311063453,-0.0005199274799227794,-1.0402418023403261,1.87,0.6890481710752427,,,,,,,,
29,240620_101914,FalseCHOICE,9.0,30,2.0,788.0,,,,,,,,,,,30.0,30.0,,,B,,,,,,False,cue2.png,Easy,cue1.png,Hard,Left,Easy,Mid,0.0164492001058533,,,,,,,,,,,,,20,27,Male,1.2857142857142858,1.0,0.4,0.5,2.5555555555555554,2.75,3.6666666666666665,2.4444444444444446,0.625,3.2222222222222223,1.5,1.75,2.25,0.0,0.8819444444444444,0.8888888888888888,0.7084296461678325,-0.39244090379004865,-0.34470452447448685,-0.308021535998401,,,,,,,,,,,,,,,,,,,1.730779740279336e-05,0.2403619574880819,-0.0002314382547437873,-0.4346500641439807,0.6270000000000002,-1.6814852001306417,,,,,,,,
30,240620_101938,FalseCHOICE,9.0,31,2.0,788.0,,,,,,,,,,,31.0,31.0,,,B,,,,,,False,cue1.png,Hard,cue2.png,Easy,Left,Hard,Mid,0.0155786999966949,,,,,,,,,,,,,20,27,Male,1.2857142857142858,1.0,0.4,0.5,2.5555555555555554,2.75,3.6666666666666665,2.4444444444444446,0.625,3.2222222222222223,1.5,1.75,2.25,0.0,1.0,1.0,0.6725051769216617,-0.7455186709544891,-0.3967454695109968,-0.665896917538754,,,,,,,,,,,,,,,,,,,-0.0019545345454903716,-1.7338330068661316,-0.00030708319700497363,-0.5934426569740644,1.4329999999999998,-0.1443573665088058,,,,,,,,
31,240620_102003,FalseCHOICE,9.0,32,2.0,788.0,,,,,,,,,,,32.0,32.0,,,B,,,,,,False,cue2.png,Easy,cue1.png,Hard,Right,Hard,Mid,0.0165482000447809,,,,,,,,,,,,,20,27,Male,1.2857142857142858,1.0,0.4,0.5,2.5555555555555554,2.75,3.6666666666666665,2.4444444444444446,0.625,3.2222222222222223,1.5,1.75,2.25,0.0,0.8819444444444444,0.8888888888888888,0.7337070769325902,-0.14400581201689328,-0.30964540776885335,-0.06692686028307734,,,,,,,,,,,,,,,,,,,-0.0038829205146691977,-3.66451974934594,-0.0003690044921820096,-0.7234268002444554,0.558,-1.8130755481702285,,,,,,,,
32,240620_102032,FalseCHOICE,9.0,33,2.0,788.0,,,,,,,,,,,33.0,33.0,,,B,,,,,,False,cue1.png,Hard,cue2.png,Easy,Left,Hard,Mid,0.016945399926044,,,,,,,,,,,,,20,27,Male,1.2857142857142858,1.0,0.4,0.5,2.5555555555555554,2.75,3.6666666666666665,2.4444444444444446,0.625,3.2222222222222223,1.5,1.75,2.25,0.0,0.9375,0.9230769230769232,0.9378784166668388,1.8626587891594946,-0.06413495813544683,1.6214003938253598,,,,,,,,,,,,,,,,,,,5.468506586985087e-05,0.27778382108429256,0.0005033889435843717,1.1078868539450695,1.2349999999999999,-0.5219644521876192,,,,,,,,
33,240620_102059,FalseCHOICE,9.0,34,2.0,788.0,,,,,,,,,,,34.0,34.0,,,B,,,,,,False,cue1.png,Hard,cue2.png,Easy,Right,Easy,Mid,0.0160866000223904,,,,,,,,,,,,,20,27,Male,1.2857142857142858,1.0,0.4,0.5,2.5555555555555554,2.75,3.6666666666666665,2.4444444444444446,0.625,3.2222222222222223,1.5,1.75,2.25,0.0,1.0,0.9230769230769232,0.8373013000042798,0.8741530568767868,-0.1775712971582663,0.8413209183305994,,,,,,,,,,,,,,,,,,,5.8564359599815735e-05,0.28166774323179583,0.00014445447168726783,0.3544176365076092,1.222,-0.5467568366008744,,,,,,,,
34,240620_102125,FalseCHOICE,9.0,35,2.0,788.0,,,,,,,,,,,35.0,35.0,,,B,,,,,,False,cue1.png,Hard,cue2.png,Easy,Right,Easy,Mid,0.017709800042212,,,,,,,,,,,,,20,27,Male,1.2857142857142858,1.0,0.4,0.5,2.5555555555555554,2.75,3.6666666666666665,2.4444444444444446,0.625,3.2222222222222223,1.5,1.75,2.25,0.0,0.8819444444444444,0.811965811965812,0.8021975833398756,0.5291419221510565,-0.22040033819139096,0.5467939955396364,,,,,,,,,,,,,,,,,,,-9.284963072079579e-05,0.13007309962294597,-0.0006575779446008735,-1.3291953468486917,,,,,,,,,,
35,240620_102151,FalseCHOICE,9.0,36,2.0,788.0,,,,,,,,,,,36.0,36.0,,,B,,,,,,False,cue2.png,Easy,cue1.png,Hard,Left,Easy,Mid,0.0167080000974237,,,,,,,,,,,,,20,27,Male,1.2857142857142858,1.0,0.4,0.5,2.5555555555555554,2.75,3.6666666666666665,2.4444444444444446,0.625,3.2222222222222223,1.5,1.75,2.25,0.0,1.0,1.0,0.7536941307525222,0.05243367569215051,-0.28276865540925594,0.11789929916711153,,,,,,,,,,,,,,,,,,,0.00043238223636153303,0.6559316252041035,-0.000815558181426119,-1.6608248077421155,1.8319999999999999,0.6165781243288032,,,,,,,,
36,240620_102216,FalseCHOICE,9.0,37,2.0,788.0,,,,,,,,,,,37.0,37.0,,,B,,,,,,False,cue1.png,Hard,cue2.png,Easy,Left,Hard,Mid,0.0162627999670803,,,,,,,,,,,,,20,27,Male,1.2857142857142858,1.0,0.4,0.5,2.5555555555555554,2.75,3.6666666666666665,2.4444444444444446,0.625,3.2222222222222223,1.5,1.75,2.25,0.0,1.0,1.0,0.6660450230567501,-0.8090112360507665,-0.4063980085393604,-0.7322755370120416,,,,,,,,,,,,,,,,,,,,,0.0004529217771036412,1.0019470253364013,2.24,1.394677573606359,,,,,,,,
37,240620_102242,FalseCHOICE,9.0,38,2.0,788.0,,,,,,,,,,,38.0,38.0,,,B,,,,,,False,cue2.png,Easy,cue1.png,Hard,Right,Hard,Mid,0.0162801999831572,,,,,,,,,,,,,20,27,Male,1.2857142857142858,1.0,0.4,0.5,2.5555555555555554,2.75,3.6666666666666665,2.4444444444444446,0.625,3.2222222222222223,1.5,1.75,2.25,0.0,1.0,1.0,0.7971773692406714,0.47980156940462365,-0.22667807885292224,0.5036232031399072,,,,,,,,,,,,,,,,,,,-0.0005737833801505955,-0.35143445585393907,0.0003533508040627995,0.79292931037567,1.0539999999999998,-0.867150727479868,,,,,,,,
38,240620_102309,FalseCHOICE,9.0,39,2.0,788.0,,,,,,,,,,,39.0,39.0,,,B,,,,,,False,cue2.png,Easy,cue1.png,Hard,Right,Hard,Mid,0.016272300039418,,,,,,,,,,,,,20,27,Male,1.2857142857142858,1.0,0.4,0.5,2.5555555555555554,2.75,3.6666666666666665,2.4444444444444446,0.625,3.2222222222222223,1.5,1.75,2.25,0.0,0.8819444444444444,0.811965811965812,0.8472662916756235,0.9720923468081278,-0.16574023979153565,0.9226807815339692,,,,,,,,,,,,,,,,,,,1.4878944639164487e-05,0.23793020684006685,-0.0005989668818497584,-1.206159987912979,1.7579999999999998,0.4754522438225799,,,,,,,,
39,240620_102335,FalseCHOICE,9.0,40,2.0,788.0,,,,,,,,,,,40.0,40.0,,,B,,,,,,False,cue1.png,Hard,cue2.png,Easy,Left,Hard,Mid,0.0138314999639987,,,,,,,,,,,,,20,27,Male,1.2857142857142858,1.0,0.4,0.5,2.5555555555555554,2.75,3.6666666666666665,2.4444444444444446,0.625,3.2222222222222223,1.5,1.75,2.25,0.0,1.0,1.0,0.8176649307760482,0.6811602152898635,-0.20130264637479184,0.6781250799503941,,,,,,,,,,,,,,,,,,,0.00015003647229760867,0.373248992066256,-0.0006913289118055414,-1.400044810576847,2.017,0.9693928255943614,,,,,,,,
40,240620_102359,FalseCHOICE,9.0,41,2.0,788.0,,,,,,,,,,,41.0,41.0,,,B,,,,,,False,cue1.png,Hard,cue2.png,Easy,Left,Hard,Mid,0.0160118000349029,,,,,,,,,,,,,20,27,Male,1.2857142857142858,1.0,0.4,0.5,2.5555555555555554,2.75,3.6666666666666665,2.4444444444444446,0.625,3.2222222222222223,1.5,1.75,2.25,0.0,0.8819444444444444,0.8888888888888888,0.6433262538361865,-1.032298941546257,-0.4411032902115745,-0.9709369585368721,,,,,,,,,,,,,,,,,,,-6.561433259475195e-05,0.15734089240917412,-0.00024544684910148863,-0.4640566702364763,1.5090000000000001,0.0005827269840726728,,,,,,,,
41,240620_102425,FalseCHOICE,9.0,42,2.0,788.0,,,,,,,,,,,42.0,42.0,,,B,,,,,,False,cue2.png,Easy,cue1.png,Hard,Left,Easy,Mid,0.016111799981445,,,,,,,,,,,,,20,27,Male,1.2857142857142858,1.0,0.4,0.5,2.5555555555555554,2.75,3.6666666666666665,2.4444444444444446,0.625,3.2222222222222223,1.5,1.75,2.25,0.0,1.0,1.0,0.7844027153735694,0.35424797436645317,-0.24283272294542582,0.39253088123458135,,,,,,,,,,,,,,,,,,,-8.446105313706601e-06,0.2145773275765529,-0.0001312766996057679,-0.2243926091598376,2.1839999999999997,1.287879609980027,,,,,,,,
42,240620_102452,FalseCHOICE,9.0,43,2.0,788.0,,,,,,,,,,,43.0,43.0,,,B,,,,,,False,cue1.png,Hard,cue2.png,Easy,Left,Hard,Mid,0.0161722999764606,,,,,,,,,,,,,20,27,Male,1.2857142857142858,1.0,0.4,0.5,2.5555555555555554,2.75,3.6666666666666665,2.4444444444444446,0.625,3.2222222222222223,1.5,1.75,2.25,0.0,1.0,1.0,0.8359868846153125,0.861234540322429,-0.17914235427969308,0.8305170663567768,,,,,,,,,,,,,,,,,,,-8.236344361313647e-05,0.14057179788745458,0.0010732731231764521,2.3041781562480916,1.3000000000000003,-0.3980025301213413,,,,,,,,
43,240620_102517,FalseCHOICE,9.0,44,2.0,788.0,,,,,,,,,,,44.0,44.0,,,B,,,,,,False,cue2.png,Easy,cue1.png,Hard,Right,Hard,Mid,0.0154557999921962,,,,,,,,,,,,,20,27,Male,1.2857142857142858,1.0,0.4,0.5,2.5555555555555554,2.75,3.6666666666666665,2.4444444444444446,0.625,3.2222222222222223,1.5,1.75,2.25,0.0,1.0,1.0,0.7290902999946132,-0.18938104864425015,-0.3159576863391561,-0.11033516311368997,,,,,,,,,,,,,,,,,,,-3.3197305915841704e-05,0.18979659611160152,,,,,,,,,,,,
44,240620_102541,FalseCHOICE,9.0,45,2.0,788.0,,,,,,,,,,,45.0,45.0,,,B,,,,,,False,cue1.png,Hard,cue2.png,Easy,Left,Hard,Mid,0.0167524999706074,,,,,,,,,,,,,20,27,Male,1.2857142857142858,1.0,0.4,0.5,2.5555555555555554,2.75,3.6666666666666665,2.4444444444444446,0.625,3.2222222222222223,1.5,1.75,2.25,0.0,1.0,0.9230769230769232,0.6362554166698828,-1.1017935075356469,-0.4521551977235723,-1.046938760864445,,,,,,,,,,,,,,,,,,,-1.0622060919710744e-05,0.21239877581985983,0.0003496392130415268,0.785138000815835,1.9139999999999997,0.772960856781645,,,,,,,,
45,240620_102606,FalseCHOICE,9.0,46,2.0,788.0,,,,,,,,,,,46.0,46.0,,,B,,,,,,False,cue1.png,Hard,cue2.png,Easy,Left,Hard,Mid,0.0144394000526517,,,,,,,,,,,,,20,27,Male,1.2857142857142858,1.0,0.4,0.5,2.5555555555555554,2.75,3.6666666666666665,2.4444444444444446,0.625,3.2222222222222223,1.5,1.75,2.25,0.0,0.7083333333333333,0.7777777777777778,0.671222592318932,-0.7581243438352249,-0.39865446480244754,-0.6790247040885057,,,,,,,,,,,,,,,,,,,,,,,1.617,0.20655022826342523,,,,,,,,
46,240620_102630,FalseCHOICE,9.0,47,2.0,788.0,,,,,,,,,,,47.0,47.0,,,B,,,,,,False,cue2.png,Easy,cue1.png,Hard,Right,Hard,Mid,0.0173404000233858,,,,,,,,,,,,,20,27,Male,1.2857142857142858,1.0,0.4,0.5,2.5555555555555554,2.75,3.6666666666666665,2.4444444444444446,0.625,3.2222222222222223,1.5,1.75,2.25,0.0,1.0,1.0,0.6846915615650897,-0.6257467837145066,-0.37878681721164026,-0.54239878469213,,,,,,,,,,,,,,,,,,,,,,,1.6109999999999998,0.19510758930346075,,,,,,,,
47,240620_102656,FalseCHOICE,9.0,48,2.0,788.0,,,,,,,,,,,48.0,48.0,,,B,,,,,,False,cue2.png,Easy,cue1.png,Hard,Right,Hard,Mid,0.0165644999360665,,,,,,,,,,,,,20,27,Male,1.2857142857142858,1.0,0.4,0.5,2.5555555555555554,2.75,3.6666666666666665,2.4444444444444446,0.625,3.2222222222222223,1.5,1.75,2.25,0.0,1.0,1.0,0.8035555538596012,0.542488513180539,-0.21870895635690668,0.5584252969874065,,,,,,,,,,,,,,,,,,,,,-0.00017273025047189177,-0.31141120719534804,1.8159999999999998,0.5860644204355657,,,,,,,,
48,240620_102720,FalseCHOICE,9.0,49,2.0,788.0,,,,,,,,,,,49.0,49.0,,,B,,,,,,False,cue1.png,Hard,cue2.png,Easy,Left,Hard,Mid,0.0164806999964639,,,,,,,,,,,,,20,27,Male,1.2857142857142858,1.0,0.4,0.5,2.5555555555555554,2.75,3.6666666666666665,2.4444444444444446,0.625,3.2222222222222223,1.5,1.75,2.25,0.0,1.0,1.0,0.6107095461517859,-1.35286691549596,-0.49313380738383833,-1.3287406296981548,,,,,,,,,,,,,,,,,,,,,0.0004893803214079326,1.0784801894559466,,,,,,,,,,
49,240620_102743,FalseCHOICE,9.0,50,2.0,788.0,,,,,,,,,,,50.0,50.0,,,B,,,,,,False,cue2.png,Easy,cue1.png,Hard,Right,Hard,Mid,0.0177967000054195,,,,,,,,,,,,,20,27,Male,1.2857142857142858,1.0,0.4,0.5,2.5555555555555554,2.75,3.6666666666666665,2.4444444444444446,0.625,3.2222222222222223,1.5,1.75,2.25,0.0,0.8819444444444444,0.8888888888888888,0.6435866769170389,-1.0297394159127573,-0.4406985649528815,-0.9681537422391634,,,,,,,,,,,,,,,,,,,-6.506609033853344e-05,0.15788978877777768,0.00026947031569866595,0.6168487974286893,0.9869999999999999,-0.9949268625327997,,,,,,,,
0,240620_093540,OFFLINERATING,9.0,1,1.0,,,,,,,,,,,,,,,,,T0,cue2.png,Easy,33.0,2.6591432999121025,,,,,,,,,,,,,,,,,,,,,,20,27,Male,1.2857142857142858,1.0,0.4,0.5,2.5555555555555554,2.75,3.6666666666666665,2.4444444444444446,0.625,3.2222222222222223,1.5,1.75,2.25,0.0,,,,,,,,,,,,,,,,,,,,,,,,,,,,,,,-1.8466611778085336,,,0.0002759086353318462,0.9004681135468169,,,
1,240620_093547,OFFLINERATING,9.0,2,3.0,,,,,,,,,,,,,,,,,T0,cue1.png,Hard,49.0,1.5768748000264168,,,,,,,,,,,,,,,,,,,,,,20,27,Male,1.2857142857142858,1.0,0.4,0.5,2.5555555555555554,2.75,3.6666666666666665,2.4444444444444446,0.625,3.2222222222222223,1.5,1.75,2.25,0.0,,,,,,,,,,,,,,,,,,,,,,,,,,,,,,,-0.6992212226653671,0.00020053930325295228,1.6417047723407066,,,,,
2,240620_095941,OFFLINERATING,9.0,3,1.0,,,,,,,,,,,,,,,,,T1,cue2.png,Easy,60.0,0.8242758000269532,,,,,,,,,,,,,,,,,,,,,,20,27,Male,1.2857142857142858,1.0,0.4,0.5,2.5555555555555554,2.75,3.6666666666666665,2.4444444444444446,0.625,3.2222222222222223,1.5,1.75,2.25,0.0,,,,,,,,,,,,,,,,,,,,,,,,,,,,,,,0.08964374649555988,,,,,,,
3,240620_095948,OFFLINERATING,9.0,4,3.0,,,,,,,,,,,,,,,,,T1,cue1.png,Hard,57.0,0.9184518000110984,,,,,,,,,,,,,,,,,,,,,,20,27,Male,1.2857142857142858,1.0,0.4,0.5,2.5555555555555554,2.75,3.6666666666666665,2.4444444444444446,0.625,3.2222222222222223,1.5,1.75,2.25,0.0,,,,,,,,,,,,,,,,,,,,,,,,,,,,,,,-0.12550124509378383,,,,,1.1260000000000001,-1.3961244865917581,
4,240620_100505,OFFLINERATING,9.0,5,1.0,,,,,,,,,,,,,,,,,T2,cue2.png,Easy,77.0,0.9180365999927744,,,,,,,,,,,,,,,,,,,,,,20,27,Male,1.2857142857142858,1.0,0.4,0.5,2.5555555555555554,2.75,3.6666666666666665,2.4444444444444446,0.625,3.2222222222222223,1.5,1.75,2.25,0.0,,,,,,,,,,,,,,,,,,,,,,,,,,,,,,,1.3087986988351743,-7.052644682040837e-06,-0.7211642646572158,,,1.595,0.8933244092527673,
5,240620_100512,OFFLINERATING,9.0,6,3.0,,,,,,,,,,,,,,,,,T2,cue1.png,Hard,76.0,1.1518843999365345,,,,,,,,,,,,,,,,,,,,,,20,27,Male,1.2857142857142858,1.0,0.4,0.5,2.5555555555555554,2.75,3.6666666666666665,2.4444444444444446,0.625,3.2222222222222223,1.5,1.75,2.25,0.0,,,,,,,,,,,,,,,,,,,,,,,,,,,,,,,1.2370837016387264,,,0.00021541422652674933,0.49415351322318907,,,
6,240620_102815,OFFLINERATING,9.0,7,1.0,,,,,,,,,,,,,,,,,T3,cue2.png,Easy,50.0,1.2400736000854522,,,,,,,,,,,,,,,,,,,,,,20,27,Male,1.2857142857142858,1.0,0.4,0.5,2.5555555555555554,2.75,3.6666666666666665,2.4444444444444446,0.625,3.2222222222222223,1.5,1.75,2.25,0.0,,,,,,,,,,,,,,,,,,,,,,,,,,,,,,,-0.6275062254689192,-2.145895686624967e-05,-0.8851408992810817,,,,,
7,240620_102822,OFFLINERATING,9.0,8,3.0,,,,,,,,,,,,,,,,,T3,cue1.png,Hard,68.0,0.7347620000364259,,,,,,,,,,,,,,,,,,,,,,20,27,Male,1.2857142857142858,1.0,0.4,0.5,2.5555555555555554,2.75,3.6666666666666665,2.4444444444444446,0.625,3.2222222222222223,1.5,1.75,2.25,0.0,,,,,,,,,,,,,,,,,,,,,,,,,,,,,,,0.6633637240671432,5.319581538402226e-05,-0.03539960840240906,-6.579726665770572e-05,-1.3946216267700058,1.5150000000000001,0.5028000773389897,
0,240620_100530,LEARNINGCHECK,9.0,1,,,,,,,,,,,,1.0,1.0,1.0,,,B,,,,,,,,,,,,,,,cue2.png,Easy,Left,Left,Easy,0.0140420999377965,1.0,,,,,,20,27,Male,1.2857142857142858,1.0,0.4,0.5,2.5555555555555554,2.75,3.6666666666666665,2.4444444444444446,0.625,3.2222222222222223,1.5,1.75,2.25,0.0,,,,,,,,,,,,,,,,,,,,,,,,,,,,,,,,,,,,,,
1,240620_102836,LEARNINGCHECK,9.0,1,,,,,,,,,,,,1.0,1.0,1.0,,,B,,,,,,,,,,,,,,,cue2.png,Easy,Middle,Middle,Mid,0.0138351999921724,1.0,,,,,,20,27,Male,1.2857142857142858,1.0,0.4,0.5,2.5555555555555554,2.75,3.6666666666666665,2.4444444444444446,0.625,3.2222222222222223,1.5,1.75,2.25,0.0,,,,,,,,,,,,,,,,,,,,,,,,,,,,,,,,,,,,,,
2,240620_100535,LEARNINGCHECK,9.0,2,,,,,,,,,,,,2.0,2.0,2.0,,,B,,,,,,,,,,,,,,,cue1.png,Hard,Right,Right,Hard,0.0127311999676749,1.0,,,,,,20,27,Male,1.2857142857142858,1.0,0.4,0.5,2.5555555555555554,2.75,3.6666666666666665,2.4444444444444446,0.625,3.2222222222222223,1.5,1.75,2.25,0.0,,,,,,,,,,,,,,,,,,,,,,,,,,,,,,,,,,,,,,
3,240620_102841,LEARNINGCHECK,9.0,2,,,,,,,,,,,,2.0,2.0,2.0,,,B,,,,,,,,,,,,,,,cue1.png,Hard,Middle,Middle,Mid,0.0154889998957514,1.0,,,,,,20,27,Male,1.2857142857142858,1.0,0.4,0.5,2.5555555555555554,2.75,3.6666666666666665,2.4444444444444446,0.625,3.2222222222222223,1.5,1.75,2.25,0.0,,,,,,,,,,,,,,,,,,,,,,,,,,,,,,,,,,,,,,
0,240620_102856,DEMANDRATING,9.0,-1,,,,,,,,,,,,,,,,,,,,,,,,,,,,,,,,,,,,,,,1.0,MentalDemand,1.0,22.0,3.375697100069374,20,27,Male,1.2857142857142858,1.0,0.4,0.5,2.5555555555555554,2.75,3.6666666666666665,2.4444444444444446,0.625,3.2222222222222223,1.5,1.75,2.25,0.0,,,,,,,,,,,,,,,,,,,,,,,,,,,,,,,,,,,,,,-1.0765322867362368
1,240620_102902,DEMANDRATING,9.0,-1,,,,,,,,,,,,,,,,,,,,,,,,,,,,,,,,,,,,,,,2.0,Effort,1.0,24.0,3.788399199955165,20,27,Male,1.2857142857142858,1.0,0.4,0.5,2.5555555555555554,2.75,3.6666666666666665,2.4444444444444446,0.625,3.2222222222222223,1.5,1.75,2.25,0.0,,,,,,,,,,,,,,,,,,,,,,,,,,,,,,,,,,,,,,-0.9907907771731738
2,240620_102908,DEMANDRATING,9.0,-1,,,,,,,,,,,,,,,,,,,,,,,,,,,,,,,,,,,,,,,3.0,Frustration,1.0,24.0,4.607867000042461,20,27,Male,1.2857142857142858,1.0,0.4,0.5,2.5555555555555554,2.75,3.6666666666666665,2.4444444444444446,0.625,3.2222222222222223,1.5,1.75,2.25,0.0,,,,,,,,,,,,,,,,,,,,,,,,,,,,,,,,,,,,,,-0.9907907771731738
3,240620_102913,DEMANDRATING,9.0,-1,,,,,,,,,,,,,,,,,,,,,,,,,,,,,,,,,,,,,,,4.0,MentalDemand,2.0,50.0,3.9924548000562936,20,27,Male,1.2857142857142858,1.0,0.4,0.5,2.5555555555555554,2.75,3.6666666666666665,2.4444444444444446,0.625,3.2222222222222223,1.5,1.75,2.25,0.0,,,,,,,,,,,,,,,,,,,,,,,,,,,,,,,,,,,,,,0.12384884714664657
4,240620_102919,DEMANDRATING,9.0,-1,,,,,,,,,,,,,,,,,,,,,,,,,,,,,,,,,,,,,,,5.0,Effort,2.0,37.0,3.9665264000650495,20,27,Male,1.2857142857142858,1.0,0.4,0.5,2.5555555555555554,2.75,3.6666666666666665,2.4444444444444446,0.625,3.2222222222222223,1.5,1.75,2.25,0.0,,,,,,,,,,,,,,,,,,,,,,,,,,,,,,,,,,,,,,-0.4334709650132636
5,240620_102924,DEMANDRATING,9.0,-1,,,,,,,,,,,,,,,,,,,,,,,,,,,,,,,,,,,,,,,6.0,Frustration,2.0,35.0,3.3056904999539256,20,27,Male,1.2857142857142858,1.0,0.4,0.5,2.5555555555555554,2.75,3.6666666666666665,2.4444444444444446,0.625,3.2222222222222223,1.5,1.75,2.25,0.0,,,,,,,,,,,,,,,,,,,,,,,,,,,,,,,,,,,,,,-0.5192124745763267
6,240620_102927,DEMANDRATING,9.0,-1,,,,,,,,,,,,,,,,,,,,,,,,,,,,,,,,,,,,,,,7.0,MentalDemand,3.0,81.0,1.749830499989912,20,27,Male,1.2857142857142858,1.0,0.4,0.5,2.5555555555555554,2.75,3.6666666666666665,2.4444444444444446,0.625,3.2222222222222223,1.5,1.75,2.25,0.0,,,,,,,,,,,,,,,,,,,,,,,,,,,,,,,,,,,,,,1.4528422453741248
7,240620_102931,DEMANDRATING,9.0,-1,,,,,,,,,,,,,,,,,,,,,,,,,,,,,,,,,,,,,,,8.0,Effort,3.0,85.0,2.030191699974239,20,27,Male,1.2857142857142858,1.0,0.4,0.5,2.5555555555555554,2.75,3.6666666666666665,2.4444444444444446,0.625,3.2222222222222223,1.5,1.75,2.25,0.0,,,,,,,,,,,,,,,,,,,,,,,,,,,,,,,,,,,,,,1.6243252645002508
8,240620_102934,DEMANDRATING,9.0,-1,,,,,,,,,,,,,,,,,,,,,,,,,,,,,,,,,,,,,,,9.0,Frustration,3.0,66.0,2.084827000042424,20,27,Male,1.2857142857142858,1.0,0.4,0.5,2.5555555555555554,2.75,3.6666666666666665,2.4444444444444446,0.625,3.2222222222222223,1.5,1.75,2.25,0.0,,,,,,,,,,,,,,,,,,,,,,,,,,,,,,,,,,,,,,0.8097809236511514
