,END,Phase,Block,TrialN,NbackLevel,ISI,Letter_Resp,Letter_RT,Letter_Accuracy,Trial_A_measure,Trial_ACC,Trial_RT,TrialCountCali,CaliEnd_A_measure,ISI_calibrated,TrialIndex,TrialNumber_total,TrialNumber_valid,CueLearning,TrialDemandLearning,CueMapping,OfflineRatingTimePoint,CueFigure,TrialDemand,OfflineRating,OfflineRatingRT,PhaseType,CueLeft,CueDemandLeft,CueRight,CueDemandRight,Choice,ChoiceDemand,TaskDemand,ChoiceRT,CueCheck,CueDemandCheck,CorrectAnswer,Answer,AnswerDemand,AnswerRT,AnswerACC,DemandRatingQuesIndex,QuesTLX,DemandLevel,DemandRating,DemandRatingRT,PID,Age,Gender,Task_A_measure,Task_ACC,Task_RT,cue_i_on_zyg_values,cue_i_on_zyg_zvalues,cue_e_on_zyg_values,cue_e_on_zyg_zvalues,cue_i_on_cor_values,cue_i_on_cor_zvalues,cue_e_on_cor_values,cue_e_on_cor_zvalues,cue_i_on_scr_values,cue_i_on_scr_zvalues,cue_e_on_scr_values,cue_e_on_scr_zvalues,BAI_bis,BAI_bas_d,BAI_bas_rr,BAI_bas_fs,NFC,BFI_ext,BFI_agr,BFI_con,BFI_neu,BFI_open,UPPS_lps,UPPS_lpm,UPPS_pu,UPPS_ss,cue_e_true_zyg_values,cue_e_true_zyg_zvalues,cue_e_true_cor_values,cue_e_true_cor_zvalues,cue_e_true_scr_values,cue_e_true_scr_zvalues,cue_i_off_zyg_values,cue_i_off_zyg_zvalues,cue_i_off_cor_values,cue_i_off_cor_zvalues,cue_i_off_scr_values,cue_i_off_scr_zvalues
0,240620_144419,LEARNING,1.0,1,1.0,303.0,,,,,,,,,,1.0,1.0,1.0,cue1.png,Easy,A,,,,,,,,,,,,,,,,,,,,,,,,,,,21,22,Female,1.0,1.0,0.4667652473405101,-7.393737972833563e-05,-0.6694323585012488,,,,,,,1.2659999999999998,-0.1494412447966136,1.2359999999999998,-0.6837616020201035,1.5714285714285714,1.5,0.6,1.75,3.1666666666666665,1.875,2.5555555555555554,2.2222222222222223,1.75,3.3333333333333335,1.5,2.5,2.75,2.0,,,,,,,,,,,,
1,240620_144451,LEARNING,1.0,2,3.0,303.0,,,,,,,,,,2.0,2.0,2.0,cue2.png,Hard,A,,,,,,,,,,,,,,,,,,,,,,,,,,,21,22,Female,0.8535714285714285,0.7180451127819549,0.6060231466932843,9.370931148214041e-05,-0.03892222600439379,2.861480870597951e-06,-0.226133442753546,,,0.00019187008612390772,0.08759161904939751,1.155,-0.363049012006903,1.96,0.5228438411113782,1.5714285714285714,1.5,0.6,1.75,3.1666666666666665,1.875,2.5555555555555554,2.2222222222222223,1.75,3.3333333333333335,1.5,2.5,2.75,2.0,,,,,,,,,,,,
2,240620_144520,LEARNING,1.0,3,1.0,303.0,,,,,,,,,,3.0,3.0,3.0,cue1.png,Easy,A,,,,,,,,,,,,,,,,,,,,,,,,,,,21,22,Female,1.0,0.9473684210526316,0.4476860777617225,0.0009180030352320245,3.0612018577173874,-0.00011373562348380821,-0.48307692138377806,0.0010833539424774021,1.6549695176865402,-6.576021331358445e-05,-0.1548067623134828,,,1.5950000000000002,-0.0854586267656804,1.5714285714285714,1.5,0.6,1.75,3.1666666666666665,1.875,2.5555555555555554,2.2222222222222223,1.75,3.3333333333333335,1.5,2.5,2.75,2.0,,,,,,,,,,,,
3,240620_144552,LEARNING,1.0,4,3.0,303.0,,,,,,,,,,4.0,4.0,4.0,cue2.png,Hard,A,,,,,,,,,,,,,,,,,,,,,,,,,,,21,22,Female,1.0,0.9473684210526316,0.5878475388809521,5.519165710150733e-06,-0.37060059134596696,-4.695464781046465e-05,-0.33591257891714316,0.0002082241600406048,0.0522683724592762,,,1.593,0.47983569103910534,1.588,-0.09712470149208996,1.5714285714285714,1.5,0.6,1.75,3.1666666666666665,1.875,2.5555555555555554,2.2222222222222223,1.75,3.3333333333333335,1.5,2.5,2.75,2.0,,,,,,,,,,,,
4,240620_144623,LEARNING,1.0,5,3.0,303.0,,,,,,,,,,5.0,5.0,5.0,cue2.png,Hard,A,,,,,,,,,,,,,,,,,,,,,,,,,,,21,22,Female,1.0,1.0,0.54480002630551,-0.00013352404998084183,-0.8935346004523645,2.8766996260552735e-05,-0.1690458051414507,-0.00010409587546107452,-0.5197104227111553,0.00016871758714110535,0.0658079690276784,,,1.4619999999999997,-0.3071140465674588,1.5714285714285714,1.5,0.6,1.75,3.1666666666666665,1.875,2.5555555555555554,2.2222222222222223,1.75,3.3333333333333335,1.5,2.5,2.75,2.0,,,,,,,,,,,,
5,240620_144653,LEARNING,1.0,6,1.0,303.0,,,,,,,,,,6.0,6.0,6.0,cue1.png,Easy,A,,,,,,,,,,,,,,,,,,,,,,,,,,,21,22,Female,0.9262820512820512,0.9230769230769232,0.5015307631417129,0.0008410094954587042,2.771633321569359,-0.0009056107422480662,-2.228121524185937,0.0012886433001401644,2.030933740630627,-0.002018205146962644,-1.9918169767565075,0.08299999999999996,-2.4259997007405127,1.737,0.15119603197005194,1.5714285714285714,1.5,0.6,1.75,3.1666666666666665,1.875,2.5555555555555554,2.2222222222222223,1.75,3.3333333333333335,1.5,2.5,2.75,2.0,,,,,,,,,,,,
6,240620_144726,LEARNING,1.0,7,3.0,303.0,,,,,,,,,,7.0,7.0,7.0,cue2.png,Hard,A,,,,,,,,,,,,,,,,,,,,,,,,,,,21,22,Female,0.7596153846153846,0.6356275303643725,0.6282422000076622,,,-2.408803480630651e-05,-0.28552172982777924,6.839596838988625e-05,-0.2038111341364771,0.001968998586701837,1.7596506623935957,,,,,1.5714285714285714,1.5,0.6,1.75,3.1666666666666665,1.875,2.5555555555555554,2.2222222222222223,1.75,3.3333333333333335,1.5,2.5,2.75,2.0,,,,,,,,,,,,
7,240620_144757,LEARNING,1.0,8,3.0,303.0,,,,,,,,,,8.0,8.0,8.0,cue2.png,Hard,A,,,,,,,,,,,,,,,,,,,,,,,,,,,21,22,Female,0.8071428571428572,0.7518796992481204,0.5857268823447692,-9.011977759381881e-06,-0.42525143550013594,6.34058905428763e-05,-0.0927125373293094,-0.0001750148636292326,-0.6495905225964252,5.1325981442277777e-05,-0.04464307368397025,,,2.992,2.242756572204871,1.5714285714285714,1.5,0.6,1.75,3.1666666666666665,1.875,2.5555555555555554,2.2222222222222223,1.75,3.3333333333333335,1.5,2.5,2.75,2.0,,,,,,,,,,,,
8,240620_144827,LEARNING,1.0,9,1.0,303.0,,,,,,,,,,9.0,9.0,9.0,cue1.png,Easy,A,,,,,,,,,,,,,,,,,,,,,,,,,,,21,22,Female,1.0,1.0,0.4749246421086259,-0.00015141608780004819,-0.9608255863619128,-2.7373042893436873e-05,-0.29276085819129444,0.0001482815181692871,-0.05750979153784147,-3.884316567183063e-06,-0.09658916426910578,,,2.752,1.8427768672994072,1.5714285714285714,1.5,0.6,1.75,3.1666666666666665,1.875,2.5555555555555554,2.2222222222222223,1.75,3.3333333333333335,1.5,2.5,2.75,2.0,,,,,,,,,,,,
9,240620_144855,LEARNING,1.0,10,1.0,303.0,,,,,,,,,,10.0,10.0,10.0,cue1.png,Easy,A,,,,,,,,,,,,,,,,,,,,,,,,,,,21,22,Female,0.9178571428571428,0.9285714285714286,0.4330694999876677,-0.00010419712355700392,-0.783237617364254,3.18913885070239e-05,-0.16216062375672716,-0.00010492732459059084,-0.5212331276845406,0.0002471932458258585,0.13964389858683085,0.8339999999999999,-0.9807795820474712,,,1.5714285714285714,1.5,0.6,1.75,3.1666666666666665,1.875,2.5555555555555554,2.2222222222222223,1.75,3.3333333333333335,1.5,2.5,2.75,2.0,,,,,,,,,,,,
10,240620_144927,LEARNING,1.0,11,3.0,303.0,,,,,,,,,,11.0,11.0,11.0,cue2.png,Hard,A,,,,,,,,,,,,,,,,,,,,,,,,,,,21,22,Female,0.6625000000000001,0.7857142857142857,0.5830375105387678,6.802209477172784e-06,-0.36577513317734317,0.0004367930511932831,0.7301157521431754,-0.00012158175372890562,-0.5517338296247252,0.0025034982733714833,2.262549037198785,0.32799999999999985,-1.954523097438522,,,1.5714285714285714,1.5,0.6,1.75,3.1666666666666665,1.875,2.5555555555555554,2.2222222222222223,1.75,3.3333333333333335,1.5,2.5,2.75,2.0,,,,,,,,,,,,
11,240620_144955,LEARNING,1.0,12,1.0,303.0,,,,,,,,,,12.0,12.0,12.0,cue1.png,Easy,A,,,,,,,,,,,,,,,,,,,,,,,,,,,21,22,Female,0.9178571428571428,0.9285714285714286,0.4257957736875764,-1.621807436368852e-05,-0.45235317483039356,0.0001640669772272011,0.1291129524080123,-0.00021327153113928025,-0.7196532790714744,-0.00041683635808774724,-0.485126175108424,,,,,1.5714285714285714,1.5,0.6,1.75,3.1666666666666665,1.875,2.5555555555555554,2.2222222222222223,1.75,3.3333333333333335,1.5,2.5,2.75,2.0,,,,,,,,,,,,
12,240620_145024,LEARNING,1.0,13,1.0,303.0,,,,,,,,,,13.0,13.0,13.0,cue1.png,Easy,A,,,,,,,,,,,,,,,,,,,,,,,,,,,21,22,Female,1.0,1.0,0.4482751157759738,8.049270412381366e-05,-0.08862917098784942,4.906433730472812e-06,-0.22162700750062597,-0.0006207103222556848,-1.4658313091620385,9.091900388331214e-05,-0.007390915945049178,,,0.5389999999999997,-1.8453693283497201,1.5714285714285714,1.5,0.6,1.75,3.1666666666666665,1.875,2.5555555555555554,2.2222222222222223,1.75,3.3333333333333335,1.5,2.5,2.75,2.0,,,,,,,,,,,,
13,240620_145051,LEARNING,1.0,14,1.0,303.0,,,,,,,,,,14.0,14.0,14.0,cue1.png,Easy,A,,,,,,,,,,,,,,,,,,,,,,,,,,,21,22,Female,0.9178571428571428,0.9285714285714286,0.390262526312941,,,1.8514796557404095e-05,-0.1916384404382234,6.47425597312028e-05,-0.21050193858487679,1.527228419957727e-05,-0.07856516232361932,,,1.52,-0.210452284548638,1.5714285714285714,1.5,0.6,1.75,3.1666666666666665,1.875,2.5555555555555554,2.2222222222222223,1.75,3.3333333333333335,1.5,2.5,2.75,2.0,,,,,,,,,,,,
14,240620_145122,LEARNING,1.0,15,3.0,303.0,,,,,,,,,,15.0,15.0,15.0,cue2.png,Hard,A,,,,,,,,,,,,,,,,,,,,,,,,,,,21,22,Female,0.8535714285714285,0.8759398496240602,0.5291573888777444,3.088454404217775e-05,-0.27520277622965034,,,-0.0004029761796196067,-1.0670758710986321,,,,,,,1.5714285714285714,1.5,0.6,1.75,3.1666666666666665,1.875,2.5555555555555554,2.2222222222222223,1.75,3.3333333333333335,1.5,2.5,2.75,2.0,,,,,,,,,,,,
15,240620_145149,LEARNING,1.0,16,1.0,303.0,,,,,,,,,,16.0,16.0,16.0,cue1.png,Easy,A,,,,,,,,,,,,,,,,,,,,,,,,,,,21,22,Female,1.0,1.0,0.402350394741485,,,-1.2658875383089394e-05,-0.2603354441452916,0.0001921383486467032,0.022809029559152944,0.0004937477384654512,0.3716213098776323,,,,,1.5714285714285714,1.5,0.6,1.75,3.1666666666666665,1.875,2.5555555555555554,2.2222222222222223,1.75,3.3333333333333335,1.5,2.5,2.75,2.0,,,,,,,,,,,,
16,240620_145219,LEARNING,1.0,17,1.0,303.0,,,,,,,,,,17.0,17.0,17.0,cue1.png,Easy,A,,,,,,,,,,,,,,,,,,,,,,,,,,,21,22,Female,1.0,1.0,0.4705402263207361,0.00021757079778138896,0.42691412050452243,0.00015299542677878458,0.10471472483797446,-5.3765328345834786e-05,-0.42753572231769094,-0.0007199124931513224,-0.7702834905698877,,,,,1.5714285714285714,1.5,0.6,1.75,3.1666666666666665,1.875,2.5555555555555554,2.2222222222222223,1.75,3.3333333333333335,1.5,2.5,2.75,2.0,,,,,,,,,,,,
17,240620_145249,LEARNING,1.0,18,3.0,303.0,,,,,,,,,,18.0,18.0,18.0,cue2.png,Hard,A,,,,,,,,,,,,,,,,,,,,,,,,,,,21,22,Female,0.7019230769230769,0.7165991902834008,0.5005158722374795,,,9.254316047552615e-05,-0.028503125476962637,-0.000632462109962058,-1.4873533782236434,,,,,,,1.5714285714285714,1.5,0.6,1.75,3.1666666666666665,1.875,2.5555555555555554,2.2222222222222223,1.75,3.3333333333333335,1.5,2.5,2.75,2.0,,,,,,,,,,,,
18,240620_145319,LEARNING,1.0,19,3.0,303.0,,,,,,,,,,19.0,19.0,19.0,cue2.png,Hard,A,,,,,,,,,,,,,,,,,,,,,,,,,,,21,22,Female,0.8071428571428572,0.7518796992481204,0.4952623882289866,5.2361865897810386e-05,-0.1944277310969592,,,-0.0003214193767967057,-0.9177138177111075,,,,,,,1.5714285714285714,1.5,0.6,1.75,3.1666666666666665,1.875,2.5555555555555554,2.2222222222222223,1.75,3.3333333333333335,1.5,2.5,2.75,2.0,,,,,,,,,,,,
19,240620_145350,LEARNING,1.0,20,3.0,303.0,,,,,,,,,,20.0,20.0,20.0,cue2.png,Hard,A,,,,,,,,,,,,,,,,,,,,,,,,,,,21,22,Female,0.8071428571428572,0.8045112781954888,0.5620574333459243,-6.842098480958547e-05,-0.6486854957626372,1.5326046324929538e-05,-0.19866544665550095,-1.7635837759272764e-05,-0.36136864961411447,8.589410100107598e-05,-0.012118730677319221,1.5540000000000003,0.4047843133706257,2.021,0.6245053494415167,1.5714285714285714,1.5,0.6,1.75,3.1666666666666665,1.875,2.5555555555555554,2.2222222222222223,1.75,3.3333333333333335,1.5,2.5,2.75,2.0,,,,,,,,,,,,
20,240620_145419,LEARNING,1.0,21,1.0,303.0,,,,,,,,,,21.0,21.0,21.0,cue1.png,Easy,A,,,,,,,,,,,,,,,,,,,,,,,,,,,21,22,Female,1.0,1.0,0.4488804894683294,,,,,0.0005274012398843826,0.6368050682297242,-0.00017304420430672499,-0.2557477844668056,1.606,0.504852816928599,0.7230000000000001,-1.538718221255531,1.5714285714285714,1.5,0.6,1.75,3.1666666666666665,1.875,2.5555555555555554,2.2222222222222223,1.75,3.3333333333333335,1.5,2.5,2.75,2.0,,,,,,,,,,,,
21,240620_145448,LEARNING,1.0,22,3.0,303.0,,,,,,,,,,22.0,22.0,22.0,cue2.png,Hard,A,,,,,,,,,,,,,,,,,,,,,,,,,,,21,22,Female,0.9178571428571428,0.9285714285714286,0.4802764894832906,4.479722035939269e-05,-0.22287795356351178,3.076463802097716e-06,-0.22565968774417824,0.0004549826004766021,0.5041785268366681,-0.00038784812211545977,-0.45785181532391983,1.9609999999999999,1.1880127931416875,,,1.5714285714285714,1.5,0.6,1.75,3.1666666666666665,1.875,2.5555555555555554,2.2222222222222223,1.75,3.3333333333333335,1.5,2.5,2.75,2.0,,,,,,,,,,,,
22,240620_145518,LEARNING,1.0,23,3.0,303.0,,,,,,,,,,23.0,23.0,23.0,cue2.png,Hard,A,,,,,,,,,,,,,,,,,,,,,,,,,,,21,22,Female,0.6625000000000001,0.7857142857142857,0.4752231263433044,,,,,,,-0.0003331122265772587,-0.4063520790356158,,,2.061,0.6911686335924273,1.5714285714285714,1.5,0.6,1.75,3.1666666666666665,1.875,2.5555555555555554,2.2222222222222223,1.75,3.3333333333333335,1.5,2.5,2.75,2.0,,,,,,,,,,,,
23,240620_145548,LEARNING,1.0,24,3.0,303.0,,,,,,,,,,24.0,24.0,24.0,cue2.png,Hard,A,,,,,,,,,,,,,,,,,,,,,,,,,,,21,22,Female,0.8071428571428572,0.8571428571428572,0.511368563153634,3.3297815683752154e-05,-0.2661265921934879,0.0013660226288906853,2.7778465380977186,0.0001197747924182339,-0.10971663322556806,-1.0605437980987752e-05,-0.10291291172896126,2.484,2.194471011618999,1.0309999999999997,-1.0254109332935202,1.5714285714285714,1.5,0.6,1.75,3.1666666666666665,1.875,2.5555555555555554,2.2222222222222223,1.75,3.3333333333333335,1.5,2.5,2.75,2.0,,,,,,,,,,,,
24,240620_145615,LEARNING,1.0,25,1.0,303.0,,,,,,,,,,25.0,25.0,25.0,cue1.png,Easy,A,,,,,,,,,,,,,,,,,,,,,,,,,,,21,22,Female,1.0,1.0,0.3834529368353909,-4.628685741984908e-06,-0.4087661114492627,0.0001252608346247303,0.043596375236489286,,,-0.00016519430249668354,-0.24836199367757722,1.1340000000000003,-0.40346129228993016,1.5850000000000002,-0.10212444780340807,1.5714285714285714,1.5,0.6,1.75,3.1666666666666665,1.875,2.5555555555555554,2.2222222222222223,1.75,3.3333333333333335,1.5,2.5,2.75,2.0,,,,,,,,,,,,
25,240620_145643,LEARNING,1.0,26,1.0,303.0,,,,,,,,,,26.0,26.0,26.0,cue1.png,Easy,A,,,,,,,,,,,,,,,,,,,,,,,,,,,21,22,Female,0.9178571428571428,0.9285714285714286,0.410208821051607,-7.992083244578183e-05,-0.6919358003432905,-4.643120393293216e-05,-0.3347590726486505,0.00018650180730654838,0.012486342064924758,-0.0002601954753831048,-0.3377463967758273,1.387,0.08341046540559462,0.504,-1.9036997019817665,1.5714285714285714,1.5,0.6,1.75,3.1666666666666665,1.875,2.5555555555555554,2.2222222222222223,1.75,3.3333333333333335,1.5,2.5,2.75,2.0,,,,,,,,,,,,
26,240620_145713,LEARNING,1.0,27,3.0,303.0,,,,,,,,,,27.0,27.0,27.0,cue2.png,Hard,A,,,,,,,,,,,,,,,,,,,,,,,,,,,21,22,Female,0.8535714285714285,0.8759398496240602,0.5087556999771752,,,0.0003403083784172269,0.5174937698491299,0.00038092631942892707,0.3685528301361301,-0.0004212502905366249,-0.48927914191158767,2.0220000000000002,1.3054008453923882,2.406,1.2661394593940312,1.5714285714285714,1.5,0.6,1.75,3.1666666666666665,1.875,2.5555555555555554,2.2222222222222223,1.75,3.3333333333333335,1.5,2.5,2.75,2.0,,,,,,,,,,,,
27,240620_145741,LEARNING,1.0,28,1.0,303.0,,,,,,,,,,28.0,28.0,28.0,cue1.png,Easy,A,,,,,,,,,,,,,,,,,,,,,,,,,,,21,22,Female,0.9178571428571428,0.9285714285714286,0.3926487841986512,,,3.362168606499622e-05,-0.15834759018207303,,,9.261964890882896e-05,-0.005790818431836725,1.225,-0.22834141106347686,1.805,0.26452361502659966,1.5714285714285714,1.5,0.6,1.75,3.1666666666666665,1.875,2.5555555555555554,2.2222222222222223,1.75,3.3333333333333335,1.5,2.5,2.75,2.0,,,,,,,,,,,,
28,240620_145808,LEARNING,1.0,29,1.0,303.0,,,,,,,,,,29.0,29.0,29.0,cue1.png,Easy,A,,,,,,,,,,,,,,,,,,,,,,,,,,,21,22,Female,1.0,0.9473684210526316,0.3582562277960177,8.421459696572597e-05,-0.07463133344062924,4.62320906563494e-05,-0.1305582103293092,-0.0003654266393238398,-0.9983081380805534,,,0.45599999999999996,-1.7082006271419714,1.1749999999999998,-0.785423110350242,1.5714285714285714,1.5,0.6,1.75,3.1666666666666665,1.875,2.5555555555555554,2.2222222222222223,1.75,3.3333333333333335,1.5,2.5,2.75,2.0,,,,,,,,,,,,
29,240620_145838,LEARNING,1.0,30,3.0,303.0,,,,,,,,,,30.0,30.0,30.0,cue2.png,Hard,A,,,,,,,,,,,,,,,,,,,,,,,,,,,21,22,Female,0.9262820512820512,0.8704453441295548,0.4765383722131244,,,,,,,,,1.294,-0.09555820441924275,1.676,0.04953452363991306,1.5714285714285714,1.5,0.6,1.75,3.1666666666666665,1.875,2.5555555555555554,2.2222222222222223,1.75,3.3333333333333335,1.5,2.5,2.75,2.0,,,,,,,,,,,,
30,240620_145907,LEARNING,1.0,31,3.0,303.0,,,,,,,,,,31.0,31.0,31.0,cue2.png,Hard,A,,,,,,,,,,,,,,,,,,,,,,,,,,,21,22,Female,0.8071428571428572,0.8571428571428572,0.4816912157755149,6.601138831737125e-05,-0.14309261599784104,0.000350095816414707,0.5390622159942954,0.0005983710440420472,0.7667782318481826,-0.00029316746450104916,-0.3687689776211497,,,,,1.5714285714285714,1.5,0.6,1.75,3.1666666666666665,1.875,2.5555555555555554,2.2222222222222223,1.75,3.3333333333333335,1.5,2.5,2.75,2.0,,,,,,,,,,,,
31,240620_145935,LEARNING,1.0,32,1.0,303.0,,,,,,,,,,32.0,32.0,32.0,cue1.png,Easy,A,,,,,,,,,,,,,,,,,,,,,,,,,,,21,22,Female,1.0,1.0,0.3813679842033276,-1.7186411231795342e-05,-0.45599503738433506,5.421624338670158e-05,-0.11296363979678439,,,,,1.402,0.11227637989347143,1.1949999999999998,-0.7520914682747867,1.5714285714285714,1.5,0.6,1.75,3.1666666666666665,1.875,2.5555555555555554,2.2222222222222223,1.75,3.3333333333333335,1.5,2.5,2.75,2.0,,,,,,,,,,,,
32,240620_150003,LEARNING,1.0,33,1.0,303.0,,,,,,,,,,33.0,33.0,33.0,cue1.png,Easy,A,,,,,,,,,,,,,,,,,,,,,,,,,,,21,22,Female,1.0,1.0,0.4280391578917931,,,2.7938371325006255e-05,-0.1708718348237309,0.00015783253301299323,-0.04001818888038543,-0.0004029370331995949,-0.4720486222651398,1.1790000000000003,-0.3168635488262993,1.628,-0.030461417341179697,1.5714285714285714,1.5,0.6,1.75,3.1666666666666665,1.875,2.5555555555555554,2.2222222222222223,1.75,3.3333333333333335,1.5,2.5,2.75,2.0,,,,,,,,,,,,
33,240620_150030,LEARNING,1.0,34,1.0,303.0,,,,,,,,,,34.0,34.0,34.0,cue1.png,Easy,A,,,,,,,,,,,,,,,,,,,,,,,,,,,21,22,Female,1.0,1.0,0.3697182842236208,3.4284995915477134e-05,-0.26241386076879336,,,-0.0001069582098036986,-0.5249524640872049,,,1.212,-0.2533585369529705,,,1.5714285714285714,1.5,0.6,1.75,3.1666666666666665,1.875,2.5555555555555554,2.2222222222222223,1.75,3.3333333333333335,1.5,2.5,2.75,2.0,,,,,,,,,,,,
34,240620_150100,LEARNING,1.0,35,3.0,303.0,,,,,,,,,,35.0,35.0,35.0,cue2.png,Hard,A,,,,,,,,,,,,,,,,,,,,,,,,,,,21,22,Female,0.8717948717948717,0.8704453441295548,0.4728282111205367,0.0001491084684702524,0.16943100519022133,-6.47325719853398e-05,-0.3750895525273312,0.0016811491026826565,2.7497636923339686,0.0001850579313307961,0.08118222039151844,,,2.663,1.694451060063631,1.5714285714285714,1.5,0.6,1.75,3.1666666666666665,1.875,2.5555555555555554,2.2222222222222223,1.75,3.3333333333333335,1.5,2.5,2.75,2.0,,,,,,,,,,,,
35,240620_150129,LEARNING,1.0,36,3.0,303.0,,,,,,,,,,36.0,36.0,36.0,cue2.png,Hard,A,,,,,,,,,,,,,,,,,,,,,,,,,,,21,22,Female,0.8071428571428572,0.8571428571428572,0.4926299631632374,-6.121959098465742e-05,-0.621601443331105,1.0006239173272237e-06,-0.2302341883205483,0.00036064361761740157,0.33140735745992994,0.0023947895950131824,2.1602675597029926,0.659,-1.3175485844060357,1.067,-0.9654139775577003,1.5714285714285714,1.5,0.6,1.75,3.1666666666666665,1.875,2.5555555555555554,2.2222222222222223,1.75,3.3333333333333335,1.5,2.5,2.75,2.0,,,,,,,,,,,,
36,240620_150157,LEARNING,1.0,37,1.0,303.0,,,,,,,,,,37.0,37.0,37.0,cue1.png,Easy,A,,,,,,,,,,,,,,,,,,,,,,,,,,,21,22,Female,1.0,0.9473684210526316,0.3921642166808144,,,,,,,,,2.013,1.2880812966996613,2.2319999999999998,0.9761541733375697,1.5714285714285714,1.5,0.6,1.75,3.1666666666666665,1.875,2.5555555555555554,2.2222222222222223,1.75,3.3333333333333335,1.5,2.5,2.75,2.0,,,,,,,,,,,,
37,240620_150227,LEARNING,1.0,38,3.0,303.0,,,,,,,,,,38.0,38.0,38.0,cue2.png,Hard,A,,,,,,,,,,,,,,,,,,,,,,,,,,,21,22,Female,0.9178571428571428,0.9285714285714286,0.4709888157912677,2.4889800309737045e-05,-0.29774868296800944,0.001336984180874229,2.7138548987797098,-7.267883293799512e-05,-0.46217366525880627,0.0026623522515957414,2.4120110658448253,1.8920000000000001,1.055229586497454,1.8370000000000002,0.3178542423473285,1.5714285714285714,1.5,0.6,1.75,3.1666666666666665,1.875,2.5555555555555554,2.2222222222222223,1.75,3.3333333333333335,1.5,2.5,2.75,2.0,,,,,,,,,,,,
38,240620_150256,LEARNING,1.0,39,3.0,303.0,,,,,,,,,,39.0,39.0,39.0,cue2.png,Hard,A,,,,,,,,,,,,,,,,,,,,,,,,,,,21,22,Female,0.9178571428571428,0.9285714285714286,0.4878890210407247,-0.0001647340916900446,-1.0109138782133331,0.001240815481226092,2.5019292222394887,-0.0005216213857929227,-1.284361137382472,-6.47973564574687e-05,-0.1539008325997954,0.8090000000000002,-1.0288894395272656,1.39,-0.42710795803909757,1.5714285714285714,1.5,0.6,1.75,3.1666666666666665,1.875,2.5555555555555554,2.2222222222222223,1.75,3.3333333333333335,1.5,2.5,2.75,2.0,,,,,,,,,,,,
39,240620_150326,LEARNING,1.0,40,3.0,303.0,,,,,,,,,,40.0,40.0,40.0,cue2.png,Hard,A,,,,,,,,,,,,,,,,,,,,,,,,,,,21,22,Female,0.9178571428571428,0.9285714285714286,0.5141236736917084,-3.099502629756463e-05,-0.5079284913156477,-0.00010725632939866158,-0.4687985877105375,0.0003684283033506064,0.34566412827294113,-0.00020932907781579316,-0.28988738150084536,1.6860000000000002,0.6588043608639431,2.0330000000000004,0.6445043346867906,1.5714285714285714,1.5,0.6,1.75,3.1666666666666665,1.875,2.5555555555555554,2.2222222222222223,1.75,3.3333333333333335,1.5,2.5,2.75,2.0,,,,,,,,,,,,
40,240620_150354,LEARNING,1.0,41,1.0,303.0,,,,,,,,,,41.0,41.0,41.0,cue1.png,Easy,A,,,,,,,,,,,,,,,,,,,,,,,,,,,21,22,Female,1.0,1.0,0.3970334631464395,1.615532767428778e-05,-0.33059856183470987,,,,,-0.0003582304016958209,-0.42998518820337545,1.494,0.28932065541911717,1.88,0.3895172728095569,1.5714285714285714,1.5,0.6,1.75,3.1666666666666665,1.875,2.5555555555555554,2.2222222222222223,1.75,3.3333333333333335,1.5,2.5,2.75,2.0,,,,,,,,,,,,
41,240620_150423,LEARNING,1.0,42,3.0,303.0,,,,,,,,,,42.0,42.0,42.0,cue2.png,Hard,A,,,,,,,,,,,,,,,,,,,,,,,,,,,21,22,Female,0.8269230769230769,0.8461538461538461,0.4836963210438721,0.00023706087049157843,0.5002152291523918,0.0006317920319034364,1.1598323965696278,0.0012484938243207669,1.957404519973953,-0.002023151854359355,-1.9964712191676548,1.7080000000000002,0.7011410354461628,2.56,1.5227931033750368,1.5714285714285714,1.5,0.6,1.75,3.1666666666666665,1.875,2.5555555555555554,2.2222222222222223,1.75,3.3333333333333335,1.5,2.5,2.75,2.0,,,,,,,,,,,,
42,240620_150454,LEARNING,1.0,43,3.0,303.0,,,,,,,,,,43.0,43.0,43.0,cue2.png,Hard,A,,,,,,,,,,,,,,,,,,,,,,,,,,,21,22,Female,0.9262820512820512,0.8704453441295548,0.5372777388935598,,,2.85434798725742e-05,-0.16953836521467092,,,0.0022194881558587802,1.9953304960331177,1.9959999999999998,1.2553665936134004,,,1.5714285714285714,1.5,0.6,1.75,3.1666666666666665,1.875,2.5555555555555554,2.2222222222222223,1.75,3.3333333333333335,1.5,2.5,2.75,2.0,,,,,,,,,,,,
43,240620_150522,LEARNING,1.0,44,1.0,303.0,,,,,,,,,,44.0,44.0,44.0,cue1.png,Easy,A,,,,,,,,,,,,,,,,,,,,,,,,,,,21,22,Female,1.0,1.0,0.403797963168472,0.0006924218971311848,2.2128034059150536,,,0.00036776389720622436,0.3444473436201184,1.6865629561465048e-05,-0.0770660205785803,1.4380000000000002,0.18155457466437672,1.741,0.157862360385143,1.5714285714285714,1.5,0.6,1.75,3.1666666666666665,1.875,2.5555555555555554,2.2222222222222223,1.75,3.3333333333333335,1.5,2.5,2.75,2.0,,,,,,,,,,,,
44,240620_150550,LEARNING,1.0,45,1.0,303.0,,,,,,,,,,45.0,45.0,45.0,cue1.png,Easy,A,,,,,,,,,,,,,,,,,,,,,,,,,,,21,22,Female,1.0,1.0,0.4111323473717723,-3.1885273246565725e-05,-0.5112766619101087,-2.5499873583583084e-05,-0.2886329800488469,-2.852563099455755e-05,-0.38131207336651035,-0.000642978474839402,-0.6978980547291923,1.5970000000000002,0.487533268235873,1.8120000000000003,0.27618968975300956,1.5714285714285714,1.5,0.6,1.75,3.1666666666666665,1.875,2.5555555555555554,2.2222222222222223,1.75,3.3333333333333335,1.5,2.5,2.75,2.0,,,,,,,,,,,,
45,240620_150617,LEARNING,1.0,46,1.0,303.0,,,,,,,,,,46.0,46.0,46.0,cue1.png,Easy,A,,,,,,,,,,,,,,,,,,,,,,,,,,,21,22,Female,1.0,1.0,0.3626508842173375,0.0007069480012951157,2.267435297513585,-0.0011304979948386514,-2.7237025534075863,0.001450288361015577,2.3269683738755136,-0.001958346085349963,-1.9354969721743787,1.439,0.1834789689635683,0.9430000000000001,-1.1720701584255229,1.5714285714285714,1.5,0.6,1.75,3.1666666666666665,1.875,2.5555555555555554,2.2222222222222223,1.75,3.3333333333333335,1.5,2.5,2.75,2.0,,,,,,,,,,,,
46,240620_150647,LEARNING,1.0,47,3.0,303.0,,,,,,,,,,47.0,47.0,47.0,cue2.png,Hard,A,,,,,,,,,,,,,,,,,,,,,,,,,,,21,22,Female,0.5256410256410255,0.5870445344129555,0.4674971411757938,,,,,-0.00026358898513609806,-0.8118040009004898,0.0005153747461015606,0.3919696604255363,,,1.52,-0.210452284548638,1.5714285714285714,1.5,0.6,1.75,3.1666666666666665,1.875,2.5555555555555554,2.2222222222222223,1.75,3.3333333333333335,1.5,2.5,2.75,2.0,,,,,,,,,,,,
47,240620_150717,LEARNING,1.0,48,3.0,303.0,,,,,,,,,,48.0,48.0,48.0,cue2.png,Hard,A,,,,,,,,,,,,,,,,,,,,,,,,,,,21,22,Female,0.9583333333333334,0.9473684210526316,0.4868639555449287,-1.4868661157469397e-05,-0.447278104792906,-2.66874100266286e-05,-0.29124993821745476,,,,,1.1909999999999998,-0.2937708172359985,0.6120000000000001,-1.7237088347743077,1.5714285714285714,1.5,0.6,1.75,3.1666666666666665,1.875,2.5555555555555554,2.2222222222222223,1.75,3.3333333333333335,1.5,2.5,2.75,2.0,,,,,,,,,,,,
48,240620_150744,LEARNING,1.0,49,1.0,303.0,,,,,,,,,,49.0,49.0,49.0,cue1.png,Easy,A,,,,,,,,,,,,,,,,,,,,,,,,,,,21,22,Female,1.0,1.0,0.3705544157786981,0.00047316106961456427,1.3881753001607324,,,,,0.0007782268995839068,0.6392811633077004,,,,,1.5714285714285714,1.5,0.6,1.75,3.1666666666666665,1.875,2.5555555555555554,2.2222222222222223,1.75,3.3333333333333335,1.5,2.5,2.75,2.0,,,,,,,,,,,,
49,240620_150812,LEARNING,1.0,50,1.0,303.0,,,,,,,,,,50.0,50.0,50.0,cue1.png,Easy,A,,,,,,,,,,,,,,,,,,,,,,,,,,,21,22,Female,0.9178571428571428,0.9285714285714286,0.395211068435425,3.619133249057032e-06,-0.3777465106011729,-5.831042787115496e-05,-0.36093715948035104,-1.6912707025951677e-06,-0.33216797973091844,,,0.9,-0.853769558300812,1.785,0.23119197295114433,1.5714285714285714,1.5,0.6,1.75,3.1666666666666665,1.875,2.5555555555555554,2.2222222222222223,1.75,3.3333333333333335,1.5,2.5,2.75,2.0,,,,,,,,,,,,
0,240620_150935,TrueCHOICE,9.0,1,1.0,303.0,,,,,,,,,,,1.0,1.0,,,A,,,,,,True,cue1.png,Easy,cue2.png,Hard,Left,Easy,Easy,0.016529000014998,,,,,,,,,,,,,21,22,Female,0.95,0.631578947368421,0.5782694750038596,,,,,,,,,,,,,1.5714285714285714,1.5,0.6,1.75,3.1666666666666665,1.875,2.5555555555555554,2.2222222222222223,1.75,3.3333333333333335,1.5,2.5,2.75,2.0,0.00020507038993833673,1.5693817774395955,-0.00018958444333204948,-0.9826923665054647,1.5889999999999997,-0.08754889696675716,,,,,,
1,240620_151002,TrueCHOICE,9.0,2,1.0,303.0,,,,,,,,,,,2.0,2.0,,,A,,,,,,True,cue1.png,Easy,cue2.png,Hard,Left,Easy,Easy,0.0159269999712705,,,,,,,,,,,,,21,22,Female,,,,,,,,,,,,,,,,1.5714285714285714,1.5,0.6,1.75,3.1666666666666665,1.875,2.5555555555555554,2.2222222222222223,1.75,3.3333333333333335,1.5,2.5,2.75,2.0,5.496506349972818e-05,-0.21019089573590716,,,,,,,,,,
2,240620_151030,TrueCHOICE,9.0,3,1.0,303.0,,,,,,,,,,,3.0,3.0,,,A,,,,,,True,cue2.png,Hard,cue1.png,Easy,Right,Easy,Easy,0.0170037999050691,,,,,,,,,,,,,21,22,Female,1.0,1.0,0.4371371684093518,,,,,,,,,,,,,1.5714285714285714,1.5,0.6,1.75,3.1666666666666665,1.875,2.5555555555555554,2.2222222222222223,1.75,3.3333333333333335,1.5,2.5,2.75,2.0,,,-0.0002732073038357154,-1.3222198558506926,1.456,-0.9395491381798147,,,,,,
3,240620_151057,TrueCHOICE,9.0,4,1.0,303.0,,,,,,,,,,,4.0,4.0,,,A,,,,,,True,cue1.png,Easy,cue2.png,Hard,Left,Easy,Easy,0.0161614998942241,,,,,,,,,,,,,21,22,Female,1.0,1.0,0.4078187052662925,,,,,,,,,,,,,1.5714285714285714,1.5,0.6,1.75,3.1666666666666665,1.875,2.5555555555555554,2.2222222222222223,1.75,3.3333333333333335,1.5,2.5,2.75,2.0,-2.4824389010902597e-05,-1.1561342054400159,-3.3442761526489284e-05,-0.3487222668667517,1.46,-0.9139250707749107,,,,,,
4,240620_151122,TrueCHOICE,9.0,5,1.0,303.0,,,,,,,,,,,5.0,5.0,,,A,,,,,,True,cue2.png,Hard,cue1.png,Easy,Right,Easy,Easy,0.0155062999110668,,,,,,,,,,,,,21,22,Female,0.8269230769230769,0.8461538461538461,0.5358106210447946,,,,,,,,,,,,,1.5714285714285714,1.5,0.6,1.75,3.1666666666666665,1.875,2.5555555555555554,2.2222222222222223,1.75,3.3333333333333335,1.5,2.5,2.75,2.0,5.5579640016317766e-05,-0.20290478803775347,0.0002249644704583019,0.7004688057179962,1.9250000000000003,2.0648727650451844,,,,,,
5,240620_151149,TrueCHOICE,9.0,6,1.0,303.0,,,,,,,,,,,6.0,6.0,,,A,,,,,,True,cue2.png,Hard,cue1.png,Easy,Right,Easy,Easy,0.0162407000316306,,,,,,,,,,,,,21,22,Female,1.0,1.0,0.3907092157935135,,,,,,,,,,,,,1.5714285714285714,1.5,0.6,1.75,3.1666666666666665,1.875,2.5555555555555554,2.2222222222222223,1.75,3.3333333333333335,1.5,2.5,2.75,2.0,-1.4053062776989752e-05,-1.028434820784473,1.6038978982849984e-05,-0.14781534951929368,1.599,-0.02348872845449562,,,,,,
6,240620_151215,TrueCHOICE,9.0,7,1.0,303.0,,,,,,,,,,,7.0,7.0,,,A,,,,,,True,cue1.png,Easy,cue2.png,Hard,Left,Easy,Easy,0.0161675999406725,,,,,,,,,,,,,21,22,Female,,,,,,,,,,,,,,,,1.5714285714285714,1.5,0.6,1.75,3.1666666666666665,1.875,2.5555555555555554,2.2222222222222223,1.75,3.3333333333333335,1.5,2.5,2.75,2.0,0.00015942919754944208,1.0282829325585543,0.0005205111211972141,1.9004542128827597,1.587,-0.10036093066920777,,,,,,
7,240620_151240,TrueCHOICE,9.0,8,1.0,303.0,,,,,,,,,,,8.0,8.0,,,A,,,,,,True,cue2.png,Hard,cue1.png,Easy,Right,Easy,Easy,0.0165435998933389,,,,,,,,,,,,,21,22,Female,0.8269230769230769,0.8461538461538461,0.3710326052724236,,,,,,,,,,,,,1.5714285714285714,1.5,0.6,1.75,3.1666666666666665,1.875,2.5555555555555554,2.2222222222222223,1.75,3.3333333333333335,1.5,2.5,2.75,2.0,,,,,,,,,,,,
8,240620_151306,TrueCHOICE,9.0,9,1.0,303.0,,,,,,,,,,,9.0,9.0,,,A,,,,,,True,cue1.png,Easy,cue2.png,Hard,Left,Easy,Easy,0.0162239000201225,,,,,,,,,,,,,21,22,Female,0.9262820512820512,0.9230769230769232,0.4009670736880875,,,,,,,,,,,,,1.5714285714285714,1.5,0.6,1.75,3.1666666666666665,1.875,2.5555555555555554,2.2222222222222223,1.75,3.3333333333333335,1.5,2.5,2.75,2.0,,,,,,,,,,,,
9,240620_151332,TrueCHOICE,9.0,10,1.0,303.0,,,,,,,,,,,10.0,10.0,,,A,,,,,,True,cue2.png,Hard,cue1.png,Easy,Right,Easy,Easy,0.0170834000455215,,,,,,,,,,,,,21,22,Female,0.9178571428571428,0.9285714285714286,0.3558035105356554,,,,,,,,,,,,,1.5714285714285714,1.5,0.6,1.75,3.1666666666666665,1.875,2.5555555555555554,2.2222222222222223,1.75,3.3333333333333335,1.5,2.5,2.75,2.0,,,0.00010183282359101358,0.2005268201414464,,,,,,,,
0,240620_151510,FalseCHOICE,9.0,1,2.0,303.0,,,,,,,,,,,1.0,1.0,,,A,,,,,,False,cue1.png,Easy,cue2.png,Hard,Left,Easy,Mid,0.0161099999677389,,,,,,,,,,,,,21,22,Female,1.0,1.0,0.4067105789436027,,,,,,,,,,,,,1.5714285714285714,1.5,0.6,1.75,3.1666666666666665,1.875,2.5555555555555554,2.2222222222222223,1.75,3.3333333333333335,1.5,2.5,2.75,2.0,0.00020507038993833673,1.5693817774395955,-0.00018958444333204948,-0.9826923665054647,1.5889999999999997,-0.08754889696675716,,,,,,
1,240620_151539,FalseCHOICE,9.0,2,2.0,303.0,,,,,,,,,,,2.0,2.0,,,A,,,,,,False,cue2.png,Hard,cue1.png,Easy,Right,Easy,Mid,0.0165994999697431,,,,,,,,,,,,,21,22,Female,,,,,,,,,,,,,,,,1.5714285714285714,1.5,0.6,1.75,3.1666666666666665,1.875,2.5555555555555554,2.2222222222222223,1.75,3.3333333333333335,1.5,2.5,2.75,2.0,5.496506349972818e-05,-0.21019089573590716,,,,,,,,,,
2,240620_151610,FalseCHOICE,9.0,3,2.0,303.0,,,,,,,,,,,3.0,3.0,,,A,,,,,,False,cue2.png,Hard,cue1.png,Easy,Left,Hard,Mid,0.0158662999747321,,,,,,,,,,,,,21,22,Female,,,,,,,,,,,,,,,,1.5714285714285714,1.5,0.6,1.75,3.1666666666666665,1.875,2.5555555555555554,2.2222222222222223,1.75,3.3333333333333335,1.5,2.5,2.75,2.0,,,-0.0002732073038357154,-1.3222198558506926,1.456,-0.9395491381798147,,,,,,
3,240620_151645,FalseCHOICE,9.0,4,2.0,303.0,,,,,,,,,,,5.0,4.0,,,A,,,,,,False,cue2.png,Hard,cue1.png,Easy,Right,Easy,Mid,0.01680760004092,,,,,,,,,,,,,21,22,Female,0.8717948717948717,0.8178137651821863,0.5410334823502447,,,,,,,,,,,,,1.5714285714285714,1.5,0.6,1.75,3.1666666666666665,1.875,2.5555555555555554,2.2222222222222223,1.75,3.3333333333333335,1.5,2.5,2.75,2.0,-2.4824389010902597e-05,-1.1561342054400159,-3.3442761526489284e-05,-0.3487222668667517,1.46,-0.9139250707749107,,,,,,
4,240620_151713,FalseCHOICE,9.0,5,2.0,303.0,,,,,,,,,,,6.0,5.0,,,A,,,,,,False,cue1.png,Easy,cue2.png,Hard,Right,Hard,Mid,0.0155965000158175,,,,,,,,,,,,,21,22,Female,,,,,,,,,,,,,,,,1.5714285714285714,1.5,0.6,1.75,3.1666666666666665,1.875,2.5555555555555554,2.2222222222222223,1.75,3.3333333333333335,1.5,2.5,2.75,2.0,5.5579640016317766e-05,-0.20290478803775347,0.0002249644704583019,0.7004688057179962,1.9250000000000003,2.0648727650451844,,,,,,
5,240620_151742,FalseCHOICE,9.0,6,2.0,303.0,,,,,,,,,,,7.0,6.0,,,A,,,,,,False,cue2.png,Hard,cue1.png,Easy,Right,Easy,Mid,0.0179020999930799,,,,,,,,,,,,,21,22,Female,0.9178571428571428,0.8233082706766918,0.5113510529524373,,,,,,,,,,,,,1.5714285714285714,1.5,0.6,1.75,3.1666666666666665,1.875,2.5555555555555554,2.2222222222222223,1.75,3.3333333333333335,1.5,2.5,2.75,2.0,-1.4053062776989752e-05,-1.028434820784473,1.6038978982849984e-05,-0.14781534951929368,1.599,-0.02348872845449562,,,,,,
6,240620_151812,FalseCHOICE,9.0,7,2.0,303.0,,,,,,,,,,,8.0,7.0,,,A,,,,,,False,cue2.png,Hard,cue1.png,Easy,Right,Easy,Mid,0.0155356000177562,,,,,,,,,,,,,21,22,Female,1.0,1.0,0.386299984204877,,,,,,,,,,,,,1.5714285714285714,1.5,0.6,1.75,3.1666666666666665,1.875,2.5555555555555554,2.2222222222222223,1.75,3.3333333333333335,1.5,2.5,2.75,2.0,0.00015942919754944208,1.0282829325585543,0.0005205111211972141,1.9004542128827597,1.587,-0.10036093066920777,,,,,,
7,240620_151839,FalseCHOICE,9.0,8,2.0,303.0,,,,,,,,,,,9.0,8.0,,,A,,,,,,False,cue1.png,Easy,cue2.png,Hard,Left,Easy,Mid,0.0168663999065756,,,,,,,,,,,,,21,22,Female,,,,,,,,,,,,,,,,1.5714285714285714,1.5,0.6,1.75,3.1666666666666665,1.875,2.5555555555555554,2.2222222222222223,1.75,3.3333333333333335,1.5,2.5,2.75,2.0,,,,,,,,,,,,
8,240620_151908,FalseCHOICE,9.0,9,2.0,303.0,,,,,,,,,,,10.0,9.0,,,A,,,,,,False,cue1.png,Easy,cue2.png,Hard,Right,Hard,Mid,0.016738099977374,,,,,,,,,,,,,21,22,Female,0.1607142857142857,0.5902255639097744,0.4591392333321791,,,,,,,,,,,,,1.5714285714285714,1.5,0.6,1.75,3.1666666666666665,1.875,2.5555555555555554,2.2222222222222223,1.75,3.3333333333333335,1.5,2.5,2.75,2.0,,,,,,,,,,,,
9,240620_151936,FalseCHOICE,9.0,10,2.0,303.0,,,,,,,,,,,11.0,10.0,,,A,,,,,,False,cue2.png,Hard,cue1.png,Easy,Right,Easy,Mid,0.0166098000481724,,,,,,,,,,,,,21,22,Female,,,,,,,,,,,,,,,,1.5714285714285714,1.5,0.6,1.75,3.1666666666666665,1.875,2.5555555555555554,2.2222222222222223,1.75,3.3333333333333335,1.5,2.5,2.75,2.0,,,0.00010183282359101358,0.2005268201414464,,,,,,,,
0,240620_144328,OFFLINERATING,9.0,1,1.0,,,,,,,,,,,,,,,,,T0,cue1.png,Easy,56.0,1.824762100004591,,,,,,,,,,,,,,,,,,,,,,21,22,Female,,,,,,,,,,,,,,,,1.5714285714285714,1.5,0.6,1.75,3.1666666666666665,1.875,2.5555555555555554,2.2222222222222223,1.75,3.3333333333333335,1.5,2.5,2.75,2.0,,,,,,,,,3.919783211178479e-05,1.112840791926955,1.445,-1.0
1,240620_144336,OFFLINERATING,9.0,2,3.0,,,,,,,,,,,,,,,,,T0,cue2.png,Hard,32.0,1.5856823000358418,,,,,,,,,,,,,,,,,,,,,,21,22,Female,,,,,,,,,,,,,,,,1.5714285714285714,1.5,0.6,1.75,3.1666666666666665,1.875,2.5555555555555554,2.2222222222222223,1.75,3.3333333333333335,1.5,2.5,2.75,2.0,,,,,,,,,-0.0003190938741664492,-1.2078438167478005,1.4589999999999999,1.0
2,240620_150832,OFFLINERATING,9.0,3,1.0,,,,,,,,,,,,,,,,,T1,cue1.png,Easy,59.0,1.7062483000336215,,,,,,,,,,,,,,,,,,,,,,21,22,Female,,,,,,,,,,,,,,,,1.5714285714285714,1.5,0.6,1.75,3.1666666666666665,1.875,2.5555555555555554,2.2222222222222223,1.75,3.3333333333333335,1.5,2.5,2.75,2.0,,,,,,,-1.2809203276116336e-05,0.06815500921148498,-0.0002496671926417917,-0.7581615371347755,,
3,240620_150839,OFFLINERATING,9.0,4,3.0,,,,,,,,,,,,,,,,,T1,cue2.png,Hard,44.0,1.185324600082822,,,,,,,,,,,,,,,,,,,,,,21,22,Female,,,,,,,,,,,,,,,,1.5714285714285714,1.5,0.6,1.75,3.1666666666666665,1.875,2.5555555555555554,2.2222222222222223,1.75,3.3333333333333335,1.5,2.5,2.75,2.0,,,,,,,-9.698395367625443e-05,-1.402067302226404,-8.937163772015574e-07,0.8531645619556212,,
4,240620_151351,OFFLINERATING,9.0,5,1.0,,,,,,,,,,,,,,,,,T2,cue1.png,Easy,51.0,1.1535766999004409,,,,,,,,,,,,,,,,,,,,,,21,22,Female,,,,,,,,,,,,,,,,1.5714285714285714,1.5,0.6,1.75,3.1666666666666665,1.875,2.5555555555555554,2.2222222222222223,1.75,3.3333333333333335,1.5,2.5,2.75,2.0,,,,,,,,,,,,
5,240620_151358,OFFLINERATING,9.0,6,3.0,,,,,,,,,,,,,,,,,T2,cue2.png,Hard,45.0,1.035115200094879,,,,,,,,,,,,,,,,,,,,,,21,22,Female,,,,,,,,,,,,,,,,1.5714285714285714,1.5,0.6,1.75,3.1666666666666665,1.875,2.5555555555555554,2.2222222222222223,1.75,3.3333333333333335,1.5,2.5,2.75,2.0,,,,,,,,,,,,
6,240620_153746,OFFLINERATING,9.0,7,1.0,,,,,,,,,,,,,,,,,T3,cue1.png,Easy,41.0,1.769847400020808,,,,,,,,,,,,,,,,,,,,,,21,22,Female,,,,,,,,,,,,,,,,1.5714285714285714,1.5,0.6,1.75,3.1666666666666665,1.875,2.5555555555555554,2.2222222222222223,1.75,3.3333333333333335,1.5,2.5,2.75,2.0,,,,,,,-2.17492471355934e-05,-0.0879945710956152,,,,
7,240620_153755,OFFLINERATING,9.0,8,3.0,,,,,,,,,,,,,,,,,T3,cue2.png,Hard,38.0,2.5305674000410363,,,,,,,,,,,,,,,,,,,,,,21,22,Female,,,,,,,,,,,,,,,,1.5714285714285714,1.5,0.6,1.75,3.1666666666666665,1.875,2.5555555555555554,2.2222222222222223,1.75,3.3333333333333335,1.5,2.5,2.75,2.0,,,,,,,6.469725517124986e-05,1.4219068641105344,,,,
