,END,Phase,Block,TrialN,NbackLevel,ISI,Letter_Resp,Letter_RT,Letter_Accuracy,Trial_A_measure,Trial_ACC,Trial_RT,TrialCountCali,CaliEnd_A_measure,ISI_calibrated,TrialIndex,TrialNumber_total,TrialNumber_valid,CueLearning,TrialDemandLearning,CueMapping,OfflineRatingTimePoint,CueFigure,TrialDemand,OfflineRating,OfflineRatingRT,PhaseType,CueLeft,CueDemandLeft,CueRight,CueDemandRight,Choice,ChoiceDemand,TaskDemand,ChoiceRT,CueCheck,CueDemandCheck,CorrectAnswer,Answer,AnswerDemand,AnswerRT,AnswerACC,DemandRatingQuesIndex,QuesTLX,DemandLevel,DemandRating,DemandRatingRT,PID,Age,Gender,BAI_bis,BAI_bas_d,BAI_bas_rr,BAI_bas_fs,NFC,BFI_ext,BFI_agr,BFI_con,BFI_neu,BFI_open,UPPS_lps,UPPS_lpm,UPPS_pu,UPPS_ss,Task_A_measure,Task_ACC,Task_RT,Task_RT_z,cue_i_on_zyg_values,cue_i_on_zyg_zvalues,cue_e_on_zyg_values,cue_e_on_zyg_zvalues,cue_i_on_cor_values,cue_i_on_cor_zvalues,cue_e_on_cor_values,cue_e_on_cor_zvalues,cue_i_on_scr_values,cue_i_on_scr_zvalues,cue_e_on_scr_values,cue_e_on_scr_zvalues,cue_e_true_zyg_values,cue_e_true_zyg_zvalues,cue_e_true_cor_values,cue_e_true_cor_zvalues,cue_e_true_scr_values,cue_e_true_scr_zvalues,cue_e_false_zyg_values,cue_e_false_zyg_zvalues,cue_e_false_cor_values,cue_e_false_cor_zvalues,cue_e_false_scr_values,cue_e_false_scr_zvalues,OfflineRating_z,cue_i_off_zyg_values,cue_i_off_zyg_zvalues,cue_i_off_cor_values,cue_i_off_cor_zvalues,cue_i_off_scr_values,cue_i_off_scr_zvalues,DemandRating_z
0,240621_154112,PRACTICE,0.0,1,1.0,2583.0,,,,,,,,,,19.0,1.0,1.0,cue2.png,Easy,B,,,,,,,,,,,,,,,,,,,,,,,,,,,22,33,Female,1.2857142857142858,1.0,1.6,1.5,2.0,1.875,2.111111111111111,2.111111111111111,2.125,2.3333333333333335,1.75,1.75,1.25,1.5,,,,,,,,,,,,,,,,,,,,,,,,,,,,,,,,,,,,
1,240621_154344,PRACTICE,0.0,1,1.0,2583.0,,,,,,,,,,25.0,1.0,1.0,cue2.png,Easy,B,,,,,,,,,,,,,,,,,,,,,,,,,,,22,33,Female,1.2857142857142858,1.0,1.6,1.5,2.0,1.875,2.111111111111111,2.111111111111111,2.125,2.3333333333333335,1.75,1.75,1.25,1.5,,,,,,,,,,,,,,,,,,,,,,,,,,,,,,,,,,,,
2,240621_154512,PRACTICE,0.0,1,1.0,2583.0,,,,,,,,,,45.0,1.0,1.0,cue2.png,Easy,B,,,,,,,,,,,,,,,,,,,,,,,,,,,22,33,Female,1.2857142857142858,1.0,1.6,1.5,2.0,1.875,2.111111111111111,2.111111111111111,2.125,2.3333333333333335,1.75,1.75,1.25,1.5,,,,,,,,,,,,,,,,,,,,,,,,,,,,,,,,,,,,
3,240621_154647,PRACTICE,0.0,1,1.0,2583.0,,,,,,,,,,11.0,1.0,1.0,cue2.png,Easy,B,,,,,,,,,,,,,,,,,,,,,,,,,,,22,33,Female,1.2857142857142858,1.0,1.6,1.5,2.0,1.875,2.111111111111111,2.111111111111111,2.125,2.3333333333333335,1.75,1.75,1.25,1.5,,,,,,,,,,,,,,,,,,,,,,,,,,,,,,,,,,,,
4,240621_154812,PRACTICE,0.0,1,3.0,2583.0,,,,,,,,,,40.0,1.0,1.0,cue1.png,Hard,B,,,,,,,,,,,,,,,,,,,,,,,,,,,22,33,Female,1.2857142857142858,1.0,1.6,1.5,2.0,1.875,2.111111111111111,2.111111111111111,2.125,2.3333333333333335,1.75,1.75,1.25,1.5,,,,,,,,,,,,,,,,,,,,,,,,,,,,,,,,,,,,
5,240621_154945,PRACTICE,0.0,1,3.0,2583.0,,,,,,,,,,7.0,1.0,1.0,cue1.png,Hard,B,,,,,,,,,,,,,,,,,,,,,,,,,,,22,33,Female,1.2857142857142858,1.0,1.6,1.5,2.0,1.875,2.111111111111111,2.111111111111111,2.125,2.3333333333333335,1.75,1.75,1.25,1.5,,,,,,,,,,,,,,,,,,,,,,,,,,,,,,,,,,,,
6,240621_155108,PRACTICE,0.0,1,1.0,2583.0,,,,,,,,,,11.0,1.0,1.0,cue2.png,Easy,B,,,,,,,,,,,,,,,,,,,,,,,,,,,22,33,Female,1.2857142857142858,1.0,1.6,1.5,2.0,1.875,2.111111111111111,2.111111111111111,2.125,2.3333333333333335,1.75,1.75,1.25,1.5,,,,,,,,,,,,,,,,,,,,,,,,,,,,,,,,,,,,
0,240621_155224,LEARNING,1.0,1,1.0,2583.0,,,,,,,,,,1.0,1.0,1.0,cue2.png,Easy,B,,,,,,,,,,,,,,,,,,,,,,,,,,,22,33,Female,1.2857142857142858,1.0,1.6,1.5,2.0,1.875,2.111111111111111,2.111111111111111,2.125,2.3333333333333335,1.75,1.75,1.25,1.5,1.0,1.0,0.905124266651304,0.45300993165025816,-0.00037195683553565466,-0.7360324132478389,0.0007047818076810351,0.5826480964581611,-0.0013909837694802548,-0.9124102873189659,0.00226173606277237,1.381658822838541,1.572,0.11985863861523452,,,,,,,,,,,,,,,,,,,,,,
1,240621_155246,LEARNING,1.0,2,3.0,2583.0,,,,,,,,,,2.0,2.0,2.0,cue1.png,Hard,B,,,,,,,,,,,,,,,,,,,,,,,,,,,22,33,Female,1.2857142857142858,1.0,1.6,1.5,2.0,1.875,2.111111111111111,2.111111111111111,2.125,2.3333333333333335,1.75,1.75,1.25,1.5,1.0,1.0,1.1186129666554432,1.1187626600013598,4.558338015249507e-05,-0.264330550503773,-0.00014429298377011644,-0.10078748419247614,0.0022561528073503498,1.7474615560694644,-3.6801531532322e-05,-0.27341797979892785,,,1.468,-0.17511982238024615,,,,,,,,,,,,,,,,,,,,
2,240621_155305,LEARNING,1.0,3,1.0,2583.0,,,,,,,,,,3.0,3.0,3.0,cue2.png,Easy,B,,,,,,,,,,,,,,,,,,,,,,,,,,,22,33,Female,1.2857142857142858,1.0,1.6,1.5,2.0,1.875,2.111111111111111,2.111111111111111,2.125,2.3333333333333335,1.75,1.75,1.25,1.5,1.0,1.0,0.735266016679816,-0.07668364627339343,2.310983086345128e-06,-0.3132160698731186,4.358752730044494e-05,0.050440920500816264,-0.00029107836142690333,-0.11024470792787233,-0.0003755174329508285,-0.5173125467232473,1.451,-0.10401625222807777,1.4669999999999999,-0.17741282416973708,,,,,,,,,,,,,,,,,,,,
3,240621_155323,LEARNING,1.0,4,3.0,2583.0,,,,,,,,,,4.0,4.0,4.0,cue1.png,Hard,B,,,,,,,,,,,,,,,,,,,,,,,,,,,22,33,Female,1.2857142857142858,1.0,1.6,1.5,2.0,1.875,2.111111111111111,2.111111111111111,2.125,2.3333333333333335,1.75,1.75,1.25,1.5,1.0,1.0,0.5787536833280077,-0.5647587197903675,0.0011490348488837395,0.9822562301021738,,,0.0007667460891540383,0.6612310545162077,,,1.1099999999999999,-0.73493639915014,1.9680000000000002,0.9713810723651,,,,,,,,,,,,,,,,,,,,
4,240621_155341,LEARNING,1.0,5,3.0,2583.0,,,,,,,,,,5.0,5.0,5.0,cue1.png,Hard,B,,,,,,,,,,,,,,,,,,,,,,,,,,,22,33,Female,1.2857142857142858,1.0,1.6,1.5,2.0,1.875,2.111111111111111,2.111111111111111,2.125,2.3333333333333335,1.75,1.75,1.25,1.5,1.0,1.0,0.4893581999931484,-0.8435336007620261,0.00040523206384568454,0.14197032222038586,,,6.865131690338795e-05,0.15210763958235368,-0.00017544264415865572,-0.373247406112534,1.583,0.1402109014191718,1.5510000000000002,0.015199326147481661,,,,,,,,,,,,,,,,,,,,
5,240621_155401,LEARNING,1.0,6,1.0,2583.0,,,,,,,,,,6.0,6.0,6.0,cue2.png,Easy,B,,,,,,,,,,,,,,,,,,,,,,,,,,,22,33,Female,1.2857142857142858,1.0,1.6,1.5,2.0,1.875,2.111111111111111,2.111111111111111,2.125,2.3333333333333335,1.75,1.75,1.25,1.5,1.0,1.0,0.945353316667024,0.5784620038508913,4.027292204859898e-05,-0.2703298599966411,0.00012376823645960863,0.11497981633532477,-7.987053262044092e-05,0.043790038265732016,0.00029499667013001187,-0.03450454714990652,1.5870000000000002,0.14761172425696767,1.574,0.06793836730576736,,,,,,,,,,,,,,,,,,,,
6,240621_155420,LEARNING,1.0,7,3.0,2583.0,,,,,,,,,,7.0,7.0,7.0,cue1.png,Hard,B,,,,,,,,,,,,,,,,,,,,,,,,,,,22,33,Female,1.2857142857142858,1.0,1.6,1.5,2.0,1.875,2.111111111111111,2.111111111111111,2.125,2.3333333333333335,1.75,1.75,1.25,1.5,1.0,1.0,0.6685309000119256,-0.28479342443783806,-0.0007543137385436936,-1.1679871246872975,0.0005807472363281371,0.4828104376949782,,,3.649727770395003e-05,-0.2206386999957621,,,,,,,,,,,,,,,,,,,,,,,,
7,240621_155439,LEARNING,1.0,8,3.0,2583.0,,,,,,,,,,8.0,8.0,8.0,cue1.png,Hard,B,,,,,,,,,,,,,,,,,,,,,,,,,,,22,33,Female,1.2857142857142858,1.0,1.6,1.5,2.0,1.875,2.111111111111111,2.111111111111111,2.125,2.3333333333333335,1.75,1.75,1.25,1.5,1.0,1.0,0.7360121166760413,-0.07435697461301924,6.0270651239785044e-05,-0.24773810534472734,-0.00017592553150793484,-0.12624909116552768,-0.00023141890533099826,-0.06673481897294152,-0.0002820261516342012,-0.4499935473127499,,,,,,,,,,,,,,,,,,,,,,,,
8,240621_155457,LEARNING,1.0,9,1.0,2583.0,,,,,,,,,,9.0,9.0,9.0,cue2.png,Easy,B,,,,,,,,,,,,,,,,,,,,,,,,,,,22,33,Female,1.2857142857142858,1.0,1.6,1.5,2.0,1.875,2.111111111111111,2.111111111111111,2.125,2.3333333333333335,1.75,1.75,1.25,1.5,1.0,1.0,0.602053866663482,-0.49209838401441236,-0.0005333098547784239,-0.9183155009038512,0.0002191319122493594,0.19173975526244463,-0.00037492804463608396,-0.17139662992114021,0.0012100582845341228,0.6243914633990841,,,,,,,,,,,,,,,,,,,,,,,,
9,240621_155515,LEARNING,1.0,10,1.0,2583.0,,,,,,,,,,10.0,10.0,10.0,cue2.png,Easy,B,,,,,,,,,,,,,,,,,,,,,,,,,,,22,33,Female,1.2857142857142858,1.0,1.6,1.5,2.0,1.875,2.111111111111111,2.111111111111111,2.125,2.3333333333333335,1.75,1.75,1.25,1.5,1.0,1.0,0.5984856999906091,-0.5032255148537992,-2.6852392161201468e-05,-0.34616240153484823,5.346451229107938e-05,0.05839108347834971,-0.00012124175115077592,0.013617836875035703,-0.0003792748024560788,-0.5200180648415874,0.8280000000000001,-1.2566944092147188,,,,,,,,,,,,,,,,,,,,,,
10,240621_155535,LEARNING,1.0,11,3.0,2583.0,,,,,,,,,,11.0,11.0,11.0,cue1.png,Hard,B,,,,,,,,,,,,,,,,,,,,,,,,,,,22,33,Female,1.2857142857142858,1.0,1.6,1.5,2.0,1.875,2.111111111111111,2.111111111111111,2.125,2.3333333333333335,1.75,1.75,1.25,1.5,1.0,1.0,0.7649218000005931,0.015796277286090836,-7.787089150535463e-05,-0.4037988165934108,1.2808721617527021e-05,0.02566650587276364,-0.00030070381828888135,-0.11726459356900018,-0.0002145647651483045,-0.40141754136739416,1.0620000000000003,-0.8237462732036847,,,,,,,,,,,,,,,,,,,,,,
11,240621_155553,LEARNING,1.0,12,1.0,2583.0,,,,,,,,,,12.0,12.0,12.0,cue2.png,Easy,B,,,,,,,,,,,,,,,,,,,,,,,,,,,22,33,Female,1.2857142857142858,1.0,1.6,1.5,2.0,1.875,2.111111111111111,2.111111111111111,2.125,2.3333333333333335,1.75,1.75,1.25,1.5,1.0,1.0,0.5766633500073416,-0.5712773088836999,0.0001813450485956907,-0.1109584213344794,2.484078867453013e-05,0.03535133319106874,0.0008885247136115769,0.7500447107908148,0.0037059469962742227,2.4215722095401317,0.8959999999999999,-1.1308804209721963,2.221,1.5515105251062447,,,,,,,,,,,,,,,,,,,,
12,240621_155612,LEARNING,1.0,13,1.0,2583.0,,,,,,,,,,13.0,13.0,13.0,cue2.png,Easy,B,,,,,,,,,,,,,,,,,,,,,,,,,,,22,33,Female,1.2857142857142858,1.0,1.6,1.5,2.0,1.875,2.111111111111111,2.111111111111111,2.125,2.3333333333333335,1.75,1.75,1.25,1.5,0.6875,0.75,0.6397294666579304,-0.3746091047781697,-1.0764449550886446e-05,-0.32798759534402844,0.00011059939760673125,0.10437998093975384,0.0002383110898335596,0.2758412161748702,8.247745788736351e-05,-0.18753037503678785,,,,,,,,,,,,,,,,,,,,,,,,
13,240621_155630,LEARNING,1.0,14,1.0,2583.0,,,,,,,,,,14.0,14.0,14.0,cue2.png,Easy,B,,,,,,,,,,,,,,,,,,,,,,,,,,,22,33,Female,1.2857142857142858,1.0,1.6,1.5,2.0,1.875,2.111111111111111,2.111111111111111,2.125,2.3333333333333335,1.75,1.75,1.25,1.5,0.6875,0.75,0.6885187333488526,-0.22246246932111172,-0.00021336068569078204,-0.5568638050634306,-0.0010806956064360195,-0.8545148078487096,,,-0.00047011057627878005,-0.5854249489735194,2.006,0.92284791651604,1.054,-1.124422563229392,,,,,,,,,,,,,,,,,,,,
14,240621_155649,LEARNING,1.0,15,3.0,2583.0,,,,,,,,,,15.0,15.0,15.0,cue1.png,Hard,B,,,,,,,,,,,,,,,,,,,,,,,,,,,22,33,Female,1.2857142857142858,1.0,1.6,1.5,2.0,1.875,2.111111111111111,2.111111111111111,2.125,2.3333333333333335,1.75,1.75,1.25,1.5,1.0,1.0,0.5977233333008675,-0.5056029133001321,-4.2958855396325445e-05,-0.3643581307718642,-1.925409732545305e-05,-0.0001414341370211396,-0.0003616584127752332,-0.16171903232772103,0.001999141734024549,1.1925760847134126,,,,,,,,,,,,,,,,,,,,,,,,
15,240621_155707,LEARNING,1.0,16,1.0,2583.0,,,,,,,,,,16.0,16.0,16.0,cue2.png,Easy,B,,,,,,,,,,,,,,,,,,,,,,,,,,,22,33,Female,1.2857142857142858,1.0,1.6,1.5,2.0,1.875,2.111111111111111,2.111111111111111,2.125,2.3333333333333335,1.75,1.75,1.25,1.5,1.0,1.0,0.6510416500192756,-0.33933268529424626,-0.0011389888892188583,-1.602560797610701,0.0031187676400899864,2.5257087380715437,-0.0002277725755151956,-0.06407553550371933,0.004121930781786745,2.7211040141888883,,,,,,,,,,,,,,,,,,,,,,,,
16,240621_155728,LEARNING,1.0,17,1.0,2583.0,,,,,,,,,,17.0,17.0,17.0,cue2.png,Easy,B,,,,,,,,,,,,,,,,,,,,,,,,,,,22,33,Female,1.2857142857142858,1.0,1.6,1.5,2.0,1.875,2.111111111111111,2.111111111111111,2.125,2.3333333333333335,1.75,1.75,1.25,1.5,1.0,1.0,0.9414979666277457,0.5664393075332484,0.00013211579219476197,-0.16657350001031856,1.6889598755749375e-05,0.0289512773258864,0.0003990962946593289,0.39310253341381846,-0.0011650448300774031,-1.0858168353930264,,,,,,,,,,,,,,,,,,,,,,,,
17,240621_155747,LEARNING,1.0,18,3.0,2583.0,,,,,,,,,,18.0,18.0,18.0,cue1.png,Hard,B,,,,,,,,,,,,,,,,,,,,,,,,,,,22,33,Female,1.2857142857142858,1.0,1.6,1.5,2.0,1.875,2.111111111111111,2.111111111111111,2.125,2.3333333333333335,1.75,1.75,1.25,1.5,1.0,1.0,0.7409180833492428,-0.05905798830685797,-0.00010892050419632508,-0.43887606087675285,-3.885851641435411e-05,-0.015921383887316322,-0.0008856955936465231,-0.5439015234203584,-2.9276219849806284e-05,-0.26799933064165093,,,,,,,,,,,,,,,,,,,,,,,,
18,240621_155805,LEARNING,1.0,19,3.0,2583.0,,,,,,,,,,19.0,19.0,19.0,cue1.png,Hard,B,,,,,,,,,,,,,,,,,,,,,,,,,,,22,33,Female,1.2857142857142858,1.0,1.6,1.5,2.0,1.875,2.111111111111111,2.111111111111111,2.125,2.3333333333333335,1.75,1.75,1.25,1.5,1.0,1.0,0.6366566666789973,-0.3841914619221882,-3.494912297658968e-05,-0.3553094078931733,-0.0023746520349663576,-1.8960436248305919,0.005018066873836631,3.761736948434764,-0.0027260299203781223,-2.2098142059912647,,,1.3279999999999998,-0.4961400729089432,,,,,,,,,,,,,,,,,,,,
19,240621_155824,LEARNING,1.0,20,3.0,2583.0,,,,,,,,,,20.0,20.0,20.0,cue1.png,Hard,B,,,,,,,,,,,,,,,,,,,,,,,,,,,22,33,Female,1.2857142857142858,1.0,1.6,1.5,2.0,1.875,2.111111111111111,2.111111111111111,2.125,2.3333333333333335,1.75,1.75,1.25,1.5,1.0,1.0,0.6302259500371292,-0.4042452968534681,-0.0001095846281001572,-0.4396263322775907,-5.524462540969005e-05,-0.029110857922568407,-0.0013838863321095308,-0.9072340967856771,0.0006232356013897468,0.2018460099158518,,,,,,,,,,,,,,,,,,,,,,,,
20,240621_155842,LEARNING,1.0,21,1.0,2583.0,,,,,,,,,,21.0,21.0,21.0,cue2.png,Easy,B,,,,,,,,,,,,,,,,,,,,,,,,,,,22,33,Female,1.2857142857142858,1.0,1.6,1.5,2.0,1.875,2.111111111111111,2.111111111111111,2.125,2.3333333333333335,1.75,1.75,1.25,1.5,1.0,1.0,0.5278287833595338,-0.7235652097561649,,,5.517865370657359e-05,0.05977082675351323,-0.00022492076455722827,-0.06199569793526838,0.0010458945526168866,0.5061843106408087,1.51,0.005145884629404979,1.509,-0.08110674901112797,,,,,,,,,,,,,,,,,,,,
21,240621_155902,LEARNING,1.0,22,3.0,2583.0,,,,,,,,,,22.0,22.0,22.0,cue1.png,Hard,B,,,,,,,,,,,,,,,,,,,,,,,,,,,22,33,Female,1.2857142857142858,1.0,1.6,1.5,2.0,1.875,2.111111111111111,2.111111111111111,2.125,2.3333333333333335,1.75,1.75,1.25,1.5,1.0,0.8333333333333334,0.6003054199740291,-0.4975508185173026,-2.4034163857150972e-05,-0.34297860392515517,3.44239130640636e-05,0.043064962482093204,-0.000385649288857713,-0.17921567783186684,-0.0006995851142383132,-0.750659568374062,1.794,0.5306043061128818,,,,,,,,,,,,,,,,,,,,,,
22,240621_155923,LEARNING,1.0,23,3.0,2583.0,,,,,,,,,,23.0,23.0,23.0,cue1.png,Hard,B,,,,,,,,,,,,,,,,,,,,,,,,,,,22,33,Female,1.2857142857142858,1.0,1.6,1.5,2.0,1.875,2.111111111111111,2.111111111111111,2.125,2.3333333333333335,1.75,1.75,1.25,1.5,0.6875,0.5833333333333334,0.6009597799973563,-0.4955102328992089,2.059702848668807e-05,-0.29255803178845535,0.0005768529699525637,0.47967587260319217,0.00034123126101856527,0.3509013242034017,0.0011561328615586333,0.5855621151820738,2.141,1.1726256872916367,2.1550000000000002,1.4001724069998593,,,,,,,,,,,,,,,,,,,,
23,240621_155941,LEARNING,1.0,24,3.0,2583.0,,,,,,,,,,24.0,24.0,24.0,cue1.png,Hard,B,,,,,,,,,,,,,,,,,,,,,,,,,,,22,33,Female,1.2857142857142858,1.0,1.6,1.5,2.0,1.875,2.111111111111111,2.111111111111111,2.125,2.3333333333333335,1.75,1.75,1.25,1.5,1.0,1.0,0.5975186499999836,-0.5062412068773036,,,,,,,,,1.7750000000000001,0.4954503976333536,1.136,-0.9363964164911558,,,,,,,,,,,,,,,,,,,,
24,240621_160000,LEARNING,1.0,25,1.0,2583.0,,,,,,,,,,25.0,25.0,25.0,cue2.png,Easy,B,,,,,,,,,,,,,,,,,,,,,,,,,,,22,33,Female,1.2857142857142858,1.0,1.6,1.5,2.0,1.875,2.111111111111111,2.111111111111111,2.125,2.3333333333333335,1.75,1.75,1.25,1.5,1.0,1.0,0.5968579500331543,-0.508301563259302,0.0025862411285381805,2.6058911610349096,-0.00040024376504534066,-0.30680687445119736,,,-0.0009398848404218157,-0.923688934294335,1.4500000000000002,-0.10586645793752641,0.7610000000000001,-1.7962720875501645,,,,,,,,,,,,,,,,,,,,
25,240621_160018,LEARNING,1.0,26,1.0,2583.0,,,,,,,,,,26.0,26.0,26.0,cue2.png,Easy,B,,,,,,,,,,,,,,,,,,,,,,,,,,,22,33,Female,1.2857142857142858,1.0,1.6,1.5,2.0,1.875,2.111111111111111,2.111111111111111,2.125,2.3333333333333335,1.75,1.75,1.25,1.5,1.0,1.0,0.5960176333707446,-0.510922044393279,0.00270794160456364,2.7433781361360676,-0.002832471537163537,-2.2645507816413075,0.001771577469155067,1.394058750631854,-0.0016689529236359277,-1.44865910448468,0.9159999999999999,-1.0938763067832191,1.64,0.2192764854121526,,,,,,,,,,,,,,,,,,,,
26,240621_160037,LEARNING,1.0,27,3.0,2583.0,,,,,,,,,,27.0,27.0,27.0,cue1.png,Hard,B,,,,,,,,,,,,,,,,,,,,,,,,,,,22,33,Female,1.2857142857142858,1.0,1.6,1.5,2.0,1.875,2.111111111111111,2.111111111111111,2.125,2.3333333333333335,1.75,1.75,1.25,1.5,1.0,1.0,0.7225780000250476,-0.11625052594951908,0.0017524985965761326,1.663998881922851,-0.00010852206753012147,-0.07199482993276862,-0.0014863157364401946,-0.9819362865103467,5.746635422140475e-05,-0.20553978136038176,0.7200000000000002,-1.4565166258351956,1.058,-1.1152505560714294,,,,,,,,,,,,,,,,,,,,
27,240621_160056,LEARNING,1.0,28,1.0,2583.0,,,,,,,,,,28.0,28.0,28.0,cue2.png,Easy,B,,,,,,,,,,,,,,,,,,,,,,,,,,,22,33,Female,1.2857142857142858,1.0,1.6,1.5,2.0,1.875,2.111111111111111,2.111111111111111,2.125,2.3333333333333335,1.75,1.75,1.25,1.5,1.0,1.0,0.6185777333254615,-0.4405696177944234,2.3397213930896523e-05,-0.28939461748623047,0.0011503649175564684,0.9413059608676868,0.0002059197391469608,0.25221806967469834,0.00330635721088274,2.133845010293523,1.8269999999999997,0.5916610945246937,0.46599999999999997,-2.472707615449919,,,,,,,,,,,,,,,,,,,,
28,240621_160114,LEARNING,1.0,29,1.0,2583.0,,,,,,,,,,29.0,29.0,29.0,cue2.png,Easy,B,,,,,,,,,,,,,,,,,,,,,,,,,,,22,33,Female,1.2857142857142858,1.0,1.6,1.5,2.0,1.875,2.111111111111111,2.111111111111111,2.125,2.3333333333333335,1.75,1.75,1.25,1.5,1.0,1.0,0.6343896166654304,-0.39126113226919657,,,,,,,,,,,1.948,0.9255210365752856,,,,,,,,,,,,,,,,,,,,
29,240621_160134,LEARNING,1.0,30,3.0,2583.0,,,,,,,,,,30.0,30.0,30.0,cue1.png,Hard,B,,,,,,,,,,,,,,,,,,,,,,,,,,,22,33,Female,1.2857142857142858,1.0,1.6,1.5,2.0,1.875,2.111111111111111,2.111111111111111,2.125,2.3333333333333335,1.75,1.75,1.25,1.5,1.0,1.0,0.8273472499956066,0.21046659778511373,,,,,-0.00014451010671870813,-0.0033518714189369313,,,1.5730000000000002,0.12170884432468358,1.539,-0.012316695326407168,,,,,,,,,,,,,,,,,,,,
30,240621_160155,LEARNING,1.0,31,3.0,2583.0,,,,,,,,,,31.0,31.0,31.0,cue1.png,Hard,B,,,,,,,,,,,,,,,,,,,,,,,,,,,22,33,Female,1.2857142857142858,1.0,1.6,1.5,2.0,1.875,2.111111111111111,2.111111111111111,2.125,2.3333333333333335,1.75,1.75,1.25,1.5,1.0,0.8333333333333334,0.6194306600140408,-0.43790981298979387,,,-0.003446064593902437,-2.758442875998316,0.0003277357423042324,0.3410589863901658,-0.0003532277628405219,-0.5012627261636798,,,,,,,,,,,,,,,,,,,,,,,,
31,240621_160220,LEARNING,1.0,32,1.0,2583.0,,,,,,,,,,32.0,32.0,32.0,cue2.png,Easy,B,,,,,,,,,,,,,,,,,,,,,,,,,,,22,33,Female,1.2857142857142858,1.0,1.6,1.5,2.0,1.875,2.111111111111111,2.111111111111111,2.125,2.3333333333333335,1.75,1.75,1.25,1.5,0.6875,0.5833333333333334,1.5170411800267174,2.3612390538284704,-3.94668035218898e-06,-0.32028545238880557,-0.00025741703714577974,-0.19184307067645912,,,,,0.8260000000000001,-1.2603948206336164,1.456,-0.20263584385413447,,,,,,,,,,,,,,,,,,,,
32,240621_160244,LEARNING,1.0,33,1.0,2583.0,,,,,,,,,,33.0,33.0,33.0,cue2.png,Easy,B,,,,,,,,,,,,,,,,,,,,,,,,,,,22,33,Female,1.2857142857142858,1.0,1.6,1.5,2.0,1.875,2.111111111111111,2.111111111111111,2.125,2.3333333333333335,1.75,1.75,1.25,1.5,0.875,0.8333333333333334,1.2855153600219638,1.6392385622385066,-0.00020637059467823373,-0.5489669873977708,0.004350943445907323,3.517509219950396,,,0.00028216819629307615,-0.043741772381011214,1.7400000000000002,0.4306931978026436,1.219,-0.746077267963428,,,,,,,,,,,,,,,,,,,,
33,240621_160307,LEARNING,1.0,34,1.0,2583.0,,,,,,,,,,34.0,34.0,34.0,cue2.png,Easy,B,,,,,,,,,,,,,,,,,,,,,,,,,,,22,33,Female,1.2857142857142858,1.0,1.6,1.5,2.0,1.875,2.111111111111111,2.111111111111111,2.125,2.3333333333333335,1.75,1.75,1.25,1.5,0.6875,0.5833333333333334,1.0495492600137368,0.9033913025203099,0.00033611861762976227,0.06389175614266664,,,-0.0009565711847433342,-0.5955913861854498,0.002811827957579245,1.7777560355487634,0.593,-1.6914927509352014,2.0989999999999998,1.2717643067883795,,,,,,,,,,,,,,,,,,,,
34,240621_160326,LEARNING,1.0,35,3.0,2583.0,,,,,,,,,,35.0,35.0,35.0,cue1.png,Hard,B,,,,,,,,,,,,,,,,,,,,,,,,,,,22,33,Female,1.2857142857142858,1.0,1.6,1.5,2.0,1.875,2.111111111111111,2.111111111111111,2.125,2.3333333333333335,1.75,1.75,1.25,1.5,0.6875,0.75,0.6548824333003722,-0.3273554146080423,,,-8.419387452386976e-06,0.008579618834796026,-0.0024959646430181663,-1.7182774247543164,-2.4562651601895812e-05,-0.2646052954585435,1.098,-0.757138867663526,1.57,0.05876636014780458,,,,,,,,,,,,,,,,,,,,
35,240621_160346,LEARNING,1.0,36,3.0,2583.0,,,,,,,,,,36.0,36.0,36.0,cue1.png,Hard,B,,,,,,,,,,,,,,,,,,,,,,,,,,,22,33,Female,1.2857142857142858,1.0,1.6,1.5,2.0,1.875,2.111111111111111,2.111111111111111,2.125,2.3333333333333335,1.75,1.75,1.25,1.5,1.0,0.8333333333333334,0.5305751199601219,-0.7150009106397406,,,,,-0.002856369785410539,-1.981122391008618,0.0015280675712063506,0.8533760989772148,0.6769999999999998,-1.5360754713414972,2.0100000000000002,1.067687147523709,,,,,,,,,,,,,,,,,,,,
36,240621_160413,LEARNING,1.0,37,1.0,2583.0,,,,,,,,,,37.0,37.0,37.0,cue2.png,Easy,B,,,,,,,,,,,,,,,,,,,,,,,,,,,22,33,Female,1.2857142857142858,1.0,1.6,1.5,2.0,1.875,2.111111111111111,2.111111111111111,2.125,2.3333333333333335,1.75,1.75,1.25,1.5,0.1875,0.4166666666666667,1.3595200499694329,1.8700181034617642,,,2.791690275740985e-05,0.03782735277797395,-0.0003048986001185812,-0.12032386536837766,,,2.654,2.1217812162389027,0.982,-1.2895186920727222,,,,,,,,,,,,,,,,,,,,
37,240621_160435,LEARNING,1.0,38,3.0,2583.0,,,,,,,,,,38.0,38.0,38.0,cue1.png,Hard,B,,,,,,,,,,,,,,,,,,,,,,,,,,,22,33,Female,1.2857142857142858,1.0,1.6,1.5,2.0,1.875,2.111111111111111,2.111111111111111,2.125,2.3333333333333335,1.75,1.75,1.25,1.5,0.125,0.1666666666666666,0.3969862750382162,-1.1315903506536924,,,,,,,,,1.6709999999999998,0.3030290038506714,1.0580000000000003,-1.115250556071429,,,,,,,,,,,,,,,,,,,,
38,240621_160500,LEARNING,1.0,39,3.0,2583.0,,,,,,,,,,39.0,39.0,39.0,cue1.png,Hard,B,,,,,,,,,,,,,,,,,,,,,,,,,,,22,33,Female,1.2857142857142858,1.0,1.6,1.5,2.0,1.875,2.111111111111111,2.111111111111111,2.125,2.3333333333333335,1.75,1.75,1.25,1.5,0.125,0.0,0.3669787332958852,-1.2251672134369644,,,,,,,,,,,2.138,1.3611913765785169,,,,,,,,,,,,,,,,,,,,
39,240621_160519,LEARNING,1.0,40,3.0,2583.0,,,,,,,,,,40.0,40.0,40.0,cue1.png,Hard,B,,,,,,,,,,,,,,,,,,,,,,,,,,,22,33,Female,1.2857142857142858,1.0,1.6,1.5,2.0,1.875,2.111111111111111,2.111111111111111,2.125,2.3333333333333335,1.75,1.75,1.25,1.5,1.0,1.0,0.6975492166626888,-0.19430140550649783,0.0014475460583110202,1.3194891198844563,-0.000611877434921612,-0.47715462415875187,-0.0041763566413760955,-2.9437942838382227,,,,,2.354,1.8564797631085066,,,,,,,,,,,,,,,,,,,,
40,240621_160539,LEARNING,1.0,41,1.0,2583.0,,,,,,,,,,41.0,41.0,41.0,cue2.png,Easy,B,,,,,,,,,,,,,,,,,,,,,,,,,,,22,33,Female,1.2857142857142858,1.0,1.6,1.5,2.0,1.875,2.111111111111111,2.111111111111111,2.125,2.3333333333333335,1.75,1.75,1.25,1.5,1.0,1.0,0.8393362999971336,0.24785378852963366,5.980175926303868e-05,-0.2482678201136209,-5.654655245512742e-05,-0.03015880243254795,-9.839320767252805e-06,0.09486409174374545,-2.421916671636404e-05,-0.26435796695388525,2.7159999999999997,2.236493970224732,2.032,1.118133186892504,,,,,,,,,,,,,,,,,,,,
41,240621_160603,LEARNING,1.0,42,3.0,2583.0,,,,,,,,,,42.0,42.0,42.0,cue1.png,Hard,B,,,,,,,,,,,,,,,,,,,,,,,,,,,22,33,Female,1.2857142857142858,1.0,1.6,1.5,2.0,1.875,2.111111111111111,2.111111111111111,2.125,2.3333333333333335,1.75,1.75,1.25,1.5,0.125,0.3333333333333333,1.2471648799953985,1.519644706869275,0.0008467839177274681,0.6407985168431825,-0.00018867704324105694,-0.13651301245166694,0.0001254456060698168,0.19352795040337645,,,,,1.627,0.18946746214877386,,,,,,,,,,,,,,,,,,,,
42,240621_160626,LEARNING,1.0,43,3.0,2583.0,,,,,,,,,,43.0,43.0,43.0,cue1.png,Hard,B,,,,,,,,,,,,,,,,,,,,,,,,,,,22,33,Female,1.2857142857142858,1.0,1.6,1.5,2.0,1.875,2.111111111111111,2.111111111111111,2.125,2.3333333333333335,1.75,1.75,1.25,1.5,0.6875,0.5833333333333334,1.022795040020719,0.8199597440588465,-0.000157907717840927,-0.49421769997783177,7.077418025248396e-05,0.0723239467469124,-8.616111983605033e-05,0.03920228689950292,-0.0005752857580532591,-0.6611570161798321,2.315,1.4945614807357386,1.483,-0.14072479553788547,,,,,,,,,,,,,,,,,,,,
43,240621_160641,LEARNING,1.0,44,1.0,2583.0,,,,,,,,,,44.0,44.0,44.0,cue2.png,Easy,B,,,,,,,,,,,,,,,,,,,,,,,,,,,22,33,Female,1.2857142857142858,1.0,1.6,1.5,2.0,1.875,2.111111111111111,2.111111111111111,2.125,2.3333333333333335,1.75,1.75,1.25,1.5,1.0,1.0,0.172946833326326,-1.830244984716557,-0.0006196295784384877,-1.0158322739286938,-2.6558579118026848e-05,-0.006020942992451439,7.211819387582764e-05,0.15463604734806932,-4.3275135779216167e-05,-0.27807934024177544,2.045,0.9950059391845459,2.016,1.0814451582606528,,,,,,,,,,,,,,,,,,,,
44,240621_160701,LEARNING,1.0,45,1.0,2583.0,,,,,,,,,,45.0,45.0,45.0,cue2.png,Easy,B,,,,,,,,,,,,,,,,,,,,,,,,,,,22,33,Female,1.2857142857142858,1.0,1.6,1.5,2.0,1.875,2.111111111111111,2.111111111111111,2.125,2.3333333333333335,1.75,1.75,1.25,1.5,0.125,0.5,0.8086575833537305,0.15218390386004724,0.00037160282576971645,0.1039788338629016,-9.151344242770525e-05,-0.05830428147934937,0.0003343567134497798,0.34588768812779935,-0.00035859131473927166,-0.5051247862619608,1.9570000000000003,0.8321878367530468,1.45,-0.21639385459107863,,,,,,,,,,,,,,,,,,,,
45,240621_160725,LEARNING,1.0,46,1.0,2583.0,,,,,,,,,,46.0,46.0,46.0,cue2.png,Easy,B,,,,,,,,,,,,,,,,,,,,,,,,,,,22,33,Female,1.2857142857142858,1.0,1.6,1.5,2.0,1.875,2.111111111111111,2.111111111111111,2.125,2.3333333333333335,1.75,1.75,1.25,1.5,0.6875,0.4166666666666667,0.677248599997256,-0.25760775817040793,0.002867093996027202,2.923175139377558,-6.012195226213872e-05,-0.03303670608457685,-7.892106852331032e-06,0.09628420293405779,-9.421643964624329e-05,-0.31475995427016046,1.5370000000000001,0.0551014387845245,1.45,-0.21639385459107863,,,,,,,,,,,,,,,,,,,,
46,240621_160747,LEARNING,1.0,47,3.0,2583.0,,,,,,,,,,47.0,47.0,47.0,cue1.png,Hard,B,,,,,,,,,,,,,,,,,,,,,,,,,,,22,33,Female,1.2857142857142858,1.0,1.6,1.5,2.0,1.875,2.111111111111111,2.111111111111111,2.125,2.3333333333333335,1.75,1.75,1.25,1.5,0.6875,0.5833333333333334,0.9496032600291072,0.5917152176677802,-2.6621396600405405e-06,-0.31883428621488785,-2.3464197905393846e-05,-0.003530219864049709,7.176391224481427e-05,0.15437766828408014,-0.0001291618933047696,-0.33992265330592075,,,1.6690000000000003,0.2857735373073835,,,,,,,,,,,,,,,,,,,,
47,240621_160817,LEARNING,1.0,48,3.0,2583.0,,,,,,,,,,48.0,48.0,48.0,cue1.png,Hard,B,,,,,,,,,,,,,,,,,,,,,,,,,,,22,33,Female,1.2857142857142858,1.0,1.6,1.5,2.0,1.875,2.111111111111111,2.111111111111111,2.125,2.3333333333333335,1.75,1.75,1.25,1.5,0.5,0.1666666666666666,0.0,-2.3695701393708894,2.5988296154800562e-05,-0.2864674304378542,,,-1.4045557530091395e-06,0.10101560087820213,-0.00032750639336445514,-0.4827418883677754,1.3699999999999997,-0.2538829146934363,1.008,-1.229900645545964,,,,,,,,,,,,,,,,,,,,
48,240621_160849,LEARNING,1.0,49,1.0,2583.0,,,,,,,,,,49.0,49.0,49.0,cue2.png,Easy,B,,,,,,,,,,,,,,,,,,,,,,,,,,,22,33,Female,1.2857142857142858,1.0,1.6,1.5,2.0,1.875,2.111111111111111,2.111111111111111,2.125,2.3333333333333335,1.75,1.75,1.25,1.5,,,1.6350707000819966,2.7293075979774097,,,,,0.00030382928651569076,0.32362390895678633,-5.765736604875166e-05,-0.2884353578019317,,,,,,,,,,,,,,,,,,,,,,,,
49,240621_160919,LEARNING,1.0,50,1.0,2583.0,,,,,,,,,,50.0,50.0,50.0,cue2.png,Easy,B,,,,,,,,,,,,,,,,,,,,,,,,,,,22,33,Female,1.2857142857142858,1.0,1.6,1.5,2.0,1.875,2.111111111111111,2.111111111111111,2.125,2.3333333333333335,1.75,1.75,1.25,1.5,0.5,0.3333333333333333,1.5941379500436597,2.601661076094012,,,,,,,,,1.2309999999999999,-0.5110615083068277,1.589,0.1023333941481275,,,,,,,,,,,,,,,,,,,,
0,240621_161200,TrueCHOICE,9.0,1,1.0,2583.0,,,,,,,,,,,10.0,1.0,,,B,,,,,,True,cue2.png,Easy,cue1.png,Hard,Left,Easy,Easy,0.016952299978584,,,,,,,,,,,,,22,33,Female,1.2857142857142858,1.0,1.6,1.5,2.0,1.875,2.111111111111111,2.111111111111111,2.125,2.3333333333333335,1.75,1.75,1.25,1.5,0.6875,0.75,1.2094146333402025,0.22744375724149005,,,,,,,,,,,,,,,-4.957734095638756e-05,-0.3320105188245803,1.4460000000000002,-0.675539091900701,,,,,,,,,,,,,,
1,240621_161219,TrueCHOICE,9.0,2,1.0,2583.0,,,,,,,,,,,11.0,2.0,,,B,,,,,,True,cue2.png,Easy,cue1.png,Hard,Left,Easy,Easy,0.0160924999509006,,,,,,,,,,,,,22,33,Female,1.2857142857142858,1.0,1.6,1.5,2.0,1.875,2.111111111111111,2.111111111111111,2.125,2.3333333333333335,1.75,1.75,1.25,1.5,0.125,0.3333333333333333,0.4931505999993533,-0.7776941153611853,,,,,,,,,,,,,-0.00021367790445755638,-1.7236194024599865,-4.042711746337236e-05,-0.32078909402092626,,,,,,,,,,,,,,,,
2,240621_161320,TrueCHOICE,9.0,3,1.0,2583.0,,,,,,,,,,,17.0,3.0,,,B,,,,,,True,cue1.png,Hard,cue2.png,Easy,Right,Easy,Easy,0.0149417000357061,,,,,,,,,,,,,22,33,Female,1.2857142857142858,1.0,1.6,1.5,2.0,1.875,2.111111111111111,2.111111111111111,2.125,2.3333333333333335,1.75,1.75,1.25,1.5,0.5,0.1666666666666666,2.646890999982133,2.2446634832465313,,,,,,,,,,,,,-9.698396099763577e-05,-0.1724982722353799,-6.755306758563992e-05,-0.3540551459110307,1.581,-0.3979202870100021,,,,,,,,,,,,,,
3,240621_161347,TrueCHOICE,9.0,4,3.0,2583.0,,,,,,,,,,,19.0,4.0,,,B,,,,,,True,cue2.png,Easy,cue1.png,Hard,Right,Hard,Hard,0.0146967000328004,,,,,,,,,,,,,22,33,Female,1.2857142857142858,1.0,1.6,1.5,2.0,1.875,2.111111111111111,2.111111111111111,2.125,2.3333333333333335,1.75,1.75,1.25,1.5,0.125,0.1666666666666666,0.6510650499840267,-0.5560917635434119,,,,,,,,,,,,,,,,,1.4799999999999998,-0.6056202817800813,,,,,,,,,,,,,,
4,240621_161437,TrueCHOICE,9.0,5,1.0,2583.0,,,,,,,,,,,25.0,5.0,,,B,,,,,,True,cue1.png,Hard,cue2.png,Easy,Right,Easy,Easy,0.0168460999848321,,,,,,,,,,,,,22,33,Female,1.2857142857142858,1.0,1.6,1.5,2.0,1.875,2.111111111111111,2.111111111111111,2.125,2.3333333333333335,1.75,1.75,1.25,1.5,0.125,0.5,0.9758146000094712,-0.10036865495906887,,,,,,,,,,,,,,,,,,,,,,,,,,,,,,,,
5,240621_161459,TrueCHOICE,9.0,6,3.0,2583.0,,,,,,,,,,,27.0,6.0,,,B,,,,,,True,cue1.png,Hard,cue2.png,Easy,Left,Hard,Hard,0.0161092000780627,,,,,,,,,,,,,22,33,Female,1.2857142857142858,1.0,1.6,1.5,2.0,1.875,2.111111111111111,2.111111111111111,2.125,2.3333333333333335,1.75,1.75,1.25,1.5,1.0,1.0,0.563883833354339,-0.6784337192121215,,,,,,,,,,,,,1.2602916124229008e-05,1.2841541954004725,,,1.4479999999999997,-0.6714262207171361,,,,,,,,,,,,,,
6,240621_161521,TrueCHOICE,9.0,7,3.0,2583.0,,,,,,,,,,,28.0,7.0,,,B,,,,,,True,cue2.png,Easy,cue1.png,Hard,Right,Hard,Hard,0.0167641999432817,,,,,,,,,,,,,22,33,Female,1.2857142857142858,1.0,1.6,1.5,2.0,1.875,2.111111111111111,2.111111111111111,2.125,2.3333333333333335,1.75,1.75,1.25,1.5,0.875,0.6666666666666667,0.644692350004334,-0.5650346139479572,,,,,,,,,,,,,-8.246953278388987e-05,0.020430646163902264,-0.0001702135618040848,-0.479953384031402,,,,,,,,,,,,,,,,
7,240621_161549,TrueCHOICE,9.0,8,1.0,2583.0,,,,,,,,,,,29.0,8.0,,,B,,,,,,True,cue1.png,Hard,cue2.png,Easy,Right,Easy,Easy,0.0163648999296128,,,,,,,,,,,,,22,33,Female,1.2857142857142858,1.0,1.6,1.5,2.0,1.875,2.111111111111111,2.111111111111111,2.125,2.3333333333333335,1.75,1.75,1.25,1.5,0.1875,0.25,2.134626966629488,1.5258001078326777,,,,,,,,,,,,,-3.950437357280734e-05,0.5915328331309914,-0.00037189395494882215,-0.7272851970491522,1.884,0.2251796973002343,,,,,,,,,,,,,,
8,240621_161623,TrueCHOICE,9.0,9,3.0,2583.0,,,,,,,,,,,33.0,9.0,,,B,,,,,,True,cue2.png,Easy,cue1.png,Hard,Right,Hard,Hard,0.0166736999526619,,,,,,,,,,,,,22,33,Female,1.2857142857142858,1.0,1.6,1.5,2.0,1.875,2.111111111111111,2.111111111111111,2.125,2.3333333333333335,1.75,1.75,1.25,1.5,1.0,1.0,0.5364278166671284,-0.7169629220179726,,,,,,,,,,,,,,,0.002026577848854826,2.2140933398370914,,,,,,,,,,,,,,,,
9,240621_161659,TrueCHOICE,9.0,10,1.0,2583.0,,,,,,,,,,,37.0,10.0,,,B,,,,,,True,cue1.png,Hard,cue2.png,Easy,Right,Easy,Easy,0.0166405000491067,,,,,,,,,,,,,22,33,Female,1.2857142857142858,1.0,1.6,1.5,2.0,1.875,2.111111111111111,2.111111111111111,2.125,2.3333333333333335,1.75,1.75,1.25,1.5,0.125,0.5,0.617408966665001,-0.603321559278982,,,,,,,,,,,,,,,,,2.808,2.125326184107688,,,,,,,,,,,,,,
0,240621_161833,FalseCHOICE,9.0,1,2.0,2583.0,,,,,,,,,,,1.0,1.0,,,B,,,,,,False,cue2.png,Easy,cue1.png,Hard,Right,Hard,Mid,0.0162834000075235,,,,,,,,,,,,,22,33,Female,1.2857142857142858,1.0,1.6,1.5,2.0,1.875,2.111111111111111,2.111111111111111,2.125,2.3333333333333335,1.75,1.75,1.25,1.5,0.6875,0.75,1.22802696666137,1.3620485322476272,,,,,,,,,,,,,,,,,,,,,0.0007971429553718331,0.8585435100888636,1.5990000000000002,0.03499087710120888,,,,,,,,
1,240621_161858,FalseCHOICE,9.0,2,2.0,2583.0,,,,,,,,,,,3.0,2.0,,,B,,,,,,False,cue1.png,Hard,cue2.png,Easy,Left,Hard,Mid,0.0161405000835657,,,,,,,,,,,,,22,33,Female,1.2857142857142858,1.0,1.6,1.5,2.0,1.875,2.111111111111111,2.111111111111111,2.125,2.3333333333333335,1.75,1.75,1.25,1.5,1.0,1.0,0.7574290833241927,-0.06278445764750604,,,,,,,,,,,,,,,,,,,2.4531185840746383e-05,-0.03763426410456044,0.000177548776499658,0.2664499091570995,1.6019999999999999,0.039941042793751026,,,,,,,,
2,240621_161918,FalseCHOICE,9.0,3,2.0,2583.0,,,,,,,,,,,4.0,3.0,,,B,,,,,,False,cue1.png,Hard,cue2.png,Easy,Right,Easy,Mid,0.0164234000258147,,,,,,,,,,,,,22,33,Female,1.2857142857142858,1.0,1.6,1.5,2.0,1.875,2.111111111111111,2.111111111111111,2.125,2.3333333333333335,1.75,1.75,1.25,1.5,0.6875,0.75,0.9578055166639388,0.543896878433715,,,,,,,,,,,,,,,,,,,0.0001262589567075055,0.30189322686880005,9.451218310545413e-05,0.18709888026045138,1.5370000000000001,-0.0673125472113403,,,,,,,,
3,240621_161949,FalseCHOICE,9.0,4,2.0,2583.0,,,,,,,,,,,7.0,4.0,,,B,,,,,,False,cue1.png,Hard,cue2.png,Easy,Right,Easy,Mid,0.0165849000914022,,,,,,,,,,,,,22,33,Female,1.2857142857142858,1.0,1.6,1.5,2.0,1.875,2.111111111111111,2.111111111111111,2.125,2.3333333333333335,1.75,1.75,1.25,1.5,0.6875,0.5833333333333334,0.744918160000816,-0.1006638806461502,,,,,,,,,,,,,,,,,,,-5.4262884651868053e-05,-0.3006180376601186,-0.0008021848663840626,-0.669798429432752,1.455,-0.20261707614084085,,,,,,,,
4,240621_162009,FalseCHOICE,9.0,5,2.0,2583.0,,,,,,,,,,,8.0,5.0,,,B,,,,,,False,cue2.png,Easy,cue1.png,Hard,Left,Easy,Mid,0.0158170999493449,,,,,,,,,,,,,22,33,Female,1.2857142857142858,1.0,1.6,1.5,2.0,1.875,2.111111111111111,2.111111111111111,2.125,2.3333333333333335,1.75,1.75,1.25,1.5,0.6875,0.75,1.1437501999898814,1.1068830891230232,,,,,,,,,,,,,,,,,,,-4.527865816419344e-05,-0.2706322053578271,0.00027465467760162936,0.3592457820296424,2.234,1.0827759486894128,,,,,,,,
5,240621_162029,FalseCHOICE,9.0,6,2.0,2583.0,,,,,,,,,,,9.0,6.0,,,B,,,,,,False,cue1.png,Hard,cue2.png,Easy,Left,Hard,Mid,0.0168346000136807,,,,,,,,,,,,,22,33,Female,1.2857142857142858,1.0,1.6,1.5,2.0,1.875,2.111111111111111,2.111111111111111,2.125,2.3333333333333335,1.75,1.75,1.25,1.5,1.0,1.0,1.1825822666481447,1.224455249133904,,,,,,,,,,,,,,,,,,,-0.00035478969641711093,-1.3036589329779011,,,2.105,0.8699188239100769,,,,,,,,
6,240621_162048,FalseCHOICE,9.0,7,2.0,2583.0,,,,,,,,,,,10.0,7.0,,,B,,,,,,False,cue1.png,Hard,cue2.png,Easy,Right,Easy,Mid,0.0150255999760702,,,,,,,,,,,,,22,33,Female,1.2857142857142858,1.0,1.6,1.5,2.0,1.875,2.111111111111111,2.111111111111111,2.125,2.3333333333333335,1.75,1.75,1.25,1.5,1.0,0.8333333333333334,0.6477753600105643,-0.39478391615367203,,,,,,,,,,,,,,,,,,,-0.00017754403038848683,-0.7120822596678851,,,,,,,,,,,,
7,240621_162109,FalseCHOICE,9.0,8,2.0,2583.0,,,,,,,,,,,11.0,8.0,,,B,,,,,,False,cue2.png,Easy,cue1.png,Hard,Left,Easy,Mid,0.016430199961178,,,,,,,,,,,,,22,33,Female,1.2857142857142858,1.0,1.6,1.5,2.0,1.875,2.111111111111111,2.111111111111111,2.125,2.3333333333333335,1.75,1.75,1.25,1.5,0.125,0.5,1.2458010000021509,1.4158631157044246,,,,,,,,,,,,,,,,,,,0.00037216751161570343,1.1226397540508641,-0.0007564748953474481,-0.6261172873684085,,,,,,,,,,
8,240621_162126,FalseCHOICE,9.0,9,2.0,2583.0,,,,,,,,,,,12.0,9.0,,,B,,,,,,False,cue2.png,Easy,cue1.png,Hard,Right,Hard,Mid,0.0161932000191882,,,,,,,,,,,,,22,33,Female,1.2857142857142858,1.0,1.6,1.5,2.0,1.875,2.111111111111111,2.111111111111111,2.125,2.3333333333333335,1.75,1.75,1.25,1.5,1.0,1.0,0.6872441333058911,-0.2752839943455221,,,,,,,,,,,,,,,,,,,-4.72607512644772e-05,-0.27724765649256594,-0.000790556057691085,-0.6586857633549253,1.847,0.44420457435140487,,,,,,,,
9,240621_162154,FalseCHOICE,9.0,10,2.0,2583.0,,,,,,,,,,,14.0,10.0,,,B,,,,,,False,cue1.png,Hard,cue2.png,Easy,Left,Hard,Mid,0.0147002999437972,,,,,,,,,,,,,22,33,Female,1.2857142857142858,1.0,1.6,1.5,2.0,1.875,2.111111111111111,2.111111111111111,2.125,2.3333333333333335,1.75,1.75,1.25,1.5,0.125,0.1666666666666666,0.6607740750478115,-0.3554276022663747,,,,,,,,,,,,,,,,,,,-0.00018947302398758656,-0.7518965722398621,-0.0003513804805172537,-0.2390029164252327,,,,,,,,,,
10,240621_162219,FalseCHOICE,9.0,11,2.0,2583.0,,,,,,,,,,,16.0,11.0,,,B,,,,,,False,cue2.png,Easy,cue1.png,Hard,Left,Easy,Mid,0.015831800061278,,,,,,,,,,,,,22,33,Female,1.2857142857142858,1.0,1.6,1.5,2.0,1.875,2.111111111111111,2.111111111111111,2.125,2.3333333333333335,1.75,1.75,1.25,1.5,0.6875,0.75,0.9896027666594212,0.6401696675508841,,,,,,,,,,,,,,,,,,,0.0005471517246194058,1.706668582117014,0.0013007333209314811,1.339782106425434,,,,,,,,,,
11,240621_162237,FalseCHOICE,9.0,12,2.0,2583.0,,,,,,,,,,,17.0,12.0,,,B,,,,,,False,cue1.png,Hard,cue2.png,Easy,Right,Easy,Mid,0.0166517000179737,,,,,,,,,,,,,22,33,Female,1.2857142857142858,1.0,1.6,1.5,2.0,1.875,2.111111111111111,2.111111111111111,2.125,2.3333333333333335,1.75,1.75,1.25,1.5,0.6875,0.5833333333333334,0.4897811400005594,-0.8731442846420119,,,,,,,,,,,,,,,,,,,,,,,0.6890000000000001,-1.4665593829700765,,,,,,,,
12,240621_162258,FalseCHOICE,9.0,13,2.0,2583.0,,,,,,,,,,,19.0,13.0,,,B,,,,,,False,cue2.png,Easy,cue1.png,Hard,Right,Hard,Mid,0.0167035999475047,,,,,,,,,,,,,22,33,Female,1.2857142857142858,1.0,1.6,1.5,2.0,1.875,2.111111111111111,2.111111111111111,2.125,2.3333333333333335,1.75,1.75,1.25,1.5,0.6875,0.75,0.5495764666702598,-0.6921014939767126,,,,,,,,,,,,,,,,,,,,,0.002744987602569732,2.719933417454339,,,,,,,,,,
13,240621_162317,FalseCHOICE,9.0,14,2.0,2583.0,,,,,,,,,,,20.0,14.0,,,B,,,,,,False,cue1.png,Hard,cue2.png,Easy,Left,Hard,Mid,0.0163450000109151,,,,,,,,,,,,,22,33,Female,1.2857142857142858,1.0,1.6,1.5,2.0,1.875,2.111111111111111,2.111111111111111,2.125,2.3333333333333335,1.75,1.75,1.25,1.5,1.0,0.8333333333333334,0.6734866400016472,-0.3169376672841729,,,,,,,,,,,,,,,,,,,0.0006085110059445478,1.9114618520250009,-0.0013039260270000415,-1.149269897459707,,,,,,,,,,
14,240621_162336,FalseCHOICE,9.0,15,2.0,2583.0,,,,,,,,,,,21.0,15.0,,,B,,,,,,False,cue2.png,Easy,cue1.png,Hard,Left,Easy,Mid,0.016568100079894,,,,,,,,,,,,,22,33,Female,1.2857142857142858,1.0,1.6,1.5,2.0,1.875,2.111111111111111,2.111111111111111,2.125,2.3333333333333335,1.75,1.75,1.25,1.5,0.6875,0.5833333333333334,0.5314381599891931,-0.7470189907507095,,,,,,,,,,,,,,,,,,,0.0003037973335792681,0.8944468544294082,-0.0004477249519143668,-0.3310711555155691,,,,,,,,,,
15,240621_162353,FalseCHOICE,9.0,16,2.0,2583.0,,,,,,,,,,,22.0,16.0,,,B,,,,,,False,cue2.png,Easy,cue1.png,Hard,Right,Hard,Mid,0.0142499000066891,,,,,,,,,,,,,22,33,Female,1.2857142857142858,1.0,1.6,1.5,2.0,1.875,2.111111111111111,2.111111111111111,2.125,2.3333333333333335,1.75,1.75,1.25,1.5,0.6875,0.75,0.6208506500115618,-0.47630407680099784,,,,,,,,,,,,,,,,,,,-0.0001236717155992757,-0.5322775542520428,-0.0022191627316883906,-2.02388398303788,,,,,,,,,,
16,240621_162417,FalseCHOICE,9.0,17,2.0,2583.0,,,,,,,,,,,24.0,17.0,,,B,,,,,,False,cue1.png,Hard,cue2.png,Easy,Left,Hard,Mid,0.0163628000300377,,,,,,,,,,,,,22,33,Female,1.2857142857142858,1.0,1.6,1.5,2.0,1.875,2.111111111111111,2.111111111111111,2.125,2.3333333333333335,1.75,1.75,1.25,1.5,0.6875,0.75,0.6733370833098888,-0.31739048128062713,,,,,,,,,,,,,,,,,,,0.001065291492944681,3.4360163699833066,0.0012269331690940499,1.2692575612622194,,,,,,,,,,
17,240621_162438,FalseCHOICE,9.0,18,2.0,2583.0,,,,,,,,,,,26.0,18.0,,,B,,,,,,False,cue1.png,Hard,cue2.png,Easy,Right,Easy,Mid,0.0166620999807491,,,,,,,,,,,,,22,33,Female,1.2857142857142858,1.0,1.6,1.5,2.0,1.875,2.111111111111111,2.111111111111111,2.125,2.3333333333333335,1.75,1.75,1.25,1.5,0.6875,0.75,0.4931940500391647,-0.8628109895152571,,,,,,,,,,,,,,,,,,,-0.00042294639196078024,-1.5311393115786172,-0.000638029641168273,-0.5129292048272165,,,,,,,,,,
18,240621_162458,FalseCHOICE,9.0,19,2.0,2583.0,,,,,,,,,,,27.0,19.0,,,B,,,,,,False,cue2.png,Easy,cue1.png,Hard,Left,Easy,Mid,0.0142714999383315,,,,,,,,,,,,,22,33,Female,1.2857142857142858,1.0,1.6,1.5,2.0,1.875,2.111111111111111,2.111111111111111,2.125,2.3333333333333335,1.75,1.75,1.25,1.5,0.125,0.3333333333333333,0.5454006199957803,-0.7047447384816594,,,,,,,,,,,,,,,,,,,0.00015422563021033403,0.39523503908371116,0.002193346396636496,2.192776708787561,2.259,1.124027329460602,,,,,,,,
19,240621_162515,FalseCHOICE,9.0,20,2.0,2583.0,,,,,,,,,,,28.0,20.0,,,B,,,,,,False,cue2.png,Easy,cue1.png,Hard,Left,Easy,Mid,0.016726900008507,,,,,,,,,,,,,22,33,Female,1.2857142857142858,1.0,1.6,1.5,2.0,1.875,2.111111111111111,2.111111111111111,2.125,2.3333333333333335,1.75,1.75,1.25,1.5,0.125,0.3333333333333333,0.3130863000173122,-1.4081246703739831,,,,,,,,,,,,,,,,,,,-0.00012748406927185364,-0.5450016989582985,0.00016953055819027459,0.258787578047886,2.314,1.2147803671572184,,,,,,,,
20,240621_162540,FalseCHOICE,9.0,21,2.0,2583.0,,,,,,,,,,,30.0,21.0,,,B,,,,,,False,cue2.png,Easy,cue1.png,Hard,Right,Hard,Mid,0.0173424999229609,,,,,,,,,,,,,22,33,Female,1.2857142857142858,1.0,1.6,1.5,2.0,1.875,2.111111111111111,2.111111111111111,2.125,2.3333333333333335,1.75,1.75,1.25,1.5,0.125,0.3333333333333333,0.4624596600187942,-0.9558657489518858,,,,,,,,,,,,,,,,,,,-0.00054297656602552,-1.931753062318078,-0.00027506847603757725,-0.1660780067546172,1.836,0.4260539668120818,,,,,,,,
21,240621_162557,FalseCHOICE,9.0,22,2.0,2583.0,,,,,,,,,,,31.0,22.0,,,B,,,,,,False,cue1.png,Hard,cue2.png,Easy,Left,Hard,Mid,0.015056199976243,,,,,,,,,,,,,22,33,Female,1.2857142857142858,1.0,1.6,1.5,2.0,1.875,2.111111111111111,2.111111111111111,2.125,2.3333333333333335,1.75,1.75,1.25,1.5,0.6875,0.75,0.7447560000194547,-0.10115485372372938,,,,,,,,,,,,,,,,,,,0.0004054152987004538,1.233607856793303,1.1047524426629e-06,0.09783732187139814,2.739,1.9160538402674336,,,,,,,,
22,240621_162615,FalseCHOICE,9.0,23,2.0,2583.0,,,,,,,,,,,32.0,23.0,,,B,,,,,,False,cue2.png,Easy,cue1.png,Hard,Left,Easy,Mid,0.0138740999391302,,,,,,,,,,,,,22,33,Female,1.2857142857142858,1.0,1.6,1.5,2.0,1.875,2.111111111111111,2.111111111111111,2.125,2.3333333333333335,1.75,1.75,1.25,1.5,1.0,1.0,0.7822974166483618,0.012509594830408059,,,,,,,,,,,,,,,,,,,0.00047654687299051625,1.4710172165179227,,,2.0229999999999997,0.7346142949805761,,,,,,,,
23,240621_162634,FalseCHOICE,9.0,24,2.0,2583.0,,,,,,,,,,,33.0,24.0,,,B,,,,,,False,cue1.png,Hard,cue2.png,Easy,Left,Hard,Mid,0.0167442000238224,,,,,,,,,,,,,22,33,Female,1.2857142857142858,1.0,1.6,1.5,2.0,1.875,2.111111111111111,2.111111111111111,2.125,2.3333333333333335,1.75,1.75,1.25,1.5,1.0,0.8333333333333334,0.4310508399503305,-1.0509624856602466,,,,,,,,,,,,,,,,,,,,,,,,,,,,,,,,
24,240621_162651,FalseCHOICE,9.0,25,2.0,2583.0,,,,,,,,,,,34.0,25.0,,,B,,,,,,False,cue1.png,Hard,cue2.png,Easy,Right,Easy,Mid,0.0167910999152809,,,,,,,,,,,,,22,33,Female,1.2857142857142858,1.0,1.6,1.5,2.0,1.875,2.111111111111111,2.111111111111111,2.125,2.3333333333333335,1.75,1.75,1.25,1.5,0.125,0.5,0.6991797833664654,-0.23914633082363732,,,,,,,,,,,,,,,,,,,-0.00019262030938159034,-0.7624009792872044,-0.0001989557191476735,-0.09334350110477584,1.68,0.1686453507998613,,,,,,,,
25,240621_162713,FalseCHOICE,9.0,26,2.0,2583.0,,,,,,,,,,,35.0,26.0,,,B,,,,,,False,cue2.png,Easy,cue1.png,Hard,Left,Easy,Mid,0.0169060999760404,,,,,,,,,,,,,22,33,Female,1.2857142857142858,1.0,1.6,1.5,2.0,1.875,2.111111111111111,2.111111111111111,2.125,2.3333333333333335,1.75,1.75,1.25,1.5,0.125,0.3333333333333333,0.8691131200175732,0.27536219698028763,,,,,,,,,,,,,,,,,,,0.0001678309514013543,0.44064427717587545,0.0011534069360929471,1.1989947770962754,1.19,-0.639881712315446,,,,,,,,
26,240621_162732,FalseCHOICE,9.0,27,2.0,2583.0,,,,,,,,,,,36.0,27.0,,,B,,,,,,False,cue2.png,Easy,cue1.png,Hard,Right,Hard,Mid,0.0166605999693274,,,,,,,,,,,,,22,33,Female,1.2857142857142858,1.0,1.6,1.5,2.0,1.875,2.111111111111111,2.111111111111111,2.125,2.3333333333333335,1.75,1.75,1.25,1.5,0.125,0.3333333333333333,0.4754430799977854,-0.9165557440352767,,,,,,,,,,,,,,,,,,,0.00013036100251183824,0.31558425054833295,0.0002493467546201035,0.33506114672930526,1.4400000000000002,-0.22736790460355416,,,,,,,,
27,240621_162756,FalseCHOICE,9.0,28,2.0,2583.0,,,,,,,,,,,38.0,28.0,,,B,,,,,,False,cue1.png,Hard,cue2.png,Easy,Left,Hard,Mid,0.017215900006704,,,,,,,,,,,,,22,33,Female,1.2857142857142858,1.0,1.6,1.5,2.0,1.875,2.111111111111111,2.111111111111111,2.125,2.3333333333333335,1.75,1.75,1.25,1.5,0.6875,0.5833333333333334,0.5802828599931672,-0.5991315003657837,,,,,,,,,,,,,,,,,,,5.264782840656845e-05,0.05620808615662826,0.00011585822958838036,0.20749748624919495,1.06,-0.8543888923256294,,,,,,,,
28,240621_162817,FalseCHOICE,9.0,29,2.0,2583.0,,,,,,,,,,,39.0,29.0,,,B,,,,,,False,cue2.png,Easy,cue1.png,Hard,Left,Easy,Mid,0.01626830000896,,,,,,,,,,,,,22,33,Female,1.2857142857142858,1.0,1.6,1.5,2.0,1.875,2.111111111111111,2.111111111111111,2.125,2.3333333333333335,1.75,1.75,1.25,1.5,0.125,0.1666666666666666,0.5403762999630999,-0.7199569125857763,,,,,,,,,,,,,,,,,,,-9.008985839363982e-05,-0.4201944561746332,4.824031254919026e-05,0.1428807784871632,0.929,-1.0705461275666606,,,,,,,,
29,240621_162837,FalseCHOICE,9.0,30,2.0,2583.0,,,,,,,,,,,40.0,30.0,,,B,,,,,,False,cue2.png,Easy,cue1.png,Hard,Right,Hard,Mid,0.0160935000749304,,,,,,,,,,,,,22,33,Female,1.2857142857142858,1.0,1.6,1.5,2.0,1.875,2.111111111111111,2.111111111111111,2.125,2.3333333333333335,1.75,1.75,1.25,1.5,0.125,0.3333333333333333,0.7301347400061786,-0.1454237600626555,,,,,,,,,,,,,,,,,,,-0.00017054340505975093,-0.6887169118099882,-0.0011199090152265966,-0.9734204481766793,,,,,,,,,,
30,240621_162856,FalseCHOICE,9.0,31,2.0,2583.0,,,,,,,,,,,41.0,31.0,,,B,,,,,,False,cue1.png,Hard,cue2.png,Easy,Right,Easy,Mid,0.0176795000443235,,,,,,,,,,,,,22,33,Female,1.2857142857142858,1.0,1.6,1.5,2.0,1.875,2.111111111111111,2.111111111111111,2.125,2.3333333333333335,1.75,1.75,1.25,1.5,0.125,0.5,1.0240788999944923,0.7445533332645629,,,,,,,,,,,,,,,,,,,,,4.4172804833981887e-05,0.13899380638180986,1.377,-0.3313213841469511,,,,,,,,
31,240621_162913,FalseCHOICE,9.0,32,2.0,2583.0,,,,,,,,,,,42.0,32.0,,,B,,,,,,False,cue2.png,Easy,cue1.png,Hard,Right,Hard,Mid,0.0166574000613763,,,,,,,,,,,,,22,33,Female,1.2857142857142858,1.0,1.6,1.5,2.0,1.875,2.111111111111111,2.111111111111111,2.125,2.3333333333333335,1.75,1.75,1.25,1.5,0.125,0.5,0.4654723499940398,-0.9467442033244043,,,,,,,,,,,,,,,,,,,-9.257021656245649e-05,-0.4284729211267123,0.0016216041112449972,1.6464111035157143,1.7650000000000001,0.3089000454219047,,,,,,,,
32,240621_162937,FalseCHOICE,9.0,33,2.0,2583.0,,,,,,,,,,,44.0,33.0,,,B,,,,,,False,cue1.png,Hard,cue2.png,Easy,Left,Hard,Mid,0.0149065000005066,,,,,,,,,,,,,22,33,Female,1.2857142857142858,1.0,1.6,1.5,2.0,1.875,2.111111111111111,2.111111111111111,2.125,2.3333333333333335,1.75,1.75,1.25,1.5,0.6875,0.75,0.582368200023969,-0.5928176996109542,,,,,,,,,,,,,,,,,,,,,-0.0018511583838159108,-1.672213442996679,1.05,-0.8708894446341051,,,,,,,,
33,240621_163000,FalseCHOICE,9.0,34,2.0,2583.0,,,,,,,,,,,45.0,34.0,,,B,,,,,,False,cue1.png,Hard,cue2.png,Easy,Left,Hard,Mid,0.0169699999969452,,,,,,,,,,,,,22,33,Female,1.2857142857142858,1.0,1.6,1.5,2.0,1.875,2.111111111111111,2.111111111111111,2.125,2.3333333333333335,1.75,1.75,1.25,1.5,0.125,0.5,1.6063971333787777,2.507642924020137,,,,,,,,,,,,,,,,,,,1.1490692916209938e-05,-0.08115832647217984,0.0005900379058603271,0.660630781535426,-0.0040000000000000036,-2.61004765794744,,,,,,,,
34,240621_163025,FalseCHOICE,9.0,35,2.0,2583.0,,,,,,,,,,,46.0,35.0,,,B,,,,,,False,cue1.png,Hard,cue2.png,Easy,Left,Hard,Mid,0.0160951999714598,,,,,,,,,,,,,22,33,Female,1.2857142857142858,1.0,1.6,1.5,2.0,1.875,2.111111111111111,2.111111111111111,2.125,2.3333333333333335,1.75,1.75,1.25,1.5,0.125,0.1666666666666666,1.351042950002011,1.734505012725572,,,,,,,,,,,,,,,,,,,0.00016671258704468008,0.43691161459239103,,,,,,,,,,,,
35,240621_163043,FalseCHOICE,9.0,36,2.0,2583.0,,,,,,,,,,,47.0,36.0,,,B,,,,,,False,cue2.png,Easy,cue1.png,Hard,Left,Easy,Mid,0.0163552000885829,,,,,,,,,,,,,22,33,Female,1.2857142857142858,1.0,1.6,1.5,2.0,1.875,2.111111111111111,2.111111111111111,2.125,2.3333333333333335,1.75,1.75,1.25,1.5,1.0,1.0,0.7829204333441643,0.014395907482602386,,,,,,,,,,,,,,,,,,,-3.64051283884264e-05,-0.2410158353619712,-0.0005293592326515448,-0.4090821131542173,1.5419999999999998,-0.059062271057103016,,,,,,,,
36,240621_163103,FalseCHOICE,9.0,37,2.0,2583.0,,,,,,,,,,,48.0,37.0,,,B,,,,,,False,cue1.png,Hard,cue2.png,Easy,Left,Hard,Mid,0.0160009000683203,,,,,,,,,,,,,22,33,Female,1.2857142857142858,1.0,1.6,1.5,2.0,1.875,2.111111111111111,2.111111111111111,2.125,2.3333333333333335,1.75,1.75,1.25,1.5,0.875,0.8333333333333334,0.9942030200269072,0.6540978916078843,,,,,,,,,,,,,,,,,,,7.870868711306461e-05,0.14318903436611294,-0.0001866859387781826,-0.08161831276482452,0.41999999999999993,-1.9104242400680718,,,,,,,,
37,240621_163120,FalseCHOICE,9.0,38,2.0,2583.0,,,,,,,,,,,49.0,38.0,,,B,,,,,,False,cue2.png,Easy,cue1.png,Hard,Left,Easy,Mid,0.0161116999806836,,,,,,,,,,,,,22,33,Female,1.2857142857142858,1.0,1.6,1.5,2.0,1.875,2.111111111111111,2.111111111111111,2.125,2.3333333333333335,1.75,1.75,1.25,1.5,1.0,1.0,0.6703088500071317,-0.3265590875656155,,,,,,,,,,,,,,,,,,,,,-1.4656227486797239e-05,0.08277589024588808,1.7939999999999998,0.3567516471164836,,,,,,,,
38,240621_163143,FalseCHOICE,9.0,39,2.0,2583.0,,,,,,,,,,,51.0,39.0,,,B,,,,,,False,cue2.png,Easy,cue1.png,Hard,Left,Easy,Mid,0.0168397999368608,,,,,,,,,,,,,22,33,Female,1.2857142857142858,1.0,1.6,1.5,2.0,1.875,2.111111111111111,2.111111111111111,2.125,2.3333333333333335,1.75,1.75,1.25,1.5,0.125,0.5,0.9106645166951542,0.4011676943246471,,,,,,,,,,,,,,,,,,,,,-0.0001971052756696125,-0.09157518923289838,,,,,,,,,,
39,240621_163204,FalseCHOICE,9.0,40,2.0,2583.0,,,,,,,,,,,52.0,40.0,,,B,,,,,,False,cue1.png,Hard,cue2.png,Easy,Left,Hard,Mid,0.0161377000622451,,,,,,,,,,,,,22,33,Female,1.2857142857142858,1.0,1.6,1.5,2.0,1.875,2.111111111111111,2.111111111111111,2.125,2.3333333333333335,1.75,1.75,1.25,1.5,0.125,0.5,1.1006217000152294,0.9763025834632756,,,,,,,,,,,,,,,,,,,-0.0005447652571837708,-1.9377230134524892,-0.0007120657061116978,-0.5836791921349797,2.415,1.3814359454728224,,,,,,,,
40,240621_163231,FalseCHOICE,9.0,41,2.0,2583.0,,,,,,,,,,,54.0,41.0,,,B,,,,,,False,cue1.png,Hard,cue2.png,Easy,Left,Hard,Mid,0.0164024999830871,,,,,,,,,,,,,22,33,Female,1.2857142857142858,1.0,1.6,1.5,2.0,1.875,2.111111111111111,2.111111111111111,2.125,2.3333333333333335,1.75,1.75,1.25,1.5,1.0,0.8333333333333334,0.948197599989362,0.5148069119744056,,,,,,,,,,,,,,,,,,,3.066167810622522e-05,-0.017173079910758643,-4.176469504016053e-05,0.0568706272257781,0.7889999999999999,-1.30155385988532,,,,,,,,
41,240621_163251,FalseCHOICE,9.0,42,2.0,2583.0,,,,,,,,,,,55.0,42.0,,,B,,,,,,False,cue2.png,Easy,cue1.png,Hard,Left,Easy,Mid,0.016664299997501,,,,,,,,,,,,,22,33,Female,1.2857142857142858,1.0,1.6,1.5,2.0,1.875,2.111111111111111,2.111111111111111,2.125,2.3333333333333335,1.75,1.75,1.25,1.5,0.125,0.3333333333333333,0.911005999939516,0.40220160588543175,,,,,,,,,,,,,,,,,,,1.291408580308311e-05,-0.07640759801886135,0.0001876945416899251,0.2761453563555353,,,,,,,,,,
42,240621_163313,FalseCHOICE,9.0,43,2.0,2583.0,,,,,,,,,,,57.0,43.0,,,B,,,,,,False,cue1.png,Hard,cue2.png,Easy,Left,Hard,Mid,0.0167984999716281,,,,,,,,,,,,,22,33,Female,1.2857142857142858,1.0,1.6,1.5,2.0,1.875,2.111111111111111,2.111111111111111,2.125,2.3333333333333335,1.75,1.75,1.25,1.5,0.6875,0.75,0.6363268000422977,-0.42944681309214294,,,,,,,,,,,,,,,,,,,-1.9895772100542598e-05,-0.1859140645254484,-0.0011766984443133846,-1.0276892885070728,2.079,0.8270173879080405,,,,,,,,
43,240621_163328,FalseCHOICE,9.0,44,2.0,2583.0,,,,,,,,,,,58.0,44.0,,,B,,,,,,False,cue2.png,Easy,cue1.png,Hard,Left,Easy,Mid,0.0160385000053793,,,,,,,,,,,,,22,33,Female,1.2857142857142858,1.0,1.6,1.5,2.0,1.875,2.111111111111111,2.111111111111111,2.125,2.3333333333333335,1.75,1.75,1.25,1.5,0.6875,0.75,0.405489116635484,-1.1283559205802876,,,,,,,,,,,,,,,,,,,3.258746885231216e-05,-0.010745544002053574,-0.00012249050905290514,-0.020272185823171786,1.2530000000000001,-0.535928232772049,,,,,,,,
44,240621_163342,FalseCHOICE,9.0,45,2.0,2583.0,,,,,,,,,,,59.0,45.0,,,B,,,,,,False,cue1.png,Hard,cue2.png,Easy,Left,Hard,Mid,0.0157027000095695,,,,,,,,,,,,,22,33,Female,1.2857142857142858,1.0,1.6,1.5,2.0,1.875,2.111111111111111,2.111111111111111,2.125,2.3333333333333335,1.75,1.75,1.25,1.5,0.6875,0.75,0.396363633335568,-1.1559852196375922,,,,,,,,,,,,,,,,,,,-1.8997090264062048e-05,-0.18291461622805846,,,1.9649999999999999,0.6389110915914175,,,,,,,,
45,240621_163405,FalseCHOICE,9.0,46,2.0,2583.0,,,,,,,,,,,60.0,46.0,,,B,,,,,,False,cue1.png,Hard,cue2.png,Easy,Left,Hard,Mid,0.0166997999185696,,,,,,,,,,,,,22,33,Female,1.2857142857142858,1.0,1.6,1.5,2.0,1.875,2.111111111111111,2.111111111111111,2.125,2.3333333333333335,1.75,1.75,1.25,1.5,0.6875,0.75,1.4050309999923531,1.897965065161108,,,,,,,,,,,,,,,,,,,,,,,0.8799999999999999,-1.1513988338781915,,,,,,,,
46,240621_163427,FalseCHOICE,9.0,47,2.0,2583.0,,,,,,,,,,,61.0,47.0,,,B,,,,,,False,cue2.png,Easy,cue1.png,Hard,Left,Easy,Mid,0.0110696000047028,,,,,,,,,,,,,22,33,Female,1.2857142857142858,1.0,1.6,1.5,2.0,1.875,2.111111111111111,2.111111111111111,2.125,2.3333333333333335,1.75,1.75,1.25,1.5,0.125,0.5,1.804214483340426,3.10657610281015,,,,,,,,,,,,,,,,,,,-1.5671505486610122e-05,-0.17181511561100118,0.0001569396164530822,0.24675548303068234,1.847,0.44420457435140487,,,,,,,,
47,240621_163446,FalseCHOICE,9.0,48,2.0,2583.0,,,,,,,,,,,62.0,48.0,,,B,,,,,,False,cue2.png,Easy,cue1.png,Hard,Left,Easy,Mid,0.0158220999874174,,,,,,,,,,,,,22,33,Female,1.2857142857142858,1.0,1.6,1.5,2.0,1.875,2.111111111111111,2.111111111111111,2.125,2.3333333333333335,1.75,1.75,1.25,1.5,0.125,0.5,0.7943126333217757,0.04888816282484191,,,,,,,,,,,,,,,,,,,,,,,1.481,-0.15971564013880407,,,,,,,,
48,240621_163459,FalseCHOICE,9.0,49,2.0,2583.0,,,,,,,,,,,63.0,49.0,,,B,,,,,,False,cue1.png,Hard,cue2.png,Easy,Left,Hard,Mid,0.0162797999801114,,,,,,,,,,,,,22,33,Female,1.2857142857142858,1.0,1.6,1.5,2.0,1.875,2.111111111111111,2.111111111111111,2.125,2.3333333333333335,1.75,1.75,1.25,1.5,1.0,1.0,0.2442666666853862,-1.616490426778286,,,,,,,,,,,,,,,,,,,-5.244689847719178e-05,-0.2945569864419834,-0.0027666237208583185,-2.547046013122351,,,,,,,,,,
49,240621_163514,FalseCHOICE,9.0,50,2.0,2583.0,,,,,,,,,,,64.0,50.0,,,B,,,,,,False,cue2.png,Easy,cue1.png,Hard,Left,Easy,Mid,0.0159933000104501,,,,,,,,,,,,,22,33,Female,1.2857142857142858,1.0,1.6,1.5,2.0,1.875,2.111111111111111,2.111111111111111,2.125,2.3333333333333335,1.75,1.75,1.25,1.5,0.6875,0.75,0.4240451832883991,-1.0721735685852554,,,,,,,,,,,,,,,,,,,-1.583865961406238e-05,-0.17237301067757096,-0.0007981615435220506,-0.6659536810437082,2.454,1.4457880994758778,,,,,,,,
0,240621_154252,OFFLINERATING,9.0,1,1.0,,,,,,,,,,,,,,,,,T0,cue2.png,Easy,0.0,1.7689113999949768,,,,,,,,,,,,,,,,,,,,,,22,33,Female,1.2857142857142858,1.0,1.6,1.5,2.0,1.875,2.111111111111111,2.111111111111111,2.125,2.3333333333333335,1.75,1.75,1.25,1.5,,,,,,,,,,,,,,,,,,,,,,,,,,,,,-0.42159521233341773,,,8.402602218303065e-05,1.0,,,
1,240621_154259,OFFLINERATING,9.0,2,3.0,,,,,,,,,,,,,,,,,T0,cue1.png,Hard,100.0,1.0016078000189736,,,,,,,,,,,,,,,,,,,,,,22,33,Female,1.2857142857142858,1.0,1.6,1.5,2.0,1.875,2.111111111111111,2.111111111111111,2.125,2.3333333333333335,1.75,1.75,1.25,1.5,,,,,,,,,,,,,,,,,,,,,,,,,,,,,2.644551786455075,,,,,,,
2,240621_161022,OFFLINERATING,9.0,3,1.0,,,,,,,,,,,,,,,,,T1,cue2.png,Easy,2.0,1.6853084999602288,,,,,,,,,,,,,,,,,,,,,,22,33,Female,1.2857142857142858,1.0,1.6,1.5,2.0,1.875,2.111111111111111,2.111111111111111,2.125,2.3333333333333335,1.75,1.75,1.25,1.5,,,,,,,,,,,,,,,,,,,,,,,,,,,,,-0.3602722723576479,,,,,-0.11966666666666667,-1.0,
3,240621_161030,OFFLINERATING,9.0,4,3.0,,,,,,,,,,,,,,,,,T1,cue1.png,Hard,0.0,1.151863700011745,,,,,,,,,,,,,,,,,,,,,,22,33,Female,1.2857142857142858,1.0,1.6,1.5,2.0,1.875,2.111111111111111,2.111111111111111,2.125,2.3333333333333335,1.75,1.75,1.25,1.5,,,,,,,,,,,,,,,,,,,,,,,,,,,,,-0.42159521233341773,,,,,-0.023733333333333335,0.9999999999999999,
4,240621_161722,OFFLINERATING,9.0,5,1.0,,,,,,,,,,,,,,,,,T2,cue2.png,Easy,3.0,1.0349588999524713,,,,,,,,,,,,,,,,,,,,,,22,33,Female,1.2857142857142858,1.0,1.6,1.5,2.0,1.875,2.111111111111111,2.111111111111111,2.125,2.3333333333333335,1.75,1.75,1.25,1.5,,,,,,,,,,,,,,,,,,,,,,,,,,,,,-0.329610802369763,0.00014663375178765098,,,,,,
5,240621_161729,OFFLINERATING,9.0,6,3.0,,,,,,,,,,,,,,,,,T2,cue1.png,Hard,2.0,0.8850274999858811,,,,,,,,,,,,,,,,,,,,,,22,33,Female,1.2857142857142858,1.0,1.6,1.5,2.0,1.875,2.111111111111111,2.111111111111111,2.125,2.3333333333333335,1.75,1.75,1.25,1.5,,,,,,,,,,,,,,,,,,,,,,,,,,,,,-0.3602722723576479,,,-0.000277945128138923,-1.0,,,
6,240621_163544,OFFLINERATING,9.0,7,1.0,,,,,,,,,,,,,,,,,T3,cue2.png,Easy,1.0,1.45315020007547,,,,,,,,,,,,,,,,,,,,,,22,33,Female,1.2857142857142858,1.0,1.6,1.5,2.0,1.875,2.111111111111111,2.111111111111111,2.125,2.3333333333333335,1.75,1.75,1.25,1.5,,,,,,,,,,,,,,,,,,,,,,,,,,,,,-0.39093374234553285,,,,,,,
7,240621_163551,OFFLINERATING,9.0,8,3.0,,,,,,,,,,,,,,,,,T3,cue1.png,Hard,2.0,0.7258167000254616,,,,,,,,,,,,,,,,,,,,,,22,33,Female,1.2857142857142858,1.0,1.6,1.5,2.0,1.875,2.111111111111111,2.111111111111111,2.125,2.3333333333333335,1.75,1.75,1.25,1.5,,,,,,,,,,,,,,,,,,,,,,,,,,,,,-0.3602722723576479,,,,,,,
0,240621_161756,LEARNINGCHECK,9.0,1,,,,,,,,,,,,1.0,1.0,1.0,,,B,,,,,,,,,,,,,,,cue2.png,Easy,Left,Left,Easy,0.0136243000160902,1.0,,,,,,22,33,Female,1.2857142857142858,1.0,1.6,1.5,2.0,1.875,2.111111111111111,2.111111111111111,2.125,2.3333333333333335,1.75,1.75,1.25,1.5,,,,,,,,,,,,,,,,,,,,,,,,,,,,,,,,,,,,
1,240621_161801,LEARNINGCHECK,9.0,2,,,,,,,,,,,,2.0,2.0,2.0,,,B,,,,,,,,,,,,,,,cue1.png,Hard,Right,Right,Hard,0.0146949000190943,1.0,,,,,,22,33,Female,1.2857142857142858,1.0,1.6,1.5,2.0,1.875,2.111111111111111,2.111111111111111,2.125,2.3333333333333335,1.75,1.75,1.25,1.5,,,,,,,,,,,,,,,,,,,,,,,,,,,,,,,,,,,,
2,240621_163607,LEARNINGCHECK,9.0,1,,,,,,,,,,,,1.0,1.0,1.0,,,B,,,,,,,,,,,,,,,cue2.png,Easy,Middle,Middle,Mid,0.0136601999402046,1.0,,,,,,22,33,Female,1.2857142857142858,1.0,1.6,1.5,2.0,1.875,2.111111111111111,2.111111111111111,2.125,2.3333333333333335,1.75,1.75,1.25,1.5,,,,,,,,,,,,,,,,,,,,,,,,,,,,,,,,,,,,
3,240621_163616,LEARNINGCHECK,9.0,2,,,,,,,,,,,,2.0,2.0,2.0,,,B,,,,,,,,,,,,,,,cue1.png,Hard,Middle,Right,Hard,0.0136937999632209,0.0,,,,,,22,33,Female,1.2857142857142858,1.0,1.6,1.5,2.0,1.875,2.111111111111111,2.111111111111111,2.125,2.3333333333333335,1.75,1.75,1.25,1.5,,,,,,,,,,,,,,,,,,,,,,,,,,,,,,,,,,,,
0,240621_163627,DEMANDRATING,9.0,-1,,,,,,,,,,,,,,,,,,,,,,,,,,,,,,,,,,,,,,,1.0,MentalDemand,1.0,2.0,1.1663258000044152,22,33,Female,1.2857142857142858,1.0,1.6,1.5,2.0,1.875,2.111111111111111,2.111111111111111,2.125,2.3333333333333335,1.75,1.75,1.25,1.5,,,,,,,,,,,,,,,,,,,,,,,,,,,,,,,,,,,,-1.9270006175446805
1,240621_163630,DEMANDRATING,9.0,-1,,,,,,,,,,,,,,,,,,,,,,,,,,,,,,,,,,,,,,,2.0,Effort,1.0,49.0,1.3969124999130145,22,33,Female,1.2857142857142858,1.0,1.6,1.5,2.0,1.875,2.111111111111111,2.111111111111111,2.125,2.3333333333333335,1.75,1.75,1.25,1.5,,,,,,,,,,,,,,,,,,,,,,,,,,,,,,,,,,,,0.3626658465603752
2,240621_163632,DEMANDRATING,9.0,-1,,,,,,,,,,,,,,,,,,,,,,,,,,,,,,,,,,,,,,,3.0,Frustration,1.0,37.0,0.9136025999905542,22,33,Female,1.2857142857142858,1.0,1.6,1.5,2.0,1.875,2.111111111111111,2.111111111111111,2.125,2.3333333333333335,1.75,1.75,1.25,1.5,,,,,,,,,,,,,,,,,,,,,,,,,,,,,,,,,,,,-0.22192984640261776
3,240621_163634,DEMANDRATING,9.0,-1,,,,,,,,,,,,,,,,,,,,,,,,,,,,,,,,,,,,,,,4.0,MentalDemand,2.0,61.0,0.6455227999249473,22,33,Female,1.2857142857142858,1.0,1.6,1.5,2.0,1.875,2.111111111111111,2.111111111111111,2.125,2.3333333333333335,1.75,1.75,1.25,1.5,,,,,,,,,,,,,,,,,,,,,,,,,,,,,,,,,,,,0.9472615395233681
4,240621_163637,DEMANDRATING,9.0,-1,,,,,,,,,,,,,,,,,,,,,,,,,,,,,,,,,,,,,,,5.0,Effort,2.0,31.0,1.3935479000210762,22,33,Female,1.2857142857142858,1.0,1.6,1.5,2.0,1.875,2.111111111111111,2.111111111111111,2.125,2.3333333333333335,1.75,1.75,1.25,1.5,,,,,,,,,,,,,,,,,,,,,,,,,,,,,,,,,,,,-0.5142276928841143
5,240621_163639,DEMANDRATING,9.0,-1,,,,,,,,,,,,,,,,,,,,,,,,,,,,,,,,,,,,,,,6.0,Frustration,2.0,71.0,0.5533049999503419,22,33,Female,1.2857142857142858,1.0,1.6,1.5,2.0,1.875,2.111111111111111,2.111111111111111,2.125,2.3333333333333335,1.75,1.75,1.25,1.5,,,,,,,,,,,,,,,,,,,,,,,,,,,,,,,,,,,,1.434424616992529
6,240621_163641,DEMANDRATING,9.0,-1,,,,,,,,,,,,,,,,,,,,,,,,,,,,,,,,,,,,,,,7.0,MentalDemand,3.0,30.0,0.5797246999572963,22,33,Female,1.2857142857142858,1.0,1.6,1.5,2.0,1.875,2.111111111111111,2.111111111111111,2.125,2.3333333333333335,1.75,1.75,1.25,1.5,,,,,,,,,,,,,,,,,,,,,,,,,,,,,,,,,,,,-0.5629440006310303
7,240621_163643,DEMANDRATING,9.0,-1,,,,,,,,,,,,,,,,,,,,,,,,,,,,,,,,,,,,,,,8.0,Effort,3.0,64.0,0.461401000036858,22,33,Female,1.2857142857142858,1.0,1.6,1.5,2.0,1.875,2.111111111111111,2.111111111111111,2.125,2.3333333333333335,1.75,1.75,1.25,1.5,,,,,,,,,,,,,,,,,,,,,,,,,,,,,,,,,,,,1.0934104627641164
8,240621_163645,DEMANDRATING,9.0,-1,,,,,,,,,,,,,,,,,,,,,,,,,,,,,,,,,,,,,,,9.0,Frustration,3.0,29.0,0.4513333999784663,22,33,Female,1.2857142857142858,1.0,1.6,1.5,2.0,1.875,2.111111111111111,2.111111111111111,2.125,2.3333333333333335,1.75,1.75,1.25,1.5,,,,,,,,,,,,,,,,,,,,,,,,,,,,,,,,,,,,-0.6116603083779464
