,END,Phase,Block,TrialN,NbackLevel,ISI,Letter_Resp,Letter_RT,Letter_Accuracy,Trial_A_measure,Trial_ACC,Trial_RT,TrialCountCali,CaliEnd_A_measure,ISI_calibrated,TrialIndex,TrialNumber_total,TrialNumber_valid,CueLearning,TrialDemandLearning,CueMapping,OfflineRatingTimePoint,CueFigure,TrialDemand,OfflineRating,OfflineRatingRT,PhaseType,CueLeft,CueDemandLeft,CueRight,CueDemandRight,Choice,ChoiceDemand,TaskDemand,ChoiceRT,CueCheck,CueDemandCheck,CorrectAnswer,Answer,AnswerDemand,AnswerRT,AnswerACC,DemandRatingQuesIndex,QuesTLX,DemandLevel,DemandRating,DemandRatingRT,PID,Age,Gender,Task_A_measure,Task_ACC,Task_RT,cue_i_on_zyg_values,cue_i_on_zyg_zvalues,cue_e_on_zyg_values,cue_e_on_zyg_zvalues,cue_i_on_cor_values,cue_i_on_cor_zvalues,cue_e_on_cor_values,cue_e_on_cor_zvalues,cue_i_on_scr_values,cue_i_on_scr_zvalues,cue_e_on_scr_values,cue_e_on_scr_zvalues,BAI_bis,BAI_bas_d,BAI_bas_rr,BAI_bas_fs,NFC,BFI_ext,BFI_agr,BFI_con,BFI_neu,BFI_open,UPPS_lps,UPPS_lpm,UPPS_pu,UPPS_ss,cue_e_true_zyg_values,cue_e_true_zyg_zvalues,cue_e_true_cor_values,cue_e_true_cor_zvalues,cue_e_true_scr_values,cue_e_true_scr_zvalues,cue_i_off_zyg_values,cue_i_off_zyg_zvalues,cue_i_off_cor_values,cue_i_off_cor_zvalues,cue_i_off_scr_values,cue_i_off_scr_zvalues
0,240621_155224,LEARNING,1.0,1,1.0,2583.0,,,,,,,,,,1.0,1.0,1.0,cue2.png,Easy,B,,,,,,,,,,,,,,,,,,,,,,,,,,,22,33,Female,1.0,1.0,0.905124266651304,-0.00037195683553565466,-0.7360324132478389,0.0007047818076810351,0.5826480964581611,-0.0013909837694802548,-0.9124102873189659,0.00226173606277237,1.381658822838541,1.572,0.11985863861523452,,,1.2857142857142858,1.0,1.6,1.5,2.0,1.875,2.111111111111111,2.111111111111111,2.125,2.3333333333333335,1.75,1.75,1.25,1.5,,,,,,,,,,,,
1,240621_155246,LEARNING,1.0,2,3.0,2583.0,,,,,,,,,,2.0,2.0,2.0,cue1.png,Hard,B,,,,,,,,,,,,,,,,,,,,,,,,,,,22,33,Female,1.0,1.0,1.1186129666554432,4.558338015249507e-05,-0.264330550503773,-0.00014429298377011644,-0.10078748419247614,0.0022561528073503498,1.7474615560694644,-3.6801531532322e-05,-0.27341797979892785,,,1.468,-0.17511982238024615,1.2857142857142858,1.0,1.6,1.5,2.0,1.875,2.111111111111111,2.111111111111111,2.125,2.3333333333333335,1.75,1.75,1.25,1.5,,,,,,,,,,,,
2,240621_155305,LEARNING,1.0,3,1.0,2583.0,,,,,,,,,,3.0,3.0,3.0,cue2.png,Easy,B,,,,,,,,,,,,,,,,,,,,,,,,,,,22,33,Female,1.0,1.0,0.735266016679816,2.310983086345128e-06,-0.3132160698731186,4.358752730044494e-05,0.050440920500816264,-0.00029107836142690333,-0.11024470792787233,-0.0003755174329508285,-0.5173125467232473,1.451,-0.10401625222807777,1.4669999999999999,-0.17741282416973708,1.2857142857142858,1.0,1.6,1.5,2.0,1.875,2.111111111111111,2.111111111111111,2.125,2.3333333333333335,1.75,1.75,1.25,1.5,,,,,,,,,,,,
3,240621_155323,LEARNING,1.0,4,3.0,2583.0,,,,,,,,,,4.0,4.0,4.0,cue1.png,Hard,B,,,,,,,,,,,,,,,,,,,,,,,,,,,22,33,Female,1.0,1.0,0.5787536833280077,0.0011490348488837395,0.9822562301021738,,,0.0007667460891540383,0.6612310545162077,,,1.1099999999999999,-0.73493639915014,1.9680000000000002,0.9713810723651,1.2857142857142858,1.0,1.6,1.5,2.0,1.875,2.111111111111111,2.111111111111111,2.125,2.3333333333333335,1.75,1.75,1.25,1.5,,,,,,,,,,,,
4,240621_155341,LEARNING,1.0,5,3.0,2583.0,,,,,,,,,,5.0,5.0,5.0,cue1.png,Hard,B,,,,,,,,,,,,,,,,,,,,,,,,,,,22,33,Female,1.0,1.0,0.4893581999931484,0.00040523206384568454,0.14197032222038586,,,6.865131690338795e-05,0.15210763958235368,-0.00017544264415865572,-0.373247406112534,1.583,0.1402109014191718,1.5510000000000002,0.015199326147481661,1.2857142857142858,1.0,1.6,1.5,2.0,1.875,2.111111111111111,2.111111111111111,2.125,2.3333333333333335,1.75,1.75,1.25,1.5,,,,,,,,,,,,
5,240621_155401,LEARNING,1.0,6,1.0,2583.0,,,,,,,,,,6.0,6.0,6.0,cue2.png,Easy,B,,,,,,,,,,,,,,,,,,,,,,,,,,,22,33,Female,1.0,1.0,0.945353316667024,4.027292204859898e-05,-0.2703298599966411,0.00012376823645960863,0.11497981633532477,-7.987053262044092e-05,0.043790038265732016,0.00029499667013001187,-0.03450454714990652,1.5870000000000002,0.14761172425696767,1.574,0.06793836730576736,1.2857142857142858,1.0,1.6,1.5,2.0,1.875,2.111111111111111,2.111111111111111,2.125,2.3333333333333335,1.75,1.75,1.25,1.5,,,,,,,,,,,,
6,240621_155420,LEARNING,1.0,7,3.0,2583.0,,,,,,,,,,7.0,7.0,7.0,cue1.png,Hard,B,,,,,,,,,,,,,,,,,,,,,,,,,,,22,33,Female,1.0,1.0,0.6685309000119256,-0.0007543137385436936,-1.1679871246872975,0.0005807472363281371,0.4828104376949782,,,3.649727770395003e-05,-0.2206386999957621,,,,,1.2857142857142858,1.0,1.6,1.5,2.0,1.875,2.111111111111111,2.111111111111111,2.125,2.3333333333333335,1.75,1.75,1.25,1.5,,,,,,,,,,,,
7,240621_155439,LEARNING,1.0,8,3.0,2583.0,,,,,,,,,,8.0,8.0,8.0,cue1.png,Hard,B,,,,,,,,,,,,,,,,,,,,,,,,,,,22,33,Female,1.0,1.0,0.7360121166760413,6.0270651239785044e-05,-0.24773810534472734,-0.00017592553150793484,-0.12624909116552768,-0.00023141890533099826,-0.06673481897294152,-0.0002820261516342012,-0.4499935473127499,,,,,1.2857142857142858,1.0,1.6,1.5,2.0,1.875,2.111111111111111,2.111111111111111,2.125,2.3333333333333335,1.75,1.75,1.25,1.5,,,,,,,,,,,,
8,240621_155457,LEARNING,1.0,9,1.0,2583.0,,,,,,,,,,9.0,9.0,9.0,cue2.png,Easy,B,,,,,,,,,,,,,,,,,,,,,,,,,,,22,33,Female,1.0,1.0,0.602053866663482,-0.0005333098547784239,-0.9183155009038512,0.0002191319122493594,0.19173975526244463,-0.00037492804463608396,-0.17139662992114021,0.0012100582845341228,0.6243914633990841,,,,,1.2857142857142858,1.0,1.6,1.5,2.0,1.875,2.111111111111111,2.111111111111111,2.125,2.3333333333333335,1.75,1.75,1.25,1.5,,,,,,,,,,,,
9,240621_155515,LEARNING,1.0,10,1.0,2583.0,,,,,,,,,,10.0,10.0,10.0,cue2.png,Easy,B,,,,,,,,,,,,,,,,,,,,,,,,,,,22,33,Female,1.0,1.0,0.5984856999906091,-2.6852392161201468e-05,-0.34616240153484823,5.346451229107938e-05,0.05839108347834971,-0.00012124175115077592,0.013617836875035703,-0.0003792748024560788,-0.5200180648415874,0.8280000000000001,-1.2566944092147188,,,1.2857142857142858,1.0,1.6,1.5,2.0,1.875,2.111111111111111,2.111111111111111,2.125,2.3333333333333335,1.75,1.75,1.25,1.5,,,,,,,,,,,,
10,240621_155535,LEARNING,1.0,11,3.0,2583.0,,,,,,,,,,11.0,11.0,11.0,cue1.png,Hard,B,,,,,,,,,,,,,,,,,,,,,,,,,,,22,33,Female,1.0,1.0,0.7649218000005931,-7.787089150535463e-05,-0.4037988165934108,1.2808721617527021e-05,0.02566650587276364,-0.00030070381828888135,-0.11726459356900018,-0.0002145647651483045,-0.40141754136739416,1.0620000000000003,-0.8237462732036847,,,1.2857142857142858,1.0,1.6,1.5,2.0,1.875,2.111111111111111,2.111111111111111,2.125,2.3333333333333335,1.75,1.75,1.25,1.5,,,,,,,,,,,,
11,240621_155553,LEARNING,1.0,12,1.0,2583.0,,,,,,,,,,12.0,12.0,12.0,cue2.png,Easy,B,,,,,,,,,,,,,,,,,,,,,,,,,,,22,33,Female,1.0,1.0,0.5766633500073416,0.0001813450485956907,-0.1109584213344794,2.484078867453013e-05,0.03535133319106874,0.0008885247136115769,0.7500447107908148,0.0037059469962742227,2.4215722095401317,0.8959999999999999,-1.1308804209721963,2.221,1.5515105251062447,1.2857142857142858,1.0,1.6,1.5,2.0,1.875,2.111111111111111,2.111111111111111,2.125,2.3333333333333335,1.75,1.75,1.25,1.5,,,,,,,,,,,,
12,240621_155612,LEARNING,1.0,13,1.0,2583.0,,,,,,,,,,13.0,13.0,13.0,cue2.png,Easy,B,,,,,,,,,,,,,,,,,,,,,,,,,,,22,33,Female,0.6875,0.75,0.6397294666579304,-1.0764449550886446e-05,-0.32798759534402844,0.00011059939760673125,0.10437998093975384,0.0002383110898335596,0.2758412161748702,8.247745788736351e-05,-0.18753037503678785,,,,,1.2857142857142858,1.0,1.6,1.5,2.0,1.875,2.111111111111111,2.111111111111111,2.125,2.3333333333333335,1.75,1.75,1.25,1.5,,,,,,,,,,,,
13,240621_155630,LEARNING,1.0,14,1.0,2583.0,,,,,,,,,,14.0,14.0,14.0,cue2.png,Easy,B,,,,,,,,,,,,,,,,,,,,,,,,,,,22,33,Female,0.6875,0.75,0.6885187333488526,-0.00021336068569078204,-0.5568638050634306,-0.0010806956064360195,-0.8545148078487096,,,-0.00047011057627878005,-0.5854249489735194,2.006,0.92284791651604,1.054,-1.124422563229392,1.2857142857142858,1.0,1.6,1.5,2.0,1.875,2.111111111111111,2.111111111111111,2.125,2.3333333333333335,1.75,1.75,1.25,1.5,,,,,,,,,,,,
14,240621_155649,LEARNING,1.0,15,3.0,2583.0,,,,,,,,,,15.0,15.0,15.0,cue1.png,Hard,B,,,,,,,,,,,,,,,,,,,,,,,,,,,22,33,Female,1.0,1.0,0.5977233333008675,-4.2958855396325445e-05,-0.3643581307718642,-1.925409732545305e-05,-0.0001414341370211396,-0.0003616584127752332,-0.16171903232772103,0.001999141734024549,1.1925760847134126,,,,,1.2857142857142858,1.0,1.6,1.5,2.0,1.875,2.111111111111111,2.111111111111111,2.125,2.3333333333333335,1.75,1.75,1.25,1.5,,,,,,,,,,,,
15,240621_155707,LEARNING,1.0,16,1.0,2583.0,,,,,,,,,,16.0,16.0,16.0,cue2.png,Easy,B,,,,,,,,,,,,,,,,,,,,,,,,,,,22,33,Female,1.0,1.0,0.6510416500192756,-0.0011389888892188583,-1.602560797610701,0.0031187676400899864,2.5257087380715437,-0.0002277725755151956,-0.06407553550371933,0.004121930781786745,2.7211040141888883,,,,,1.2857142857142858,1.0,1.6,1.5,2.0,1.875,2.111111111111111,2.111111111111111,2.125,2.3333333333333335,1.75,1.75,1.25,1.5,,,,,,,,,,,,
16,240621_155728,LEARNING,1.0,17,1.0,2583.0,,,,,,,,,,17.0,17.0,17.0,cue2.png,Easy,B,,,,,,,,,,,,,,,,,,,,,,,,,,,22,33,Female,1.0,1.0,0.9414979666277457,0.00013211579219476197,-0.16657350001031856,1.6889598755749375e-05,0.0289512773258864,0.0003990962946593289,0.39310253341381846,-0.0011650448300774031,-1.0858168353930264,,,,,1.2857142857142858,1.0,1.6,1.5,2.0,1.875,2.111111111111111,2.111111111111111,2.125,2.3333333333333335,1.75,1.75,1.25,1.5,,,,,,,,,,,,
17,240621_155747,LEARNING,1.0,18,3.0,2583.0,,,,,,,,,,18.0,18.0,18.0,cue1.png,Hard,B,,,,,,,,,,,,,,,,,,,,,,,,,,,22,33,Female,1.0,1.0,0.7409180833492428,-0.00010892050419632508,-0.43887606087675285,-3.885851641435411e-05,-0.015921383887316322,-0.0008856955936465231,-0.5439015234203584,-2.9276219849806284e-05,-0.26799933064165093,,,,,1.2857142857142858,1.0,1.6,1.5,2.0,1.875,2.111111111111111,2.111111111111111,2.125,2.3333333333333335,1.75,1.75,1.25,1.5,,,,,,,,,,,,
18,240621_155805,LEARNING,1.0,19,3.0,2583.0,,,,,,,,,,19.0,19.0,19.0,cue1.png,Hard,B,,,,,,,,,,,,,,,,,,,,,,,,,,,22,33,Female,1.0,1.0,0.6366566666789973,-3.494912297658968e-05,-0.3553094078931733,-0.0023746520349663576,-1.8960436248305919,0.005018066873836631,3.761736948434764,-0.0027260299203781223,-2.2098142059912647,,,1.3279999999999998,-0.4961400729089432,1.2857142857142858,1.0,1.6,1.5,2.0,1.875,2.111111111111111,2.111111111111111,2.125,2.3333333333333335,1.75,1.75,1.25,1.5,,,,,,,,,,,,
19,240621_155824,LEARNING,1.0,20,3.0,2583.0,,,,,,,,,,20.0,20.0,20.0,cue1.png,Hard,B,,,,,,,,,,,,,,,,,,,,,,,,,,,22,33,Female,1.0,1.0,0.6302259500371292,-0.0001095846281001572,-0.4396263322775907,-5.524462540969005e-05,-0.029110857922568407,-0.0013838863321095308,-0.9072340967856771,0.0006232356013897468,0.2018460099158518,,,,,1.2857142857142858,1.0,1.6,1.5,2.0,1.875,2.111111111111111,2.111111111111111,2.125,2.3333333333333335,1.75,1.75,1.25,1.5,,,,,,,,,,,,
20,240621_155842,LEARNING,1.0,21,1.0,2583.0,,,,,,,,,,21.0,21.0,21.0,cue2.png,Easy,B,,,,,,,,,,,,,,,,,,,,,,,,,,,22,33,Female,1.0,1.0,0.5278287833595338,,,5.517865370657359e-05,0.05977082675351323,-0.00022492076455722827,-0.06199569793526838,0.0010458945526168866,0.5061843106408087,1.51,0.005145884629404979,1.509,-0.08110674901112797,1.2857142857142858,1.0,1.6,1.5,2.0,1.875,2.111111111111111,2.111111111111111,2.125,2.3333333333333335,1.75,1.75,1.25,1.5,,,,,,,,,,,,
21,240621_155902,LEARNING,1.0,22,3.0,2583.0,,,,,,,,,,22.0,22.0,22.0,cue1.png,Hard,B,,,,,,,,,,,,,,,,,,,,,,,,,,,22,33,Female,1.0,0.8333333333333334,0.6003054199740291,-2.4034163857150972e-05,-0.34297860392515517,3.44239130640636e-05,0.043064962482093204,-0.000385649288857713,-0.17921567783186684,-0.0006995851142383132,-0.750659568374062,1.794,0.5306043061128818,,,1.2857142857142858,1.0,1.6,1.5,2.0,1.875,2.111111111111111,2.111111111111111,2.125,2.3333333333333335,1.75,1.75,1.25,1.5,,,,,,,,,,,,
22,240621_155923,LEARNING,1.0,23,3.0,2583.0,,,,,,,,,,23.0,23.0,23.0,cue1.png,Hard,B,,,,,,,,,,,,,,,,,,,,,,,,,,,22,33,Female,0.6875,0.5833333333333334,0.6009597799973563,2.059702848668807e-05,-0.29255803178845535,0.0005768529699525637,0.47967587260319217,0.00034123126101856527,0.3509013242034017,0.0011561328615586333,0.5855621151820738,2.141,1.1726256872916367,2.1550000000000002,1.4001724069998593,1.2857142857142858,1.0,1.6,1.5,2.0,1.875,2.111111111111111,2.111111111111111,2.125,2.3333333333333335,1.75,1.75,1.25,1.5,,,,,,,,,,,,
23,240621_155941,LEARNING,1.0,24,3.0,2583.0,,,,,,,,,,24.0,24.0,24.0,cue1.png,Hard,B,,,,,,,,,,,,,,,,,,,,,,,,,,,22,33,Female,1.0,1.0,0.5975186499999836,,,,,,,,,1.7750000000000001,0.4954503976333536,1.136,-0.9363964164911558,1.2857142857142858,1.0,1.6,1.5,2.0,1.875,2.111111111111111,2.111111111111111,2.125,2.3333333333333335,1.75,1.75,1.25,1.5,,,,,,,,,,,,
24,240621_160000,LEARNING,1.0,25,1.0,2583.0,,,,,,,,,,25.0,25.0,25.0,cue2.png,Easy,B,,,,,,,,,,,,,,,,,,,,,,,,,,,22,33,Female,1.0,1.0,0.5968579500331543,0.0025862411285381805,2.6058911610349096,-0.00040024376504534066,-0.30680687445119736,,,-0.0009398848404218157,-0.923688934294335,1.4500000000000002,-0.10586645793752641,0.7610000000000001,-1.7962720875501645,1.2857142857142858,1.0,1.6,1.5,2.0,1.875,2.111111111111111,2.111111111111111,2.125,2.3333333333333335,1.75,1.75,1.25,1.5,,,,,,,,,,,,
25,240621_160018,LEARNING,1.0,26,1.0,2583.0,,,,,,,,,,26.0,26.0,26.0,cue2.png,Easy,B,,,,,,,,,,,,,,,,,,,,,,,,,,,22,33,Female,1.0,1.0,0.5960176333707446,0.00270794160456364,2.7433781361360676,-0.002832471537163537,-2.2645507816413075,0.001771577469155067,1.394058750631854,-0.0016689529236359277,-1.44865910448468,0.9159999999999999,-1.0938763067832191,1.64,0.2192764854121526,1.2857142857142858,1.0,1.6,1.5,2.0,1.875,2.111111111111111,2.111111111111111,2.125,2.3333333333333335,1.75,1.75,1.25,1.5,,,,,,,,,,,,
26,240621_160037,LEARNING,1.0,27,3.0,2583.0,,,,,,,,,,27.0,27.0,27.0,cue1.png,Hard,B,,,,,,,,,,,,,,,,,,,,,,,,,,,22,33,Female,1.0,1.0,0.7225780000250476,0.0017524985965761326,1.663998881922851,-0.00010852206753012147,-0.07199482993276862,-0.0014863157364401946,-0.9819362865103467,5.746635422140475e-05,-0.20553978136038176,0.7200000000000002,-1.4565166258351956,1.058,-1.1152505560714294,1.2857142857142858,1.0,1.6,1.5,2.0,1.875,2.111111111111111,2.111111111111111,2.125,2.3333333333333335,1.75,1.75,1.25,1.5,,,,,,,,,,,,
27,240621_160056,LEARNING,1.0,28,1.0,2583.0,,,,,,,,,,28.0,28.0,28.0,cue2.png,Easy,B,,,,,,,,,,,,,,,,,,,,,,,,,,,22,33,Female,1.0,1.0,0.6185777333254615,2.3397213930896523e-05,-0.28939461748623047,0.0011503649175564684,0.9413059608676868,0.0002059197391469608,0.25221806967469834,0.00330635721088274,2.133845010293523,1.8269999999999997,0.5916610945246937,0.46599999999999997,-2.472707615449919,1.2857142857142858,1.0,1.6,1.5,2.0,1.875,2.111111111111111,2.111111111111111,2.125,2.3333333333333335,1.75,1.75,1.25,1.5,,,,,,,,,,,,
28,240621_160114,LEARNING,1.0,29,1.0,2583.0,,,,,,,,,,29.0,29.0,29.0,cue2.png,Easy,B,,,,,,,,,,,,,,,,,,,,,,,,,,,22,33,Female,1.0,1.0,0.6343896166654304,,,,,,,,,,,1.948,0.9255210365752856,1.2857142857142858,1.0,1.6,1.5,2.0,1.875,2.111111111111111,2.111111111111111,2.125,2.3333333333333335,1.75,1.75,1.25,1.5,,,,,,,,,,,,
29,240621_160134,LEARNING,1.0,30,3.0,2583.0,,,,,,,,,,30.0,30.0,30.0,cue1.png,Hard,B,,,,,,,,,,,,,,,,,,,,,,,,,,,22,33,Female,1.0,1.0,0.8273472499956066,,,,,-0.00014451010671870813,-0.0033518714189369313,,,1.5730000000000002,0.12170884432468358,1.539,-0.012316695326407168,1.2857142857142858,1.0,1.6,1.5,2.0,1.875,2.111111111111111,2.111111111111111,2.125,2.3333333333333335,1.75,1.75,1.25,1.5,,,,,,,,,,,,
30,240621_160155,LEARNING,1.0,31,3.0,2583.0,,,,,,,,,,31.0,31.0,31.0,cue1.png,Hard,B,,,,,,,,,,,,,,,,,,,,,,,,,,,22,33,Female,1.0,0.8333333333333334,0.6194306600140408,,,-0.003446064593902437,-2.758442875998316,0.0003277357423042324,0.3410589863901658,-0.0003532277628405219,-0.5012627261636798,,,,,1.2857142857142858,1.0,1.6,1.5,2.0,1.875,2.111111111111111,2.111111111111111,2.125,2.3333333333333335,1.75,1.75,1.25,1.5,,,,,,,,,,,,
31,240621_160220,LEARNING,1.0,32,1.0,2583.0,,,,,,,,,,32.0,32.0,32.0,cue2.png,Easy,B,,,,,,,,,,,,,,,,,,,,,,,,,,,22,33,Female,0.6875,0.5833333333333334,1.5170411800267174,-3.94668035218898e-06,-0.32028545238880557,-0.00025741703714577974,-0.19184307067645912,,,,,0.8260000000000001,-1.2603948206336164,1.456,-0.20263584385413447,1.2857142857142858,1.0,1.6,1.5,2.0,1.875,2.111111111111111,2.111111111111111,2.125,2.3333333333333335,1.75,1.75,1.25,1.5,,,,,,,,,,,,
32,240621_160244,LEARNING,1.0,33,1.0,2583.0,,,,,,,,,,33.0,33.0,33.0,cue2.png,Easy,B,,,,,,,,,,,,,,,,,,,,,,,,,,,22,33,Female,0.875,0.8333333333333334,1.2855153600219638,-0.00020637059467823373,-0.5489669873977708,0.004350943445907323,3.517509219950396,,,0.00028216819629307615,-0.043741772381011214,1.7400000000000002,0.4306931978026436,1.219,-0.746077267963428,1.2857142857142858,1.0,1.6,1.5,2.0,1.875,2.111111111111111,2.111111111111111,2.125,2.3333333333333335,1.75,1.75,1.25,1.5,,,,,,,,,,,,
33,240621_160307,LEARNING,1.0,34,1.0,2583.0,,,,,,,,,,34.0,34.0,34.0,cue2.png,Easy,B,,,,,,,,,,,,,,,,,,,,,,,,,,,22,33,Female,0.6875,0.5833333333333334,1.0495492600137368,0.00033611861762976227,0.06389175614266664,,,-0.0009565711847433342,-0.5955913861854498,0.002811827957579245,1.7777560355487634,0.593,-1.6914927509352014,2.0989999999999998,1.2717643067883795,1.2857142857142858,1.0,1.6,1.5,2.0,1.875,2.111111111111111,2.111111111111111,2.125,2.3333333333333335,1.75,1.75,1.25,1.5,,,,,,,,,,,,
34,240621_160326,LEARNING,1.0,35,3.0,2583.0,,,,,,,,,,35.0,35.0,35.0,cue1.png,Hard,B,,,,,,,,,,,,,,,,,,,,,,,,,,,22,33,Female,0.6875,0.75,0.6548824333003722,,,-8.419387452386976e-06,0.008579618834796026,-0.0024959646430181663,-1.7182774247543164,-2.4562651601895812e-05,-0.2646052954585435,1.098,-0.757138867663526,1.57,0.05876636014780458,1.2857142857142858,1.0,1.6,1.5,2.0,1.875,2.111111111111111,2.111111111111111,2.125,2.3333333333333335,1.75,1.75,1.25,1.5,,,,,,,,,,,,
35,240621_160346,LEARNING,1.0,36,3.0,2583.0,,,,,,,,,,36.0,36.0,36.0,cue1.png,Hard,B,,,,,,,,,,,,,,,,,,,,,,,,,,,22,33,Female,1.0,0.8333333333333334,0.5305751199601219,,,,,-0.002856369785410539,-1.981122391008618,0.0015280675712063506,0.8533760989772148,0.6769999999999998,-1.5360754713414972,2.0100000000000002,1.067687147523709,1.2857142857142858,1.0,1.6,1.5,2.0,1.875,2.111111111111111,2.111111111111111,2.125,2.3333333333333335,1.75,1.75,1.25,1.5,,,,,,,,,,,,
36,240621_160413,LEARNING,1.0,37,1.0,2583.0,,,,,,,,,,37.0,37.0,37.0,cue2.png,Easy,B,,,,,,,,,,,,,,,,,,,,,,,,,,,22,33,Female,0.1875,0.4166666666666667,1.3595200499694329,,,2.791690275740985e-05,0.03782735277797395,-0.0003048986001185812,-0.12032386536837766,,,2.654,2.1217812162389027,0.982,-1.2895186920727222,1.2857142857142858,1.0,1.6,1.5,2.0,1.875,2.111111111111111,2.111111111111111,2.125,2.3333333333333335,1.75,1.75,1.25,1.5,,,,,,,,,,,,
37,240621_160435,LEARNING,1.0,38,3.0,2583.0,,,,,,,,,,38.0,38.0,38.0,cue1.png,Hard,B,,,,,,,,,,,,,,,,,,,,,,,,,,,22,33,Female,0.125,0.1666666666666666,0.3969862750382162,,,,,,,,,1.6709999999999998,0.3030290038506714,1.0580000000000003,-1.115250556071429,1.2857142857142858,1.0,1.6,1.5,2.0,1.875,2.111111111111111,2.111111111111111,2.125,2.3333333333333335,1.75,1.75,1.25,1.5,,,,,,,,,,,,
38,240621_160500,LEARNING,1.0,39,3.0,2583.0,,,,,,,,,,39.0,39.0,39.0,cue1.png,Hard,B,,,,,,,,,,,,,,,,,,,,,,,,,,,22,33,Female,0.125,0.0,0.3669787332958852,,,,,,,,,,,2.138,1.3611913765785169,1.2857142857142858,1.0,1.6,1.5,2.0,1.875,2.111111111111111,2.111111111111111,2.125,2.3333333333333335,1.75,1.75,1.25,1.5,,,,,,,,,,,,
39,240621_160519,LEARNING,1.0,40,3.0,2583.0,,,,,,,,,,40.0,40.0,40.0,cue1.png,Hard,B,,,,,,,,,,,,,,,,,,,,,,,,,,,22,33,Female,1.0,1.0,0.6975492166626888,0.0014475460583110202,1.3194891198844563,-0.000611877434921612,-0.47715462415875187,-0.0041763566413760955,-2.9437942838382227,,,,,2.354,1.8564797631085066,1.2857142857142858,1.0,1.6,1.5,2.0,1.875,2.111111111111111,2.111111111111111,2.125,2.3333333333333335,1.75,1.75,1.25,1.5,,,,,,,,,,,,
40,240621_160539,LEARNING,1.0,41,1.0,2583.0,,,,,,,,,,41.0,41.0,41.0,cue2.png,Easy,B,,,,,,,,,,,,,,,,,,,,,,,,,,,22,33,Female,1.0,1.0,0.8393362999971336,5.980175926303868e-05,-0.2482678201136209,-5.654655245512742e-05,-0.03015880243254795,-9.839320767252805e-06,0.09486409174374545,-2.421916671636404e-05,-0.26435796695388525,2.7159999999999997,2.236493970224732,2.032,1.118133186892504,1.2857142857142858,1.0,1.6,1.5,2.0,1.875,2.111111111111111,2.111111111111111,2.125,2.3333333333333335,1.75,1.75,1.25,1.5,,,,,,,,,,,,
41,240621_160603,LEARNING,1.0,42,3.0,2583.0,,,,,,,,,,42.0,42.0,42.0,cue1.png,Hard,B,,,,,,,,,,,,,,,,,,,,,,,,,,,22,33,Female,0.125,0.3333333333333333,1.2471648799953985,0.0008467839177274681,0.6407985168431825,-0.00018867704324105694,-0.13651301245166694,0.0001254456060698168,0.19352795040337645,,,,,1.627,0.18946746214877386,1.2857142857142858,1.0,1.6,1.5,2.0,1.875,2.111111111111111,2.111111111111111,2.125,2.3333333333333335,1.75,1.75,1.25,1.5,,,,,,,,,,,,
42,240621_160626,LEARNING,1.0,43,3.0,2583.0,,,,,,,,,,43.0,43.0,43.0,cue1.png,Hard,B,,,,,,,,,,,,,,,,,,,,,,,,,,,22,33,Female,0.6875,0.5833333333333334,1.022795040020719,-0.000157907717840927,-0.49421769997783177,7.077418025248396e-05,0.0723239467469124,-8.616111983605033e-05,0.03920228689950292,-0.0005752857580532591,-0.6611570161798321,2.315,1.4945614807357386,1.483,-0.14072479553788547,1.2857142857142858,1.0,1.6,1.5,2.0,1.875,2.111111111111111,2.111111111111111,2.125,2.3333333333333335,1.75,1.75,1.25,1.5,,,,,,,,,,,,
43,240621_160641,LEARNING,1.0,44,1.0,2583.0,,,,,,,,,,44.0,44.0,44.0,cue2.png,Easy,B,,,,,,,,,,,,,,,,,,,,,,,,,,,22,33,Female,1.0,1.0,0.172946833326326,-0.0006196295784384877,-1.0158322739286938,-2.6558579118026848e-05,-0.006020942992451439,7.211819387582764e-05,0.15463604734806932,-4.3275135779216167e-05,-0.27807934024177544,2.045,0.9950059391845459,2.016,1.0814451582606528,1.2857142857142858,1.0,1.6,1.5,2.0,1.875,2.111111111111111,2.111111111111111,2.125,2.3333333333333335,1.75,1.75,1.25,1.5,,,,,,,,,,,,
44,240621_160701,LEARNING,1.0,45,1.0,2583.0,,,,,,,,,,45.0,45.0,45.0,cue2.png,Easy,B,,,,,,,,,,,,,,,,,,,,,,,,,,,22,33,Female,0.125,0.5,0.8086575833537305,0.00037160282576971645,0.1039788338629016,-9.151344242770525e-05,-0.05830428147934937,0.0003343567134497798,0.34588768812779935,-0.00035859131473927166,-0.5051247862619608,1.9570000000000003,0.8321878367530468,1.45,-0.21639385459107863,1.2857142857142858,1.0,1.6,1.5,2.0,1.875,2.111111111111111,2.111111111111111,2.125,2.3333333333333335,1.75,1.75,1.25,1.5,,,,,,,,,,,,
45,240621_160725,LEARNING,1.0,46,1.0,2583.0,,,,,,,,,,46.0,46.0,46.0,cue2.png,Easy,B,,,,,,,,,,,,,,,,,,,,,,,,,,,22,33,Female,0.6875,0.4166666666666667,0.677248599997256,0.002867093996027202,2.923175139377558,-6.012195226213872e-05,-0.03303670608457685,-7.892106852331032e-06,0.09628420293405779,-9.421643964624329e-05,-0.31475995427016046,1.5370000000000001,0.0551014387845245,1.45,-0.21639385459107863,1.2857142857142858,1.0,1.6,1.5,2.0,1.875,2.111111111111111,2.111111111111111,2.125,2.3333333333333335,1.75,1.75,1.25,1.5,,,,,,,,,,,,
46,240621_160747,LEARNING,1.0,47,3.0,2583.0,,,,,,,,,,47.0,47.0,47.0,cue1.png,Hard,B,,,,,,,,,,,,,,,,,,,,,,,,,,,22,33,Female,0.6875,0.5833333333333334,0.9496032600291072,-2.6621396600405405e-06,-0.31883428621488785,-2.3464197905393846e-05,-0.003530219864049709,7.176391224481427e-05,0.15437766828408014,-0.0001291618933047696,-0.33992265330592075,,,1.6690000000000003,0.2857735373073835,1.2857142857142858,1.0,1.6,1.5,2.0,1.875,2.111111111111111,2.111111111111111,2.125,2.3333333333333335,1.75,1.75,1.25,1.5,,,,,,,,,,,,
47,240621_160817,LEARNING,1.0,48,3.0,2583.0,,,,,,,,,,48.0,48.0,48.0,cue1.png,Hard,B,,,,,,,,,,,,,,,,,,,,,,,,,,,22,33,Female,0.5,0.1666666666666666,0.0,2.5988296154800562e-05,-0.2864674304378542,,,-1.4045557530091395e-06,0.10101560087820213,-0.00032750639336445514,-0.4827418883677754,1.3699999999999997,-0.2538829146934363,1.008,-1.229900645545964,1.2857142857142858,1.0,1.6,1.5,2.0,1.875,2.111111111111111,2.111111111111111,2.125,2.3333333333333335,1.75,1.75,1.25,1.5,,,,,,,,,,,,
48,240621_160849,LEARNING,1.0,49,1.0,2583.0,,,,,,,,,,49.0,49.0,49.0,cue2.png,Easy,B,,,,,,,,,,,,,,,,,,,,,,,,,,,22,33,Female,,,1.6350707000819966,,,,,0.00030382928651569076,0.32362390895678633,-5.765736604875166e-05,-0.2884353578019317,,,,,1.2857142857142858,1.0,1.6,1.5,2.0,1.875,2.111111111111111,2.111111111111111,2.125,2.3333333333333335,1.75,1.75,1.25,1.5,,,,,,,,,,,,
49,240621_160919,LEARNING,1.0,50,1.0,2583.0,,,,,,,,,,50.0,50.0,50.0,cue2.png,Easy,B,,,,,,,,,,,,,,,,,,,,,,,,,,,22,33,Female,0.5,0.3333333333333333,1.5941379500436597,,,,,,,,,1.2309999999999999,-0.5110615083068277,1.589,0.1023333941481275,1.2857142857142858,1.0,1.6,1.5,2.0,1.875,2.111111111111111,2.111111111111111,2.125,2.3333333333333335,1.75,1.75,1.25,1.5,,,,,,,,,,,,
0,240621_161200,TrueCHOICE,9.0,1,1.0,2583.0,,,,,,,,,,,10.0,1.0,,,B,,,,,,True,cue2.png,Easy,cue1.png,Hard,Left,Easy,Easy,0.016952299978584,,,,,,,,,,,,,22,33,Female,0.6875,0.75,1.22802696666137,,,,,,,,,,,,,1.2857142857142858,1.0,1.6,1.5,2.0,1.875,2.111111111111111,2.111111111111111,2.125,2.3333333333333335,1.75,1.75,1.25,1.5,,,-4.957734095638756e-05,-0.3320105188245803,1.4460000000000002,-0.675539091900701,,,,,,
1,240621_161219,TrueCHOICE,9.0,2,1.0,2583.0,,,,,,,,,,,11.0,2.0,,,B,,,,,,True,cue2.png,Easy,cue1.png,Hard,Left,Easy,Easy,0.0160924999509006,,,,,,,,,,,,,22,33,Female,,,,,,,,,,,,,,,,1.2857142857142858,1.0,1.6,1.5,2.0,1.875,2.111111111111111,2.111111111111111,2.125,2.3333333333333335,1.75,1.75,1.25,1.5,-0.00021367790445755638,-1.7236194024599865,-4.042711746337236e-05,-0.32078909402092626,,,,,,,,
2,240621_161320,TrueCHOICE,9.0,3,1.0,2583.0,,,,,,,,,,,17.0,3.0,,,B,,,,,,True,cue1.png,Hard,cue2.png,Easy,Right,Easy,Easy,0.0149417000357061,,,,,,,,,,,,,22,33,Female,0.5,0.1666666666666666,2.646890999982133,,,,,,,,,,,,,1.2857142857142858,1.0,1.6,1.5,2.0,1.875,2.111111111111111,2.111111111111111,2.125,2.3333333333333335,1.75,1.75,1.25,1.5,-9.698396099763577e-05,-0.1724982722353799,-6.755306758563992e-05,-0.3540551459110307,1.581,-0.3979202870100021,,,,,,
3,240621_161347,TrueCHOICE,9.0,4,3.0,2583.0,,,,,,,,,,,19.0,4.0,,,B,,,,,,True,cue2.png,Easy,cue1.png,Hard,Right,Hard,Hard,0.0146967000328004,,,,,,,,,,,,,22,33,Female,0.125,0.1666666666666666,0.6510650499840267,,,,,,,,,,,,,1.2857142857142858,1.0,1.6,1.5,2.0,1.875,2.111111111111111,2.111111111111111,2.125,2.3333333333333335,1.75,1.75,1.25,1.5,,,,,1.4799999999999998,-0.6056202817800813,,,,,,
4,240621_161437,TrueCHOICE,9.0,5,1.0,2583.0,,,,,,,,,,,25.0,5.0,,,B,,,,,,True,cue1.png,Hard,cue2.png,Easy,Right,Easy,Easy,0.0168460999848321,,,,,,,,,,,,,22,33,Female,0.6875,0.75,1.1437501999898814,,,,,,,,,,,,,1.2857142857142858,1.0,1.6,1.5,2.0,1.875,2.111111111111111,2.111111111111111,2.125,2.3333333333333335,1.75,1.75,1.25,1.5,,,,,,,,,,,,
5,240621_161459,TrueCHOICE,9.0,6,3.0,2583.0,,,,,,,,,,,27.0,6.0,,,B,,,,,,True,cue1.png,Hard,cue2.png,Easy,Left,Hard,Hard,0.0161092000780627,,,,,,,,,,,,,22,33,Female,0.125,0.5,0.9758146000094712,,,,,,,,,,,,,1.2857142857142858,1.0,1.6,1.5,2.0,1.875,2.111111111111111,2.111111111111111,2.125,2.3333333333333335,1.75,1.75,1.25,1.5,1.2602916124229008e-05,1.2841541954004725,,,1.4479999999999997,-0.6714262207171361,,,,,,
6,240621_161521,TrueCHOICE,9.0,7,3.0,2583.0,,,,,,,,,,,28.0,7.0,,,B,,,,,,True,cue2.png,Easy,cue1.png,Hard,Right,Hard,Hard,0.0167641999432817,,,,,,,,,,,,,22,33,Female,,,,,,,,,,,,,,,,1.2857142857142858,1.0,1.6,1.5,2.0,1.875,2.111111111111111,2.111111111111111,2.125,2.3333333333333335,1.75,1.75,1.25,1.5,-8.246953278388987e-05,0.020430646163902264,-0.0001702135618040848,-0.479953384031402,,,,,,,,
7,240621_161549,TrueCHOICE,9.0,8,1.0,2583.0,,,,,,,,,,,29.0,8.0,,,B,,,,,,True,cue1.png,Hard,cue2.png,Easy,Right,Easy,Easy,0.0163648999296128,,,,,,,,,,,,,22,33,Female,0.1875,0.25,2.134626966629488,,,,,,,,,,,,,1.2857142857142858,1.0,1.6,1.5,2.0,1.875,2.111111111111111,2.111111111111111,2.125,2.3333333333333335,1.75,1.75,1.25,1.5,-3.950437357280734e-05,0.5915328331309914,-0.00037189395494882215,-0.7272851970491522,1.884,0.2251796973002343,,,,,,
8,240621_161623,TrueCHOICE,9.0,9,3.0,2583.0,,,,,,,,,,,33.0,9.0,,,B,,,,,,True,cue2.png,Easy,cue1.png,Hard,Right,Hard,Hard,0.0166736999526619,,,,,,,,,,,,,22,33,Female,1.0,1.0,0.5364278166671284,,,,,,,,,,,,,1.2857142857142858,1.0,1.6,1.5,2.0,1.875,2.111111111111111,2.111111111111111,2.125,2.3333333333333335,1.75,1.75,1.25,1.5,,,0.002026577848854826,2.2140933398370914,,,,,,,,
9,240621_161659,TrueCHOICE,9.0,10,1.0,2583.0,,,,,,,,,,,37.0,10.0,,,B,,,,,,True,cue1.png,Hard,cue2.png,Easy,Right,Easy,Easy,0.0166405000491067,,,,,,,,,,,,,22,33,Female,0.125,0.5,0.617408966665001,,,,,,,,,,,,,1.2857142857142858,1.0,1.6,1.5,2.0,1.875,2.111111111111111,2.111111111111111,2.125,2.3333333333333335,1.75,1.75,1.25,1.5,,,,,2.808,2.125326184107688,,,,,,
0,240621_161833,FalseCHOICE,9.0,1,2.0,2583.0,,,,,,,,,,,1.0,1.0,,,B,,,,,,False,cue2.png,Easy,cue1.png,Hard,Right,Hard,Mid,0.0162834000075235,,,,,,,,,,,,,22,33,Female,0.6875,0.75,1.2094146333402025,,,,,,,,,,,,,1.2857142857142858,1.0,1.6,1.5,2.0,1.875,2.111111111111111,2.111111111111111,2.125,2.3333333333333335,1.75,1.75,1.25,1.5,,,-4.957734095638756e-05,-0.3320105188245803,1.4460000000000002,-0.675539091900701,,,,,,
1,240621_161858,FalseCHOICE,9.0,2,2.0,2583.0,,,,,,,,,,,3.0,2.0,,,B,,,,,,False,cue1.png,Hard,cue2.png,Easy,Left,Hard,Mid,0.0161405000835657,,,,,,,,,,,,,22,33,Female,,,,,,,,,,,,,,,,1.2857142857142858,1.0,1.6,1.5,2.0,1.875,2.111111111111111,2.111111111111111,2.125,2.3333333333333335,1.75,1.75,1.25,1.5,-0.00021367790445755638,-1.7236194024599865,-4.042711746337236e-05,-0.32078909402092626,,,,,,,,
2,240621_161918,FalseCHOICE,9.0,3,2.0,2583.0,,,,,,,,,,,4.0,3.0,,,B,,,,,,False,cue1.png,Hard,cue2.png,Easy,Right,Easy,Mid,0.0164234000258147,,,,,,,,,,,,,22,33,Female,,,,,,,,,,,,,,,,1.2857142857142858,1.0,1.6,1.5,2.0,1.875,2.111111111111111,2.111111111111111,2.125,2.3333333333333335,1.75,1.75,1.25,1.5,-9.698396099763577e-05,-0.1724982722353799,-6.755306758563992e-05,-0.3540551459110307,1.581,-0.3979202870100021,,,,,,
3,240621_161949,FalseCHOICE,9.0,4,2.0,2583.0,,,,,,,,,,,7.0,4.0,,,B,,,,,,False,cue1.png,Hard,cue2.png,Easy,Right,Easy,Mid,0.0165849000914022,,,,,,,,,,,,,22,33,Female,0.6875,0.5833333333333334,0.744918160000816,,,,,,,,,,,,,1.2857142857142858,1.0,1.6,1.5,2.0,1.875,2.111111111111111,2.111111111111111,2.125,2.3333333333333335,1.75,1.75,1.25,1.5,,,,,1.4799999999999998,-0.6056202817800813,,,,,,
4,240621_162009,FalseCHOICE,9.0,5,2.0,2583.0,,,,,,,,,,,8.0,5.0,,,B,,,,,,False,cue2.png,Easy,cue1.png,Hard,Left,Easy,Mid,0.0158170999493449,,,,,,,,,,,,,22,33,Female,,,,,,,,,,,,,,,,1.2857142857142858,1.0,1.6,1.5,2.0,1.875,2.111111111111111,2.111111111111111,2.125,2.3333333333333335,1.75,1.75,1.25,1.5,,,,,,,,,,,,
5,240621_162029,FalseCHOICE,9.0,6,2.0,2583.0,,,,,,,,,,,9.0,6.0,,,B,,,,,,False,cue1.png,Hard,cue2.png,Easy,Left,Hard,Mid,0.0168346000136807,,,,,,,,,,,,,22,33,Female,1.0,1.0,1.1825822666481447,,,,,,,,,,,,,1.2857142857142858,1.0,1.6,1.5,2.0,1.875,2.111111111111111,2.111111111111111,2.125,2.3333333333333335,1.75,1.75,1.25,1.5,1.2602916124229008e-05,1.2841541954004725,,,1.4479999999999997,-0.6714262207171361,,,,,,
6,240621_162048,FalseCHOICE,9.0,7,2.0,2583.0,,,,,,,,,,,10.0,7.0,,,B,,,,,,False,cue1.png,Hard,cue2.png,Easy,Right,Easy,Mid,0.0150255999760702,,,,,,,,,,,,,22,33,Female,0.875,0.6666666666666667,0.644692350004334,,,,,,,,,,,,,1.2857142857142858,1.0,1.6,1.5,2.0,1.875,2.111111111111111,2.111111111111111,2.125,2.3333333333333335,1.75,1.75,1.25,1.5,-8.246953278388987e-05,0.020430646163902264,-0.0001702135618040848,-0.479953384031402,,,,,,,,
7,240621_162109,FalseCHOICE,9.0,8,2.0,2583.0,,,,,,,,,,,11.0,8.0,,,B,,,,,,False,cue2.png,Easy,cue1.png,Hard,Left,Easy,Mid,0.016430199961178,,,,,,,,,,,,,22,33,Female,,,,,,,,,,,,,,,,1.2857142857142858,1.0,1.6,1.5,2.0,1.875,2.111111111111111,2.111111111111111,2.125,2.3333333333333335,1.75,1.75,1.25,1.5,-3.950437357280734e-05,0.5915328331309914,-0.00037189395494882215,-0.7272851970491522,1.884,0.2251796973002343,,,,,,
8,240621_162126,FalseCHOICE,9.0,9,2.0,2583.0,,,,,,,,,,,12.0,9.0,,,B,,,,,,False,cue2.png,Easy,cue1.png,Hard,Right,Hard,Mid,0.0161932000191882,,,,,,,,,,,,,22,33,Female,0.125,0.5,1.2458010000021509,,,,,,,,,,,,,1.2857142857142858,1.0,1.6,1.5,2.0,1.875,2.111111111111111,2.111111111111111,2.125,2.3333333333333335,1.75,1.75,1.25,1.5,,,0.002026577848854826,2.2140933398370914,,,,,,,,
9,240621_162154,FalseCHOICE,9.0,10,2.0,2583.0,,,,,,,,,,,14.0,10.0,,,B,,,,,,False,cue1.png,Hard,cue2.png,Easy,Left,Hard,Mid,0.0147002999437972,,,,,,,,,,,,,22,33,Female,,,,,,,,,,,,,,,,1.2857142857142858,1.0,1.6,1.5,2.0,1.875,2.111111111111111,2.111111111111111,2.125,2.3333333333333335,1.75,1.75,1.25,1.5,,,,,2.808,2.125326184107688,,,,,,
0,240621_154252,OFFLINERATING,9.0,1,1.0,,,,,,,,,,,,,,,,,T0,cue2.png,Easy,0.0,1.7689113999949768,,,,,,,,,,,,,,,,,,,,,,22,33,Female,,,,,,,,,,,,,,,,1.2857142857142858,1.0,1.6,1.5,2.0,1.875,2.111111111111111,2.111111111111111,2.125,2.3333333333333335,1.75,1.75,1.25,1.5,,,,,,,,,8.402602218303065e-05,1.0,,
1,240621_154259,OFFLINERATING,9.0,2,3.0,,,,,,,,,,,,,,,,,T0,cue1.png,Hard,100.0,1.0016078000189736,,,,,,,,,,,,,,,,,,,,,,22,33,Female,,,,,,,,,,,,,,,,1.2857142857142858,1.0,1.6,1.5,2.0,1.875,2.111111111111111,2.111111111111111,2.125,2.3333333333333335,1.75,1.75,1.25,1.5,,,,,,,,,,,,
2,240621_161022,OFFLINERATING,9.0,3,1.0,,,,,,,,,,,,,,,,,T1,cue2.png,Easy,2.0,1.6853084999602288,,,,,,,,,,,,,,,,,,,,,,22,33,Female,,,,,,,,,,,,,,,,1.2857142857142858,1.0,1.6,1.5,2.0,1.875,2.111111111111111,2.111111111111111,2.125,2.3333333333333335,1.75,1.75,1.25,1.5,,,,,,,,,,,-0.11966666666666667,-1.0
3,240621_161030,OFFLINERATING,9.0,4,3.0,,,,,,,,,,,,,,,,,T1,cue1.png,Hard,0.0,1.151863700011745,,,,,,,,,,,,,,,,,,,,,,22,33,Female,,,,,,,,,,,,,,,,1.2857142857142858,1.0,1.6,1.5,2.0,1.875,2.111111111111111,2.111111111111111,2.125,2.3333333333333335,1.75,1.75,1.25,1.5,,,,,,,,,,,-0.023733333333333335,0.9999999999999999
4,240621_161722,OFFLINERATING,9.0,5,1.0,,,,,,,,,,,,,,,,,T2,cue2.png,Easy,3.0,1.0349588999524713,,,,,,,,,,,,,,,,,,,,,,22,33,Female,,,,,,,,,,,,,,,,1.2857142857142858,1.0,1.6,1.5,2.0,1.875,2.111111111111111,2.111111111111111,2.125,2.3333333333333335,1.75,1.75,1.25,1.5,,,,,,,0.00014663375178765098,,,,,
5,240621_161729,OFFLINERATING,9.0,6,3.0,,,,,,,,,,,,,,,,,T2,cue1.png,Hard,2.0,0.8850274999858811,,,,,,,,,,,,,,,,,,,,,,22,33,Female,,,,,,,,,,,,,,,,1.2857142857142858,1.0,1.6,1.5,2.0,1.875,2.111111111111111,2.111111111111111,2.125,2.3333333333333335,1.75,1.75,1.25,1.5,,,,,,,,,-0.000277945128138923,-1.0,,
6,240621_163544,OFFLINERATING,9.0,7,1.0,,,,,,,,,,,,,,,,,T3,cue2.png,Easy,1.0,1.45315020007547,,,,,,,,,,,,,,,,,,,,,,22,33,Female,,,,,,,,,,,,,,,,1.2857142857142858,1.0,1.6,1.5,2.0,1.875,2.111111111111111,2.111111111111111,2.125,2.3333333333333335,1.75,1.75,1.25,1.5,,,,,,,,,,,,
7,240621_163551,OFFLINERATING,9.0,8,3.0,,,,,,,,,,,,,,,,,T3,cue1.png,Hard,2.0,0.7258167000254616,,,,,,,,,,,,,,,,,,,,,,22,33,Female,,,,,,,,,,,,,,,,1.2857142857142858,1.0,1.6,1.5,2.0,1.875,2.111111111111111,2.111111111111111,2.125,2.3333333333333335,1.75,1.75,1.25,1.5,,,,,,,,,,,,
