,END,Phase,Block,TrialN,NbackLevel,ISI,Letter_Resp,Letter_RT,Letter_Accuracy,Trial_A_measure,Trial_ACC,Trial_RT,TrialCountCali,CaliEnd_A_measure,ISI_calibrated,TrialIndex,TrialNumber_total,TrialNumber_valid,CueLearning,TrialDemandLearning,CueMapping,OfflineRatingTimePoint,CueFigure,TrialDemand,OfflineRating,OfflineRatingRT,PhaseType,CueLeft,CueDemandLeft,CueRight,CueDemandRight,Choice,ChoiceDemand,TaskDemand,ChoiceRT,CueCheck,CueDemandCheck,CorrectAnswer,Answer,AnswerDemand,AnswerRT,AnswerACC,DemandRatingQuesIndex,QuesTLX,DemandLevel,DemandRating,DemandRatingRT,PID,Age,Gender,BAI_bis,BAI_bas_d,BAI_bas_rr,BAI_bas_fs,NFC,BFI_ext,BFI_agr,BFI_con,BFI_neu,BFI_open,UPPS_lps,UPPS_lpm,UPPS_pu,UPPS_ss,Task_A_measure,Task_ACC,Task_RT,Task_RT_z,cue_i_on_zyg_values,cue_i_on_zyg_zvalues,cue_e_on_zyg_values,cue_e_on_zyg_zvalues,cue_i_on_cor_values,cue_i_on_cor_zvalues,cue_e_on_cor_values,cue_e_on_cor_zvalues,cue_i_on_scr_values,cue_i_on_scr_zvalues,cue_e_on_scr_values,cue_e_on_scr_zvalues,cue_e_true_zyg_values,cue_e_true_zyg_zvalues,cue_e_true_cor_values,cue_e_true_cor_zvalues,cue_e_true_scr_values,cue_e_true_scr_zvalues,cue_e_false_zyg_values,cue_e_false_zyg_zvalues,cue_e_false_cor_values,cue_e_false_cor_zvalues,cue_e_false_scr_values,cue_e_false_scr_zvalues,OfflineRating_z,cue_i_off_zyg_values,cue_i_off_zyg_zvalues,cue_i_off_cor_values,cue_i_off_cor_zvalues,cue_i_off_scr_values,cue_i_off_scr_zvalues,DemandRating_z
0,240624_091620,PRACTICE,0.0,1,1.0,1750.0,,,,,,,,,,28.0,1.0,1.0,cue2.png,Easy,B,,,,,,,,,,,,,,,,,,,,,,,,,,,24,25,Male,0.8571428571428571,0.75,0.4,0.75,1.8333333333333333,1.5,2.4444444444444446,1.5555555555555556,1.75,2.0,1.75,1.75,2.25,1.5,,,,,,,,,,,,,,,,,,,,,,,,,,,,,,,,,,,,
0,240624_091939,LEARNING,1.0,1,1.0,1750.0,,,,,,,,,,1.0,1.0,1.0,cue2.png,Easy,B,,,,,,,,,,,,,,,,,,,,,,,,,,,24,25,Male,0.8571428571428571,0.75,0.4,0.75,1.8333333333333333,1.5,2.4444444444444446,1.5555555555555556,1.75,2.0,1.75,1.75,2.25,1.5,1.0,1.0,0.8060474375088234,4.482333279256823,0.007092196817571051,-0.6194487251869387,0.00758651261518071,-0.3888443952698631,0.012989845645419752,0.4324472786601143,0.01723093185263533,1.8709308866889593,,,,,,,,,,,,,,,,,,,,,,,,
1,240624_091959,LEARNING,1.0,2,3.0,1750.0,,,,,,,,,,2.0,2.0,2.0,cue1.png,Hard,B,,,,,,,,,,,,,,,,,,,,,,,,,,,24,25,Male,0.8571428571428571,0.75,0.4,0.75,1.8333333333333333,1.5,2.4444444444444446,1.5555555555555556,1.75,2.0,1.75,1.75,2.25,1.5,0.1666666666666666,0.6666666666666667,0.5269668874680065,0.9777790450282041,0.006716038643342264,-0.6523010692221359,0.008561376953420796,-0.17477486003914736,0.008997732240266676,-0.9912452317475525,0.018343990937929537,2.2757527494577743,5.74220978656281e+44,-0.1792201067208851,1.2941431270804092e+43,-0.20061624294153108,,,,,,,,,,,,,,,,,,,,
2,240624_092018,LEARNING,1.0,3,1.0,1750.0,,,,,,,,,,3.0,3.0,3.0,cue2.png,Easy,B,,,,,,,,,,,,,,,,,,,,,,,,,,,24,25,Male,0.8571428571428571,0.75,0.4,0.75,1.8333333333333333,1.5,2.4444444444444446,1.5555555555555556,1.75,2.0,1.75,1.75,2.25,1.5,1.0,1.0,0.4614131499838549,0.1545879332291391,0.006890665583392702,-0.6370497608487029,0.007109622509735642,-0.4935642411235443,,,0.015415600474886403,1.2106911567479823,-3.4417246450525427e+44,-0.17983718873943683,-2.685975825425e+44,-0.2015644277644278,,,,,,,,,,,,,,,,,,,,
3,240624_092038,LEARNING,1.0,4,3.0,1750.0,,,,,,,,,,4.0,4.0,4.0,cue1.png,Hard,B,,,,,,,,,,,,,,,,,,,,,,,,,,,24,25,Male,0.8571428571428571,0.75,0.4,0.75,1.8333333333333333,1.5,2.4444444444444446,1.5555555555555556,1.75,2.0,1.75,1.75,2.25,1.5,0.1666666666666666,0.6666666666666667,0.542307725030696,1.1704216252046946,0.0065461097597773665,-0.6671420657147326,0.010229304421422083,0.19148375038265097,0.012964406442402236,0.42337499059334044,0.014058499038664607,0.7171105924850116,-4.284247861603292e+44,-0.17989379910953662,-2.8687811038191346e+44,-0.20162599407744816,,,,,,,,,,,,,,,,,,,,
4,240624_092057,LEARNING,1.0,5,3.0,1750.0,,,,,,,,,,5.0,5.0,5.0,cue1.png,Hard,B,,,,,,,,,,,,,,,,,,,,,,,,,,,24,25,Male,0.8571428571428571,0.75,0.4,0.75,1.8333333333333333,1.5,2.4444444444444446,1.5555555555555556,1.75,2.0,1.75,1.75,2.25,1.5,0.75,0.8333333333333334,0.4577408375043887,0.1084728662800393,0.0062647548656149885,-0.6917146216560187,0.0074560302274919105,-0.41749689900054765,,,,,8.553720594648476e+48,5.567764335005273,1.7799981145270034e+48,5.794129931845276,,,,,,,,,,,,,,,,,,,,
5,240624_092117,LEARNING,1.0,6,1.0,1750.0,,,,,,,,,,6.0,6.0,6.0,cue2.png,Easy,B,,,,,,,,,,,,,,,,,,,,,,,,,,,24,25,Male,0.8571428571428571,0.75,0.4,0.75,1.8333333333333333,1.5,2.4444444444444446,1.5555555555555556,1.75,2.0,1.75,1.75,2.25,1.5,1.0,1.0,0.4816958374867681,0.40928779805122795,0.006623404348318861,-0.6603914257212501,0.006587031785074611,-0.6083194425970427,0.007060634479492412,-1.6820651794930084,0.009888279067774342,-0.7996069286924725,-6.813750701688796e+43,-0.17965171680469458,,,,,,,,,,,,,,,,,,,,,,
6,240624_092136,LEARNING,1.0,7,3.0,1750.0,,,,,,,,,,7.0,7.0,7.0,cue1.png,Hard,B,,,,,,,,,,,,,,,,,,,,,,,,,,,24,25,Male,0.8571428571428571,0.75,0.4,0.75,1.8333333333333333,1.5,2.4444444444444446,1.5555555555555556,1.75,2.0,1.75,1.75,2.25,1.5,0.75,0.8333333333333334,0.4409122999932151,-0.10285150721009859,0.007697728993452259,-0.5665636552101486,0.007113335854539028,-0.4927488312608271,0.01179687049192459,0.007001000270041195,0.010262540860117879,-0.6634871503793038,,,6.909652778269618e+43,-0.200427120270681,,,,,,,,,,,,,,,,,,,,
7,240624_092155,LEARNING,1.0,8,3.0,1750.0,,,,,,,,,,8.0,8.0,8.0,cue1.png,Hard,B,,,,,,,,,,,,,,,,,,,,,,,,,,,24,25,Male,0.8571428571428571,0.75,0.4,0.75,1.8333333333333333,1.5,2.4444444444444446,1.5555555555555556,1.75,2.0,1.75,1.75,2.25,1.5,0.75,0.8333333333333334,0.4904181625170167,0.5188184017160313,0.008594084668320007,-0.488279074344584,0.006585036267189709,-0.6087576364763438,,,,,8.880616298929035e+43,-0.17954626405194743,9.581868348637606e+43,-0.20033712371166015,,,,,,,,,,,,,,,,,,,,
8,240624_092214,LEARNING,1.0,9,1.0,1750.0,,,,,,,,,,9.0,9.0,9.0,cue2.png,Easy,B,,,,,,,,,,,,,,,,,,,,,,,,,,,24,25,Male,0.8571428571428571,0.75,0.4,0.75,1.8333333333333333,1.5,2.4444444444444446,1.5555555555555556,1.75,2.0,1.75,1.75,2.25,1.5,1.0,1.0,0.434893137513427,-0.1784371449478991,0.00971946664561623,-0.3899921343759227,0.006603006734866929,-0.6048115185267571,,,,,,,3.651093852141626e+47,1.0289785553057265,,,,,,,,,,,,,,,,,,,,
9,240624_092233,LEARNING,1.0,10,1.0,1750.0,,,,,,,,,,10.0,10.0,10.0,cue2.png,Easy,B,,,,,,,,,,,,,,,,,,,,,,,,,,,24,25,Male,0.8571428571428571,0.75,0.4,0.75,1.8333333333333333,1.5,2.4444444444444446,1.5555555555555556,1.75,2.0,1.75,1.75,2.25,1.5,1.0,1.0,0.4183663375442847,-0.38597244900845123,0.006617418880093136,-0.6609141756568759,0.006784375920591942,-0.5649848310889763,,,,,1.8596657261521746e+44,-0.17948098054830122,1.3085033008938094e+44,-0.20021914192583182,,,,,,,,,,,,,,,,,,,,
10,240624_092252,LEARNING,1.0,11,3.0,1750.0,,,,,,,,,,11.0,11.0,11.0,cue1.png,Hard,B,,,,,,,,,,,,,,,,,,,,,,,,,,,24,25,Male,0.8571428571428571,0.75,0.4,0.75,1.8333333333333333,1.5,2.4444444444444446,1.5555555555555556,1.75,2.0,1.75,1.75,2.25,1.5,0.75,0.8333333333333334,0.4647675874875858,0.19671128491178408,0.03635307657547842,1.9360945394255582,0.008526590825555963,-0.1824135128571841,0.01278687197229559,0.36006153484236725,,,,,,,,,,,,,,,,,,,,,,,,,,
11,240624_092311,LEARNING,1.0,12,1.0,1750.0,,,,,,,,,,12.0,12.0,12.0,cue2.png,Easy,B,,,,,,,,,,,,,,,,,,,,,,,,,,,24,25,Male,0.8571428571428571,0.75,0.4,0.75,1.8333333333333333,1.5,2.4444444444444446,1.5555555555555556,1.75,2.0,1.75,1.75,2.25,1.5,1.0,1.0,0.4009761000343133,-0.6043503706905542,0.01888701813138216,0.41066986370040925,0.007263983518504427,-0.4596682536423198,0.008911152223977413,-1.0221219399550114,,,,,8.793412184417023e+43,-0.20036367783495226,,,,,,,,,,,,,,,,,,,,
12,240624_092331,LEARNING,1.0,13,1.0,1750.0,,,,,,,,,,13.0,13.0,13.0,cue2.png,Easy,B,,,,,,,,,,,,,,,,,,,,,,,,,,,24,25,Male,0.8571428571428571,0.75,0.4,0.75,1.8333333333333333,1.5,2.4444444444444446,1.5555555555555556,1.75,2.0,1.75,1.75,2.25,1.5,1.0,1.0,0.5750932124792598,1.5821254105179636,,,,,0.021438369298803092,3.4454127504820917,0.00988985823047917,-0.7990325839912523,,,,,,,,,,,,,,,,,,,,,,,,
13,240624_092350,LEARNING,1.0,14,1.0,1750.0,,,,,,,,,,14.0,14.0,14.0,cue2.png,Easy,B,,,,,,,,,,,,,,,,,,,,,,,,,,,24,25,Male,0.8571428571428571,0.75,0.4,0.75,1.8333333333333333,1.5,2.4444444444444446,1.5555555555555556,1.75,2.0,1.75,1.75,2.25,1.5,1.0,1.0,0.4312402000068687,-0.22430891065894254,0.010440656420368575,-0.32700593277760265,0.008974458084868395,-0.08406676625329398,0.013797863894971467,0.7206078125453933,0.01447388088412165,0.8681858181041627,,,,,,,,,,,,,,,,,,,,,,,,
14,240624_092410,LEARNING,1.0,15,3.0,1750.0,,,,,,,,,,15.0,15.0,15.0,cue1.png,Hard,B,,,,,,,,,,,,,,,,,,,,,,,,,,,24,25,Male,0.8571428571428571,0.75,0.4,0.75,1.8333333333333333,1.5,2.4444444444444446,1.5555555555555556,1.75,2.0,1.75,1.75,2.25,1.5,0.75,0.8333333333333334,0.53737945004832,1.1085348081033135,0.020554012369118642,0.5562593309905743,0.009476683560857829,0.026216449583867586,,,0.005714056385227529,-2.3177802442750686,,,-6.636360281681992e+43,-0.20088333143020165,,,,,,,,,,,,,,,,,,,,
15,240624_092430,LEARNING,1.0,16,1.0,1750.0,,,,,,,,,,16.0,16.0,16.0,cue2.png,Easy,B,,,,,,,,,,,,,,,,,,,,,,,,,,,24,25,Male,0.8571428571428571,0.75,0.4,0.75,1.8333333333333333,1.5,2.4444444444444446,1.5555555555555556,1.75,2.0,1.75,1.75,2.25,1.5,0.75,0.8333333333333334,0.5545954499393702,1.3247247407440335,,,,,,,0.008119086908635074,-1.4430657305847625,,,,,,,,,,,,,,,,,,,,,,,,
16,240624_092449,LEARNING,1.0,17,1.0,1750.0,,,,,,,,,,17.0,17.0,17.0,cue2.png,Easy,B,,,,,,,,,,,,,,,,,,,,,,,,,,,24,25,Male,0.8571428571428571,0.75,0.4,0.75,1.8333333333333333,1.5,2.4444444444444446,1.5555555555555556,1.75,2.0,1.75,1.75,2.25,1.5,1.0,1.0,0.4635465124738402,0.1813776344330712,,,0.0065255831084135955,-0.6218128992118508,0.00875078583668596,-1.0793128063801154,0.010676086008595702,-0.5130799352029887,,,,,,,,,,,,,,,,,,,,,,,,
17,240624_092507,LEARNING,1.0,18,3.0,1750.0,,,,,,,,,,18.0,18.0,18.0,cue1.png,Hard,B,,,,,,,,,,,,,,,,,,,,,,,,,,,24,25,Male,0.8571428571428571,0.75,0.4,0.75,1.8333333333333333,1.5,2.4444444444444446,1.5555555555555556,1.75,2.0,1.75,1.75,2.25,1.5,0.75,0.8333333333333334,0.3641162999847438,-1.0672173398062668,,,0.006440259423406782,-0.6405490462603258,,,0.01186604810993502,-0.08028828842249008,,,,,,,,,,,,,,,,,,,,,,,,
18,240624_092527,LEARNING,1.0,19,3.0,1750.0,,,,,,,,,,19.0,19.0,19.0,cue1.png,Hard,B,,,,,,,,,,,,,,,,,,,,,,,,,,,24,25,Male,0.8571428571428571,0.75,0.4,0.75,1.8333333333333333,1.5,2.4444444444444446,1.5555555555555556,1.75,2.0,1.75,1.75,2.25,1.5,1.0,1.0,0.5335265875037294,1.0601524835644982,0.023890853099896955,0.8476873716092346,0.009207207403213222,-0.032957564235205176,0.009571013483258568,-0.7867980807845505,0.010682741111683453,-0.5106594606167812,6.44325762142666e+43,-0.1795626410222301,,,,,,,,,,,,,,,,,,,,,,
19,240624_092545,LEARNING,1.0,20,3.0,1750.0,,,,,,,,,,20.0,20.0,20.0,cue1.png,Hard,B,,,,,,,,,,,,,,,,,,,,,,,,,,,24,25,Male,0.8571428571428571,0.75,0.4,0.75,1.8333333333333333,1.5,2.4444444444444446,1.5555555555555556,1.75,2.0,1.75,1.75,2.25,1.5,1.0,1.0,0.3172025999519974,-1.6563361661416984,0.004731829098696496,-0.8255950159302494,0.00991552227933412,0.12258062747045967,0.00865424046827387,-1.1137434209376624,0.010268438931856725,-0.661342009640946,5.107550084791241e+43,-0.17957161583698994,,,,,,,,,,,,,,,,,,,,,,
20,240624_092604,LEARNING,1.0,21,1.0,1750.0,,,,,,,,,,21.0,21.0,21.0,cue2.png,Easy,B,,,,,,,,,,,,,,,,,,,,,,,,,,,24,25,Male,0.8571428571428571,0.75,0.4,0.75,1.8333333333333333,1.5,2.4444444444444446,1.5555555555555556,1.75,2.0,1.75,1.75,2.25,1.5,0.75,0.8333333333333334,0.4130764749716036,-0.45239990256931634,0.008249301216645927,-0.5183912594519862,0.008013290545494826,-0.2951286344143566,0.01135033611589243,-0.1522448883803016,0.014610338684801306,0.9178157989293696,2.1347846318200677e+43,-0.17959159028389024,3.1080287078160487e+43,-0.20055515376050323,,,,,,,,,,,,,,,,,,,,
21,240624_092623,LEARNING,1.0,22,3.0,1750.0,,,,,,,,,,22.0,22.0,22.0,cue1.png,Hard,B,,,,,,,,,,,,,,,,,,,,,,,,,,,24,25,Male,0.8571428571428571,0.75,0.4,0.75,1.8333333333333333,1.5,2.4444444444444446,1.5555555555555556,1.75,2.0,1.75,1.75,2.25,1.5,0.1666666666666666,0.6666666666666667,0.3880401499336585,-0.7667935746056584,,,0.007393391927931491,-0.43125158377930195,0.01010828271379573,-0.5951937594742149,0.012866367754388118,0.28353000943966095,-1.0443639595885726e+43,-0.17961295144935444,9.941301025189751e+42,-0.2006263469691295,,,,,,,,,,,,,,,,,,,,
22,240624_092642,LEARNING,1.0,23,3.0,1750.0,,,,,,,,,,23.0,23.0,23.0,cue1.png,Hard,B,,,,,,,,,,,,,,,,,,,,,,,,,,,24,25,Male,0.8571428571428571,0.75,0.4,0.75,1.8333333333333333,1.5,2.4444444444444446,1.5555555555555556,1.75,2.0,1.75,1.75,2.25,1.5,0.75,0.8333333333333334,0.4336804249614943,-0.19366578380559252,0.024259277242071695,0.8798642522377419,0.007060114533982833,-0.5044356505534452,0.013070325170270196,0.4611483913646897,,,-3.592072346679992e+43,-0.17963006987551366,-1.3294207559667879e+43,-0.200704600978384,,,,,,,,,,,,,,,,,,,,
23,240624_092701,LEARNING,1.0,24,3.0,1750.0,,,,,,,,,,24.0,24.0,24.0,cue1.png,Hard,B,,,,,,,,,,,,,,,,,,,,,,,,,,,24,25,Male,0.8571428571428571,0.75,0.4,0.75,1.8333333333333333,1.5,2.4444444444444446,1.5555555555555556,1.75,2.0,1.75,1.75,2.25,1.5,0.75,0.8333333333333334,0.4317476249707397,-0.2179369212622347,,,,,0.011681855614081122,-0.03401632653230687,0.011240458057055631,-0.3078166684359687,-4.925645026914499e+43,-0.17963903034586037,-2.8159924916835985e+43,-0.2007546666775872,,,,,,,,,,,,,,,,,,,,
24,240624_092719,LEARNING,1.0,25,1.0,1750.0,,,,,,,,,,25.0,25.0,25.0,cue2.png,Easy,B,,,,,,,,,,,,,,,,,,,,,,,,,,,24,25,Male,0.8571428571428571,0.75,0.4,0.75,1.8333333333333333,1.5,2.4444444444444446,1.5555555555555556,1.75,2.0,1.75,1.75,2.25,1.5,0.1666666666666666,0.6666666666666667,0.3800821000477299,-0.8667267925237635,0.00881395952407306,-0.4690759707015531,0.012185943376268908,0.6211402423151917,0.012362440654773467,0.20869817748916247,0.00674010399707805,-1.9446046321205435,-4.841285264753878e+43,-0.17963846352025087,,,,,,,,,,,,,,,,,,,,,,
25,240624_092738,LEARNING,1.0,26,1.0,1750.0,,,,,,,,,,26.0,26.0,26.0,cue2.png,Easy,B,,,,,,,,,,,,,,,,,,,,,,,,,,,24,25,Male,0.8571428571428571,0.75,0.4,0.75,1.8333333333333333,1.5,2.4444444444444446,1.5555555555555556,1.75,2.0,1.75,1.75,2.25,1.5,1.0,1.0,0.3991555875691119,-0.6272114574536924,0.010833125474943901,-0.2927290532959538,0.015252793851586439,1.294587028827592,0.014852285016572726,1.0966420834410122,0.013500040387378896,0.5139980403484968,-3.624256094472521e+43,-0.17963028612283338,-3.0225274882392396e+43,-0.2007616224932832,,,,,,,,,,,,,,,,,,,,
26,240624_092757,LEARNING,1.0,27,3.0,1750.0,,,,,,,,,,27.0,27.0,27.0,cue1.png,Hard,B,,,,,,,,,,,,,,,,,,,,,,,,,,,24,25,Male,0.8571428571428571,0.75,0.4,0.75,1.8333333333333333,1.5,2.4444444444444446,1.5555555555555556,1.75,2.0,1.75,1.75,2.25,1.5,0.75,0.8333333333333334,0.4796157875098288,0.3831675687732523,,,,,0.013219212139782735,0.5142453958532603,0.01466186246774009,0.9365551040226485,,,,,,,,,,,,,,,,,,,,,,,,
27,240624_092816,LEARNING,1.0,28,1.0,1750.0,,,,,,,,,,28.0,28.0,28.0,cue2.png,Easy,B,,,,,,,,,,,,,,,,,,,,,,,,,,,24,25,Male,0.8571428571428571,0.75,0.4,0.75,1.8333333333333333,1.5,2.4444444444444446,1.5555555555555556,1.75,2.0,1.75,1.75,2.25,1.5,1.0,1.0,0.4366669250302948,-0.1561628067614804,,,0.012476510881497227,0.6849456851419004,0.018059539227222466,2.240433187366428,0.00914858184966251,-1.0686363177673492,,,-1.633329411418801e+42,-0.20066532873851906,,,,,,,,,,,,,,,,,,,,
28,240624_092835,LEARNING,1.0,29,1.0,1750.0,,,,,,,,,,29.0,29.0,29.0,cue2.png,Easy,B,,,,,,,,,,,,,,,,,,,,,,,,,,,24,25,Male,0.8571428571428571,0.75,0.4,0.75,1.8333333333333333,1.5,2.4444444444444446,1.5555555555555556,1.75,2.0,1.75,1.75,2.25,1.5,0.75,0.8333333333333334,0.4231879999279044,-0.32542441970270464,0.006205204092375086,-0.6969155786578182,0.007907814111534768,-0.3182901044876028,0.01514696076474259,1.2017311961717976,0.017037306421447893,1.800508921881948,3.029002022416825e+43,-0.1795855819061462,1.5535504369902664e+43,-0.2006075064587654,,,,,,,,,,,,,,,,,,,,
29,240624_092853,LEARNING,1.0,30,3.0,1750.0,,,,,,,,,,30.0,30.0,30.0,cue1.png,Hard,B,,,,,,,,,,,,,,,,,,,,,,,,,,,24,25,Male,0.8571428571428571,0.75,0.4,0.75,1.8333333333333333,1.5,2.4444444444444446,1.5555555555555556,1.75,2.0,1.75,1.75,2.25,1.5,0.1666666666666666,0.6666666666666667,0.3568930624751374,-1.157923150710781,0.007311311935625046,-0.6003119743868764,0.012561633784408237,0.7036377426404294,0.007982736054833304,-1.3532195347391867,0.014166676570754596,0.7564549818610952,4.1970253853417824e+43,-0.17957773378593286,2.609979463844245e+43,-0.20057192737662813,,,,,,,,,,,,,,,,,,,,
30,240624_092912,LEARNING,1.0,31,3.0,1750.0,,,,,,,,,,31.0,31.0,31.0,cue1.png,Hard,B,,,,,,,,,,,,,,,,,,,,,,,,,,,24,25,Male,0.8571428571428571,0.75,0.4,0.75,1.8333333333333333,1.5,2.4444444444444446,1.5555555555555556,1.75,2.0,1.75,1.75,2.25,1.5,1.0,1.0,0.3890889500326011,-0.7536232665097661,0.008553075892441964,-0.49186063791520135,0.03475107831258023,5.576196816602261,0.01186653370431177,0.03184473181297413,0.013465369943983979,0.5013883292706334,,,2.9848111936770315e+43,-0.20055930355755053,,,,,,,,,,,,,,,,,,,,
31,240624_092930,LEARNING,1.0,32,1.0,1750.0,,,,,,,,,,32.0,32.0,32.0,cue2.png,Easy,B,,,,,,,,,,,,,,,,,,,,,,,,,,,24,25,Male,0.8571428571428571,0.75,0.4,0.75,1.8333333333333333,1.5,2.4444444444444446,1.5555555555555556,1.75,2.0,1.75,1.75,2.25,1.5,1.0,1.0,0.3795663249329664,-0.8732036389470986,0.009668277071996667,-0.39446285334145587,0.008315299178684826,-0.22881084515214953,0.01118746936214003,-0.21032745116832208,0.012881405403242521,0.2889992330427312,3.06218268694361e+43,-0.17958535896039682,2.5703415054194414e+43,-0.20057326232875716,,,,,,,,,,,,,,,,,,,,
32,240624_092949,LEARNING,1.0,33,1.0,1750.0,,,,,,,,,,33.0,33.0,33.0,cue2.png,Easy,B,,,,,,,,,,,,,,,,,,,,,,,,,,,24,25,Male,0.8571428571428571,0.75,0.4,0.75,1.8333333333333333,1.5,2.4444444444444446,1.5555555555555556,1.75,2.0,1.75,1.75,2.25,1.5,1.0,1.0,0.4336974124889821,-0.19345246291534152,0.01750940456652477,0.29035389589500754,0.007476902522559238,-0.4129135715271811,0.011794098017052265,0.006012262899522615,0.014583773641320963,0.9081540383558915,1.2084960592719192e+43,-0.17959781415260756,1.58477704150868e+43,-0.20060645478951095,,,,,,,,,,,,,,,,,,,,
33,240624_093008,LEARNING,1.0,34,1.0,1750.0,,,,,,,,,,34.0,34.0,34.0,cue2.png,Easy,B,,,,,,,,,,,,,,,,,,,,,,,,,,,24,25,Male,0.8571428571428571,0.75,0.4,0.75,1.8333333333333333,1.5,2.4444444444444446,1.5555555555555556,1.75,2.0,1.75,1.75,2.25,1.5,1.0,1.0,0.3901196375372819,-0.7406804073310543,0.008797341303918176,-0.47052734813579405,0.00827302289770491,-0.2380942535872059,0.01123509134845938,-0.19334419984933918,0.012395673643454114,0.11233759989003814,-8.382272396649179e+42,-0.17961156638651263,1.3169282591269401e+42,-0.20065539267492008,,,,,,,,,,,,,,,,,,,,
34,240624_093026,LEARNING,1.0,35,3.0,1750.0,,,,,,,,,,35.0,35.0,35.0,cue1.png,Hard,B,,,,,,,,,,,,,,,,,,,,,,,,,,,24,25,Male,0.8571428571428571,0.75,0.4,0.75,1.8333333333333333,1.5,2.4444444444444446,1.5555555555555556,1.75,2.0,1.75,1.75,2.25,1.5,0.75,0.8333333333333334,0.3546143249841407,-1.1865383986082072,0.059304329659406914,3.940576999225834,0.009340365758605057,-0.0037174472951632988,0.013256054204377445,0.5273842439039543,0.012923869086747437,0.304443361466463,-2.684806169649481e+43,-0.1796239738210606,,,,,,,,,,,,,,,,,,,,,,
35,240624_093045,LEARNING,1.0,36,3.0,1750.0,,,,,,,,,,36.0,36.0,36.0,cue1.png,Hard,B,,,,,,,,,,,,,,,,,,,,,,,,,,,24,25,Male,0.8571428571428571,0.75,0.4,0.75,1.8333333333333333,1.5,2.4444444444444446,1.5555555555555556,1.75,2.0,1.75,1.75,2.25,1.5,1.0,1.0,0.3624417624960188,-1.088245345683522,0.010116625011694639,-0.3553057067697294,0.008496864545572157,-0.18894107847904223,0.011931426759251434,0.05498729990129978,0.011125311146523369,-0.3496958349866135,-3.7017664432317685e+43,-0.1796308069262301,-2.440890027298493e+43,-0.2007420337405408,,,,,,,,,,,,,,,,,,,,
36,240624_093103,LEARNING,1.0,37,1.0,1750.0,,,,,,,,,,37.0,37.0,37.0,cue2.png,Easy,B,,,,,,,,,,,,,,,,,,,,,,,,,,,24,25,Male,0.8571428571428571,0.75,0.4,0.75,1.8333333333333333,1.5,2.4444444444444446,1.5555555555555556,1.75,2.0,1.75,1.75,2.25,1.5,1.0,1.0,0.3548705375287682,-1.1833210093705644,0.010586904853785349,-0.31423310427515927,0.00804265632504341,-0.2886802307410808,0.009629340927288031,-0.7659969820209785,0.010552367406123605,-0.5580766436200179,-3.727863887449324e+43,-0.1796309822787838,-2.731671167367469e+43,-0.2007518268509188,,,,,,,,,,,,,,,,,,,,
37,240624_093123,LEARNING,1.0,38,3.0,1750.0,,,,,,,,,,38.0,38.0,38.0,cue1.png,Hard,B,,,,,,,,,,,,,,,,,,,,,,,,,,,24,25,Male,0.8571428571428571,0.75,0.4,0.75,1.8333333333333333,1.5,2.4444444444444446,1.5555555555555556,1.75,2.0,1.75,1.75,2.25,1.5,0.75,0.8333333333333334,0.5264963249792345,0.9718699561925479,0.02591909684451395,1.024827111884736,0.007644292094110405,-0.37615665430409756,0.013135315065847435,0.4843254953683129,,,,,-2.1095095704036075e+43,-0.20073087330080008,,,,,,,,,,,,,,,,,,,,
38,240624_093142,LEARNING,1.0,39,3.0,1750.0,,,,,,,,,,39.0,39.0,39.0,cue1.png,Hard,B,,,,,,,,,,,,,,,,,,,,,,,,,,,24,25,Male,0.8571428571428571,0.75,0.4,0.75,1.8333333333333333,1.5,2.4444444444444446,1.5555555555555556,1.75,2.0,1.75,1.75,2.25,1.5,0.75,0.8333333333333334,0.4181282624776941,-0.38896207685088746,0.03743572534968953,2.030649310360923,,,0.014326170343347863,0.9090157702909496,0.01157869632529886,-0.1847987194169109,-5.025541973600297e+42,-0.1796093109501301,-7.557949823289247e+42,-0.20068528204829264,,,,,,,,,,,,,,,,,,,,
39,240624_093201,LEARNING,1.0,40,3.0,1750.0,,,,,,,,,,40.0,40.0,40.0,cue1.png,Hard,B,,,,,,,,,,,,,,,,,,,,,,,,,,,24,25,Male,0.8571428571428571,0.75,0.4,0.75,1.8333333333333333,1.5,2.4444444444444446,1.5555555555555556,1.75,2.0,1.75,1.75,2.25,1.5,0.75,0.8333333333333334,0.5108247999742161,0.7750747681899296,,,0.010706213459240095,0.29620775357814677,0.014632114069307048,1.0181233399035932,0.008685327615535674,-1.2371228289260954,,,8.206862473241251e+42,-0.20063218832052496,,,,,,,,,,,,,,,,,,,,
40,240624_093221,LEARNING,1.0,41,1.0,1750.0,,,,,,,,,,41.0,41.0,41.0,cue2.png,Easy,B,,,,,,,,,,,,,,,,,,,,,,,,,,,24,25,Male,0.8571428571428571,0.75,0.4,0.75,1.8333333333333333,1.5,2.4444444444444446,1.5555555555555556,1.75,2.0,1.75,1.75,2.25,1.5,1.0,1.0,0.5704831249895506,1.5242342331146583,,,,,,,,,3.298148622010243e+43,-0.17958377347068535,2.2424486227096084e+43,-0.20058430531177787,,,,,,,,,,,,,,,,,,,,
41,240624_093240,LEARNING,1.0,42,3.0,1750.0,,,,,,,,,,42.0,42.0,42.0,cue1.png,Hard,B,,,,,,,,,,,,,,,,,,,,,,,,,,,24,25,Male,0.8571428571428571,0.75,0.4,0.75,1.8333333333333333,1.5,2.4444444444444446,1.5555555555555556,1.75,2.0,1.75,1.75,2.25,1.5,1.0,1.0,0.4162994624348357,-0.4119272348771975,0.013643554079816943,-0.04727601322060497,,,,,0.011480807754721163,-0.2204009924755468,,,,,,,,,,,,,,,,,,,,,,,,
42,240624_093259,LEARNING,1.0,43,3.0,1750.0,,,,,,,,,,43.0,43.0,43.0,cue1.png,Hard,B,,,,,,,,,,,,,,,,,,,,,,,,,,,24,25,Male,0.8571428571428571,0.75,0.4,0.75,1.8333333333333333,1.5,2.4444444444444446,1.5555555555555556,1.75,2.0,1.75,1.75,2.25,1.5,0.75,0.8333333333333334,0.4402614000428002,-0.11102518386707844,0.033543563462232535,1.6907214551984597,,,0.013252800149965646,0.5262237626188893,0.014849328515265433,1.004736888411082,2.910285024908164e+43,-0.17958637958305698,2.315634319506955e+43,-0.20058184051778657,,,,,,,,,,,,,,,,,,,,
43,240624_093318,LEARNING,1.0,44,1.0,1750.0,,,,,,,,,,44.0,44.0,44.0,cue2.png,Easy,B,,,,,,,,,,,,,,,,,,,,,,,,,,,24,25,Male,0.8571428571428571,0.75,0.4,0.75,1.8333333333333333,1.5,2.4444444444444446,1.5555555555555556,1.75,2.0,1.75,1.75,2.25,1.5,1.0,1.0,0.4128856999741401,-0.45479555975520014,,,,,,,0.012262870974500628,0.064036997939325,6.772828623678844e+42,-0.179601383451956,7.140358473118457e+42,-0.20063578015986822,,,,,,,,,,,,,,,,,,,,
44,240624_093337,LEARNING,1.0,45,1.0,1750.0,,,,,,,,,,45.0,45.0,45.0,cue2.png,Easy,B,,,,,,,,,,,,,,,,,,,,,,,,,,,24,25,Male,0.8571428571428571,0.75,0.4,0.75,1.8333333333333333,1.5,2.4444444444444446,1.5555555555555556,1.75,2.0,1.75,1.75,2.25,1.5,0.75,0.8333333333333334,0.4238657125388272,-0.3169140430395789,0.008449041023007538,-0.5009466808526541,0.011270643650363269,0.4201504438011273,0.008792417889060098,-1.0644657228575252,0.010502618917277287,-0.5761702706257906,,,-1.4255822665267972e+43,-0.20070783956630206,,,,,,,,,,,,,,,,,,,,
45,240624_093357,LEARNING,1.0,46,1.0,1750.0,,,,,,,,,,46.0,46.0,46.0,cue2.png,Easy,B,,,,,,,,,,,,,,,,,,,,,,,,,,,24,25,Male,0.8571428571428571,0.75,0.4,0.75,1.8333333333333333,1.5,2.4444444444444446,1.5555555555555556,1.75,2.0,1.75,1.75,2.25,1.5,0.75,0.8333333333333334,0.5262727249937598,0.9690620991930032,,,0.0094057425691038,0.010638584502653786,0.008161065217811517,-1.289622670634166,,,-4.2180733866332777e+43,-0.1796342760682759,-2.8579335014742927e+43,-0.20075607919333066,,,,,,,,,,,,,,,,,,,,
46,240624_093415,LEARNING,1.0,47,3.0,1750.0,,,,,,,,,,47.0,47.0,47.0,cue1.png,Hard,B,,,,,,,,,,,,,,,,,,,,,,,,,,,24,25,Male,0.8571428571428571,0.75,0.4,0.75,1.8333333333333333,1.5,2.4444444444444446,1.5555555555555556,1.75,2.0,1.75,1.75,2.25,1.5,0.75,0.8333333333333334,0.3756487625068985,-0.9223984323002118,0.010805550452157999,-0.2951373596878012,0.009315920763047672,-0.0090853006799053,0.009959125111124872,-0.648387278856393,0.0095320524152326,-0.9291672898225645,-2.783569060325953e+43,-0.17962463742340218,-2.0145138486418825e+43,-0.20072767397505142,,,,,,,,,,,,,,,,,,,,
47,240624_093434,LEARNING,1.0,48,3.0,1750.0,,,,,,,,,,48.0,48.0,48.0,cue1.png,Hard,B,,,,,,,,,,,,,,,,,,,,,,,,,,,24,25,Male,0.8571428571428571,0.75,0.4,0.75,1.8333333333333333,1.5,2.4444444444444446,1.5555555555555556,1.75,2.0,1.75,1.75,2.25,1.5,0.75,0.8333333333333334,0.4561797624628525,0.08886966517568388,,,,,0.010545812250246981,-0.4391592331694948,,,1.587714238192967e+43,-0.17959526613006818,7.710247480517432e+42,-0.20063386085177576,,,,,,,,,,,,,,,,,,,,
48,240624_093453,LEARNING,1.0,49,1.0,1750.0,,,,,,,,,,49.0,49.0,49.0,cue2.png,Easy,B,,,,,,,,,,,,,,,,,,,,,,,,,,,24,25,Male,0.8571428571428571,0.75,0.4,0.75,1.8333333333333333,1.5,2.4444444444444446,1.5555555555555556,1.75,2.0,1.75,1.75,2.25,1.5,1.0,1.0,0.4399203499779105,-0.1153079203344467,0.006886945994946237,-0.6373746167409434,,,0.008901147709498907,-1.025689812629903,,,5.27619449901885e+43,-0.17957048269044668,3.64287951056477e+43,-0.2005371407183031,,,,,,,,,,,,,,,,,,,,
49,240624_093512,LEARNING,1.0,50,1.0,1750.0,,,,,,,,,,50.0,50.0,50.0,cue2.png,Easy,B,,,,,,,,,,,,,,,,,,,,,,,,,,,24,25,Male,0.8571428571428571,0.75,0.4,0.75,1.8333333333333333,1.5,2.4444444444444446,1.5555555555555556,1.75,2.0,1.75,1.75,2.25,1.5,0.75,0.8333333333333334,0.4281199125107378,-0.2634919234306204,0.010328991973150629,-0.3367583164497779,0.008098083308600377,-0.27650907200252156,0.01115259045368397,-0.22276618616918417,0.011617191410396622,-0.17079797833980914,-3.524812292095498e+42,-0.1796083025878557,-1.879765504737681e+43,-0.20072313583545684,,,,,,,,,,,,,,,,,,,,
0,240624_093646,TrueCHOICE,9.0,1,1.0,1750.0,,,,,,,,,,,1.0,1.0,,,B,,,,,,True,cue2.png,Easy,cue1.png,Hard,Left,Easy,Easy,0.016200799960643,,,,,,,,,,,,,24,25,Male,0.8571428571428571,0.75,0.4,0.75,1.8333333333333333,1.5,2.4444444444444446,1.5555555555555556,1.75,2.0,1.75,1.75,2.25,1.5,1.0,1.0,0.4609394375002011,1.6066323353282754,,,,,,,,,,,,,0.019682360293731698,1.9694271065375977,,,58772981.64602703,-0.44643883879893914,,,,,,,,,,,,,,
1,240624_093703,TrueCHOICE,9.0,2,1.0,1750.0,,,,,,,,,,,2.0,2.0,,,B,,,,,,True,cue2.png,Easy,cue1.png,Hard,Left,Easy,Easy,0.0162202999927103,,,,,,,,,,,,,24,25,Male,0.8571428571428571,0.75,0.4,0.75,1.8333333333333333,1.5,2.4444444444444446,1.5555555555555556,1.75,2.0,1.75,1.75,2.25,1.5,0.75,0.8333333333333334,0.3284535499697085,-0.9317613875388472,,,,,,,,,,,,,0.0075223361976217255,-0.18314300030890066,0.010649954830749219,-0.7973210608162379,19145230.280800153,-0.4477455777074082,,,,,,,,,,,,,,
2,240624_093720,TrueCHOICE,9.0,3,1.0,1750.0,,,,,,,,,,,3.0,3.0,,,B,,,,,,True,cue1.png,Hard,cue2.png,Easy,Right,Easy,Easy,0.0137226001825183,,,,,,,,,,,,,24,25,Male,0.8571428571428571,0.75,0.4,0.75,1.8333333333333333,1.5,2.4444444444444446,1.5555555555555556,1.75,2.0,1.75,1.75,2.25,1.5,0.75,0.8333333333333334,0.2939021624624729,-1.5937566143476674,,,,,,,,,,,,,,,0.010481957080641972,-0.9875472421647693,12369925.14352428,-0.4479689957549787,,,,,,,,,,,,,,
3,240624_093737,TrueCHOICE,9.0,4,1.0,1750.0,,,,,,,,,,,4.0,4.0,,,B,,,,,,True,cue2.png,Easy,cue1.png,Hard,Left,Easy,Easy,0.0160205999854952,,,,,,,,,,,,,24,25,Male,0.8571428571428571,0.75,0.4,0.75,1.8333333333333333,1.5,2.4444444444444446,1.5555555555555556,1.75,2.0,1.75,1.75,2.25,1.5,1.0,1.0,0.3928133998997509,0.3013559060256366,,,,,,,,,,,,,,,0.011686246339582599,0.3760861804321572,16362.936378762714,-0.44837635877301857,,,,,,,,,,,,,,
4,240624_093754,TrueCHOICE,9.0,5,1.0,1750.0,,,,,,,,,,,5.0,5.0,,,B,,,,,,True,cue1.png,Hard,cue2.png,Easy,Right,Easy,Easy,0.0163168001454323,,,,,,,,,,,,,24,25,Male,0.8571428571428571,0.75,0.4,0.75,1.8333333333333333,1.5,2.4444444444444446,1.5555555555555556,1.75,2.0,1.75,1.75,2.25,1.5,1.0,1.0,0.3755571249930653,-0.029269647530914586,,,,,,,,,,,,,0.005894167081671807,-0.4713618508789143,0.011038375408976963,-0.35750705553174106,81407595604.68369,2.2360669309569325,,,,,,,,,,,,,,
5,240624_093812,TrueCHOICE,9.0,6,1.0,1750.0,,,,,,,,,,,6.0,6.0,,,B,,,,,,True,cue1.png,Hard,cue2.png,Easy,Right,Easy,Easy,0.0175965998787432,,,,,,,,,,,,,24,25,Male,0.8571428571428571,0.75,0.4,0.75,1.8333333333333333,1.5,2.4444444444444446,1.5555555555555556,1.75,2.0,1.75,1.75,2.25,1.5,0.75,0.8333333333333334,0.3155842250271234,-1.1783341679361299,,,,,,,,,,,,,,,0.012914000448620701,1.7662891780805892,,,,,,,,,,,,,,,,
6,240624_093829,TrueCHOICE,9.0,7,1.0,1750.0,,,,,,,,,,,7.0,7.0,,,B,,,,,,True,cue2.png,Easy,cue1.png,Hard,Left,Easy,Easy,0.0159094999544322,,,,,,,,,,,,,24,25,Male,0.8571428571428571,0.75,0.4,0.75,1.8333333333333333,1.5,2.4444444444444446,1.5555555555555556,1.75,2.0,1.75,1.75,2.25,1.5,1.0,1.0,0.4120372875186149,0.6696803862431709,,,,,,,,,,,,,0.004976754095914338,-0.6337624968945799,,,,,,,,,,,,,,,,,,
7,240624_093846,TrueCHOICE,9.0,8,3.0,1750.0,,,,,,,,,,,8.0,8.0,,,B,,,,,,True,cue1.png,Hard,cue2.png,Easy,Left,Hard,Hard,0.0158247000072151,,,,,,,,,,,,,24,25,Male,0.8571428571428571,0.75,0.4,0.75,1.8333333333333333,1.5,2.4444444444444446,1.5555555555555556,1.75,2.0,1.75,1.75,2.25,1.5,0.1666666666666666,0.6666666666666667,0.3464448624581564,-0.5870527129918618,,,,,,,,,,,,,0.004709003540039918,-0.6811597584552035,,,86117010.4277115,-0.44553715992258786,,,,,,,,,,,,,,
8,240624_093903,TrueCHOICE,9.0,9,3.0,1750.0,,,,,,,,,,,9.0,9.0,,,B,,,,,,True,cue2.png,Easy,cue1.png,Hard,Right,Hard,Hard,0.0165043000597506,,,,,,,,,,,,,24,25,Male,0.8571428571428571,0.75,0.4,0.75,1.8333333333333333,1.5,2.4444444444444446,1.5555555555555556,1.75,2.0,1.75,1.75,2.25,1.5,0.75,0.8333333333333334,0.439832225034479,1.202223861120936,,,,,,,,,,,,,,,,,,,,,,,,,,,,,,,,
9,240624_093920,TrueCHOICE,9.0,10,3.0,1750.0,,,,,,,,,,,10.0,10.0,,,B,,,,,,True,cue1.png,Hard,cue2.png,Easy,Left,Hard,Hard,0.0152173999231308,,,,,,,,,,,,,24,25,Male,0.8571428571428571,0.75,0.4,0.75,1.8333333333333333,1.5,2.4444444444444446,1.5555555555555556,1.75,2.0,1.75,1.75,2.25,1.5,0.75,0.8333333333333334,0.4052836250048131,0.5402820416273955,,,,,,,,,,,,,,,,,,,,,,,,,,,,,,,,
0,240624_094052,FalseCHOICE,9.0,1,2.0,1750.0,,,,,,,,,,,1.0,1.0,,,B,,,,,,False,cue2.png,Easy,cue1.png,Hard,Left,Easy,Mid,0.0161856999620795,,,,,,,,,,,,,24,25,Male,0.8571428571428571,0.75,0.4,0.75,1.8333333333333333,1.5,2.4444444444444446,1.5555555555555556,1.75,2.0,1.75,1.75,2.25,1.5,0.75,0.8333333333333334,0.3694074124796316,-0.37269887178459027,,,,,,,,,,,,,,,,,,,0.005462065876643929,-0.5335926217666852,0.01653564301727569,1.2302470244238133,1.8664470051310753e+45,-0.1687148044213533,,,,,,,,
1,240624_094109,FalseCHOICE,9.0,2,2.0,1750.0,,,,,,,,,,,2.0,2.0,,,B,,,,,,False,cue1.png,Hard,cue2.png,Easy,Right,Easy,Mid,0.01411799993366,,,,,,,,,,,,,24,25,Male,0.8571428571428571,0.75,0.4,0.75,1.8333333333333333,1.5,2.4444444444444446,1.5555555555555556,1.75,2.0,1.75,1.75,2.25,1.5,0.75,0.8333333333333334,0.4214950624736957,0.5804876326925944,,,,,,,,,,,,,,,,,,,0.006151425056321383,-0.43821434371706197,0.013744315057440639,0.49372729716515745,2.5229573751469917e+44,-0.1711857973131425,,,,,,,,
2,240624_094126,FalseCHOICE,9.0,3,2.0,1750.0,,,,,,,,,,,3.0,3.0,,,B,,,,,,False,cue1.png,Hard,cue2.png,Easy,Right,Easy,Mid,0.0167179000563919,,,,,,,,,,,,,24,25,Male,0.8571428571428571,0.75,0.4,0.75,1.8333333333333333,1.5,2.4444444444444446,1.5555555555555556,1.75,2.0,1.75,1.75,2.25,1.5,0.1666666666666666,0.6666666666666667,0.4027390749834012,0.23725935965802708,,,,,,,,,,,,,,,,,,,,,0.01218116545186248,0.08127468044256561,-2.8493620616827276e+44,-0.17200820865755326,,,,,,,,
3,240624_094142,FalseCHOICE,9.0,4,2.0,1750.0,,,,,,,,,,,4.0,4.0,,,B,,,,,,False,cue1.png,Hard,cue2.png,Easy,Right,Easy,Mid,0.0155266998335719,,,,,,,,,,,,,24,25,Male,0.8571428571428571,0.75,0.4,0.75,1.8333333333333333,1.5,2.4444444444444446,1.5555555555555556,1.75,2.0,1.75,1.75,2.25,1.5,1.0,1.0,0.4190222999895923,0.5352369095577729,,,,,,,,,,,,,,,,,,,0.01122903607318014,0.2643131770165883,0.009538722449411351,-0.6159602655996963,-3.472549949364332e+44,-0.17210360819485837,,,,,,,,
4,240624_094159,FalseCHOICE,9.0,5,2.0,1750.0,,,,,,,,,,,5.0,5.0,,,B,,,,,,False,cue2.png,Easy,cue1.png,Hard,Left,Easy,Mid,0.014944199938327,,,,,,,,,,,,,24,25,Male,0.8571428571428571,0.75,0.4,0.75,1.8333333333333333,1.5,2.4444444444444446,1.5555555555555556,1.75,2.0,1.75,1.75,2.25,1.5,0.75,0.8333333333333334,0.4181721250351984,0.5196789933710166,,,,,,,,,,,,,,,,,,,0.006795617813244835,-0.34908519638903684,0.010461764225912815,-0.37240648501227414,3.9210879358654305e+48,5.830951171508015,,,,,,,,
5,240624_094215,FalseCHOICE,9.0,6,2.0,1750.0,,,,,,,,,,,6.0,6.0,,,B,,,,,,False,cue1.png,Hard,cue2.png,Easy,Right,Easy,Mid,0.016712199896574,,,,,,,,,,,,,24,25,Male,0.8571428571428571,0.75,0.4,0.75,1.8333333333333333,1.5,2.4444444444444446,1.5555555555555556,1.75,2.0,1.75,1.75,2.25,1.5,0.75,0.8333333333333334,0.3122298750386107,-1.419028607417335,,,,,,,,,,,,,,,,,,,0.004632219035504354,-0.6484084755134146,0.014150999330072264,0.601034999401884,-5.382903417783468e+43,-0.17165442262108524,,,,,,,,
6,240624_094232,FalseCHOICE,9.0,7,2.0,1750.0,,,,,,,,,,,7.0,7.0,,,B,,,,,,False,cue1.png,Hard,cue2.png,Easy,Right,Easy,Mid,0.016535900067538,,,,,,,,,,,,,24,25,Male,0.8571428571428571,0.75,0.4,0.75,1.8333333333333333,1.5,2.4444444444444446,1.5555555555555556,1.75,2.0,1.75,1.75,2.25,1.5,0.1666666666666666,0.6666666666666667,0.3609409750206396,-0.5276318343550067,,,,,,,,,,,,,,,,,,,0.00850051794781146,-0.1131988197723943,0.008531394669963083,-0.8817537488646109,3.940435773697349e+43,-0.1715116980491564,,,,,,,,
7,240624_094248,FalseCHOICE,9.0,8,2.0,1750.0,,,,,,,,,,,8.0,8.0,,,B,,,,,,False,cue2.png,Easy,cue1.png,Hard,Left,Easy,Mid,0.0153717000503093,,,,,,,,,,,,,24,25,Male,0.8571428571428571,0.75,0.4,0.75,1.8333333333333333,1.5,2.4444444444444446,1.5555555555555556,1.75,2.0,1.75,1.75,2.25,1.5,0.75,0.8333333333333334,0.2879073625081219,-1.8641224195144674,,,,,,,,,,,,,,,,,,,0.006768681803110397,-0.3528120057793926,,,,,,,,,,,,
8,240624_094305,FalseCHOICE,9.0,9,2.0,1750.0,,,,,,,,,,,9.0,9.0,,,B,,,,,,False,cue2.png,Easy,cue1.png,Hard,Left,Easy,Mid,0.0159213000442832,,,,,,,,,,,,,24,25,Male,0.8571428571428571,0.75,0.4,0.75,1.8333333333333333,1.5,2.4444444444444446,1.5555555555555556,1.75,2.0,1.75,1.75,2.25,1.5,0.75,0.8333333333333334,0.473413125029765,1.530570743999921,,,,,,,,,,,,,,,,,,,0.007357308612501833,-0.27137084542541356,0.013947011893336022,0.5472108793303581,,,,,,,,,,
9,240624_094321,FalseCHOICE,9.0,10,2.0,1750.0,,,,,,,,,,,10.0,10.0,,,B,,,,,,False,cue1.png,Hard,cue2.png,Easy,Right,Easy,Mid,0.0162477998528629,,,,,,,,,,,,,24,25,Male,0.8571428571428571,0.75,0.4,0.75,1.8333333333333333,1.5,2.4444444444444446,1.5555555555555556,1.75,2.0,1.75,1.75,2.25,1.5,1.0,1.0,0.3347698500147089,-1.0065546340106135,,,,,,,,,,,,,,,,,,,0.006090995509158431,-0.44657524804913695,,,,,,,,,,,,
10,240624_094336,FalseCHOICE,9.0,11,2.0,1750.0,,,,,,,,,,,11.0,11.0,,,B,,,,,,False,cue2.png,Easy,cue1.png,Hard,Left,Easy,Mid,0.0160260999109596,,,,,,,,,,,,,24,25,Male,0.8571428571428571,0.75,0.4,0.75,1.8333333333333333,1.5,2.4444444444444446,1.5555555555555556,1.75,2.0,1.75,1.75,2.25,1.5,0.75,0.8333333333333334,0.2591182125615887,-2.3909541964814207,,,,,,,,,,,,,,,,,,,,,0.012904242310066979,0.2720657225755343,1.15548697917135e+44,-0.17139513392836433,,,,,,,,
11,240624_094353,FalseCHOICE,9.0,12,2.0,1750.0,,,,,,,,,,,12.0,12.0,,,B,,,,,,False,cue1.png,Hard,cue2.png,Easy,Right,Easy,Mid,0.0134048000909388,,,,,,,,,,,,,24,25,Male,0.8571428571428571,0.75,0.4,0.75,1.8333333333333333,1.5,2.4444444444444446,1.5555555555555556,1.75,2.0,1.75,1.75,2.25,1.5,1.0,1.0,0.4467768249742221,1.0431353971366677,,,,,,,,,,,,,,,,,,,0.018147628110865753,1.2215549379677404,0.011327268292609667,-0.14403460312760558,,,,,,,,,,
12,240624_094411,FalseCHOICE,9.0,13,2.0,1750.0,,,,,,,,,,,13.0,13.0,,,B,,,,,,False,cue2.png,Easy,cue1.png,Hard,Left,Easy,Mid,0.0159607999958097,,,,,,,,,,,,,24,25,Male,0.8571428571428571,0.75,0.4,0.75,1.8333333333333333,1.5,2.4444444444444446,1.5555555555555556,1.75,2.0,1.75,1.75,2.25,1.5,0.75,0.8333333333333334,0.5299922374251764,2.565949502242035,,,,,,,,,,,,,,,,,,,0.006773013201472171,-0.3522127226633162,0.015225782746348407,0.8846273253515045,,,,,,,,,,
13,240624_094428,FalseCHOICE,9.0,14,2.0,1750.0,,,,,,,,,,,14.0,14.0,,,B,,,,,,False,cue1.png,Hard,cue2.png,Easy,Right,Easy,Mid,0.0166843000333756,,,,,,,,,,,,,24,25,Male,0.8571428571428571,0.75,0.4,0.75,1.8333333333333333,1.5,2.4444444444444446,1.5555555555555556,1.75,2.0,1.75,1.75,2.25,1.5,0.75,0.8333333333333334,0.4711062250426039,1.488355248864488,,,,,,,,,,,,,,,,,,,0.009777557586538312,0.06348968359949121,0.008998438688119663,-0.7585195256489347,,,,,,,,,,
14,240624_094445,FalseCHOICE,9.0,15,2.0,1750.0,,,,,,,,,,,15.0,15.0,,,B,,,,,,False,cue2.png,Easy,cue1.png,Hard,Left,Easy,Mid,0.017016900004819,,,,,,,,,,,,,24,25,Male,0.8571428571428571,0.75,0.4,0.75,1.8333333333333333,1.5,2.4444444444444446,1.5555555555555556,1.75,2.0,1.75,1.75,2.25,1.5,0.75,0.8333333333333334,0.4492484375368804,1.0883650770951723,,,,,,,,,,,,,,,,,,,0.007343619602099763,-0.2732648279512772,0.015201525043891653,0.8782266885741529,,,,,,,,,,
15,240624_094502,FalseCHOICE,9.0,16,2.0,1750.0,,,,,,,,,,,16.0,16.0,,,B,,,,,,False,cue2.png,Easy,cue1.png,Hard,Left,Easy,Mid,0.0161691999528557,,,,,,,,,,,,,24,25,Male,0.8571428571428571,0.75,0.4,0.75,1.8333333333333333,1.5,2.4444444444444446,1.5555555555555556,1.75,2.0,1.75,1.75,2.25,1.5,0.75,0.8333333333333334,0.3927576999994926,0.054603549079663784,,,,,,,,,,,,,,,,,,,0.014092696193242278,0.6605231343550834,,,,,,,,,,,,
16,240624_094518,FalseCHOICE,9.0,17,2.0,1750.0,,,,,,,,,,,17.0,17.0,,,B,,,,,,False,cue1.png,Hard,cue2.png,Easy,Right,Easy,Mid,0.0154426998924463,,,,,,,,,,,,,24,25,Male,0.8571428571428571,0.75,0.4,0.75,1.8333333333333333,1.5,2.4444444444444446,1.5555555555555556,1.75,2.0,1.75,1.75,2.25,1.5,0.75,0.8333333333333334,0.3492940374708269,-0.7407668806132885,,,,,,,,,,,,,,,,,,,0.006622246553087751,-0.373072477250101,0.011748126701110893,-0.03298691374675915,,,,,,,,,,
17,240624_094535,FalseCHOICE,9.0,18,2.0,1750.0,,,,,,,,,,,18.0,18.0,,,B,,,,,,False,cue1.png,Hard,cue2.png,Easy,Right,Easy,Mid,0.0164806998800486,,,,,,,,,,,,,24,25,Male,0.8571428571428571,0.75,0.4,0.75,1.8333333333333333,1.5,2.4444444444444446,1.5555555555555556,1.75,2.0,1.75,1.75,2.25,1.5,1.0,1.0,0.4723631749802734,1.5113570106549805,,,,,,,,,,,,,,,,,,,0.008254101384728233,-0.14729249424958238,0.009726049760816926,-0.5665320857907268,,,,,,,,,,
18,240624_094552,FalseCHOICE,9.0,19,2.0,1750.0,,,,,,,,,,,19.0,19.0,,,B,,,,,,False,cue2.png,Easy,cue1.png,Hard,Left,Easy,Mid,0.0161330001428723,,,,,,,,,,,,,24,25,Male,0.8571428571428571,0.75,0.4,0.75,1.8333333333333333,1.5,2.4444444444444446,1.5555555555555556,1.75,2.0,1.75,1.75,2.25,1.5,0.1666666666666666,0.6666666666666667,0.417448174994206,0.5064309507146805,,,,,,,,,,,,,,,,,,,,,0.009131037707900217,-0.7235319515305174,,,,,,,,,,
19,240624_094614,FalseCHOICE,9.0,20,2.0,1750.0,,,,,,,,,,,21.0,20.0,,,B,,,,,,False,cue2.png,Easy,cue1.png,Hard,Left,Easy,Mid,0.0154366001952439,,,,,,,,,,,,,24,25,Male,0.8571428571428571,0.75,0.4,0.75,1.8333333333333333,1.5,2.4444444444444446,1.5555555555555556,1.75,2.0,1.75,1.75,2.25,1.5,0.75,0.8333333333333334,0.3979090500506572,0.14887152525381422,,,,,,,,,,,,,,,,,,,0.009681681874322319,0.050224522842190075,,,4.043561567702264e+43,-0.17151011936747362,,,,,,,,
20,240624_094630,FalseCHOICE,9.0,21,2.0,1750.0,,,,,,,,,,,22.0,21.0,,,B,,,,,,False,cue2.png,Easy,cue1.png,Hard,Left,Easy,Mid,0.0162555000279098,,,,,,,,,,,,,24,25,Male,0.8571428571428571,0.75,0.4,0.75,1.8333333333333333,1.5,2.4444444444444446,1.5555555555555556,1.75,2.0,1.75,1.75,2.25,1.5,0.75,0.8333333333333334,0.3926231374789495,0.052141100138220924,,,,,,,,,,,,,,,,,,,0.0062914856099110785,-0.4188358617618168,0.010700977426006718,-0.30928769588215577,1.9304820781300587e+43,-0.17154246704456727,,,,,,,,
21,240624_094647,FalseCHOICE,9.0,22,2.0,1750.0,,,,,,,,,,,23.0,22.0,,,B,,,,,,False,cue1.png,Hard,cue2.png,Easy,Right,Easy,Mid,0.0167216998524963,,,,,,,,,,,,,24,25,Male,0.8571428571428571,0.75,0.4,0.75,1.8333333333333333,1.5,2.4444444444444446,1.5555555555555556,1.75,2.0,1.75,1.75,2.25,1.5,0.75,0.8333333333333334,0.426123462500982,0.6651857990301784,,,,,,,,,,,,,,,,,,,,,,,-4.552122799267484e+42,-0.17157898799473476,,,,,,,,
22,240624_094703,FalseCHOICE,9.0,23,2.0,1750.0,,,,,,,,,,,24.0,23.0,,,B,,,,,,False,cue2.png,Easy,cue1.png,Hard,Left,Easy,Mid,0.0190848000347614,,,,,,,,,,,,,24,25,Male,0.8571428571428571,0.75,0.4,0.75,1.8333333333333333,1.5,2.4444444444444446,1.5555555555555556,1.75,2.0,1.75,1.75,2.25,1.5,1.0,1.0,0.3089732625230681,-1.478623522919963,,,,,,,,,,,,,,,,,,,0.006112086002334429,-0.4436572120214087,0.009593629478161404,-0.6014724983357014,-2.378479427763127e+43,-0.1716084299655504,,,,,,,,
23,240624_094719,FalseCHOICE,9.0,24,2.0,1750.0,,,,,,,,,,,25.0,24.0,,,B,,,,,,False,cue1.png,Hard,cue2.png,Easy,Right,Easy,Mid,0.0189744001254439,,,,,,,,,,,,,24,25,Male,0.8571428571428571,0.75,0.4,0.75,1.8333333333333333,1.5,2.4444444444444446,1.5555555555555556,1.75,2.0,1.75,1.75,2.25,1.5,0.1666666666666666,0.6666666666666667,0.3970534249092452,0.13321387247473496,,,,,,,,,,,,,,,,,,,0.006442696841684474,-0.39791459555766323,0.010935831592953306,-0.24731908113174805,-3.618826209444348e+43,-0.17162741757930366,,,,,,,,
24,240624_094736,FalseCHOICE,9.0,25,2.0,1750.0,,,,,,,,,,,26.0,25.0,,,B,,,,,,False,cue1.png,Hard,cue2.png,Easy,Right,Easy,Mid,0.0165647000540047,,,,,,,,,,,,,24,25,Male,0.8571428571428571,0.75,0.4,0.75,1.8333333333333333,1.5,2.4444444444444446,1.5555555555555556,1.75,2.0,1.75,1.75,2.25,1.5,0.75,0.8333333333333334,0.3925353499944322,0.050534618649548536,,,,,,,,,,,,,,,,,,,0.023513837423712897,1.964012308525552,0.011737642091068798,-0.03575338269620977,-3.754688569835492e+43,-0.17162949740251185,,,,,,,,
25,240624_094752,FalseCHOICE,9.0,26,2.0,1750.0,,,,,,,,,,,27.0,26.0,,,B,,,,,,False,cue2.png,Easy,cue1.png,Hard,Right,Hard,Mid,0.0179961998946964,,,,,,,,,,,,,24,25,Male,0.8571428571428571,0.75,0.4,0.75,1.8333333333333333,1.5,2.4444444444444446,1.5555555555555556,1.75,2.0,1.75,1.75,2.25,1.5,0.75,0.8333333333333334,0.3000881875050254,-1.641217412247487,,,,,,,,,,,,,,,,,,,0.0063408494168845295,-0.41200598983742365,0.028525914798251784,4.3939998434954655,-2.709275457060677e+43,-0.17161349389390348,,,,,,,,
26,240624_094809,FalseCHOICE,9.0,27,2.0,1750.0,,,,,,,,,,,28.0,27.0,,,B,,,,,,False,cue2.png,Easy,cue1.png,Hard,Right,Hard,Mid,0.0167537999805063,,,,,,,,,,,,,24,25,Male,0.8571428571428571,0.75,0.4,0.75,1.8333333333333333,1.5,2.4444444444444446,1.5555555555555556,1.75,2.0,1.75,1.75,2.25,1.5,0.75,0.8333333333333334,0.3847393875184934,-0.09212887686852946,,,,,,,,,,,,,,,,,,,0.006118060829274705,-0.44283054760319535,0.01281640390508181,0.2488886831830243,4.600585941594004e+43,-0.17150159226536085,,,,,,,,
27,240624_094825,FalseCHOICE,9.0,28,2.0,1750.0,,,,,,,,,,,29.0,28.0,,,B,,,,,,False,cue1.png,Hard,cue2.png,Easy,Left,Hard,Mid,0.0184985001105815,,,,,,,,,,,,,24,25,Male,0.8571428571428571,0.75,0.4,0.75,1.8333333333333333,1.5,2.4444444444444446,1.5555555555555556,1.75,2.0,1.75,1.75,2.25,1.5,1.0,1.0,0.379018437495688,-0.19682034125880257,,,,,,,,,,,,,,,,,,,0.005747310071018972,-0.4941268383475492,0.012078270562751403,0.05412483751659189,5.66895020386354e+42,-0.17156334125874173,,,,,,,,
28,240624_094841,FalseCHOICE,9.0,29,2.0,1750.0,,,,,,,,,,,30.0,29.0,,,B,,,,,,False,cue2.png,Easy,cue1.png,Hard,Right,Hard,Mid,0.0165417999960482,,,,,,,,,,,,,24,25,Male,0.8571428571428571,0.75,0.4,0.75,1.8333333333333333,1.5,2.4444444444444446,1.5555555555555556,1.75,2.0,1.75,1.75,2.25,1.5,0.1666666666666666,0.6666666666666667,0.3529966374917421,-0.673010543519649,,,,,,,,,,,,,,,,,,,,,0.01041613800298296,-0.3844454190793858,2.319186876981229e+43,-0.1715365166307849,,,,,,,,
29,240624_094857,FalseCHOICE,9.0,30,2.0,1750.0,,,,,,,,,,,31.0,30.0,,,B,,,,,,False,cue2.png,Easy,cue1.png,Hard,Right,Hard,Mid,0.0166786999907344,,,,,,,,,,,,,24,25,Male,0.8571428571428571,0.75,0.4,0.75,1.8333333333333333,1.5,2.4444444444444446,1.5555555555555556,1.75,2.0,1.75,1.75,2.25,1.5,1.0,1.0,0.3371314000105485,-0.9633390620671878,,,,,,,,,,,,,,,,,,,0.005132414714169649,-0.5792024593676941,0.011053278748155468,-0.21632947763065577,3.0656377086478316e+43,-0.17152508972962563,,,,,,,,
30,240624_094914,FalseCHOICE,9.0,31,2.0,1750.0,,,,,,,,,,,32.0,31.0,,,B,,,,,,False,cue1.png,Hard,cue2.png,Easy,Left,Hard,Mid,0.0159791000187397,,,,,,,,,,,,,24,25,Male,0.8571428571428571,0.75,0.4,0.75,1.8333333333333333,1.5,2.4444444444444446,1.5555555555555556,1.75,2.0,1.75,1.75,2.25,1.5,0.1666666666666666,0.6666666666666667,0.3509459999913815,-0.7105365211965322,,,,,,,,,,,,,,,,,,,0.00574374367064895,-0.4946202779595195,0.01479542521583861,0.7710731978696465,,,,,,,,,,
31,240624_094930,FalseCHOICE,9.0,32,2.0,1750.0,,,,,,,,,,,33.0,32.0,,,B,,,,,,False,cue2.png,Easy,cue1.png,Hard,Right,Hard,Mid,0.0167384999804198,,,,,,,,,,,,,24,25,Male,0.8571428571428571,0.75,0.4,0.75,1.8333333333333333,1.5,2.4444444444444446,1.5555555555555556,1.75,2.0,1.75,1.75,2.25,1.5,0.75,0.8333333333333334,0.4010987750079948,0.20724242090133815,,,,,,,,,,,,,,,,,,,0.005286411296050116,-0.5578958180139674,0.008871138754602796,-0.7921088829953313,2.506272341253477e+43,-0.17153365266839396,,,,,,,,
32,240624_094946,FalseCHOICE,9.0,33,2.0,1750.0,,,,,,,,,,,34.0,33.0,,,B,,,,,,False,cue1.png,Hard,cue2.png,Easy,Left,Hard,Mid,0.0163243000861257,,,,,,,,,,,,,24,25,Male,0.8571428571428571,0.75,0.4,0.75,1.8333333333333333,1.5,2.4444444444444446,1.5555555555555556,1.75,2.0,1.75,1.75,2.25,1.5,0.75,0.8333333333333334,0.3715305749501567,-0.3338457115067208,,,,,,,,,,,,,,,,,,,,,0.010215682590100469,-0.4373375794231878,1.0682769912071284e+43,-0.17155566594781627,,,,,,,,
33,240624_095002,FalseCHOICE,9.0,34,2.0,1750.0,,,,,,,,,,,35.0,34.0,,,B,,,,,,False,cue1.png,Hard,cue2.png,Easy,Left,Hard,Mid,0.0164229001384228,,,,,,,,,,,,,24,25,Male,0.8571428571428571,0.75,0.4,0.75,1.8333333333333333,1.5,2.4444444444444446,1.5555555555555556,1.75,2.0,1.75,1.75,2.25,1.5,1.0,1.0,0.4129589875228703,0.4242803274050691,,,,,,,,,,,,,,,,,,,0.0064920173024997085,-0.3910907209160403,0.00912943494286185,-0.7239548570743676,-6.806978283895394e+42,-0.17158243979754054,,,,,,,,
34,240624_095019,FalseCHOICE,9.0,35,2.0,1750.0,,,,,,,,,,,36.0,35.0,,,B,,,,,,False,cue1.png,Hard,cue2.png,Easy,Left,Hard,Mid,0.0161333999130874,,,,,,,,,,,,,24,25,Male,0.8571428571428571,0.75,0.4,0.75,1.8333333333333333,1.5,2.4444444444444446,1.5555555555555556,1.75,2.0,1.75,1.75,2.25,1.5,0.75,0.8333333333333334,0.4521760375064332,1.1419391734846924,,,,,,,,,,,,,,,,,,,0.0046404107651800836,-0.647275085121653,0.007795793571716636,-1.0758494366689404,,,,,,,,,,
35,240624_095036,FalseCHOICE,9.0,36,2.0,1750.0,,,,,,,,,,,37.0,36.0,,,B,,,,,,False,cue2.png,Easy,cue1.png,Hard,Right,Hard,Mid,0.0165392998605966,,,,,,,,,,,,,24,25,Male,0.8571428571428571,0.75,0.4,0.75,1.8333333333333333,1.5,2.4444444444444446,1.5555555555555556,1.75,2.0,1.75,1.75,2.25,1.5,0.75,0.8333333333333334,0.3986355625384021,0.16216645982528202,,,,,,,,,,,,,,,,,,,,,0.009017049213508542,-0.7536089528746888,-2.7900714040746754e+43,-0.17161473074335348,,,,,,,,
36,240624_095052,FalseCHOICE,9.0,37,2.0,1750.0,,,,,,,,,,,38.0,37.0,,,B,,,,,,False,cue1.png,Hard,cue2.png,Easy,Left,Hard,Mid,0.0161756000015884,,,,,,,,,,,,,24,25,Male,0.8571428571428571,0.75,0.4,0.75,1.8333333333333333,1.5,2.4444444444444446,1.5555555555555556,1.75,2.0,1.75,1.75,2.25,1.5,0.75,0.8333333333333334,0.3666247124783695,-0.4236213474100788,,,,,,,,,,,,,,,,,,,,,0.009282583811121714,-0.6835450004384629,-2.83649612150292e+43,-0.17161544142734617,,,,,,,,
37,240624_095110,FalseCHOICE,9.0,38,2.0,1750.0,,,,,,,,,,,39.0,38.0,,,B,,,,,,False,cue2.png,Easy,cue1.png,Hard,Right,Hard,Mid,0.0162332002073526,,,,,,,,,,,,,24,25,Male,0.8571428571428571,0.75,0.4,0.75,1.8333333333333333,1.5,2.4444444444444446,1.5555555555555556,1.75,2.0,1.75,1.75,2.25,1.5,0.75,0.8333333333333334,0.4187064374855254,0.5294567317962259,,,,,,,,,,,,,,,,,,,0.009518710019590516,0.027676081720182308,0.007872298661243426,-1.0556628056162785,-2.0090284664502374e+43,-0.17160277429549278,,,,,,,,
38,240624_095126,FalseCHOICE,9.0,39,2.0,1750.0,,,,,,,,,,,40.0,39.0,,,B,,,,,,False,cue2.png,Easy,cue1.png,Hard,Right,Hard,Mid,0.0165308997966349,,,,,,,,,,,,,24,25,Male,0.8571428571428571,0.75,0.4,0.75,1.8333333333333333,1.5,2.4444444444444446,1.5555555555555556,1.75,2.0,1.75,1.75,2.25,1.5,0.75,0.8333333333333334,0.3259428124583792,-1.16808645727708,,,,,,,,,,,,,,,,,,,0.004847929518794849,-0.6185632292905009,0.008814500331463858,-0.8070534959404602,-3.193873829117191e+42,-0.1715769087450276,,,,,,,,
39,240624_095142,FalseCHOICE,9.0,40,2.0,1750.0,,,,,,,,,,,41.0,40.0,,,B,,,,,,False,cue1.png,Hard,cue2.png,Easy,Left,Hard,Mid,0.0161466000135988,,,,,,,,,,,,,24,25,Male,0.8571428571428571,0.75,0.4,0.75,1.8333333333333333,1.5,2.4444444444444446,1.5555555555555556,1.75,2.0,1.75,1.75,2.25,1.5,0.75,0.8333333333333334,0.3687154750223271,-0.38536109490888315,,,,,,,,,,,,,,,,,,,0.00460970566738577,-0.6515233775087031,,,1.2970591493991343e+43,-0.17155216367948492,,,,,,,,
40,240624_095157,FalseCHOICE,9.0,41,2.0,1750.0,,,,,,,,,,,42.0,41.0,,,B,,,,,,False,cue1.png,Hard,cue2.png,Easy,Left,Hard,Mid,0.0147951000835746,,,,,,,,,,,,,24,25,Male,0.8571428571428571,0.75,0.4,0.75,1.8333333333333333,1.5,2.4444444444444446,1.5555555555555556,1.75,2.0,1.75,1.75,2.25,1.5,0.75,0.8333333333333334,0.3178306374757085,-1.3165365354879481,,,,,,,,,,,,,,,,,,,0.03233432057482713,3.1843957012768027,,,2.598811267375314e+43,-0.1715322360537727,,,,,,,,
41,240624_095214,FalseCHOICE,9.0,42,2.0,1750.0,,,,,,,,,,,43.0,42.0,,,B,,,,,,False,cue2.png,Easy,cue1.png,Hard,Right,Hard,Mid,0.0166301999706774,,,,,,,,,,,,,24,25,Male,0.8571428571428571,0.75,0.4,0.75,1.8333333333333333,1.5,2.4444444444444446,1.5555555555555556,1.75,2.0,1.75,1.75,2.25,1.5,0.1666666666666666,0.6666666666666667,0.3994666374928783,0.17737485242709813,,,,,,,,,,,,,,,,,,,0.006416426231107952,-0.40154934167255985,,,,,,,,,,,,
42,240624_095231,FalseCHOICE,9.0,43,2.0,1750.0,,,,,,,,,,,44.0,43.0,,,B,,,,,,False,cue1.png,Hard,cue2.png,Easy,Right,Easy,Mid,0.0168057999107986,,,,,,,,,,,,,24,25,Male,0.8571428571428571,0.75,0.4,0.75,1.8333333333333333,1.5,2.4444444444444446,1.5555555555555556,1.75,2.0,1.75,1.75,2.25,1.5,0.75,0.8333333333333334,0.4100682125717867,0.3713801164881324,,,,,,,,,,,,,,,,,,,0.005799137334273495,-0.4869561278225166,0.010084118256236877,-0.4720521413408442,2.1965704693664834e+43,-0.17153839368083412,,,,,,,,
43,240624_095248,FalseCHOICE,9.0,44,2.0,1750.0,,,,,,,,,,,45.0,44.0,,,B,,,,,,False,cue2.png,Easy,cue1.png,Hard,Right,Hard,Mid,0.0164340001065284,,,,,,,,,,,,,24,25,Male,0.8571428571428571,0.75,0.4,0.75,1.8333333333333333,1.5,2.4444444444444446,1.5555555555555556,1.75,2.0,1.75,1.75,2.25,1.5,1.0,1.0,0.4251727375376504,0.6477878514433605,,,,,,,,,,,,,,,,,,,,,,,4.909585634261659e+42,-0.17156450371760879,,,,,,,,
44,240624_095304,FalseCHOICE,9.0,45,2.0,1750.0,,,,,,,,,,,46.0,45.0,,,B,,,,,,False,cue1.png,Hard,cue2.png,Easy,Left,Hard,Mid,0.016087100142613,,,,,,,,,,,,,24,25,Male,0.8571428571428571,0.75,0.4,0.75,1.8333333333333333,1.5,2.4444444444444446,1.5555555555555556,1.75,2.0,1.75,1.75,2.25,1.5,0.1666666666666666,0.6666666666666667,0.3882940500043332,-0.02707974699110281,,,,,,,,,,,,,,,,,,,0.006005202706416393,-0.4584453587777926,0.009187637821621223,-0.708597446907468,-1.7604885426886423e+43,-0.17159896956914983,,,,,,,,
45,240624_095320,FalseCHOICE,9.0,46,2.0,1750.0,,,,,,,,,,,47.0,46.0,,,B,,,,,,False,cue1.png,Hard,cue2.png,Easy,Left,Hard,Mid,0.016057200031355,,,,,,,,,,,,,24,25,Male,0.8571428571428571,0.75,0.4,0.75,1.8333333333333333,1.5,2.4444444444444446,1.5555555555555556,1.75,2.0,1.75,1.75,2.25,1.5,0.1666666666666666,0.6666666666666667,0.4066322250291705,0.3085026982220612,,,,,,,,,,,,,,,,,,,,,,,,,,,,,,,,
46,240624_095336,FalseCHOICE,9.0,47,2.0,1750.0,,,,,,,,,,,48.0,47.0,,,B,,,,,,False,cue2.png,Easy,cue1.png,Hard,Left,Easy,Mid,0.0161550999619066,,,,,,,,,,,,,24,25,Male,0.8571428571428571,0.75,0.4,0.75,1.8333333333333333,1.5,2.4444444444444446,1.5555555555555556,1.75,2.0,1.75,1.75,2.25,1.5,0.75,0.8333333333333334,0.3567524625104852,-0.6042802068380809,,,,,,,,,,,,,,,,,,,0.036946938775055053,3.8225877993989137,0.020457889708420655,2.2651709404848854,-2.609867219645469e+43,-0.17161197212173152,,,,,,,,
47,240624_095354,FalseCHOICE,9.0,48,2.0,1750.0,,,,,,,,,,,49.0,48.0,,,B,,,,,,False,cue2.png,Easy,cue1.png,Hard,Left,Easy,Mid,0.0140784999821335,,,,,,,,,,,,,24,25,Male,0.8571428571428571,0.75,0.4,0.75,1.8333333333333333,1.5,2.4444444444444446,1.5555555555555556,1.75,2.0,1.75,1.75,2.25,1.5,1.0,1.0,0.4839088250009808,1.722638529141784,,,,,,,,,,,,,,,,,,,0.005232947201279186,-0.5652929970855787,0.012149065725215118,0.07280484735394849,1.312029124762716e+43,-0.17155193451445275,,,,,,,,
48,240624_095410,FalseCHOICE,9.0,49,2.0,1750.0,,,,,,,,,,,50.0,49.0,,,B,,,,,,False,cue1.png,Hard,cue2.png,Easy,Left,Hard,Mid,0.0161772000137716,,,,,,,,,,,,,24,25,Male,0.8571428571428571,0.75,0.4,0.75,1.8333333333333333,1.5,2.4444444444444446,1.5555555555555556,1.75,2.0,1.75,1.75,2.25,1.5,0.75,0.8333333333333334,0.3186209374398459,-1.302074311517575,,,,,,,,,,,,,,,,,,,0.02017536677343998,1.5021085704898562,,,4.0465788444908037e+43,-0.17151007317806344,,,,,,,,
49,240624_095426,FalseCHOICE,9.0,50,2.0,1750.0,,,,,,,,,,,51.0,50.0,,,B,,,,,,False,cue2.png,Easy,cue1.png,Hard,Left,Easy,Mid,0.0160310000646859,,,,,,,,,,,,,24,25,Male,0.8571428571428571,0.75,0.4,0.75,1.8333333333333333,1.5,2.4444444444444446,1.5555555555555556,1.75,2.0,1.75,1.75,2.25,1.5,0.1666666666666666,0.6666666666666667,0.4572162125550676,1.2341726844437861,,,,,,,,,,,,,,,,,,,,,0.014168401616178189,0.6056267661884606,-1.7419026070065828e+43,-0.1715986850498741,,,,,,,,
0,240624_091853,OFFLINERATING,9.0,1,1.0,,,,,,,,,,,,,,,,,T0,cue2.png,Easy,59.0,1.3018270002212375,,,,,,,,,,,,,,,,,,,,,,24,25,Male,0.8571428571428571,0.75,0.4,0.75,1.8333333333333333,1.5,2.4444444444444446,1.5555555555555556,1.75,2.0,1.75,1.75,2.25,1.5,,,,,,,,,,,,,,,,,,,,,,,,,,,,,0.8546224932227665,0.007791369269265923,0.36334376668479307,,,105763213.17360117,1.4141374151845176,
1,240624_091901,OFFLINERATING,9.0,2,3.0,,,,,,,,,,,,,,,,,T0,cue1.png,Hard,40.0,2.3024276001378894,,,,,,,,,,,,,,,,,,,,,,24,25,Male,0.8571428571428571,0.75,0.4,0.75,1.8333333333333333,1.5,2.4444444444444446,1.5555555555555556,1.75,2.0,1.75,1.75,2.25,1.5,,,,,,,,,,,,,,,,,,,,,,,,,,,,,-0.7491135434421781,0.007765156524357365,0.34288682194056647,,,1306350.2901610688,-0.6943593318625693,
2,240624_093534,OFFLINERATING,9.0,3,1.0,,,,,,,,,,,,,,,,,T1,cue2.png,Easy,30.0,0.9971029001753776,,,,,,,,,,,,,,,,,,,,,,24,25,Male,0.8571428571428571,0.75,0.4,0.75,1.8333333333333333,1.5,2.4444444444444446,1.5555555555555556,1.75,2.0,1.75,1.75,2.25,1.5,,,,,,,,,,,,,,,,,,,,,,,,,,,,,-1.5931851416868859,,,0.010148372452946579,0.40832178669188063,47082.02731971686,-0.7197780833219486,
3,240624_093542,OFFLINERATING,9.0,4,3.0,,,,,,,,,,,,,,,,,T1,cue1.png,Hard,42.0,1.2183570000343025,,,,,,,,,,,,,,,,,,,,,,24,25,Male,0.8571428571428571,0.75,0.4,0.75,1.8333333333333333,1.5,2.4444444444444446,1.5555555555555556,1.75,2.0,1.75,1.75,2.25,1.5,,,,,,,,,,,,,,,,,,,,,,,,,,,,,-0.5802992237932365,0.008568657436363723,0.9699548308877479,,,,,
4,240624_093941,OFFLINERATING,9.0,5,1.0,,,,,,,,,,,,,,,,,T2,cue2.png,Easy,72.0,1.3851916999556124,,,,,,,,,,,,,,,,,,,,,,24,25,Male,0.8571428571428571,0.75,0.4,0.75,1.8333333333333333,1.5,2.4444444444444446,1.5555555555555556,1.75,2.0,1.75,1.75,2.25,1.5,,,,,,,,,,,,,,,,,,,,,,,,,,,,,1.9519155709408866,0.005177994742434287,-1.6761854195131054,0.009817831367229838,-0.15487099727880788,,,
5,240624_093948,OFFLINERATING,9.0,6,3.0,,,,,,,,,,,,,,,,,T2,cue1.png,Hard,48.0,1.7690318999812007,,,,,,,,,,,,,,,,,,,,,,24,25,Male,0.8571428571428571,0.75,0.4,0.75,1.8333333333333333,1.5,2.4444444444444446,1.5555555555555556,1.75,2.0,1.75,1.75,2.25,1.5,,,,,,,,,,,,,,,,,,,,,,,,,,,,,-0.07385626484641192,,,0.01064091006240513,1.2475325216591604,,,
6,240624_095442,OFFLINERATING,9.0,7,1.0,,,,,,,,,,,,,,,,,T3,cue2.png,Easy,50.0,1.2613551001995802,,,,,,,,,,,,,,,,,,,,,,24,25,Male,0.8571428571428571,0.75,0.4,0.75,1.8333333333333333,1.5,2.4444444444444446,1.5555555555555556,1.75,2.0,1.75,1.75,2.25,1.5,,,,,,,,,,,,,,,,,,,,,,,,,,,,,0.09495805480252961,,,,,,,
7,240624_095450,OFFLINERATING,9.0,8,3.0,,,,,,,,,,,,,,,,,T3,cue1.png,Hard,50.0,1.802309399936348,,,,,,,,,,,,,,,,,,,,,,24,25,Male,0.8571428571428571,0.75,0.4,0.75,1.8333333333333333,1.5,2.4444444444444446,1.5555555555555556,1.75,2.0,1.75,1.75,2.25,1.5,,,,,,,,,,,,,,,,,,,,,,,,,,,,,0.09495805480252961,,,0.009027790304272771,-1.5009833110722302,,,
0,240624_094013,LEARNINGCHECK,9.0,1,,,,,,,,,,,,1.0,2.0,1.0,,,B,,,,,,,,,,,,,,,cue2.png,Easy,Left,Left,Easy,0.0133236001711338,1.0,,,,,,24,25,Male,0.8571428571428571,0.75,0.4,0.75,1.8333333333333333,1.5,2.4444444444444446,1.5555555555555556,1.75,2.0,1.75,1.75,2.25,1.5,,,,,,,,,,,,,,,,,,,,,,,,,,,,,,,,,,,,
1,240624_094019,LEARNINGCHECK,9.0,2,,,,,,,,,,,,2.0,3.0,2.0,,,B,,,,,,,,,,,,,,,cue1.png,Hard,Right,Right,Hard,0.0148310998920351,1.0,,,,,,24,25,Male,0.8571428571428571,0.75,0.4,0.75,1.8333333333333333,1.5,2.4444444444444446,1.5555555555555556,1.75,2.0,1.75,1.75,2.25,1.5,,,,,,,,,,,,,,,,,,,,,,,,,,,,,,,,,,,,
2,240624_095505,LEARNINGCHECK,9.0,1,,,,,,,,,,,,1.0,1.0,1.0,,,B,,,,,,,,,,,,,,,cue2.png,Easy,Middle,Middle,Mid,0.0163073998410254,1.0,,,,,,24,25,Male,0.8571428571428571,0.75,0.4,0.75,1.8333333333333333,1.5,2.4444444444444446,1.5555555555555556,1.75,2.0,1.75,1.75,2.25,1.5,,,,,,,,,,,,,,,,,,,,,,,,,,,,,,,,,,,,
3,240624_095509,LEARNINGCHECK,9.0,2,,,,,,,,,,,,2.0,2.0,2.0,,,B,,,,,,,,,,,,,,,cue1.png,Hard,Middle,Middle,Mid,0.0162078998982906,1.0,,,,,,24,25,Male,0.8571428571428571,0.75,0.4,0.75,1.8333333333333333,1.5,2.4444444444444446,1.5555555555555556,1.75,2.0,1.75,1.75,2.25,1.5,,,,,,,,,,,,,,,,,,,,,,,,,,,,,,,,,,,,
0,240624_095516,DEMANDRATING,9.0,-1,,,,,,,,,,,,,,,,,,,,,,,,,,,,,,,,,,,,,,,1.0,MentalDemand,1.0,50.0,2.1850016999524087,24,25,Male,0.8571428571428571,0.75,0.4,0.75,1.8333333333333333,1.5,2.4444444444444446,1.5555555555555556,1.75,2.0,1.75,1.75,2.25,1.5,,,,,,,,,,,,,,,,,,,,,,,,,,,,,,,,,,,,-0.25920627882813685
1,240624_095535,DEMANDRATING,9.0,-1,,,,,,,,,,,,,,,,,,,,,,,,,,,,,,,,,,,,,,,2.0,Effort,1.0,26.0,17.26064459979534,24,25,Male,0.8571428571428571,0.75,0.4,0.75,1.8333333333333333,1.5,2.4444444444444446,1.5555555555555556,1.75,2.0,1.75,1.75,2.25,1.5,,,,,,,,,,,,,,,,,,,,,,,,,,,,,,,,,,,,-1.1770514628753097
2,240624_095542,DEMANDRATING,9.0,-1,,,,,,,,,,,,,,,,,,,,,,,,,,,,,,,,,,,,,,,3.0,Frustration,1.0,20.0,5.067835799884051,24,25,Male,0.8571428571428571,0.75,0.4,0.75,1.8333333333333333,1.5,2.4444444444444446,1.5555555555555556,1.75,2.0,1.75,1.75,2.25,1.5,,,,,,,,,,,,,,,,,,,,,,,,,,,,,,,,,,,,-1.406512758887103
3,240624_095549,DEMANDRATING,9.0,-1,,,,,,,,,,,,,,,,,,,,,,,,,,,,,,,,,,,,,,,4.0,MentalDemand,2.0,40.0,5.692595799919218,24,25,Male,0.8571428571428571,0.75,0.4,0.75,1.8333333333333333,1.5,2.4444444444444446,1.5555555555555556,1.75,2.0,1.75,1.75,2.25,1.5,,,,,,,,,,,,,,,,,,,,,,,,,,,,,,,,,,,,-0.6416417721811256
4,240624_095556,DEMANDRATING,9.0,-1,,,,,,,,,,,,,,,,,,,,,,,,,,,,,,,,,,,,,,,5.0,Effort,2.0,63.0,6.175841100048274,24,25,Male,0.8571428571428571,0.75,0.4,0.75,1.8333333333333333,1.5,2.4444444444444446,1.5555555555555556,1.75,2.0,1.75,1.75,2.25,1.5,,,,,,,,,,,,,,,,,,,,,,,,,,,,,,,,,,,,0.23795986253074852
5,240624_095603,DEMANDRATING,9.0,-1,,,,,,,,,,,,,,,,,,,,,,,,,,,,,,,,,,,,,,,6.0,Frustration,2.0,46.0,5.1671847000252455,24,25,Male,0.8571428571428571,0.75,0.4,0.75,1.8333333333333333,1.5,2.4444444444444446,1.5555555555555556,1.75,2.0,1.75,1.75,2.25,1.5,,,,,,,,,,,,,,,,,,,,,,,,,,,,,,,,,,,,-0.41218047616933234
6,240624_095611,DEMANDRATING,9.0,-1,,,,,,,,,,,,,,,,,,,,,,,,,,,,,,,,,,,,,,,7.0,MentalDemand,3.0,75.0,6.435762400040403,24,25,Male,0.8571428571428571,0.75,0.4,0.75,1.8333333333333333,1.5,2.4444444444444446,1.5555555555555556,1.75,2.0,1.75,1.75,2.25,1.5,,,,,,,,,,,,,,,,,,,,,,,,,,,,,,,,,,,,0.696882454554335
7,240624_095617,DEMANDRATING,9.0,-1,,,,,,,,,,,,,,,,,,,,,,,,,,,,,,,,,,,,,,,8.0,Effort,3.0,91.0,3.8471147001255295,24,25,Male,0.8571428571428571,0.75,0.4,0.75,1.8333333333333333,1.5,2.4444444444444446,1.5555555555555556,1.75,2.0,1.75,1.75,2.25,1.5,,,,,,,,,,,,,,,,,,,,,,,,,,,,,,,,,,,,1.308779243919117
8,240624_095622,DEMANDRATING,9.0,-1,,,,,,,,,,,,,,,,,,,,,,,,,,,,,,,,,,,,,,,9.0,Frustration,3.0,100.0,3.842747999820858,24,25,Male,0.8571428571428571,0.75,0.4,0.75,1.8333333333333333,1.5,2.4444444444444446,1.5555555555555556,1.75,2.0,1.75,1.75,2.25,1.5,,,,,,,,,,,,,,,,,,,,,,,,,,,,,,,,,,,,1.6529711879368068
