,END,Phase,Block,TrialN,NbackLevel,ISI,Letter_Resp,Letter_RT,Letter_Accuracy,Trial_A_measure,Trial_ACC,Trial_RT,TrialCountCali,CaliEnd_A_measure,ISI_calibrated,TrialIndex,TrialNumber_total,TrialNumber_valid,CueLearning,TrialDemandLearning,CueMapping,OfflineRatingTimePoint,CueFigure,TrialDemand,OfflineRating,OfflineRatingRT,PhaseType,CueLeft,CueDemandLeft,CueRight,CueDemandRight,Choice,ChoiceDemand,TaskDemand,ChoiceRT,CueCheck,CueDemandCheck,CorrectAnswer,Answer,AnswerDemand,AnswerRT,AnswerACC,DemandRatingQuesIndex,QuesTLX,DemandLevel,DemandRating,DemandRatingRT,PID,Age,Gender,BAI_bis,BAI_bas_d,BAI_bas_rr,BAI_bas_fs,NFC,BFI_ext,BFI_agr,BFI_con,BFI_neu,BFI_open,UPPS_lps,UPPS_lpm,UPPS_pu,UPPS_ss,Task_A_measure,Task_ACC,Task_RT,Task_RT_z,cue_i_on_zyg_values,cue_i_on_zyg_zvalues,cue_e_on_zyg_values,cue_e_on_zyg_zvalues,cue_i_on_cor_values,cue_i_on_cor_zvalues,cue_e_on_cor_values,cue_e_on_cor_zvalues,cue_i_on_scr_values,cue_i_on_scr_zvalues,cue_e_on_scr_values,cue_e_on_scr_zvalues,cue_e_true_zyg_values,cue_e_true_zyg_zvalues,cue_e_true_cor_values,cue_e_true_cor_zvalues,cue_e_true_scr_values,cue_e_true_scr_zvalues,cue_e_false_zyg_values,cue_e_false_zyg_zvalues,cue_e_false_cor_values,cue_e_false_cor_zvalues,cue_e_false_scr_values,cue_e_false_scr_zvalues,OfflineRating_z,cue_i_off_zyg_values,cue_i_off_zyg_zvalues,cue_i_off_cor_values,cue_i_off_cor_zvalues,cue_i_off_scr_values,cue_i_off_scr_zvalues,DemandRating_z
0,240624_144039,PRACTICE,0.0,1,3.0,583.0,,,,,,,,,,2.0,1.0,1.0,cue2.png,Hard,A,,,,,,,,,,,,,,,,,,,,,,,,,,,25,29,Male,0.7142857142857143,0.25,0.0,1.0,2.5555555555555554,1.125,2.4444444444444446,2.7777777777777777,2.375,3.4444444444444446,2.0,2.0,2.5,1.0,,,,,,,,,,,,,,,,,,,,,,,,,,,,,,,,,,,,
0,240624_144433,LEARNING,1.0,1,1.0,583.0,,,,,,,,,,1.0,1.0,1.0,cue1.png,Easy,A,,,,,,,,,,,,,,,,,,,,,,,,,,,25,29,Male,0.7142857142857143,0.25,0.0,1.0,2.5555555555555554,1.125,2.4444444444444446,2.7777777777777777,2.375,3.4444444444444446,2.0,2.0,2.5,1.0,1.0,1.0,0.5206228666162739,-0.7157878845283536,,,,,0.024179605231497377,-0.643220435010359,0.023202096321715313,-0.9098260263638638,2.0757603940484482e+45,-0.1744115480309887,,,,,,,,,,,,,,,,,,,,,,
1,240624_144502,LEARNING,1.0,2,3.0,583.0,,,,,,,,,,2.0,2.0,2.0,cue2.png,Hard,A,,,,,,,,,,,,,,,,,,,,,,,,,,,25,29,Male,0.7142857142857143,0.25,0.0,1.0,2.5555555555555554,1.125,2.4444444444444446,2.7777777777777777,2.375,3.4444444444444446,2.0,2.0,2.5,1.0,0.9375,0.9333333333333332,0.6284287643253005,0.3499449787751307,0.005292958762881604,-0.6102019910209168,0.004392985353316613,-1.0216582631786766,0.08795995276311827,4.933826470582034,0.02357651149575169,-0.8685490634064613,2.2047024071992634e+44,-0.1765940443829007,1.945780483653096e+45,-0.19348322976143606,,,,,,,,,,,,,,,,,,,,
2,240624_144528,LEARNING,1.0,3,1.0,583.0,,,,,,,,,,3.0,3.0,3.0,cue1.png,Easy,A,,,,,,,,,,,,,,,,,,,,,,,,,,,25,29,Male,0.7142857142857143,0.25,0.0,1.0,2.5555555555555554,1.125,2.4444444444444446,2.7777777777777777,2.375,3.4444444444444446,2.0,2.0,2.5,1.0,1.0,1.0,0.4881024200158814,-1.0372740871189419,,,,,0.02799116408895959,-0.3099321517981355,0.027340018449820248,-0.45364564093480425,-1.8235547368169437e+44,-0.17706791400947125,-1.2905453720118072e+45,-0.19415245656834076,,,,,,,,,,,,,,,,,,,,
3,240624_144557,LEARNING,1.0,4,3.0,583.0,,,,,,,,,,4.0,4.0,4.0,cue2.png,Hard,A,,,,,,,,,,,,,,,,,,,,,,,,,,,25,29,Male,0.7142857142857143,0.25,0.0,1.0,2.5555555555555554,1.125,2.4444444444444446,2.7777777777777777,2.375,3.4444444444444446,2.0,2.0,2.5,1.0,0.7386363636363636,0.8181818181818181,0.6997694400139153,1.055194915813285,0.027993331916340555,1.4645492477356061,0.013492191983767783,0.4563173211754852,,,,,-2.085822355445206e+44,-0.17709876622522058,-1.5110044889074024e+45,-0.1941980444224176,,,,,,,,,,,,,,,,,,,,
4,240624_144625,LEARNING,1.0,5,3.0,583.0,,,,,,,,,,5.0,5.0,5.0,cue2.png,Hard,A,,,,,,,,,,,,,,,,,,,,,,,,,,,25,29,Male,0.7142857142857143,0.25,0.0,1.0,2.5555555555555554,1.125,2.4444444444444446,2.7777777777777777,2.375,3.4444444444444446,2.0,2.0,2.5,1.0,0.675,0.5333333333333334,0.5202443090648475,-0.719530177220871,0.02065362882209934,0.7937207118372135,0.012700989161749195,0.32780299012356984,0.02175884324631973,-0.8548954048263725,0.028511993479760717,-0.32444262446423455,4.9591008001559503e+48,5.656853737459363,2.887457982304546e+49,5.776972635617367,,,,,,,,,,,,,,,,,,,,
5,240624_144651,LEARNING,1.0,6,1.0,583.0,,,,,,,,,,6.0,6.0,6.0,cue1.png,Easy,A,,,,,,,,,,,,,,,,,,,,,,,,,,,25,29,Male,0.7142857142857143,0.25,0.0,1.0,2.5555555555555554,1.125,2.4444444444444446,2.7777777777777777,2.375,3.4444444444444446,2.0,2.0,2.5,1.0,1.0,1.0,0.4855549733154475,-1.0624572888162558,0.008197297274547271,-0.34475349446488346,0.018531394779344425,1.274830296971291,0.03254242253206929,0.08803654544221902,0.0448694012083609,1.4788606594645248,-2.958807330071917e+43,-0.17688820395526525,-2.2658177026959343e+44,-0.193932443814492,,,,,,,,,,,,,,,,,,,,
6,240624_144722,LEARNING,1.0,7,3.0,583.0,,,,,,,,,,7.0,7.0,7.0,cue2.png,Hard,A,,,,,,,,,,,,,,,,,,,,,,,,,,,25,29,Male,0.7142857142857143,0.25,0.0,1.0,2.5555555555555554,1.125,2.4444444444444446,2.7777777777777777,2.375,3.4444444444444446,2.0,2.0,2.5,1.0,0.9,0.7333333333333334,0.6705009363464672,0.7658563278418944,0.015017551599131339,0.27859886247243765,,,,,,,,,,,,,,,,,,,,,,,,,,,,,,
7,240624_144752,LEARNING,1.0,8,3.0,583.0,,,,,,,,,,8.0,8.0,8.0,cue2.png,Hard,A,,,,,,,,,,,,,,,,,,,,,,,,,,,25,29,Male,0.7142857142857143,0.25,0.0,1.0,2.5555555555555554,1.125,2.4444444444444446,2.7777777777777777,2.375,3.4444444444444446,2.0,2.0,2.5,1.0,0.675,0.6000000000000001,0.6937070666851165,0.9952643310919036,0.010318886189792494,-0.15084614323852635,0.008846321349093036,-0.29830708125736577,0.03449611994064198,0.2588707053147762,0.028318491058958006,-0.34577507253127027,,,,,,,,,,,,,,,,,,,,,,,,
8,240624_144817,LEARNING,1.0,9,1.0,583.0,,,,,,,,,,9.0,9.0,9.0,cue1.png,Easy,A,,,,,,,,,,,,,,,,,,,,,,,,,,,25,29,Male,0.7142857142857143,0.25,0.0,1.0,2.5555555555555554,1.125,2.4444444444444446,2.7777777777777777,2.375,3.4444444444444446,2.0,2.0,2.5,1.0,1.0,1.0,0.467647979936252,-1.2394798055126557,0.01141387285661166,-0.05076739439827767,0.0073619494760113315,-0.5394122100468233,0.03326529098239103,0.1512452203717263,0.025448242115292445,-0.6622023103725867,,,3.942262186523175e+48,0.6213189515431009,,,,,,,,,,,,,,,,,,,,
9,240624_144843,LEARNING,1.0,10,1.0,583.0,,,,,,,,,,10.0,10.0,10.0,cue1.png,Easy,A,,,,,,,,,,,,,,,,,,,,,,,,,,,25,29,Male,0.7142857142857143,0.25,0.0,1.0,2.5555555555555554,1.125,2.4444444444444446,2.7777777777777777,2.375,3.4444444444444446,2.0,2.0,2.5,1.0,0.8920454545454546,0.9090909090909092,0.4692402400076389,-1.2237392577220048,0.0056631322592164985,-0.5763691586316118,0.018712966738952702,1.304322859785096,,,0.040322325056753025,0.9775735672480897,,,,,,,,,,,,,,,,,,,,,,,,
10,240624_144912,LEARNING,1.0,11,3.0,583.0,,,,,,,,,,11.0,11.0,11.0,cue2.png,Hard,A,,,,,,,,,,,,,,,,,,,,,,,,,,,25,29,Male,0.7142857142857143,0.25,0.0,1.0,2.5555555555555554,1.125,2.4444444444444446,2.7777777777777777,2.375,3.4444444444444446,2.0,2.0,2.5,1.0,0.5,0.6000000000000001,0.621491716708988,0.28136765808939657,0.008714527478607003,-0.29748008625521705,0.01462149736887423,0.6397493339051756,0.027805201002741153,-0.3261930361408361,,,8.707423057811589e+43,-0.17675096663302517,5.810313527854636e+44,-0.1937654407450667,,,,,,,,,,,,,,,,,,,,
11,240624_144940,LEARNING,1.0,12,1.0,583.0,,,,,,,,,,12.0,12.0,12.0,cue1.png,Easy,A,,,,,,,,,,,,,,,,,,,,,,,,,,,25,29,Male,0.7142857142857143,0.25,0.0,1.0,2.5555555555555554,1.125,2.4444444444444446,2.7777777777777777,2.375,3.4444444444444446,2.0,2.0,2.5,1.0,0.905,0.9,0.6137303599777321,0.20464149460392217,0.017115300888175877,0.47032733788662223,0.025053917374393792,2.334277514228662,,,,,2.9265515002163947e+43,-0.17681897071886957,,,,,,,,,,,,,,,,,,,,,,
12,240624_145006,LEARNING,1.0,13,1.0,583.0,,,,,,,,,,13.0,13.0,13.0,cue1.png,Easy,A,,,,,,,,,,,,,,,,,,,,,,,,,,,25,29,Male,0.7142857142857143,0.25,0.0,1.0,2.5555555555555554,1.125,2.4444444444444446,2.7777777777777777,2.375,3.4444444444444446,2.0,2.0,2.5,1.0,1.0,1.0,0.4883639733151843,-1.0346884591292294,0.007466651420749637,-0.41153250201736385,0.006798645898546188,-0.6309090809153942,0.03646392241732932,0.43093823298049244,0.03433423302029133,0.31742336417290384,,,-1.830140046894028e+44,-0.1939234346114811,,,,,,,,,,,,,,,,,,,,
13,240624_145032,LEARNING,1.0,14,1.0,583.0,,,,,,,,,,14.0,14.0,14.0,cue1.png,Easy,A,,,,,,,,,,,,,,,,,,,,,,,,,,,25,29,Male,0.7142857142857143,0.25,0.0,1.0,2.5555555555555554,1.125,2.4444444444444446,2.7777777777777777,2.375,3.4444444444444446,2.0,2.0,2.5,1.0,0.8920454545454546,0.9090909090909092,0.4924361466585348,-0.994432322412196,0.00824305469809033,-0.3405713926757857,0.006634532052277176,-0.6575659387812569,0.024506853338152862,-0.6146053817656411,,,,,,,,,,,,,,,,,,,,,,,,,,
14,240624_145101,LEARNING,1.0,15,3.0,583.0,,,,,,,,,,15.0,15.0,15.0,cue2.png,Hard,A,,,,,,,,,,,,,,,,,,,,,,,,,,,25,29,Male,0.7142857142857143,0.25,0.0,1.0,2.5555555555555554,1.125,2.4444444444444446,2.7777777777777777,2.375,3.4444444444444446,2.0,2.0,2.5,1.0,0.8068181818181819,0.709090909090909,0.6256148666337443,0.32212773215325025,0.06086202870587374,4.46865710620072,0.0057075795238071235,-0.8081299671163474,0.03587435112559608,0.37938525662587447,,,,,,,,,,,,,,,,,,,,,,,,,,
15,240624_145128,LEARNING,1.0,16,1.0,583.0,,,,,,,,,,16.0,16.0,16.0,cue1.png,Easy,A,,,,,,,,,,,,,,,,,,,,,,,,,,,25,29,Male,0.7142857142857143,0.25,0.0,1.0,2.5555555555555554,1.125,2.4444444444444446,2.7777777777777777,2.375,3.4444444444444446,2.0,2.0,2.5,1.0,0.7386363636363636,0.8181818181818181,0.5452481066652884,-0.47235103974825104,0.00721849413981171,-0.4342133902367702,0.00697248526643365,-0.6026725157100945,0.02955835030194469,-0.1728950963747172,0.030708555790310864,-0.08228518156798173,,,,,,,,,,,,,,,,,,,,,,,,
16,240624_145155,LEARNING,1.0,17,1.0,583.0,,,,,,,,,,17.0,17.0,17.0,cue1.png,Easy,A,,,,,,,,,,,,,,,,,,,,,,,,,,,25,29,Male,0.7142857142857143,0.25,0.0,1.0,2.5555555555555554,1.125,2.4444444444444446,2.7777777777777777,2.375,3.4444444444444446,2.0,2.0,2.5,1.0,0.7386363636363636,0.8181818181818181,0.5682140600246688,-0.2453173453742433,0.0223043214111536,0.9445894429719124,0.006990360380976236,-0.5997690776484658,0.024348171899829803,-0.6284807189004195,0.03504089335859586,0.3953283066815305,,,,,,,,,,,,,,,,,,,,,,,,
17,240624_145225,LEARNING,1.0,18,3.0,583.0,,,,,,,,,,18.0,18.0,18.0,cue2.png,Hard,A,,,,,,,,,,,,,,,,,,,,,,,,,,,25,29,Male,0.7142857142857143,0.25,0.0,1.0,2.5555555555555554,1.125,2.4444444444444446,2.7777777777777777,2.375,3.4444444444444446,2.0,2.0,2.5,1.0,0.8920454545454546,0.709090909090909,0.6871255084018534,0.930201258446728,,,0.004641583342151906,-0.9812787254079322,0.024820577452628733,-0.5871728861841466,0.02325537818574413,-0.9039520295808031,,,,,,,,,,,,,,,,,,,,,,,,
18,240624_145255,LEARNING,1.0,19,3.0,583.0,,,,,,,,,,19.0,19.0,19.0,cue2.png,Hard,A,,,,,,,,,,,,,,,,,,,,,,,,,,,25,29,Male,0.7142857142857143,0.25,0.0,1.0,2.5555555555555554,1.125,2.4444444444444446,2.7777777777777777,2.375,3.4444444444444446,2.0,2.0,2.5,1.0,0.7386363636363636,0.7515151515151515,0.713067335708599,1.1866534422554778,,,,,,,0.03274827281340897,0.14258103605444675,,,,,,,,,,,,,,,,,,,,,,,,
19,240624_145325,LEARNING,1.0,20,3.0,583.0,,,,,,,,,,20.0,20.0,20.0,cue2.png,Hard,A,,,,,,,,,,,,,,,,,,,,,,,,,,,25,29,Male,0.7142857142857143,0.25,0.0,1.0,2.5555555555555554,1.125,2.4444444444444446,2.7777777777777777,2.375,3.4444444444444446,2.0,2.0,2.5,1.0,0.075,0.6,0.7456045600119978,1.5083055035777728,,,,,0.029610945026582305,-0.1682961367007317,0.06507497274717997,3.706400261959231,2.6797198498298497e+43,-0.17682187435728722,2.105329169213784e+44,-0.19384205462644163,,,,,,,,,,,,,,,,,,,,
20,240624_145351,LEARNING,1.0,21,1.0,583.0,,,,,,,,,,21.0,21.0,21.0,cue1.png,Easy,A,,,,,,,,,,,,,,,,,,,,,,,,,,,25,29,Male,0.7142857142857143,0.25,0.0,1.0,2.5555555555555554,1.125,2.4444444444444446,2.7777777777777777,2.375,3.4444444444444446,2.0,2.0,2.5,1.0,0.7386363636363636,0.8181818181818181,0.5262443199753761,-0.6602160864019381,0.007553482519506865,-0.40359638006503823,0.00602763068152758,-0.7561443582532521,0.02881042196763811,-0.23829504422513248,0.03233617250911707,0.09714951998737048,1.4447667090479092e+43,-0.17683640190016076,,,,,,,,,,,,,,,,,,,,,,
21,240624_145421,LEARNING,1.0,22,3.0,583.0,,,,,,,,,,22.0,22.0,22.0,cue2.png,Hard,A,,,,,,,,,,,,,,,,,,,,,,,,,,,25,29,Male,0.7142857142857143,0.25,0.0,1.0,2.5555555555555554,1.125,2.4444444444444446,2.7777777777777777,2.375,3.4444444444444446,2.0,2.0,2.5,1.0,0.835,0.8333333333333334,0.6893802928804819,0.952491299804454,0.03558423944084772,2.1583371728630696,0.013781368853825679,0.5032880484996909,0.030189706265958537,-0.11768840714046602,0.022113550714659022,-1.0298314636850021,-2.0067704566513938e+42,-0.17685575830641073,4.7266490001312576e+42,-0.19388461247681413,,,,,,,,,,,,,,,,,,,,
22,240624_145449,LEARNING,1.0,23,3.0,583.0,,,,,,,,,,23.0,23.0,23.0,cue2.png,Hard,A,,,,,,,,,,,,,,,,,,,,,,,,,,,25,29,Male,0.7142857142857143,0.25,0.0,1.0,2.5555555555555554,1.125,2.4444444444444446,2.7777777777777777,2.375,3.4444444444444446,2.0,2.0,2.5,1.0,0.8920454545454546,0.9090909090909092,0.6721744533162564,0.7824001540137625,0.006006466515455999,-0.5449893584571854,0.006610646341400165,-0.6614456723585803,0.027927204782941334,-0.31552484709563444,0.02446547829666293,-0.7705459581476756,-1.5193421976414772e+43,-0.1768712706071601,-9.981829375981632e+43,-0.19390623090503845,,,,,,,,,,,,,,,,,,,,
23,240624_145519,LEARNING,1.0,24,3.0,583.0,,,,,,,,,,24.0,24.0,24.0,cue2.png,Hard,A,,,,,,,,,,,,,,,,,,,,,,,,,,,25,29,Male,0.7142857142857143,0.25,0.0,1.0,2.5555555555555554,1.125,2.4444444444444446,2.7777777777777777,2.375,3.4444444444444446,2.0,2.0,2.5,1.0,0.5852272727272727,0.6848484848484848,0.6905168076583112,0.9637265028323253,0.006395730329160649,-0.509411723929898,0.02213591455241471,1.8603090572943253,0.03188983026457393,0.03097292276057534,0.030878873952759,-0.06350865494766486,-2.390394777785831e+43,-0.17688151735522312,-1.6557166548041514e+44,-0.19391982778031072,,,,,,,,,,,,,,,,,,,,
24,240624_145546,LEARNING,1.0,25,1.0,583.0,,,,,,,,,,25.0,25.0,25.0,cue1.png,Easy,A,,,,,,,,,,,,,,,,,,,,,,,,,,,25,29,Male,0.7142857142857143,0.25,0.0,1.0,2.5555555555555554,1.125,2.4444444444444446,2.7777777777777777,2.375,3.4444444444444446,2.0,2.0,2.5,1.0,0.7386363636363636,0.8181818181818181,0.520971340034157,-0.7123429934665667,,,0.0054141107436746815,-0.8557978253617473,0.048965938915563764,1.5241328473650513,0.029561144921494524,-0.20878015082489382,-2.4548477244242934e+43,-0.1768822755564169,-1.8487707385685505e+44,-0.1939238198680608,,,,,,,,,,,,,,,,,,,,
25,240624_145612,LEARNING,1.0,26,1.0,583.0,,,,,,,,,,26.0,26.0,26.0,cue1.png,Easy,A,,,,,,,,,,,,,,,,,,,,,,,,,,,25,29,Male,0.7142857142857143,0.25,0.0,1.0,2.5555555555555554,1.125,2.4444444444444446,2.7777777777777777,2.375,3.4444444444444446,2.0,2.0,2.5,1.0,1.0,1.0,0.5312890266844382,-0.6103458117710828,0.007016644387900758,-0.45266189854933647,0.005162606991904534,-0.8966493434760596,0.02576949878634806,-0.5041978163909593,0.022311030712376615,-1.0080605123030344,,,-1.4388621279456478e+44,-0.1939153435327706,,,,,,,,,,,,,,,,,,,,
26,240624_145642,LEARNING,1.0,27,3.0,583.0,,,,,,,,,,27.0,27.0,27.0,cue2.png,Hard,A,,,,,,,,,,,,,,,,,,,,,,,,,,,25,29,Male,0.7142857142857143,0.25,0.0,1.0,2.5555555555555554,1.125,2.4444444444444446,2.7777777777777777,2.375,3.4444444444444446,2.0,2.0,2.5,1.0,0.5852272727272727,0.6848484848484848,0.7177230846315908,1.2326786109704053,0.007311473563136132,-0.42571532844645915,0.005361549493152283,-0.8643352999032365,0.02222003412267013,-0.8145681998270226,,,6.089034151506435e+43,-0.17678176841476076,5.375399061156918e+44,-0.19377443416639714,,,,,,,,,,,,,,,,,,,,
27,240624_145709,LEARNING,1.0,28,1.0,583.0,,,,,,,,,,28.0,28.0,28.0,cue1.png,Easy,A,,,,,,,,,,,,,,,,,,,,,,,,,,,25,29,Male,0.7142857142857143,0.25,0.0,1.0,2.5555555555555554,1.125,2.4444444444444446,2.7777777777777777,2.375,3.4444444444444446,2.0,2.0,2.5,1.0,0.9375,0.9333333333333332,0.4933584857665534,-0.9853143880559654,0.005877435041361307,-0.5567824778436723,0.007210963178585518,-0.5639367724873097,0.026157393939205773,-0.47027969669324415,0.03247091688500292,0.11200425611411233,4.180714473638677e+42,-0.17684847957253524,2.122824327219029e+43,-0.19388120017850546,,,,,,,,,,,,,,,,,,,,
28,240624_145736,LEARNING,1.0,29,1.0,583.0,,,,,,,,,,29.0,29.0,29.0,cue1.png,Easy,A,,,,,,,,,,,,,,,,,,,,,,,,,,,25,29,Male,0.7142857142857143,0.25,0.0,1.0,2.5555555555555554,1.125,2.4444444444444446,2.7777777777777777,2.375,3.4444444444444446,2.0,2.0,2.5,1.0,0.905,0.9,0.5935876599978656,0.005517534037813389,0.0065458605477385235,-0.4956902377294929,,,0.029683351763665003,-0.16196478567146838,0.030352335975905927,-0.12155621838353763,1.3754769558241827e+43,-0.17683721699980093,9.2510805791092e+43,-0.19386645994410692,,,,,,,,,,,,,,,,,,,,
29,240624_145807,LEARNING,1.0,30,3.0,583.0,,,,,,,,,,30.0,30.0,30.0,cue2.png,Hard,A,,,,,,,,,,,,,,,,,,,,,,,,,,,25,29,Male,0.7142857142857143,0.25,0.0,1.0,2.5555555555555554,1.125,2.4444444444444446,2.7777777777777777,2.375,3.4444444444444446,2.0,2.0,2.5,1.0,0.835,0.7,0.696857683302369,1.0264102678173568,0.005354173008162003,-0.6046071785318674,,,0.037081579466231654,0.484947069034424,0.04097584767340295,1.049620403781116,2.0454022085300548e+43,-0.17682933624100178,1.4632682936714085e+44,-0.19385533154504445,,,,,,,,,,,,,,,,,,,,
30,240624_145835,LEARNING,1.0,31,3.0,583.0,,,,,,,,,,31.0,31.0,31.0,cue2.png,Hard,A,,,,,,,,,,,,,,,,,,,,,,,,,,,25,29,Male,0.7142857142857143,0.25,0.0,1.0,2.5555555555555554,1.125,2.4444444444444446,2.7777777777777777,2.375,3.4444444444444446,2.0,2.0,2.5,1.0,0.675,0.6000000000000001,0.563294674968347,-0.29394873227588275,0.007936553628009515,-0.36858474164284766,0.020751400697017294,1.635423772501538,0.04074406597672142,0.805200248118689,0.03904192126655316,0.8364169489175985,,,1.7073006575898845e+44,-0.19385028529794293,,,,,,,,,,,,,,,,,,,,
31,240624_145901,LEARNING,1.0,32,1.0,583.0,,,,,,,,,,32.0,32.0,32.0,cue1.png,Easy,A,,,,,,,,,,,,,,,,,,,,,,,,,,,25,29,Male,0.7142857142857143,0.25,0.0,1.0,2.5555555555555554,1.125,2.4444444444444446,2.7777777777777777,2.375,3.4444444444444446,2.0,2.0,2.5,1.0,1.0,1.0,0.4660576399726172,-1.2552013717635586,0.006889118014395183,-0.4643174559102737,0.011018223776148839,0.05447298948478612,0.04088140564410526,0.8172094295772624,0.039032404361286036,0.835367768827098,1.7695039106636462e+43,-0.17683258180896594,1.2098057981771354e+44,-0.19386057279404392,,,,,,,,,,,,,,,,,,,,
32,240624_145927,LEARNING,1.0,33,1.0,583.0,,,,,,,,,,33.0,33.0,33.0,cue1.png,Easy,A,,,,,,,,,,,,,,,,,,,,,,,,,,,25,29,Male,0.7142857142857143,0.25,0.0,1.0,2.5555555555555554,1.125,2.4444444444444446,2.7777777777777777,2.375,3.4444444444444446,2.0,2.0,2.5,1.0,1.0,1.0,0.5184302599945416,-0.7374632564953295,,,,,0.03699542880580918,0.47741392923951004,0.03717955796277387,0.6311028846541278,8.305132542771114e+42,-0.1768436277560291,6.322663280183984e+43,-0.19387251550045584,,,,,,,,,,,,,,,,,,,,
33,240624_145954,LEARNING,1.0,34,1.0,583.0,,,,,,,,,,34.0,34.0,34.0,cue1.png,Easy,A,,,,,,,,,,,,,,,,,,,,,,,,,,,25,29,Male,0.7142857142857143,0.25,0.0,1.0,2.5555555555555554,1.125,2.4444444444444446,2.7777777777777777,2.375,3.4444444444444446,2.0,2.0,2.5,1.0,1.0,0.9333333333333332,0.4747742714493402,-1.169031683282114,0.010203035800968405,-0.16143454793559084,0.01012615227129343,-0.09042534695501352,0.02988390354797882,-0.14442824422249184,,,-2.163943286060954e+42,-0.1768559431988526,-1.1786584312749205e+43,-0.1938880271819132,,,,,,,,,,,,,,,,,,,,
34,240624_150023,LEARNING,1.0,35,3.0,583.0,,,,,,,,,,35.0,35.0,35.0,cue2.png,Hard,A,,,,,,,,,,,,,,,,,,,,,,,,,,,25,29,Male,0.7142857142857143,0.25,0.0,1.0,2.5555555555555554,1.125,2.4444444444444446,2.7777777777777777,2.375,3.4444444444444446,2.0,2.0,2.5,1.0,0.6988636363636364,0.6424242424242423,0.6287193091332235,0.352817207072895,0.012843810338094279,0.07992493127383962,,,0.023684668593295568,-0.6864984187996321,,,,,-8.33315029591043e+43,-0.1939028216678801,,,,,,,,,,,,,,,,,,,,
35,240624_150054,LEARNING,1.0,36,3.0,583.0,,,,,,,,,,36.0,36.0,36.0,cue2.png,Hard,A,,,,,,,,,,,,,,,,,,,,,,,,,,,25,29,Male,0.7142857142857143,0.25,0.0,1.0,2.5555555555555554,1.125,2.4444444444444446,2.7777777777777777,2.375,3.4444444444444446,2.0,2.0,2.5,1.0,0.9375,0.8666666666666667,0.7163051230868754,1.2186611198199444,0.0074541909760674485,-0.4126713521527806,0.006987931433560784,-0.6001636092951815,0.01708680012095959,-1.2634256914035331,,,-1.7648722270714828e+43,-0.17687415893377875,-1.2893824722798943e+44,-0.1939122525030931,,,,,,,,,,,,,,,,,,,,
36,240624_150118,LEARNING,1.0,37,1.0,583.0,,,,,,,,,,37.0,37.0,37.0,cue1.png,Easy,A,,,,,,,,,,,,,,,,,,,,,,,,,,,25,29,Male,0.7142857142857143,0.25,0.0,1.0,2.5555555555555554,1.125,2.4444444444444446,2.7777777777777777,2.375,3.4444444444444446,2.0,2.0,2.5,1.0,1.0,1.0,0.4103008400338391,-1.8063943520193884,0.03461689685100931,2.069924739155416,0.00894183910205317,-0.28279222238219703,,,0.018947110257774912,-1.3789119884847985,-1.903659594816335e+43,-0.17687579157826433,-1.4031999633229289e+44,-0.19391460608921202,,,,,,,,,,,,,,,,,,,,
37,240624_150148,LEARNING,1.0,38,3.0,583.0,,,,,,,,,,38.0,38.0,38.0,cue2.png,Hard,A,,,,,,,,,,,,,,,,,,,,,,,,,,,25,29,Male,0.7142857142857143,0.25,0.0,1.0,2.5555555555555554,1.125,2.4444444444444446,2.7777777777777777,2.375,3.4444444444444446,2.0,2.0,2.5,1.0,0.77,0.6666666666666667,0.7005798307677301,1.063206166373888,0.007438456955653495,-0.41410939804408775,,,,,0.023447313752353337,-0.8827923175217866,-1.3015688258816296e+43,-0.17686870879984087,,,,,,,,,,,,,,,,,,,,,,
38,240624_150219,LEARNING,1.0,39,3.0,583.0,,,,,,,,,,39.0,39.0,39.0,cue2.png,Hard,A,,,,,,,,,,,,,,,,,,,,,,,,,,,25,29,Male,0.7142857142857143,0.25,0.0,1.0,2.5555555555555554,1.125,2.4444444444444446,2.7777777777777777,2.375,3.4444444444444446,2.0,2.0,2.5,1.0,0.835,0.8333333333333334,0.7637104785701793,1.6872945277203244,,,0.00658841283648306,-0.66505703967407,0.03214982678540988,0.05370739894501498,0.02252479634245219,-0.9844941704289252,-3.777968828191098e+42,-0.17685784188022663,-2.552410163923618e+43,-0.19389086790786764,,,,,,,,,,,,,,,,,,,,
39,240624_150248,LEARNING,1.0,40,3.0,583.0,,,,,,,,,,40.0,40.0,40.0,cue2.png,Hard,A,,,,,,,,,,,,,,,,,,,,,,,,,,,25,29,Male,0.7142857142857143,0.25,0.0,1.0,2.5555555555555554,1.125,2.4444444444444446,2.7777777777777777,2.375,3.4444444444444446,2.0,2.0,2.5,1.0,0.875,0.7333333333333334,0.6092411818152125,0.1602629884304061,0.006933361628371706,-0.46027371212314255,,,0.0320450930864498,0.04454933107141217,0.028236596880002036,-0.35480340050940945,8.336972050925194e+42,-0.17684359030118124,5.305290180506652e+43,-0.19387461928536903,,,,,,,,,,,,,,,,,,,,
40,240624_150314,LEARNING,1.0,41,1.0,583.0,,,,,,,,,,41.0,41.0,41.0,cue1.png,Easy,A,,,,,,,,,,,,,,,,,,,,,,,,,,,25,29,Male,0.7142857142857143,0.25,0.0,1.0,2.5555555555555554,1.125,2.4444444444444446,2.7777777777777777,2.375,3.4444444444444446,2.0,2.0,2.5,1.0,1.0,1.0,0.5050721000259121,-0.8695175352905197,,,0.017908851116541828,1.173711114696932,0.03355002257063769,0.17614256704059078,0.03542387515217792,0.4375496865914972,1.7361315473145033e+43,-0.17683297438939943,1.1858348194899087e+44,-0.19386106848027085,,,,,,,,,,,,,,,,,,,,
41,240624_150345,LEARNING,1.0,42,3.0,583.0,,,,,,,,,,42.0,42.0,42.0,cue2.png,Hard,A,,,,,,,,,,,,,,,,,,,,,,,,,,,25,29,Male,0.7142857142857143,0.25,0.0,1.0,2.5555555555555554,1.125,2.4444444444444446,2.7777777777777777,2.375,3.4444444444444446,2.0,2.0,2.5,1.0,0.77,0.6666666666666667,0.7574049461489687,1.6249601539549174,0.00703049217497423,-0.451396249161527,0.022279138892639827,1.8835728523189976,,,0.044799543803582635,1.4711593115777732,,,,,,,,,,,,,,,,,,,,,,,,
42,240624_150415,LEARNING,1.0,43,3.0,583.0,,,,,,,,,,43.0,43.0,43.0,cue2.png,Hard,A,,,,,,,,,,,,,,,,,,,,,,,,,,,25,29,Male,0.7142857142857143,0.25,0.0,1.0,2.5555555555555554,1.125,2.4444444444444446,2.7777777777777777,2.375,3.4444444444444446,2.0,2.0,2.5,1.0,0.875,0.8,0.6909698999758499,0.9682056211660419,,,,,0.046915412892326654,1.344831851755682,,,1.5467775367656176e+43,-0.17683520188161406,1.0933491945839477e+44,-0.19386298095330973,,,,,,,,,,,,,,,,,,,,
43,240624_150441,LEARNING,1.0,44,1.0,583.0,,,,,,,,,,44.0,44.0,44.0,cue1.png,Easy,A,,,,,,,,,,,,,,,,,,,,,,,,,,,25,29,Male,0.7142857142857143,0.25,0.0,1.0,2.5555555555555554,1.125,2.4444444444444446,2.7777777777777777,2.375,3.4444444444444446,2.0,2.0,2.5,1.0,1.0,1.0,0.4733296999863038,-1.1833122311395563,,,,,0.02242770281875833,-0.7964093451996956,0.04371770140136594,1.351892861234318,,,2.4022324787950757e+43,-0.19388062240162687,,,,,,,,,,,,,,,,,,,,
44,240624_150507,LEARNING,1.0,45,1.0,583.0,,,,,,,,,,45.0,45.0,45.0,cue1.png,Easy,A,,,,,,,,,,,,,,,,,,,,,,,,,,,25,29,Male,0.7142857142857143,0.25,0.0,1.0,2.5555555555555554,1.125,2.4444444444444446,2.7777777777777777,2.375,3.4444444444444446,2.0,2.0,2.5,1.0,1.0,1.0,0.5092314600013197,-0.8283995008387744,0.010830306836643516,-0.1041037124684779,0.007844825491683959,-0.46097911247917583,0.023047746953912783,-0.7421917788313178,,,-1.216033302279379e+43,-0.17686770259082346,-8.150094906733021e+43,-0.19390244313500346,,,,,,,,,,,,,,,,,,,,
45,240624_150533,LEARNING,1.0,46,1.0,583.0,,,,,,,,,,46.0,46.0,46.0,cue1.png,Easy,A,,,,,,,,,,,,,,,,,,,,,,,,,,,25,29,Male,0.7142857142857143,0.25,0.0,1.0,2.5555555555555554,1.125,2.4444444444444446,2.7777777777777777,2.375,3.4444444444444446,2.0,2.0,2.5,1.0,1.0,1.0,0.5043159066699445,-0.8769930085957143,0.008362714865945826,-0.3296347847262298,0.006909164859669202,-0.6129575898918408,,,,,,,-1.5248865723367528e+44,-0.19391712239765635,,,,,,,,,,,,,,,,,,,,
46,240624_150604,LEARNING,1.0,47,3.0,583.0,,,,,,,,,,47.0,47.0,47.0,cue2.png,Hard,A,,,,,,,,,,,,,,,,,,,,,,,,,,,25,29,Male,0.7142857142857143,0.25,0.0,1.0,2.5555555555555554,1.125,2.4444444444444446,2.7777777777777777,2.375,3.4444444444444446,2.0,2.0,2.5,1.0,0.8068181818181819,0.7757575757575758,0.7675454230943265,1.7252055000806727,0.005270621944375965,-0.6122435143717077,0.0224524755483596,1.9117277624591935,0.0260263843778053,-0.48173536442301446,0.024069096694146218,-0.8142445843216469,-1.475038088281596e+43,-0.17687074942961342,-1.110282222252711e+44,-0.1939085489610585,,,,,,,,,,,,,,,,,,,,
47,240624_150634,LEARNING,1.0,48,3.0,583.0,,,,,,,,,,48.0,48.0,48.0,cue2.png,Hard,A,,,,,,,,,,,,,,,,,,,,,,,,,,,25,29,Male,0.7142857142857143,0.25,0.0,1.0,2.5555555555555554,1.125,2.4444444444444446,2.7777777777777777,2.375,3.4444444444444446,2.0,2.0,2.5,1.0,1.0,0.9333333333333332,0.7288175642856264,1.3423549071640555,0.007391293216089424,-0.418420033222789,0.004154653364562675,-1.0603703042010295,,,0.03099669230997163,-0.050519907953411845,6.787906704523689e+42,-0.17684541256572642,3.5998902929597257e+43,-0.1938781458132038,,,,,,,,,,,,,,,,,,,,
48,240624_150659,LEARNING,1.0,49,1.0,583.0,,,,,,,,,,49.0,49.0,49.0,cue1.png,Easy,A,,,,,,,,,,,,,,,,,,,,,,,,,,,25,29,Male,0.7142857142857143,0.25,0.0,1.0,2.5555555555555554,1.125,2.4444444444444446,2.7777777777777777,2.375,3.4444444444444446,2.0,2.0,2.5,1.0,1.0,1.0,0.4671261666653057,-1.2446382760896213,0.004544519269854561,-0.6786072879204327,,,,,0.017765385762019175,-1.509189823411503,2.677022105414907e+43,-0.17682190609257847,,,,,,,,,,,,,,,,,,,,,,
49,240624_150726,LEARNING,1.0,50,1.0,583.0,,,,,,,,,,50.0,50.0,50.0,cue1.png,Easy,A,,,,,,,,,,,,,,,,,,,,,,,,,,,25,29,Male,0.7142857142857143,0.25,0.0,1.0,2.5555555555555554,1.125,2.4444444444444446,2.7777777777777777,2.375,3.4444444444444446,2.0,2.0,2.5,1.0,1.0,1.0,0.5194306933321059,-0.727573308838993,0.004938017644783338,-0.6426426262246508,0.0054556628444930215,-0.8490485566636823,0.0205738706933324,-0.9585111386003767,0.030434358536512805,-0.11251373712044531,1.8401007868110827e+42,-0.17685123298596958,-1.9981830143286237e+43,-0.1938897218438365,,,,,,,,,,,,,,,,,,,,
0,240624_151155,TrueCHOICE,9.0,1,1.0,583.0,,,,,,,,,,,2.0,1.0,,,A,,,,,,True,cue1.png,Easy,cue2.png,Hard,Left,Easy,Easy,0.0151696999091655,,,,,,,,,,,,,25,29,Male,0.7142857142857143,0.25,0.0,1.0,2.5555555555555554,1.125,2.4444444444444446,2.7777777777777777,2.375,3.4444444444444446,2.0,2.0,2.5,1.0,1.0,1.0,0.4570995599962771,-0.9351435340034336,,,,,,,,,,,,,0.0059873546101352655,-0.7675172303480391,,,30909285.603627026,-0.40838974163048997,,,,,,,,,,,,,,
1,240624_151219,TrueCHOICE,9.0,2,1.0,583.0,,,,,,,,,,,3.0,2.0,,,A,,,,,,True,cue1.png,Easy,cue2.png,Hard,Left,Easy,Easy,0.0170672999229282,,,,,,,,,,,,,25,29,Male,0.7142857142857143,0.25,0.0,1.0,2.5555555555555554,1.125,2.4444444444444446,2.7777777777777777,2.375,3.4444444444444446,2.0,2.0,2.5,1.0,1.0,1.0,0.4527381533291191,-1.0841094736729253,,,,,,,,,,,,,0.010782877856199597,0.6052519620099238,0.023181125167479263,1.2119705967731056,9347704.525828235,-0.40878802819191573,,,,,,,,,,,,,,
2,240624_151244,TrueCHOICE,9.0,3,1.0,583.0,,,,,,,,,,,4.0,3.0,,,A,,,,,,True,cue2.png,Hard,cue1.png,Easy,Right,Easy,Easy,0.0144770999904721,,,,,,,,,,,,,25,29,Male,0.7142857142857143,0.25,0.0,1.0,2.5555555555555554,1.125,2.4444444444444446,2.7777777777777777,2.375,3.4444444444444446,2.0,2.0,2.5,1.0,1.0,1.0,0.5241679333305608,1.355608972768914,,,,,,,,,,,,,,,0.023783650035994985,1.3353620285935397,3835018.0631758096,-0.4088898588010676,,,,,,,,,,,,,,
3,240624_151309,TrueCHOICE,9.0,4,1.0,583.0,,,,,,,,,,,5.0,4.0,,,A,,,,,,True,cue1.png,Easy,cue2.png,Hard,Left,Easy,Easy,0.0165597999002784,,,,,,,,,,,,,25,29,Male,0.7142857142857143,0.25,0.0,1.0,2.5555555555555554,1.125,2.4444444444444446,2.7777777777777777,2.375,3.4444444444444446,2.0,2.0,2.5,1.0,0.905,0.9,0.5163768800441175,1.0895018054254997,,,,,,,,,,,,,,,0.016950622055505734,-0.06397789949717768,,,,,,,,,,,,,,,,
4,240624_151333,TrueCHOICE,9.0,5,1.0,583.0,,,,,,,,,,,6.0,5.0,,,A,,,,,,True,cue2.png,Hard,cue1.png,Easy,Right,Easy,Easy,0.0158774999435991,,,,,,,,,,,,,25,29,Male,0.7142857142857143,0.25,0.0,1.0,2.5555555555555554,1.125,2.4444444444444446,2.7777777777777777,2.375,3.4444444444444446,2.0,2.0,2.5,1.0,1.0,1.0,0.4499433332898964,-1.1795678945729942,,,,,,,,,,,,,0.010495326353050356,0.522937306343628,,,154744552572.88672,2.449488109173165,,,,,,,,,,,,,,
5,240624_151357,TrueCHOICE,9.0,6,1.0,583.0,,,,,,,,,,,7.0,6.0,,,A,,,,,,True,cue2.png,Hard,cue1.png,Easy,Right,Easy,Easy,0.0157103000674396,,,,,,,,,,,,,25,29,Male,0.7142857142857143,0.25,0.0,1.0,2.5555555555555554,1.125,2.4444444444444446,2.7777777777777777,2.375,3.4444444444444446,2.0,2.0,2.5,1.0,1.0,1.0,0.4909411533580472,0.2207323426971224,,,,,,,,,,,,,,,0.011358389154223738,-1.2092146537283794,-770387.559641756,-0.4089749300749628,,,,,,,,,,,,,,
6,240624_151422,TrueCHOICE,9.0,7,1.0,583.0,,,,,,,,,,,8.0,7.0,,,A,,,,,,True,cue1.png,Easy,cue2.png,Hard,Left,Easy,Easy,0.0163362000603228,,,,,,,,,,,,,25,29,Male,0.7142857142857143,0.25,0.0,1.0,2.5555555555555554,1.125,2.4444444444444446,2.7777777777777777,2.375,3.4444444444444446,2.0,2.0,2.5,1.0,1.0,1.0,0.463491526649644,-0.7168228426482937,,,,,,,,,,,,,0.01427023100522885,1.6035436436921742,0.020279069986253534,0.6176569630213911,,,,,,,,,,,,,,,,
7,240624_151446,TrueCHOICE,9.0,8,1.0,583.0,,,,,,,,,,,9.0,8.0,,,A,,,,,,True,cue2.png,Hard,cue1.png,Easy,Right,Easy,Easy,0.0168546000495553,,,,,,,,,,,,,25,29,Male,0.7142857142857143,0.25,0.0,1.0,2.5555555555555554,1.125,2.4444444444444446,2.7777777777777777,2.375,3.4444444444444446,2.0,2.0,2.5,1.0,0.905,0.9,0.4599696400264899,-0.8371145719608076,,,,,,,,,,,,,0.006522911783291057,-0.6142083315416444,0.013792952585224148,-0.7106389379262504,187713615.2615601,-0.4054932445206171,,,,,,,,,,,,,,
8,240624_151510,TrueCHOICE,9.0,9,1.0,583.0,,,,,,,,,,,10.0,9.0,,,A,,,,,,True,cue1.png,Easy,cue2.png,Hard,Left,Easy,Easy,0.0160905998200178,,,,,,,,,,,,,25,29,Male,0.7142857142857143,0.25,0.0,1.0,2.5555555555555554,1.125,2.4444444444444446,2.7777777777777777,2.375,3.4444444444444446,2.0,2.0,2.5,1.0,1.0,1.0,0.5213496000195543,1.2593474447767354,,,,,,,,,,,,,,,,,,,,,,,,,,,,,,,,
9,240624_151535,TrueCHOICE,9.0,10,1.0,583.0,,,,,,,,,,,11.0,10.0,,,A,,,,,,True,cue2.png,Hard,cue1.png,Easy,Right,Easy,Easy,0.0154993999749422,,,,,,,,,,,,,25,29,Male,0.7142857142857143,0.25,0.0,1.0,2.5555555555555554,1.125,2.4444444444444446,2.7777777777777777,2.375,3.4444444444444446,2.0,2.0,2.5,1.0,1.0,1.0,0.5087080066557974,0.8275677511902227,,,,,,,,,,,,,0.003952529727924706,-1.3500073501560421,0.011495390344355285,-1.1811580972362319,454388.42650297435,-0.40895230595411197,,,,,,,,,,,,,,
0,240624_152008,FalseCHOICE,9.0,1,2.0,583.0,,,,,,,,,,,1.0,1.0,,,A,,,,,,False,cue1.png,Easy,cue2.png,Hard,Left,Easy,Mid,0.0128317999187856,,,,,,,,,,,,,25,29,Male,0.7142857142857143,0.25,0.0,1.0,2.5555555555555554,1.125,2.4444444444444446,2.7777777777777777,2.375,3.4444444444444446,2.0,2.0,2.5,1.0,0.7386363636363636,0.8181818181818181,0.6820241067092866,2.000068435563475,,,,,,,,,,,,,,,,,,,0.005176711269250888,-0.6238282479002106,,,,,,,,,,,,
1,240624_152035,FalseCHOICE,9.0,2,2.0,583.0,,,,,,,,,,,2.0,2.0,,,A,,,,,,False,cue2.png,Hard,cue1.png,Easy,Right,Easy,Mid,0.0164363000076264,,,,,,,,,,,,,25,29,Male,0.7142857142857143,0.25,0.0,1.0,2.5555555555555554,1.125,2.4444444444444446,2.7777777777777777,2.375,3.4444444444444446,2.0,2.0,2.5,1.0,0.8920454545454546,0.7757575757575758,0.6386133999599574,1.0579778739624803,,,,,,,,,,,,,,,,,,,,,,,1.4096177051614947e+44,-0.18642960369199227,,,,,,,,
2,240624_152102,FalseCHOICE,9.0,3,2.0,583.0,,,,,,,,,,,3.0,3.0,,,A,,,,,,False,cue2.png,Hard,cue1.png,Easy,Right,Easy,Mid,0.0166355001274496,,,,,,,,,,,,,25,29,Male,0.7142857142857143,0.25,0.0,1.0,2.5555555555555554,1.125,2.4444444444444446,2.7777777777777777,2.375,3.4444444444444446,2.0,2.0,2.5,1.0,1.0,1.0,0.6688952200269948,1.7151479365921638,,,,,,,,,,,,,,,,,,,0.07341701340018959,3.8653687718041345,0.037814835625251446,0.4191078097339983,-6.976874103602822e+44,-0.20136234479534335,,,,,,,,
3,240624_152129,FalseCHOICE,9.0,4,2.0,583.0,,,,,,,,,,,4.0,4.0,,,A,,,,,,False,cue2.png,Hard,cue1.png,Easy,Right,Easy,Mid,0.0143977000843733,,,,,,,,,,,,,25,29,Male,0.7142857142857143,0.25,0.0,1.0,2.5555555555555554,1.125,2.4444444444444446,2.7777777777777777,2.375,3.4444444444444446,2.0,2.0,2.5,1.0,0.905,0.9,0.6967509867002567,2.3196682688819648,,,,,,,,,,,,,,,,,,,,,0.015454606610868612,-0.9969049975276885,-6.159914987446868e+44,-0.19990769137747075,,,,,,,,
4,240624_152155,FalseCHOICE,9.0,5,2.0,583.0,,,,,,,,,,,5.0,5.0,,,A,,,,,,False,cue1.png,Easy,cue2.png,Hard,Left,Easy,Mid,0.0161385000683367,,,,,,,,,,,,,25,29,Male,0.7142857142857143,0.25,0.0,1.0,2.5555555555555554,1.125,2.4444444444444446,2.7777777777777777,2.375,3.4444444444444446,2.0,2.0,2.5,1.0,1.0,1.0,0.6095180666695038,0.42655671240779036,,,,,,,,,,,,,,,,,,,0.005566165597598308,-0.5982079450068631,0.02093610101885375,-0.6497767870049972,3.4422025786788214e+47,5.94014532752742,,,,,,,,
5,240624_152221,FalseCHOICE,9.0,6,2.0,583.0,,,,,,,,,,,6.0,6.0,,,A,,,,,,False,cue2.png,Hard,cue1.png,Easy,Right,Easy,Mid,0.0164900999516248,,,,,,,,,,,,,25,29,Male,0.7142857142857143,0.25,0.0,1.0,2.5555555555555554,1.125,2.4444444444444446,2.7777777777777777,2.375,3.4444444444444446,2.0,2.0,2.5,1.0,0.8920454545454546,0.8424242424242424,0.5895279142839301,-0.007265616174905331,,,,,,,,,,,,,,,,,,,0.006947485045210198,-0.507337668149347,,,1.6849679304336585e+43,-0.18863950715117728,,,,,,,,
6,240624_152247,FalseCHOICE,9.0,7,2.0,583.0,,,,,,,,,,,7.0,7.0,,,A,,,,,,False,cue2.png,Hard,cue1.png,Easy,Right,Easy,Mid,0.0165756000205874,,,,,,,,,,,,,25,29,Male,0.7142857142857143,0.25,0.0,1.0,2.5555555555555554,1.125,2.4444444444444446,2.7777777777777777,2.375,3.4444444444444446,2.0,2.0,2.5,1.0,1.0,1.0,0.5670463600040724,-0.49515585531508466,,,,,,,,,,,,,,,,,,,0.005161601406549646,-0.624822252154125,0.01574135988238356,-0.9787456886615686,8.198614840313109e+43,-0.18747970630522373,,,,,,,,
7,240624_152312,FalseCHOICE,9.0,8,2.0,583.0,,,,,,,,,,,8.0,8.0,,,A,,,,,,False,cue1.png,Easy,cue2.png,Hard,Left,Easy,Mid,0.014911700040102,,,,,,,,,,,,,25,29,Male,0.7142857142857143,0.25,0.0,1.0,2.5555555555555554,1.125,2.4444444444444446,2.7777777777777777,2.375,3.4444444444444446,2.0,2.0,2.5,1.0,0.8920454545454546,0.9090909090909092,0.613811073328058,0.5197226928021679,,,,,,,,,,,,,,,,,,,0.004340848558655835,-0.6788155834205801,0.022662656176430394,-0.5404387201184883,2.361162525619986e+44,-0.18473531092021708,,,,,,,,
8,240624_152338,FalseCHOICE,9.0,9,2.0,583.0,,,,,,,,,,,9.0,9.0,,,A,,,,,,False,cue1.png,Easy,cue2.png,Hard,Left,Easy,Mid,0.0159436999820172,,,,,,,,,,,,,25,29,Male,0.7142857142857143,0.25,0.0,1.0,2.5555555555555554,1.125,2.4444444444444446,2.7777777777777777,2.375,3.4444444444444446,2.0,2.0,2.5,1.0,0.8920454545454546,0.9090909090909092,0.5928822133534898,0.06552871800782396,,,,,,,,,,,,,,,,,,,0.01843772880000784,0.2485494895707222,0.014662008649394691,-1.047098082032085,4.879196546791443e+46,0.6798358851411354,,,,,,,,
9,240624_152403,FalseCHOICE,9.0,10,2.0,583.0,,,,,,,,,,,10.0,10.0,,,A,,,,,,False,cue2.png,Hard,cue1.png,Easy,Right,Easy,Mid,0.0172190000303089,,,,,,,,,,,,,25,29,Male,0.7142857142857143,0.25,0.0,1.0,2.5555555555555554,1.125,2.4444444444444446,2.7777777777777777,2.375,3.4444444444444446,2.0,2.0,2.5,1.0,0.675,0.7333333333333334,0.5574065214189302,-0.7043577233901729,,,,,,,,,,,,,,,,,,,,,0.02397664817337081,-0.45722716199400887,3.0170710689349476e+44,-0.18356741942420884,,,,,,,,
10,240624_152429,FalseCHOICE,9.0,11,2.0,583.0,,,,,,,,,,,11.0,11.0,,,A,,,,,,False,cue1.png,Easy,cue2.png,Hard,Left,Easy,Mid,0.0160731000360101,,,,,,,,,,,,,25,29,Male,0.7142857142857143,0.25,0.0,1.0,2.5555555555555554,1.125,2.4444444444444446,2.7777777777777777,2.375,3.4444444444444446,2.0,2.0,2.5,1.0,0.835,0.8333333333333334,0.6055193071453167,0.3397764250560528,,,,,,,,,,,,,,,,,,,0.0053778268017410195,-0.6105978368252629,0.028244969586610765,-0.18692591495537697,,,,,,,,,,
11,240624_152455,FalseCHOICE,9.0,12,2.0,583.0,,,,,,,,,,,12.0,12.0,,,A,,,,,,False,cue2.png,Hard,cue1.png,Easy,Right,Easy,Mid,0.01629009982571,,,,,,,,,,,,,25,29,Male,0.7142857142857143,0.25,0.0,1.0,2.5555555555555554,1.125,2.4444444444444446,2.7777777777777777,2.375,3.4444444444444446,2.0,2.0,2.5,1.0,0.8920454545454546,0.9090909090909092,0.6158497733219216,0.5639661563616414,,,,,,,,,,,,,,,,,,,0.00454128086989071,-0.6656301181434544,0.02349439392396816,-0.4877670188564441,2.7282446094729924e+44,-0.18408169533853522,,,,,,,,
12,240624_152522,FalseCHOICE,9.0,13,2.0,583.0,,,,,,,,,,,13.0,13.0,,,A,,,,,,False,cue1.png,Easy,cue2.png,Hard,Left,Easy,Mid,0.0162453998345881,,,,,,,,,,,,,25,29,Male,0.7142857142857143,0.25,0.0,1.0,2.5555555555555554,1.125,2.4444444444444446,2.7777777777777777,2.375,3.4444444444444446,2.0,2.0,2.5,1.0,0.8068181818181819,0.7757575757575758,0.6302960384637117,0.8774761417911285,,,,,,,,,,,,,,,,,,,,,,,,,,,,,,,,
13,240624_152547,FalseCHOICE,9.0,14,2.0,583.0,,,,,,,,,,,14.0,14.0,,,A,,,,,,False,cue2.png,Hard,cue1.png,Easy,Right,Easy,Mid,0.0149774001911282,,,,,,,,,,,,,25,29,Male,0.7142857142857143,0.25,0.0,1.0,2.5555555555555554,1.125,2.4444444444444446,2.7777777777777777,2.375,3.4444444444444446,2.0,2.0,2.5,1.0,0.8920454545454546,0.9090909090909092,0.5534831132895003,-0.7895027496941195,,,,,,,,,,,,,,,,,,,0.018427959558451536,0.24790681876315177,0.03171479572485664,0.03280878666897162,,,,,,,,,,
14,240624_152612,FalseCHOICE,9.0,15,2.0,583.0,,,,,,,,,,,15.0,15.0,,,A,,,,,,False,cue1.png,Easy,cue2.png,Hard,Left,Easy,Mid,0.015836999984458,,,,,,,,,,,,,25,29,Male,0.7142857142857143,0.25,0.0,1.0,2.5555555555555554,1.125,2.4444444444444446,2.7777777777777777,2.375,3.4444444444444446,2.0,2.0,2.5,1.0,0.6666666666666666,0.8333333333333334,0.5977266933613767,0.17066266382559228,,,,,,,,,,,,,,,,,,,0.00509445951402773,-0.6292391901569544,0.02462414720649934,-0.4162228000525547,,,,,,,,,,
15,240624_152637,FalseCHOICE,9.0,16,2.0,583.0,,,,,,,,,,,16.0,16.0,,,A,,,,,,False,cue1.png,Easy,cue2.png,Hard,Left,Easy,Mid,0.0150859002023935,,,,,,,,,,,,,25,29,Male,0.7142857142857143,0.25,0.0,1.0,2.5555555555555554,1.125,2.4444444444444446,2.7777777777777777,2.375,3.4444444444444446,2.0,2.0,2.5,1.0,0.905,0.9,0.5634903732687235,-0.5723271752821858,,,,,,,,,,,,,,,,,,,,,0.06180546828840438,1.9383696689700467,-1.4663873261706861e+44,-0.1915505338167838,,,,,,,,
16,240624_152702,FalseCHOICE,9.0,17,2.0,583.0,,,,,,,,,,,17.0,17.0,,,A,,,,,,False,cue2.png,Hard,cue1.png,Easy,Right,Easy,Mid,0.0154063999652862,,,,,,,,,,,,,25,29,Male,0.7142857142857143,0.25,0.0,1.0,2.5555555555555554,1.125,2.4444444444444446,2.7777777777777777,2.375,3.4444444444444446,2.0,2.0,2.5,1.0,1.0,1.0,0.5402146466231594,-1.0774523858393608,,,,,,,,,,,,,,,,,,,0.0185907293175986,0.2586146482252624,0.017222573301599493,-0.8849444502865721,,,,,,,,,,
17,240624_152728,FalseCHOICE,9.0,18,2.0,583.0,,,,,,,,,,,18.0,18.0,,,A,,,,,,False,cue2.png,Hard,cue1.png,Easy,Right,Easy,Mid,0.0164553001523017,,,,,,,,,,,,,25,29,Male,0.7142857142857143,0.25,0.0,1.0,2.5555555555555554,1.125,2.4444444444444446,2.7777777777777777,2.375,3.4444444444444446,2.0,2.0,2.5,1.0,1.0,1.0,0.5283116400086632,-1.335769078330538,,,,,,,,,,,,,,,,,,,0.019298572895225005,0.305180228679465,0.05098814038950342,1.2533375597130167,,,,,,,,,,
18,240624_152753,FalseCHOICE,9.0,19,2.0,583.0,,,,,,,,,,,19.0,19.0,,,A,,,,,,False,cue1.png,Easy,cue2.png,Hard,Left,Easy,Mid,0.0159057001583278,,,,,,,,,,,,,25,29,Male,0.7142857142857143,0.25,0.0,1.0,2.5555555555555554,1.125,2.4444444444444446,2.7777777777777777,2.375,3.4444444444444446,2.0,2.0,2.5,1.0,0.8920454545454546,0.8424242424242424,0.5334448357378798,-1.2243694811005235,,,,,,,,,,,,,,,,,,,0.006859014615952378,-0.5131577066742953,0.02518673145155288,-0.38059586190057776,,,,,,,,,,
19,240624_152818,FalseCHOICE,9.0,20,2.0,583.0,,,,,,,,,,,20.0,20.0,,,A,,,,,,False,cue1.png,Easy,cue2.png,Hard,Left,Easy,Mid,0.0127512998878955,,,,,,,,,,,,,25,29,Male,0.7142857142857143,0.25,0.0,1.0,2.5555555555555554,1.125,2.4444444444444446,2.7777777777777777,2.375,3.4444444444444446,2.0,2.0,2.5,1.0,0.835,0.8333333333333334,0.5117653642747817,-1.694853077781391,,,,,,,,,,,,,,,,,,,,,0.03841497581677581,0.45711306436731886,,,,,,,,,,
20,240624_152843,FalseCHOICE,9.0,21,2.0,583.0,,,,,,,,,,,21.0,21.0,,,A,,,,,,False,cue1.png,Easy,cue2.png,Hard,Left,Easy,Mid,0.0150917000137269,,,,,,,,,,,,,25,29,Male,0.7142857142857143,0.25,0.0,1.0,2.5555555555555554,1.125,2.4444444444444446,2.7777777777777777,2.375,3.4444444444444446,2.0,2.0,2.5,1.0,1.0,1.0,0.5665268999679635,-0.5064290741542293,,,,,,,,,,,,,,,,,,,0.012130615828863663,-0.1663647454024866,0.0347545503217392,0.2253082211492539,,,,,,,,,,
21,240624_152908,FalseCHOICE,9.0,22,2.0,583.0,,,,,,,,,,,22.0,22.0,,,A,,,,,,False,cue2.png,Hard,cue1.png,Easy,Right,Easy,Mid,0.015392699977383,,,,,,,,,,,,,25,29,Male,0.7142857142857143,0.25,0.0,1.0,2.5555555555555554,1.125,2.4444444444444446,2.7777777777777777,2.375,3.4444444444444446,2.0,2.0,2.5,1.0,0.7386363636363636,0.8181818181818181,0.5980410866594563,0.1774855649237404,,,,,,,,,,,,,,,,,,,0.034651202467800034,1.3151549323316238,0.06502502003633347,2.142255170579931,8.858005786000864e+43,-0.1873622970892801,,,,,,,,
22,240624_152935,FalseCHOICE,9.0,23,2.0,583.0,,,,,,,,,,,23.0,23.0,,,A,,,,,,False,cue1.png,Easy,cue2.png,Hard,Left,Easy,Mid,0.0161005000118166,,,,,,,,,,,,,25,29,Male,0.7142857142857143,0.25,0.0,1.0,2.5555555555555554,1.125,2.4444444444444446,2.7777777777777777,2.375,3.4444444444444446,2.0,2.0,2.5,1.0,0.77,0.8,0.6674591000502308,1.6839815452397155,,,,,,,,,,,,,,,,,,,0.014470493614799289,-0.012435585432776489,0.018516816277172353,-0.8029835442537755,,,,,,,,,,
23,240624_152959,FalseCHOICE,9.0,24,2.0,583.0,,,,,,,,,,,24.0,24.0,,,A,,,,,,False,cue2.png,Hard,cue1.png,Easy,Right,Easy,Mid,0.0167656999547034,,,,,,,,,,,,,25,29,Male,0.7142857142857143,0.25,0.0,1.0,2.5555555555555554,1.125,2.4444444444444446,2.7777777777777777,2.375,3.4444444444444446,2.0,2.0,2.5,1.0,0.905,0.9,0.5300258333173891,-1.2985679945924757,,,,,,,,,,,,,,,,,,,0.02252341202537049,0.5173266840731835,0.025402563131632996,-0.36692782553969494,-2.3171931216472364e+43,-0.1893521201985326,,,,,,,,
24,240624_153026,FalseCHOICE,9.0,25,2.0,583.0,,,,,,,,,,,25.0,25.0,,,A,,,,,,False,cue2.png,Hard,cue1.png,Easy,Right,Easy,Mid,0.0149618999566882,,,,,,,,,,,,,25,29,Male,0.7142857142857143,0.25,0.0,1.0,2.5555555555555554,1.125,2.4444444444444446,2.7777777777777777,2.375,3.4444444444444446,2.0,2.0,2.5,1.0,0.835,0.8333333333333334,0.6572476142651534,1.4623739028303289,,,,,,,,,,,,,,,,,,,0.006495297716962551,-0.5370848694794693,0.02072551017417919,-0.6631129354388715,-6.182076691850114e+43,-0.1900402900204851,,,,,,,,
25,240624_153053,FalseCHOICE,9.0,26,2.0,583.0,,,,,,,,,,,26.0,26.0,,,A,,,,,,False,cue1.png,Easy,cue2.png,Hard,Left,Easy,Mid,0.0157025000080466,,,,,,,,,,,,,25,29,Male,0.7142857142857143,0.25,0.0,1.0,2.5555555555555554,1.125,2.4444444444444446,2.7777777777777777,2.375,3.4444444444444446,2.0,2.0,2.5,1.0,1.0,1.0,0.6513541733225187,1.3344756145239567,,,,,,,,,,,,,,,,,,,0.012743692236893185,-0.12603343534327488,,,,,,,,,,,,
26,240624_153118,FalseCHOICE,9.0,27,2.0,583.0,,,,,,,,,,,27.0,27.0,,,A,,,,,,False,cue1.png,Easy,cue2.png,Hard,Left,Easy,Mid,0.014610799960792,,,,,,,,,,,,,25,29,Male,0.7142857142857143,0.25,0.0,1.0,2.5555555555555554,1.125,2.4444444444444446,2.7777777777777777,2.375,3.4444444444444446,2.0,2.0,2.5,1.0,1.0,1.0,0.6116059533475587,0.47186761564753993,,,,,,,,,,,,,,,,,,,0.00869996055133863,-0.39205084242396976,0.01856250271070682,-0.8000903460239495,-6.521939751344399e+43,-0.1901008050390858,,,,,,,,
27,240624_153144,FalseCHOICE,9.0,28,2.0,583.0,,,,,,,,,,,28.0,28.0,,,A,,,,,,False,cue2.png,Hard,cue1.png,Easy,Right,Easy,Mid,0.0164985000155866,,,,,,,,,,,,,25,29,Male,0.7142857142857143,0.25,0.0,1.0,2.5555555555555554,1.125,2.4444444444444446,2.7777777777777777,2.375,3.4444444444444446,2.0,2.0,2.5,1.0,0.8920454545454546,0.9090909090909092,0.5727632133445392,-0.37108983618274016,,,,,,,,,,,,,,,,,,,0.031940256110483164,1.1368149788464585,,,-3.8267545298066157e+43,-0.18962090827108632,,,,,,,,
28,240624_153209,FalseCHOICE,9.0,29,2.0,583.0,,,,,,,,,,,29.0,29.0,,,A,,,,,,False,cue1.png,Easy,cue2.png,Hard,Left,Easy,Mid,0.0168853001669049,,,,,,,,,,,,,25,29,Male,0.7142857142857143,0.25,0.0,1.0,2.5555555555555554,1.125,2.4444444444444446,2.7777777777777777,2.375,3.4444444444444446,2.0,2.0,2.5,1.0,0.8920454545454546,0.9090909090909092,0.5819930133409799,-0.17078654436300905,,,,,,,,,,,,,,,,,,,0.00898097153843067,-0.3735644986305735,0.03274906032641342,0.09830596565402477,-4.8662811016329436e+42,-0.18902617516677597,,,,,,,,
29,240624_153233,FalseCHOICE,9.0,30,2.0,583.0,,,,,,,,,,,30.0,30.0,,,A,,,,,,False,cue1.png,Easy,cue2.png,Hard,Left,Easy,Mid,0.0160376999992877,,,,,,,,,,,,,25,29,Male,0.7142857142857143,0.25,0.0,1.0,2.5555555555555554,1.125,2.4444444444444446,2.7777777777777777,2.375,3.4444444444444446,2.0,2.0,2.5,1.0,0.075,0.6,0.506230006661887,-1.8149803125741046,,,,,,,,,,,,,,,,,,,0.007382621778955832,-0.47871214236332993,0.020986451057625328,-0.6465882552730182,3.259851363250079e+43,-0.18835908803068607,,,,,,,,
30,240624_153304,FalseCHOICE,9.0,31,2.0,583.0,,,,,,,,,,,32.0,31.0,,,A,,,,,,False,cue2.png,Hard,cue1.png,Easy,Right,Easy,Mid,0.0169331999495625,,,,,,,,,,,,,25,29,Male,0.7142857142857143,0.25,0.0,1.0,2.5555555555555554,1.125,2.4444444444444446,2.7777777777777777,2.375,3.4444444444444446,2.0,2.0,2.5,1.0,0.905,0.9,0.6031918733380734,0.28926691745424965,,,,,,,,,,,,,,,,,,,,,0.07770882654392285,2.9454863203156045,5.834629272683162e+43,-0.18790063063518714,,,,,,,,
31,240624_153330,FalseCHOICE,9.0,32,2.0,583.0,,,,,,,,,,,33.0,32.0,,,A,,,,,,False,cue1.png,Easy,cue2.png,Hard,Left,Easy,Mid,0.016663399990648,,,,,,,,,,,,,25,29,Male,0.7142857142857143,0.25,0.0,1.0,2.5555555555555554,1.125,2.4444444444444446,2.7777777777777777,2.375,3.4444444444444446,2.0,2.0,2.5,1.0,1.0,1.0,0.5891892200025419,-0.01461589240068925,,,,,,,,,,,,,,,,,,,0.06697882773759545,3.4418319030287954,0.028567554729557833,-0.16649747061558196,6.799486349247651e+43,-0.18772883101676963,,,,,,,,
32,240624_153355,FalseCHOICE,9.0,33,2.0,583.0,,,,,,,,,,,34.0,33.0,,,A,,,,,,False,cue2.png,Hard,cue1.png,Easy,Right,Easy,Mid,0.0165071000810712,,,,,,,,,,,,,25,29,Male,0.7142857142857143,0.25,0.0,1.0,2.5555555555555554,1.125,2.4444444444444446,2.7777777777777777,2.375,3.4444444444444446,2.0,2.0,2.5,1.0,0.905,0.9,0.6219233133519689,0.695772919399468,,,,,,,,,,,,,,,,,,,0.010254036324288018,-0.2898157685678695,0.040763520410179534,0.6058400394151033,5.671012761965763e+43,-0.18792976371073875,,,,,,,,
33,240624_153422,FalseCHOICE,9.0,34,2.0,583.0,,,,,,,,,,,35.0,34.0,,,A,,,,,,False,cue2.png,Hard,cue1.png,Easy,Right,Easy,Mid,0.0161714998539537,,,,,,,,,,,,,25,29,Male,0.7142857142857143,0.25,0.0,1.0,2.5555555555555554,1.125,2.4444444444444446,2.7777777777777777,2.375,3.4444444444444446,2.0,2.0,2.5,1.0,0.1590909090909091,0.6363636363636364,0.6595742999886473,1.5128671756667398,,,,,,,,,,,,,,,,,,,0.007418742136084141,-0.476335960041336,0.016021647531632266,-0.9609958301606495,2.655493284003371e+43,-0.18846669825599718,,,,,,,,
34,240624_153448,FalseCHOICE,9.0,35,2.0,583.0,,,,,,,,,,,36.0,35.0,,,A,,,,,,False,cue2.png,Hard,cue1.png,Easy,Right,Easy,Mid,0.0152483999263495,,,,,,,,,,,,,25,29,Male,0.7142857142857143,0.25,0.0,1.0,2.5555555555555554,1.125,2.4444444444444446,2.7777777777777777,2.375,3.4444444444444446,2.0,2.0,2.5,1.0,0.905,0.9,0.6202950733713806,0.6604371777680008,,,,,,,,,,,,,,,,,,,0.006781203265434449,-0.518276536338531,0.01956472023143709,-0.7366226219633744,-8.612585549353392e+42,-0.18909288076392886,,,,,,,,
35,240624_153513,FalseCHOICE,9.0,36,2.0,583.0,,,,,,,,,,,37.0,36.0,,,A,,,,,,False,cue1.png,Easy,cue2.png,Hard,Left,Easy,Mid,0.0158424000255763,,,,,,,,,,,,,25,29,Male,0.7142857142857143,0.25,0.0,1.0,2.5555555555555554,1.125,2.4444444444444446,2.7777777777777777,2.375,3.4444444444444446,2.0,2.0,2.5,1.0,1.0,1.0,0.5986108667061975,0.18985081866915857,,,,,,,,,,,,,,,,,,,0.035787825194545105,1.3899278040525247,0.0235781608591751,-0.48246228548355297,-3.853171793494314e+43,-0.18962561205150252,,,,,,,,
36,240624_153539,FalseCHOICE,9.0,37,2.0,583.0,,,,,,,,,,,38.0,37.0,,,A,,,,,,False,cue2.png,Hard,cue1.png,Easy,Right,Easy,Mid,0.0162155998405069,,,,,,,,,,,,,25,29,Male,0.7142857142857143,0.25,0.0,1.0,2.5555555555555554,1.125,2.4444444444444446,2.7777777777777777,2.375,3.4444444444444446,2.0,2.0,2.5,1.0,0.7386363636363636,0.7515151515151515,0.5557022786067266,-0.7413428634231248,,,,,,,,,,,,,,,,,,,0.016180260641457996,0.10004165749820297,0.032269702830802736,0.06794955237198703,-6.078557719466078e+43,-0.19002185773617428,,,,,,,,
37,240624_153610,FalseCHOICE,9.0,38,2.0,583.0,,,,,,,,,,,40.0,38.0,,,A,,,,,,False,cue1.png,Easy,cue2.png,Hard,Left,Easy,Mid,0.0161328001413494,,,,,,,,,,,,,25,29,Male,0.7142857142857143,0.25,0.0,1.0,2.5555555555555554,1.125,2.4444444444444446,2.7777777777777777,2.375,3.4444444444444446,2.0,2.0,2.5,1.0,0.8920454545454546,0.9090909090909092,0.6097734866663813,0.4320997866012592,,,,,,,,,,,,,,,,,,,,,0.08418788676545014,3.3557876748679702,-5.665101335384846e+43,-0.1899482389062535,,,,,,,,
38,240624_153636,FalseCHOICE,9.0,39,2.0,583.0,,,,,,,,,,,41.0,39.0,,,A,,,,,,False,cue1.png,Easy,cue2.png,Hard,Left,Easy,Mid,0.0150637000333517,,,,,,,,,,,,,25,29,Male,0.7142857142857143,0.25,0.0,1.0,2.5555555555555554,1.125,2.4444444444444446,2.7777777777777777,2.375,3.4444444444444446,2.0,2.0,2.5,1.0,0.9375,0.9333333333333332,0.5695968071564234,-0.4398065562592909,,,,,,,,,,,,,,,,,,,,,0.046284930758091904,0.9554960184197047,-3.4939868258563635e+43,-0.18956165663066316,,,,,,,,
39,240624_153702,FalseCHOICE,9.0,40,2.0,583.0,,,,,,,,,,,42.0,40.0,,,A,,,,,,False,cue2.png,Hard,cue1.png,Easy,Right,Easy,Mid,0.0166266001760959,,,,,,,,,,,,,25,29,Male,0.7142857142857143,0.25,0.0,1.0,2.5555555555555554,1.125,2.4444444444444446,2.7777777777777777,2.375,3.4444444444444446,2.0,2.0,2.5,1.0,0.905,0.9,0.6157192333135754,0.561133202950299,,,,,,,,,,,,,,,,,,,0.01586039383627836,0.0789991787330958,0.02816365470723891,-0.1920753662663373,7.250061397892661e+41,-0.18892661834765004,,,,,,,,
40,240624_153728,FalseCHOICE,9.0,41,2.0,583.0,,,,,,,,,,,43.0,41.0,,,A,,,,,,False,cue2.png,Hard,cue1.png,Easy,Right,Easy,Mid,0.0167055001948028,,,,,,,,,,,,,25,29,Male,0.7142857142857143,0.25,0.0,1.0,2.5555555555555554,1.125,2.4444444444444446,2.7777777777777777,2.375,3.4444444444444446,2.0,2.0,2.5,1.0,0.8920454545454546,0.9090909090909092,0.6111597933185597,0.46218513904768416,,,,,,,,,,,,,,,,,,,0.0060046960044635705,-0.5693591659998205,0.027085004166931822,-0.26038338666506,3.9561328564386063e+43,-0.18823511019215802,,,,,,,,
41,240624_153754,FalseCHOICE,9.0,42,2.0,583.0,,,,,,,,,,,44.0,42.0,,,A,,,,,,False,cue1.png,Easy,cue2.png,Hard,Left,Easy,Mid,0.0161496000364422,,,,,,,,,,,,,25,29,Male,0.7142857142857143,0.25,0.0,1.0,2.5555555555555554,1.125,2.4444444444444446,2.7777777777777777,2.375,3.4444444444444446,2.0,2.0,2.5,1.0,1.0,0.9333333333333332,0.6030692071487594,0.2866048401043556,,,,,,,,,,,,,,,,,,,0.005177292326977611,-0.6237900229432038,0.03613298417651891,0.3126007077814638,6.052347821509216e+43,-0.18786186430956311,,,,,,,,
42,240624_153818,FalseCHOICE,9.0,43,2.0,583.0,,,,,,,,,,,45.0,43.0,,,A,,,,,,False,cue2.png,Hard,cue1.png,Easy,Right,Easy,Mid,0.0173870001453906,,,,,,,,,,,,,25,29,Male,0.7142857142857143,0.25,0.0,1.0,2.5555555555555554,1.125,2.4444444444444446,2.7777777777777777,2.375,3.4444444444444446,2.0,2.0,2.5,1.0,0.8920454545454546,0.9090909090909092,0.5628507266441981,-0.5862086596635625,,,,,,,,,,,,,,,,,,,0.00863788889394286,-0.39613423435934725,0.0322256618609347,0.06516055690430868,,,,,,,,,,
43,240624_153843,FalseCHOICE,9.0,44,2.0,583.0,,,,,,,,,,,46.0,44.0,,,A,,,,,,False,cue1.png,Easy,cue2.png,Hard,Left,Easy,Mid,0.0160010999534279,,,,,,,,,,,,,25,29,Male,0.7142857142857143,0.25,0.0,1.0,2.5555555555555554,1.125,2.4444444444444446,2.7777777777777777,2.375,3.4444444444444446,2.0,2.0,2.5,1.0,1.0,1.0,0.5222519733322163,-1.4672747645957556,,,,,,,,,,,,,,,,,,,0.022304283737268355,0.5029113015622226,0.02866572233529277,-0.16028078173956578,2.5432094379941986e+43,-0.1884866911879737,,,,,,,,
44,240624_153907,FalseCHOICE,9.0,45,2.0,583.0,,,,,,,,,,,47.0,45.0,,,A,,,,,,False,cue2.png,Hard,cue1.png,Easy,Right,Easy,Mid,0.01641929987818,,,,,,,,,,,,,25,29,Male,0.7142857142857143,0.25,0.0,1.0,2.5555555555555554,1.125,2.4444444444444446,2.7777777777777777,2.375,3.4444444444444446,2.0,2.0,2.5,1.0,0.905,0.9,0.5383719267013173,-1.1174427286841806,,,,,,,,,,,,,,,,,,,0.006029011783006562,-0.5677595493926498,0.025732598198465205,-0.34602759767622937,-2.327989828422644e+43,-0.18935404262844396,,,,,,,,
45,240624_153932,FalseCHOICE,9.0,46,2.0,583.0,,,,,,,,,,,48.0,46.0,,,A,,,,,,False,cue2.png,Hard,cue1.png,Easy,Right,Easy,Mid,0.0159636999014765,,,,,,,,,,,,,25,29,Male,0.7142857142857143,0.25,0.0,1.0,2.5555555555555554,1.125,2.4444444444444446,2.7777777777777777,2.375,3.4444444444444446,2.0,2.0,2.5,1.0,0.8920454545454546,0.9090909090909092,0.5876175000177075,-0.04872504827650398,,,,,,,,,,,,,,,,,,,0.005175419869147668,-0.6239132028214754,0.02096797901802925,-0.6477580395640229,-6.10804837342329e+43,-0.19002710875543896,,,,,,,,
46,240624_153958,FalseCHOICE,9.0,47,2.0,583.0,,,,,,,,,,,49.0,47.0,,,A,,,,,,False,cue1.png,Easy,cue2.png,Hard,Left,Easy,Mid,0.0165230000857263,,,,,,,,,,,,,25,29,Male,0.7142857142857143,0.25,0.0,1.0,2.5555555555555554,1.125,2.4444444444444446,2.7777777777777777,2.375,3.4444444444444446,2.0,2.0,2.5,1.0,0.8920454545454546,0.9090909090909092,0.5775982733039806,-0.2661603223909599,,,,,,,,,,,,,,,,,,,,,,,-5.159312776047324e+43,-0.18985817968027618,,,,,,,,
47,240624_154022,FalseCHOICE,9.0,48,2.0,583.0,,,,,,,,,,,50.0,48.0,,,A,,,,,,False,cue1.png,Easy,cue2.png,Hard,Left,Easy,Mid,0.01384919998236,,,,,,,,,,,,,25,29,Male,0.7142857142857143,0.25,0.0,1.0,2.5555555555555554,1.125,2.4444444444444446,2.7777777777777777,2.375,3.4444444444444446,2.0,2.0,2.5,1.0,1.0,1.0,0.5444724533086022,-0.9850503082910796,,,,,,,,,,,,,,,,,,,0.0060680001886852,-0.5651946921292732,0.022735986312246426,-0.5357949210139733,8.448925660794349e+42,-0.18878908850425385,,,,,,,,
48,240624_154046,FalseCHOICE,9.0,49,2.0,583.0,,,,,,,,,,,51.0,49.0,,,A,,,,,,False,cue2.png,Hard,cue1.png,Easy,Right,Easy,Mid,0.0165850999765098,,,,,,,,,,,,,25,29,Male,0.7142857142857143,0.25,0.0,1.0,2.5555555555555554,1.125,2.4444444444444446,2.7777777777777777,2.375,3.4444444444444446,2.0,2.0,2.5,1.0,1.0,1.0,0.5071395333545904,-1.795241944395308,,,,,,,,,,,,,,,,,,,0.0045840044158970104,-0.6628195441950174,,,8.656477668714873e+43,-0.18739818059419608,,,,,,,,
49,240624_154111,FalseCHOICE,9.0,50,2.0,583.0,,,,,,,,,,,52.0,50.0,,,A,,,,,,False,cue1.png,Easy,cue2.png,Hard,Left,Easy,Mid,0.0161041000392287,,,,,,,,,,,,,25,29,Male,0.7142857142857143,0.25,0.0,1.0,2.5555555555555554,1.125,2.4444444444444446,2.7777777777777777,2.375,3.4444444444444446,2.0,2.0,2.5,1.0,0.77,0.8,0.5552029933625211,-0.7521782529234333,,,,,,,,,,,,,,,,,,,0.00588327210365356,-0.5773470528733465,0.029938512473676956,-0.07967842584468247,-1.1970012610412456e+43,-0.18915266212450182,,,,,,,,
0,240624_144344,OFFLINERATING,9.0,1,1.0,,,,,,,,,,,,,,,,,T0,cue1.png,Easy,63.0,2.864817299880088,,,,,,,,,,,,,,,,,,,,,,25,29,Male,0.7142857142857143,0.25,0.0,1.0,2.5555555555555554,1.125,2.4444444444444446,2.7777777777777777,2.375,3.4444444444444446,2.0,2.0,2.5,1.0,,,,,,,,,,,,,,,,,,,,,,,,,,,,,1.2193455289874087,0.006693132278574466,1.2441431781136498,,,,,
1,240624_144352,OFFLINERATING,9.0,2,3.0,,,,,,,,,,,,,,,,,T0,cue2.png,Hard,44.0,1.3626178000122309,,,,,,,,,,,,,,,,,,,,,,25,29,Male,0.7142857142857143,0.25,0.0,1.0,2.5555555555555554,1.125,2.4444444444444446,2.7777777777777777,2.375,3.4444444444444446,2.0,2.0,2.5,1.0,,,,,,,,,,,,,,,,,,,,,,,,,,,,,-1.1568149890393364,0.006039681642557672,-0.03976512827783792,,,1075295.108128866,-0.5762829687884023,
2,240624_150833,OFFLINERATING,9.0,3,1.0,,,,,,,,,,,,,,,,,T1,cue1.png,Easy,52.0,1.6232204001862556,,,,,,,,,,,,,,,,,,,,,,25,29,Male,0.7142857142857143,0.25,0.0,1.0,2.5555555555555554,1.125,2.4444444444444446,2.7777777777777777,2.375,3.4444444444444446,2.0,2.0,2.5,1.0,,,,,,,,,,,,,,,,,,,,,,,,,,,,,-0.1563263498701806,,,0.025081390482402516,1.1317935537471446,35465.62967743959,-0.5778513130252547,
3,240624_150840,OFFLINERATING,9.0,4,3.0,,,,,,,,,,,,,,,,,T1,cue2.png,Hard,52.0,0.784775999840349,,,,,,,,,,,,,,,,,,,,,,25,29,Male,0.7142857142857143,0.25,0.0,1.0,2.5555555555555554,1.125,2.4444444444444446,2.7777777777777777,2.375,3.4444444444444446,2.0,2.0,2.5,1.0,,,,,,,,,,,,,,,,,,,,,,,,,,,,,-0.1563263498701806,0.005446946904012109,-1.2043780498358119,0.013938225154477058,-1.460497333838871,-7525.605942659028,-0.5779161554422252,
4,240624_151725,OFFLINERATING,9.0,5,1.0,,,,,,,,,,,,,,,,,T2,cue1.png,Easy,65.0,1.0854225000366569,,,,,,,,,,,,,,,,,,,,,,25,29,Male,0.7142857142857143,0.25,0.0,1.0,2.5555555555555554,1.125,2.4444444444444446,2.7777777777777777,2.375,3.4444444444444446,2.0,2.0,2.5,1.0,,,,,,,,,,,,,,,,,,,,,,,,,,,,,1.4694676887796976,,,,,1531525731.497193,1.732050437255882,
5,240624_151731,OFFLINERATING,9.0,6,3.0,,,,,,,,,,,,,,,,,T2,cue2.png,Hard,47.0,0.7679295998532325,,,,,,,,,,,,,,,,,,,,,,25,29,Male,0.7142857142857143,0.25,0.0,1.0,2.5555555555555554,1.125,2.4444444444444446,2.7777777777777777,2.375,3.4444444444444446,2.0,2.0,2.5,1.0,,,,,,,,,,,,,,,,,,,,,,,,,,,,,-0.781631749350903,,,,,,,
6,240624_154129,OFFLINERATING,9.0,7,1.0,,,,,,,,,,,,,,,,,T3,cue1.png,Easy,60.0,1.021435300121084,,,,,,,,,,,,,,,,,,,,,,25,29,Male,0.7142857142857143,0.25,0.0,1.0,2.5555555555555554,1.125,2.4444444444444446,2.7777777777777777,2.375,3.4444444444444446,2.0,2.0,2.5,1.0,,,,,,,,,,,,,,,,,,,,,,,,,,,,,0.8441622892989752,,,0.01870583401459046,-0.3513843807470029,,,
7,240624_154136,OFFLINERATING,9.0,8,3.0,,,,,,,,,,,,,,,,,T3,cue2.png,Hard,43.0,0.784963299985975,,,,,,,,,,,,,,,,,,,,,,25,29,Male,0.7142857142857143,0.25,0.0,1.0,2.5555555555555554,1.125,2.4444444444444446,2.7777777777777777,2.375,3.4444444444444446,2.0,2.0,2.5,1.0,,,,,,,,,,,,,,,,,,,,,,,,,,,,,-1.281876068935481,,,0.023139699487461272,0.6800881608387284,,,
0,240624_151810,LEARNINGCHECK,9.0,1,,,,,,,,,,,,1.0,2.0,1.0,,,A,,,,,,,,,,,,,,,cue1.png,Easy,Left,Middle,unsure,0.0149254999123513,0.0,,,,,,25,29,Male,0.7142857142857143,0.25,0.0,1.0,2.5555555555555554,1.125,2.4444444444444446,2.7777777777777777,2.375,3.4444444444444446,2.0,2.0,2.5,1.0,,,,,,,,,,,,,,,,,,,,,,,,,,,,,,,,,,,,
1,240624_151817,LEARNINGCHECK,9.0,2,,,,,,,,,,,,2.0,3.0,2.0,,,A,,,,,,,,,,,,,,,cue2.png,Hard,Right,Middle,unsure,0.015954100061208,0.0,,,,,,25,29,Male,0.7142857142857143,0.25,0.0,1.0,2.5555555555555554,1.125,2.4444444444444446,2.7777777777777777,2.375,3.4444444444444446,2.0,2.0,2.5,1.0,,,,,,,,,,,,,,,,,,,,,,,,,,,,,,,,,,,,
2,240624_154154,LEARNINGCHECK,9.0,1,,,,,,,,,,,,1.0,1.0,1.0,,,A,,,,,,,,,,,,,,,cue1.png,Easy,Middle,Middle,Mid,0.0121036998461931,1.0,,,,,,25,29,Male,0.7142857142857143,0.25,0.0,1.0,2.5555555555555554,1.125,2.4444444444444446,2.7777777777777777,2.375,3.4444444444444446,2.0,2.0,2.5,1.0,,,,,,,,,,,,,,,,,,,,,,,,,,,,,,,,,,,,
3,240624_154202,LEARNINGCHECK,9.0,2,,,,,,,,,,,,2.0,2.0,2.0,,,A,,,,,,,,,,,,,,,cue2.png,Hard,Middle,Right,Hard,0.0160620999522507,0.0,,,,,,25,29,Male,0.7142857142857143,0.25,0.0,1.0,2.5555555555555554,1.125,2.4444444444444446,2.7777777777777777,2.375,3.4444444444444446,2.0,2.0,2.5,1.0,,,,,,,,,,,,,,,,,,,,,,,,,,,,,,,,,,,,
0,240624_154224,DEMANDRATING,9.0,-1,,,,,,,,,,,,,,,,,,,,,,,,,,,,,,,,,,,,,,,1.0,MentalDemand,1.0,33.0,8.187689800048247,25,29,Male,0.7142857142857143,0.25,0.0,1.0,2.5555555555555554,1.125,2.4444444444444446,2.7777777777777777,2.375,3.4444444444444446,2.0,2.0,2.5,1.0,,,,,,,,,,,,,,,,,,,,,,,,,,,,,,,,,,,,-0.8931580174256857
1,240624_154230,DEMANDRATING,9.0,-1,,,,,,,,,,,,,,,,,,,,,,,,,,,,,,,,,,,,,,,2.0,Effort,1.0,25.0,5.173654500162229,25,29,Male,0.7142857142857143,0.25,0.0,1.0,2.5555555555555554,1.125,2.4444444444444446,2.7777777777777777,2.375,3.4444444444444446,2.0,2.0,2.5,1.0,,,,,,,,,,,,,,,,,,,,,,,,,,,,,,,,,,,,-1.1656469040979287
2,240624_154236,DEMANDRATING,9.0,-1,,,,,,,,,,,,,,,,,,,,,,,,,,,,,,,,,,,,,,,3.0,Frustration,1.0,33.0,4.321206599939615,25,29,Male,0.7142857142857143,0.25,0.0,1.0,2.5555555555555554,1.125,2.4444444444444446,2.7777777777777777,2.375,3.4444444444444446,2.0,2.0,2.5,1.0,,,,,,,,,,,,,,,,,,,,,,,,,,,,,,,,,,,,-0.8931580174256857
3,240624_154242,DEMANDRATING,9.0,-1,,,,,,,,,,,,,,,,,,,,,,,,,,,,,,,,,,,,,,,4.0,MentalDemand,2.0,46.0,4.083761499961838,25,29,Male,0.7142857142857143,0.25,0.0,1.0,2.5555555555555554,1.125,2.4444444444444446,2.7777777777777777,2.375,3.4444444444444446,2.0,2.0,2.5,1.0,,,,,,,,,,,,,,,,,,,,,,,,,,,,,,,,,,,,-0.4503635765832907
4,240624_154250,DEMANDRATING,9.0,-1,,,,,,,,,,,,,,,,,,,,,,,,,,,,,,,,,,,,,,,5.0,Effort,2.0,49.0,6.208482600050047,25,29,Male,0.7142857142857143,0.25,0.0,1.0,2.5555555555555554,1.125,2.4444444444444446,2.7777777777777777,2.375,3.4444444444444446,2.0,2.0,2.5,1.0,,,,,,,,,,,,,,,,,,,,,,,,,,,,,,,,,,,,-0.3481802440811995
5,240624_154256,DEMANDRATING,9.0,-1,,,,,,,,,,,,,,,,,,,,,,,,,,,,,,,,,,,,,,,6.0,Frustration,2.0,49.0,4.607503100065514,25,29,Male,0.7142857142857143,0.25,0.0,1.0,2.5555555555555554,1.125,2.4444444444444446,2.7777777777777777,2.375,3.4444444444444446,2.0,2.0,2.5,1.0,,,,,,,,,,,,,,,,,,,,,,,,,,,,,,,,,,,,-0.3481802440811995
6,240624_154303,DEMANDRATING,9.0,-1,,,,,,,,,,,,,,,,,,,,,,,,,,,,,,,,,,,,,,,7.0,MentalDemand,3.0,99.0,5.723007200052962,25,29,Male,0.7142857142857143,0.25,0.0,1.0,2.5555555555555554,1.125,2.4444444444444446,2.7777777777777777,2.375,3.4444444444444446,2.0,2.0,2.5,1.0,,,,,,,,,,,,,,,,,,,,,,,,,,,,,,,,,,,,1.35487529762032
7,240624_154308,DEMANDRATING,9.0,-1,,,,,,,,,,,,,,,,,,,,,,,,,,,,,,,,,,,,,,,8.0,Effort,3.0,99.0,3.022223500069231,25,29,Male,0.7142857142857143,0.25,0.0,1.0,2.5555555555555554,1.125,2.4444444444444446,2.7777777777777777,2.375,3.4444444444444446,2.0,2.0,2.5,1.0,,,,,,,,,,,,,,,,,,,,,,,,,,,,,,,,,,,,1.35487529762032
8,240624_154311,DEMANDRATING,9.0,-1,,,,,,,,,,,,,,,,,,,,,,,,,,,,,,,,,,,,,,,9.0,Frustration,3.0,100.0,2.057941200211644,25,29,Male,0.7142857142857143,0.25,0.0,1.0,2.5555555555555554,1.125,2.4444444444444446,2.7777777777777777,2.375,3.4444444444444446,2.0,2.0,2.5,1.0,,,,,,,,,,,,,,,,,,,,,,,,,,,,,,,,,,,,1.3889364084543503
