,END,Phase,Block,TrialN,NbackLevel,ISI,Letter_Resp,Letter_RT,Letter_Accuracy,Trial_A_measure,Trial_ACC,Trial_RT,TrialCountCali,CaliEnd_A_measure,ISI_calibrated,TrialIndex,TrialNumber_total,TrialNumber_valid,CueLearning,TrialDemandLearning,CueMapping,OfflineRatingTimePoint,CueFigure,TrialDemand,OfflineRating,OfflineRatingRT,PhaseType,CueLeft,CueDemandLeft,CueRight,CueDemandRight,Choice,ChoiceDemand,TaskDemand,ChoiceRT,CueCheck,CueDemandCheck,CorrectAnswer,Answer,AnswerDemand,AnswerRT,AnswerACC,DemandRatingQuesIndex,QuesTLX,DemandLevel,DemandRating,DemandRatingRT,PID,Age,Gender,BAI_bis,BAI_bas_d,BAI_bas_rr,BAI_bas_fs,NFC,BFI_ext,BFI_agr,BFI_con,BFI_neu,BFI_open,UPPS_lps,UPPS_lpm,UPPS_pu,UPPS_ss,Task_A_measure,Task_ACC,Task_RT,Task_RT_z,cue_i_on_zyg_values,cue_i_on_zyg_zvalues,cue_e_on_zyg_values,cue_e_on_zyg_zvalues,cue_i_on_cor_values,cue_i_on_cor_zvalues,cue_e_on_cor_values,cue_e_on_cor_zvalues,cue_i_on_scr_values,cue_i_on_scr_zvalues,cue_e_on_scr_values,cue_e_on_scr_zvalues,cue_e_true_zyg_values,cue_e_true_zyg_zvalues,cue_e_true_cor_values,cue_e_true_cor_zvalues,cue_e_true_scr_values,cue_e_true_scr_zvalues,cue_e_false_zyg_values,cue_e_false_zyg_zvalues,cue_e_false_cor_values,cue_e_false_cor_zvalues,cue_e_false_scr_values,cue_e_false_scr_zvalues,OfflineRating_z,cue_i_off_zyg_values,cue_i_off_zyg_zvalues,cue_i_off_cor_values,cue_i_off_cor_zvalues,cue_i_off_scr_values,cue_i_off_scr_zvalues,DemandRating_z
0,240624_144039,PRACTICE,0.0,1,3.0,583.0,,,,,,,,,,2.0,1.0,1.0,cue2.png,Hard,A,,,,,,,,,,,,,,,,,,,,,,,,,,,25,29,Male,0.7142857142857143,0.25,0.0,1.0,2.5555555555555554,1.125,2.4444444444444446,2.7777777777777777,2.375,3.4444444444444446,2.0,2.0,2.5,1.0,,,,,,,,,,,,,,,,,,,,,,,,,,,,,,,,,,,,
0,240624_144433,LEARNING,1.0,1,1.0,583.0,,,,,,,,,,1.0,1.0,1.0,cue1.png,Easy,A,,,,,,,,,,,,,,,,,,,,,,,,,,,25,29,Male,0.7142857142857143,0.25,0.0,1.0,2.5555555555555554,1.125,2.4444444444444446,2.7777777777777777,2.375,3.4444444444444446,2.0,2.0,2.5,1.0,1.0,1.0,0.5206228666162739,-0.7157878845283536,,,,,-0.0006464278625925241,-0.7834651469195749,-6.446443578785738e-05,-0.025372667677934148,1.521,0.10575099639316006,,,,,,,,,,,,,,,,,,,,,,
1,240624_144502,LEARNING,1.0,2,3.0,583.0,,,,,,,,,,2.0,2.0,2.0,cue2.png,Hard,A,,,,,,,,,,,,,,,,,,,,,,,,,,,25,29,Male,0.7142857142857143,0.25,0.0,1.0,2.5555555555555554,1.125,2.4444444444444446,2.7777777777777777,2.375,3.4444444444444446,2.0,2.0,2.5,1.0,0.9375,0.9333333333333332,0.6284287643253005,0.3499449787751307,3.8957539702337996e-05,-0.12342225813517473,-4.025776024692675e-05,-0.041748556834386594,0.0025792494037145883,2.2351047653682787,-0.0008296454064299951,-1.3138147003047993,1.449,-0.0346201585957494,1.4659999999999997,0.1839178504674343,,,,,,,,,,,,,,,,,,,,
2,240624_144528,LEARNING,1.0,3,1.0,583.0,,,,,,,,,,3.0,3.0,3.0,cue1.png,Easy,A,,,,,,,,,,,,,,,,,,,,,,,,,,,25,29,Male,0.7142857142857143,0.25,0.0,1.0,2.5555555555555554,1.125,2.4444444444444446,2.7777777777777777,2.375,3.4444444444444446,2.0,2.0,2.5,1.0,1.0,1.0,0.4881024200158814,-1.0372740871189419,,,,,0.0009251685276331937,0.6872255596019266,0.0008824822698164196,1.569133710511523,1.4429999999999998,-0.046317754844825657,1.464,0.18098187565951662,,,,,,,,,,,,,,,,,,,,
3,240624_144557,LEARNING,1.0,4,3.0,583.0,,,,,,,,,,4.0,4.0,4.0,cue2.png,Hard,A,,,,,,,,,,,,,,,,,,,,,,,,,,,25,29,Male,0.7142857142857143,0.25,0.0,1.0,2.5555555555555554,1.125,2.4444444444444446,2.7777777777777777,2.375,3.4444444444444446,2.0,2.0,2.5,1.0,0.7386363636363636,0.8181818181818181,0.6997694400139153,1.055194915813285,0.0007521411813474002,1.1930754211792913,-0.0005257617225516461,-0.8682196842693606,,,,,1.1300000000000001,-0.6565423591716134,1.1309999999999998,-0.30785792985883065,,,,,,,,,,,,,,,,,,,,
4,240624_144625,LEARNING,1.0,5,3.0,583.0,,,,,,,,,,5.0,5.0,5.0,cue2.png,Hard,A,,,,,,,,,,,,,,,,,,,,,,,,,,,25,29,Male,0.7142857142857143,0.25,0.0,1.0,2.5555555555555554,1.125,2.4444444444444446,2.7777777777777777,2.375,3.4444444444444446,2.0,2.0,2.5,1.0,0.675,0.5333333333333334,0.5202443090648475,-0.719530177220871,0.0002640273914895075,0.2920442784752152,-0.0006910402184196513,-1.1495724958351976,-0.0005326452762678081,-0.6769880683818045,-0.0002752702808222155,-0.38033590106539944,1.584,0.22857575700845645,1.577,0.3468644523068836,,,,,,,,,,,,,,,,,,,,
5,240624_144651,LEARNING,1.0,6,1.0,583.0,,,,,,,,,,6.0,6.0,6.0,cue1.png,Easy,A,,,,,,,,,,,,,,,,,,,,,,,,,,,25,29,Male,0.7142857142857143,0.25,0.0,1.0,2.5555555555555554,1.125,2.4444444444444446,2.7777777777777777,2.375,3.4444444444444446,2.0,2.0,2.5,1.0,1.0,1.0,0.4855549733154475,-1.0624572888162558,0.00011820646597420978,0.022866890175108526,0.0003401459951453416,0.6058109792548826,0.0007460252197760914,0.5195843002814461,-1.6128003737948121e-06,0.0804594060324963,1.584,0.22857575700845645,1.588,0.3630123137504328,,,,,,,,,,,,,,,,,,,,
6,240624_144722,LEARNING,1.0,7,3.0,583.0,,,,,,,,,,7.0,7.0,7.0,cue2.png,Hard,A,,,,,,,,,,,,,,,,,,,,,,,,,,,25,29,Male,0.7142857142857143,0.25,0.0,1.0,2.5555555555555554,1.125,2.4444444444444446,2.7777777777777777,2.375,3.4444444444444446,2.0,2.0,2.5,1.0,0.9,0.7333333333333334,0.6705009363464672,0.7658563278418944,0.0007400899803169225,1.170829568550114,,,,,,,,,,,,,,,,,,,,,,,,,,,,,,
7,240624_144752,LEARNING,1.0,8,3.0,583.0,,,,,,,,,,8.0,8.0,8.0,cue2.png,Hard,A,,,,,,,,,,,,,,,,,,,,,,,,,,,25,29,Male,0.7142857142857143,0.25,0.0,1.0,2.5555555555555554,1.125,2.4444444444444446,2.7777777777777777,2.375,3.4444444444444446,2.0,2.0,2.5,1.0,0.675,0.6000000000000001,0.6937070666851165,0.9952643310919036,0.0001234228908400573,0.0324961228568423,-0.0003642033188828741,-0.5931995682792038,0.00047599722547523975,0.2668936831555905,-0.00020140148983985133,-0.255952704341185,,,,,,,,,,,,,,,,,,,,,,,,
8,240624_144817,LEARNING,1.0,9,1.0,583.0,,,,,,,,,,9.0,9.0,9.0,cue1.png,Easy,A,,,,,,,,,,,,,,,,,,,,,,,,,,,25,29,Male,0.7142857142857143,0.25,0.0,1.0,2.5555555555555554,1.125,2.4444444444444446,2.7777777777777777,2.375,3.4444444444444446,2.0,2.0,2.5,1.0,1.0,1.0,0.467647979936252,-1.2394798055126557,-0.0008666171798990762,-1.7950632593942004,-9.96732332787533e-05,-0.14289123907036771,0.00034681459346848874,0.1460053319746431,-0.0001702193815689909,-0.20344703508965814,,,3.007,2.446086439968254,,,,,,,,,,,,,,,,,,,,
9,240624_144843,LEARNING,1.0,10,1.0,583.0,,,,,,,,,,10.0,10.0,10.0,cue1.png,Easy,A,,,,,,,,,,,,,,,,,,,,,,,,,,,25,29,Male,0.7142857142857143,0.25,0.0,1.0,2.5555555555555554,1.125,2.4444444444444446,2.7777777777777777,2.375,3.4444444444444446,2.0,2.0,2.5,1.0,0.8920454545454546,0.9090909090909092,0.4692402400076389,-1.2237392577220048,3.3133637746991795e-05,-0.13417286002935566,0.0009642675984721351,1.6682502695737387,,,1.9348385952612512e-06,0.08643306107580058,,,,,,,,,,,,,,,,,,,,,,,,
10,240624_144912,LEARNING,1.0,11,3.0,583.0,,,,,,,,,,11.0,11.0,11.0,cue2.png,Hard,A,,,,,,,,,,,,,,,,,,,,,,,,,,,25,29,Male,0.7142857142857143,0.25,0.0,1.0,2.5555555555555554,1.125,2.4444444444444446,2.7777777777777777,2.375,3.4444444444444446,2.0,2.0,2.5,1.0,0.5,0.6000000000000001,0.621491716708988,0.28136765808939657,-8.480290928622848e-05,-0.35187722312643765,0.0007697499814941309,1.3371238387066824,0.00023725907643058937,0.043483920142782316,,,1.033,-0.8456534985316728,3.007,2.446086439968254,,,,,,,,,,,,,,,,,,,,
11,240624_144940,LEARNING,1.0,12,1.0,583.0,,,,,,,,,,12.0,12.0,12.0,cue1.png,Easy,A,,,,,,,,,,,,,,,,,,,,,,,,,,,25,29,Male,0.7142857142857143,0.25,0.0,1.0,2.5555555555555554,1.125,2.4444444444444446,2.7777777777777777,2.375,3.4444444444444446,2.0,2.0,2.5,1.0,0.905,0.9,0.6137303599777321,0.20464149460392217,0.00040526293194808076,0.5527572987872724,0.0008084484715366017,1.4030000975606898,,,,,0.9189999999999998,-1.0679078272641136,,,,,,,,,,,,,,,,,,,,,,
12,240624_145006,LEARNING,1.0,13,1.0,583.0,,,,,,,,,,13.0,13.0,13.0,cue1.png,Easy,A,,,,,,,,,,,,,,,,,,,,,,,,,,,25,29,Male,0.7142857142857143,0.25,0.0,1.0,2.5555555555555554,1.125,2.4444444444444446,2.7777777777777777,2.375,3.4444444444444446,2.0,2.0,2.5,1.0,1.0,1.0,0.4883639733151843,-1.0346884591292294,-0.00016235045310196775,-0.49502571323267375,-2.5156754069295423e-05,-0.016042184549012246,-1.032037804252206e-05,-0.1881994847592696,-0.0001532872871817855,-0.1749361037598148,,,0.305,-1.5204155255289644,,,,,,,,,,,,,,,,,,,,
13,240624_145032,LEARNING,1.0,14,1.0,583.0,,,,,,,,,,14.0,14.0,14.0,cue1.png,Easy,A,,,,,,,,,,,,,,,,,,,,,,,,,,,25,29,Male,0.7142857142857143,0.25,0.0,1.0,2.5555555555555554,1.125,2.4444444444444446,2.7777777777777777,2.375,3.4444444444444446,2.0,2.0,2.5,1.0,0.8920454545454546,0.9090909090909092,0.4924361466585348,-0.994432322412196,4.162458492277827e-05,-0.11849903971244513,3.708621597071568e-05,0.08991373263788492,-0.0002562170483405863,-0.4183081500763267,,,,,,,,,,,,,,,,,,,,,,,,,,
14,240624_145101,LEARNING,1.0,15,3.0,583.0,,,,,,,,,,15.0,15.0,15.0,cue2.png,Hard,A,,,,,,,,,,,,,,,,,,,,,,,,,,,25,29,Male,0.7142857142857143,0.25,0.0,1.0,2.5555555555555554,1.125,2.4444444444444446,2.7777777777777777,2.375,3.4444444444444446,2.0,2.0,2.5,1.0,0.8068181818181819,0.709090909090909,0.6256148666337443,0.32212773215325025,-7.977368654792788e-05,-0.3425935552502984,-3.522422394423592e-05,-0.03317999149596665,0.0011405102001470178,0.8887410367705857,,,,,,,,,,,,,,,,,,,,,,,,,,
15,240624_145128,LEARNING,1.0,16,1.0,583.0,,,,,,,,,,16.0,16.0,16.0,cue1.png,Easy,A,,,,,,,,,,,,,,,,,,,,,,,,,,,25,29,Male,0.7142857142857143,0.25,0.0,1.0,2.5555555555555554,1.125,2.4444444444444446,2.7777777777777777,2.375,3.4444444444444446,2.0,2.0,2.5,1.0,0.7386363636363636,0.8181818181818181,0.5452481066652884,-0.47235103974825104,6.176435814558455e-05,-0.08132212879987041,-0.00018759765688553713,-0.2925645747161034,-0.0003767508066868097,-0.5311029358905391,0.0012380244316606056,2.16780968817814,,,,,,,,,,,,,,,,,,,,,,,,
16,240624_145155,LEARNING,1.0,17,1.0,583.0,,,,,,,,,,17.0,17.0,17.0,cue1.png,Easy,A,,,,,,,,,,,,,,,,,,,,,,,,,,,25,29,Male,0.7142857142857143,0.25,0.0,1.0,2.5555555555555554,1.125,2.4444444444444446,2.7777777777777777,2.375,3.4444444444444446,2.0,2.0,2.5,1.0,0.7386363636363636,0.8181818181818181,0.5682140600246688,-0.2453173453742433,0.0006236125075726653,0.9558185761407506,-0.0010074377488647796,-1.688174534144628,0.00013083905016712544,-0.0561033177682006,-0.0013822422303880963,-2.2442991247752966,,,,,,,,,,,,,,,,,,,,,,,,
17,240624_145225,LEARNING,1.0,18,3.0,583.0,,,,,,,,,,18.0,18.0,18.0,cue2.png,Hard,A,,,,,,,,,,,,,,,,,,,,,,,,,,,25,29,Male,0.7142857142857143,0.25,0.0,1.0,2.5555555555555554,1.125,2.4444444444444446,2.7777777777777777,2.375,3.4444444444444446,2.0,2.0,2.5,1.0,0.8920454545454546,0.709090909090909,0.6871255084018534,0.930201258446728,,,-5.424758188301909e-05,-0.06556336486460118,0.000506432370557067,0.29537471384633185,-0.00017483513161859702,-0.21121921788586806,,,,,,,,,,,,,,,,,,,,,,,,
18,240624_145255,LEARNING,1.0,19,3.0,583.0,,,,,,,,,,19.0,19.0,19.0,cue2.png,Hard,A,,,,,,,,,,,,,,,,,,,,,,,,,,,25,29,Male,0.7142857142857143,0.25,0.0,1.0,2.5555555555555554,1.125,2.4444444444444446,2.7777777777777777,2.375,3.4444444444444446,2.0,2.0,2.5,1.0,0.7386363636363636,0.7515151515151515,0.713067335708599,1.1866534422554778,,,,,,,-0.0009688450459975741,-1.5482045680962944,,,,,,,,,,,,,,,,,,,,,,,,
19,240624_145325,LEARNING,1.0,20,3.0,583.0,,,,,,,,,,20.0,20.0,20.0,cue2.png,Hard,A,,,,,,,,,,,,,,,,,,,,,,,,,,,25,29,Male,0.7142857142857143,0.25,0.0,1.0,2.5555555555555554,1.125,2.4444444444444446,2.7777777777777777,2.375,3.4444444444444446,2.0,2.0,2.5,1.0,0.075,0.6,0.7456045600119978,1.5083055035777728,,,,,0.0007599779681626432,0.5326412005836841,0.0005617258517397888,1.0290313463113958,1.218,-0.48497761418516844,1.501,0.2352974096059995,,,,,,,,,,,,,,,,,,,,
20,240624_145351,LEARNING,1.0,21,1.0,583.0,,,,,,,,,,21.0,21.0,21.0,cue1.png,Easy,A,,,,,,,,,,,,,,,,,,,,,,,,,,,25,29,Male,0.7142857142857143,0.25,0.0,1.0,2.5555555555555554,1.125,2.4444444444444446,2.7777777777777777,2.375,3.4444444444444446,2.0,2.0,2.5,1.0,0.7386363636363636,0.8181818181818181,0.5262443199753761,-0.6602160864019381,-0.00019407076965857273,-0.5535796686172445,0.00010454775399297523,0.2047531937271034,-0.0003340754293996136,-0.4911675675199335,-0.0004563052023015893,-0.6851696739329918,2.1710000000000003,1.3729905900430406,,,,,,,,,,,,,,,,,,,,,,
21,240624_145421,LEARNING,1.0,22,3.0,583.0,,,,,,,,,,22.0,22.0,22.0,cue2.png,Hard,A,,,,,,,,,,,,,,,,,,,,,,,,,,,25,29,Male,0.7142857142857143,0.25,0.0,1.0,2.5555555555555554,1.125,2.4444444444444446,2.7777777777777777,2.375,3.4444444444444446,2.0,2.0,2.5,1.0,0.835,0.8333333333333334,0.6893802928804819,0.952491299804454,0.00291821153069736,5.191521854377624,-0.002216419535845914,-3.7462185834484356,-0.0028781430190011207,-2.871891132462789,0.0008132023176812006,1.4524773824346708,1.108,-0.6994335454182248,1.059,-0.4135530229438784,,,,,,,,,,,,,,,,,,,,
22,240624_145449,LEARNING,1.0,23,3.0,583.0,,,,,,,,,,23.0,23.0,23.0,cue2.png,Hard,A,,,,,,,,,,,,,,,,,,,,,,,,,,,25,29,Male,0.7142857142857143,0.25,0.0,1.0,2.5555555555555554,1.125,2.4444444444444446,2.7777777777777777,2.375,3.4444444444444446,2.0,2.0,2.5,1.0,0.8920454545454546,0.9090909090909092,0.6721744533162564,0.7824001540137625,6.422578411424901e-05,-0.07677847217858767,6.721861944165679e-06,0.0382246345983373,0.0003750511759602849,0.17242896065748076,-0.0010921498524173422,-1.7558300861261327,2.0660000000000003,1.1682826556842139,1.814,0.6947774670451667,,,,,,,,,,,,,,,,,,,,
23,240624_145519,LEARNING,1.0,24,3.0,583.0,,,,,,,,,,24.0,24.0,24.0,cue2.png,Hard,A,,,,,,,,,,,,,,,,,,,,,,,,,,,25,29,Male,0.7142857142857143,0.25,0.0,1.0,2.5555555555555554,1.125,2.4444444444444446,2.7777777777777777,2.375,3.4444444444444446,2.0,2.0,2.5,1.0,0.5852272727272727,0.6848484848484848,0.6905168076583112,0.9637265028323253,7.350258311307608e-05,-0.0596540127262483,0.0008866209720138022,1.5360727800102991,0.0002473129991549111,0.052892322202436885,3.82607545016591e-05,0.1476000774068447,0.748,-1.4012893203627739,1.9900000000000002,0.953143250141951,,,,,,,,,,,,,,,,,,,,
24,240624_145546,LEARNING,1.0,25,1.0,583.0,,,,,,,,,,25.0,25.0,25.0,cue1.png,Easy,A,,,,,,,,,,,,,,,,,,,,,,,,,,,25,29,Male,0.7142857142857143,0.25,0.0,1.0,2.5555555555555554,1.125,2.4444444444444446,2.7777777777777777,2.375,3.4444444444444446,2.0,2.0,2.5,1.0,0.7386363636363636,0.8181818181818181,0.520971340034157,-0.7123429934665667,,,4.663951401229129e-05,0.10617626727439487,-0.00014523080390821484,-0.31444787191994245,-0.00034579262496567485,-0.4990842180257092,2.706,2.4160262555856336,0.9119999999999999,-0.6293471713258515,,,,,,,,,,,,,,,,,,,,
25,240624_145612,LEARNING,1.0,26,1.0,583.0,,,,,,,,,,26.0,26.0,26.0,cue1.png,Easy,A,,,,,,,,,,,,,,,,,,,,,,,,,,,25,29,Male,0.7142857142857143,0.25,0.0,1.0,2.5555555555555554,1.125,2.4444444444444446,2.7777777777777777,2.375,3.4444444444444446,2.0,2.0,2.5,1.0,1.0,1.0,0.5312890266844382,-0.6103458117710828,9.032505203454512e-05,-0.02860066264607958,-5.435825558177711e-05,-0.06575176418508402,0.00037727677739663595,0.17451166545956565,0.0004773108626393314,0.886890043386032,,,0.42999999999999994,-1.3369171000340896,,,,,,,,,,,,,,,,,,,,
26,240624_145642,LEARNING,1.0,27,3.0,583.0,,,,,,,,,,27.0,27.0,27.0,cue2.png,Hard,A,,,,,,,,,,,,,,,,,,,,,,,,,,,25,29,Male,0.7142857142857143,0.25,0.0,1.0,2.5555555555555554,1.125,2.4444444444444446,2.7777777777777777,2.375,3.4444444444444446,2.0,2.0,2.5,1.0,0.5852272727272727,0.6848484848484848,0.7177230846315908,1.2326786109704053,9.175806085830185e-05,-0.02595540736994722,-1.3861049762878708e-05,0.0031864401340484846,-0.0008517754849411566,-0.9756282504190976,,,1.625,0.30850933137714104,0.764,-0.8466093071117834,,,,,,,,,,,,,,,,,,,,
27,240624_145709,LEARNING,1.0,28,1.0,583.0,,,,,,,,,,28.0,28.0,28.0,cue1.png,Easy,A,,,,,,,,,,,,,,,,,,,,,,,,,,,25,29,Male,0.7142857142857143,0.25,0.0,1.0,2.5555555555555554,1.125,2.4444444444444446,2.7777777777777777,2.375,3.4444444444444446,2.0,2.0,2.5,1.0,0.9375,0.9333333333333332,0.4933584857665534,-0.9853143880559654,3.794487292818095e-05,-0.1252915851643554,-3.3838626637250346e-05,-0.0308212956718603,0.0016252740896588978,1.342380248209563,0.0004529690031216879,0.8459022559760675,0.923,-1.060109429764729,1.8259999999999998,0.7123933158926745,,,,,,,,,,,,,,,,,,,,
28,240624_145736,LEARNING,1.0,29,1.0,583.0,,,,,,,,,,29.0,29.0,29.0,cue1.png,Easy,A,,,,,,,,,,,,,,,,,,,,,,,,,,,25,29,Male,0.7142857142857143,0.25,0.0,1.0,2.5555555555555554,1.125,2.4444444444444446,2.7777777777777777,2.375,3.4444444444444446,2.0,2.0,2.5,1.0,0.905,0.9,0.5935876599978656,0.005517534037813389,2.9590091413473057e-05,-0.14071405117874886,,,0.0004161285956683384,0.21086896967521646,-0.0004964377528127537,-0.7527464524194085,0.9449999999999998,-1.0172182435181183,1.307,-0.04949214676204643,,,,,,,,,,,,,,,,,,,,
29,240624_145807,LEARNING,1.0,30,3.0,583.0,,,,,,,,,,30.0,30.0,30.0,cue2.png,Hard,A,,,,,,,,,,,,,,,,,,,,,,,,,,,25,29,Male,0.7142857142857143,0.25,0.0,1.0,2.5555555555555554,1.125,2.4444444444444446,2.7777777777777777,2.375,3.4444444444444446,2.0,2.0,2.5,1.0,0.835,0.7,0.696857683302369,1.0264102678173568,3.688670435614662e-05,-0.1272449060035622,,,-0.00021004969885746096,-0.3751050145563915,0.0004225992500596857,0.7947644626083827,1.286,-0.3524048566956424,0.41999999999999993,-1.3515969740736795,,,,,,,,,,,,,,,,,,,,
30,240624_145835,LEARNING,1.0,31,3.0,583.0,,,,,,,,,,31.0,31.0,31.0,cue2.png,Hard,A,,,,,,,,,,,,,,,,,,,,,,,,,,,25,29,Male,0.7142857142857143,0.25,0.0,1.0,2.5555555555555554,1.125,2.4444444444444446,2.7777777777777777,2.375,3.4444444444444446,2.0,2.0,2.5,1.0,0.675,0.6000000000000001,0.563294674968347,-0.29394873227588275,-0.000127829300959963,-0.43130156978852424,-0.00011507556584010141,-0.1691105578513672,0.0007305139519900028,0.5050689466440592,-0.00022675081789890958,-0.2986369071941769,,,1.976,0.9325914264865247,,,,,,,,,,,,,,,,,,,,
31,240624_145901,LEARNING,1.0,32,1.0,583.0,,,,,,,,,,32.0,32.0,32.0,cue1.png,Easy,A,,,,,,,,,,,,,,,,,,,,,,,,,,,25,29,Male,0.7142857142857143,0.25,0.0,1.0,2.5555555555555554,1.125,2.4444444444444446,2.7777777777777777,2.375,3.4444444444444446,2.0,2.0,2.5,1.0,1.0,1.0,0.4660576399726172,-1.2552013717635586,-2.444589351033701e-05,-0.2404614999390382,-4.462459176949891e-05,-0.04918219373952399,0.00029779795563179053,0.10013584908469533,8.758297367242145e-05,0.2306507840504179,1.4809999999999999,0.02776702139932123,0.6839999999999999,-0.9640482994285035,,,,,,,,,,,,,,,,,,,,
32,240624_145927,LEARNING,1.0,33,1.0,583.0,,,,,,,,,,33.0,33.0,33.0,cue1.png,Easy,A,,,,,,,,,,,,,,,,,,,,,,,,,,,25,29,Male,0.7142857142857143,0.25,0.0,1.0,2.5555555555555554,1.125,2.4444444444444446,2.7777777777777777,2.375,3.4444444444444446,2.0,2.0,2.5,1.0,1.0,1.0,0.5184302599945416,-0.7374632564953295,,,,,-0.0003732575556242134,-0.5278339719852652,-0.0002313680376494886,-0.3064115647311103,1.128,-0.6604415579213058,1.443,0.15015414017637777,,,,,,,,,,,,,,,,,,,,
33,240624_145954,LEARNING,1.0,34,1.0,583.0,,,,,,,,,,34.0,34.0,34.0,cue1.png,Easy,A,,,,,,,,,,,,,,,,,,,,,,,,,,,25,29,Male,0.7142857142857143,0.25,0.0,1.0,2.5555555555555554,1.125,2.4444444444444446,2.7777777777777777,2.375,3.4444444444444446,2.0,2.0,2.5,1.0,1.0,0.9333333333333332,0.4747742714493402,-1.169031683282114,-0.00041738700172959213,-0.9658091199218267,-0.0004517422908136945,-0.7422167513372389,0.00010046166218041601,-0.08453029970726894,,,1.379,-0.17109211483496736,1.364,0.03418313526361682,,,,,,,,,,,,,,,,,,,,
34,240624_150023,LEARNING,1.0,35,3.0,583.0,,,,,,,,,,35.0,35.0,35.0,cue2.png,Hard,A,,,,,,,,,,,,,,,,,,,,,,,,,,,25,29,Male,0.7142857142857143,0.25,0.0,1.0,2.5555555555555554,1.125,2.4444444444444446,2.7777777777777777,2.375,3.4444444444444446,2.0,2.0,2.5,1.0,0.6988636363636364,0.6424242424242423,0.6287193091332235,0.352817207072895,0.0002443887859330334,0.255792495441558,,,-0.000840686281236523,-0.9652510384755234,,,,,1.2320000000000002,-0.15959120205897104,,,,,,,,,,,,,,,,,,,,
35,240624_150054,LEARNING,1.0,36,3.0,583.0,,,,,,,,,,36.0,36.0,36.0,cue2.png,Hard,A,,,,,,,,,,,,,,,,,,,,,,,,,,,25,29,Male,0.7142857142857143,0.25,0.0,1.0,2.5555555555555554,1.125,2.4444444444444446,2.7777777777777777,2.375,3.4444444444444446,2.0,2.0,2.5,1.0,0.9375,0.8666666666666667,0.7163051230868754,1.2186611198199444,-2.9375775691822294e-05,-0.24956179062468625,-0.00015977886916472344,-0.24520878230948065,-0.00023730896714547773,-0.4006140783256234,,,1.909,0.8621955538333963,1.494,0.22502149777828667,,,,,,,,,,,,,,,,,,,,
36,240624_150118,LEARNING,1.0,37,1.0,583.0,,,,,,,,,,37.0,37.0,37.0,cue1.png,Easy,A,,,,,,,,,,,,,,,,,,,,,,,,,,,25,29,Male,0.7142857142857143,0.25,0.0,1.0,2.5555555555555554,1.125,2.4444444444444446,2.7777777777777777,2.375,3.4444444444444446,2.0,2.0,2.5,1.0,1.0,1.0,0.4103008400338391,-1.8063943520193884,-0.0005182784079139921,-1.1520490928384228,-0.0003820533153604112,-0.6235855339126649,,,-0.00019508760997682863,-0.2453211432901465,0.861,-1.1809845910051793,1.7249999999999999,0.5641265880928155,,,,,,,,,,,,,,,,,,,,
37,240624_150148,LEARNING,1.0,38,3.0,583.0,,,,,,,,,,38.0,38.0,38.0,cue2.png,Hard,A,,,,,,,,,,,,,,,,,,,,,,,,,,,25,29,Male,0.7142857142857143,0.25,0.0,1.0,2.5555555555555554,1.125,2.4444444444444446,2.7777777777777777,2.375,3.4444444444444446,2.0,2.0,2.5,1.0,0.77,0.6666666666666667,0.7005798307677301,1.063206166373888,1.4453148343278842e-05,-0.16865601347314418,,,,,-4.766440427372669e-05,0.0029158909542764603,1.695,0.44498128761635897,,,,,,,,,,,,,,,,,,,,,,
38,240624_150219,LEARNING,1.0,39,3.0,583.0,,,,,,,,,,39.0,39.0,39.0,cue2.png,Hard,A,,,,,,,,,,,,,,,,,,,,,,,,,,,25,29,Male,0.7142857142857143,0.25,0.0,1.0,2.5555555555555554,1.125,2.4444444444444446,2.7777777777777777,2.375,3.4444444444444446,2.0,2.0,2.5,1.0,0.835,0.8333333333333334,0.7637104785701793,1.6872945277203244,,,-2.639257620555037e-05,-0.018145918799524242,0.00010292203189204204,-0.08222790012681705,-0.0008742962590226975,-1.3889995748381858,0.603,-1.6839812297154395,2.2150000000000003,1.2834404160327262,,,,,,,,,,,,,,,,,,,,
39,240624_150248,LEARNING,1.0,40,3.0,583.0,,,,,,,,,,40.0,40.0,40.0,cue2.png,Hard,A,,,,,,,,,,,,,,,,,,,,,,,,,,,25,29,Male,0.7142857142857143,0.25,0.0,1.0,2.5555555555555554,1.125,2.4444444444444446,2.7777777777777777,2.375,3.4444444444444446,2.0,2.0,2.5,1.0,0.875,0.7333333333333334,0.6092411818152125,0.1602629884304061,2.6794911224702154e-05,-0.14587379968797512,,,0.0016259907201475214,1.3430508668277932,-0.0009618430224515133,-1.5364142834494914,2.01,1.0591050906928388,0.9709999999999999,-0.5427359144922705,,,,,,,,,,,,,,,,,,,,
40,240624_150314,LEARNING,1.0,41,1.0,583.0,,,,,,,,,,41.0,41.0,41.0,cue1.png,Easy,A,,,,,,,,,,,,,,,,,,,,,,,,,,,25,29,Male,0.7142857142857143,0.25,0.0,1.0,2.5555555555555554,1.125,2.4444444444444446,2.7777777777777777,2.375,3.4444444444444446,2.0,2.0,2.5,1.0,1.0,1.0,0.5050721000259121,-0.8695175352905197,,,5.8879599322300084e-05,0.12701250732904149,4.3823144256114124e-05,-0.1375322933873758,0.00012731101760410195,0.2975464383329174,1.4600000000000002,-0.013174565472443505,1.8900000000000001,0.8063445097460509,,,,,,,,,,,,,,,,,,,,
41,240624_150345,LEARNING,1.0,42,3.0,583.0,,,,,,,,,,42.0,42.0,42.0,cue2.png,Hard,A,,,,,,,,,,,,,,,,,,,,,,,,,,,25,29,Male,0.7142857142857143,0.25,0.0,1.0,2.5555555555555554,1.125,2.4444444444444446,2.7777777777777777,2.375,3.4444444444444446,2.0,2.0,2.5,1.0,0.77,0.6666666666666667,0.7574049461489687,1.6249601539549174,-0.0003789054140257535,-0.8947742307990436,0.0013855992536457693,2.385481178302848,,,0.00012611900659983358,0.29553928297989773,,,,,,,,,,,,,,,,,,,,,,,,
42,240624_150415,LEARNING,1.0,43,3.0,583.0,,,,,,,,,,43.0,43.0,43.0,cue2.png,Hard,A,,,,,,,,,,,,,,,,,,,,,,,,,,,25,29,Male,0.7142857142857143,0.25,0.0,1.0,2.5555555555555554,1.125,2.4444444444444446,2.7777777777777777,2.375,3.4444444444444446,2.0,2.0,2.5,1.0,0.875,0.8,0.6909698999758499,0.9682056211660419,,,,,0.0037533382649165004,3.3338102520562876,,,2.1470000000000002,1.3262002050467374,1.271,-0.10233969330457048,,,,,,,,,,,,,,,,,,,,
43,240624_150441,LEARNING,1.0,44,1.0,583.0,,,,,,,,,,44.0,44.0,44.0,cue1.png,Easy,A,,,,,,,,,,,,,,,,,,,,,,,,,,,25,29,Male,0.7142857142857143,0.25,0.0,1.0,2.5555555555555554,1.125,2.4444444444444446,2.7777777777777777,2.375,3.4444444444444446,2.0,2.0,2.5,1.0,1.0,1.0,0.4733296999863038,-1.1833122311395563,,,,,-0.0008752618078791859,-0.9976066140054135,0.0008545047801738247,1.5220241050640022,,,0.5940000000000001,-1.0961671657848133,,,,,,,,,,,,,,,,,,,,
44,240624_150507,LEARNING,1.0,45,1.0,583.0,,,,,,,,,,45.0,45.0,45.0,cue1.png,Easy,A,,,,,,,,,,,,,,,,,,,,,,,,,,,25,29,Male,0.7142857142857143,0.25,0.0,1.0,2.5555555555555554,1.125,2.4444444444444446,2.7777777777777777,2.375,3.4444444444444446,2.0,2.0,2.5,1.0,1.0,1.0,0.5092314600013197,-0.8283995008387744,0.0001953060768057663,0.16518852069044773,0.00012222114147507823,0.23483851869250758,0.00035157226295948196,0.1504575312470655,,,1.505,0.07455740639562453,0.6689999999999998,-0.9860681104878887,,,,,,,,,,,,,,,,,,,,
45,240624_150533,LEARNING,1.0,46,1.0,583.0,,,,,,,,,,46.0,46.0,46.0,cue1.png,Easy,A,,,,,,,,,,,,,,,,,,,,,,,,,,,25,29,Male,0.7142857142857143,0.25,0.0,1.0,2.5555555555555554,1.125,2.4444444444444446,2.7777777777777777,2.375,3.4444444444444446,2.0,2.0,2.5,1.0,1.0,1.0,0.5043159066699445,-0.8769930085957143,7.178426257946043e-05,-0.06282593768740612,-2.2129559232421728e-06,0.023014935873637645,,,,,,,-0.364,-2.5024990987775353,,,,,,,,,,,,,,,,,,,,
46,240624_150604,LEARNING,1.0,47,3.0,583.0,,,,,,,,,,47.0,47.0,47.0,cue2.png,Hard,A,,,,,,,,,,,,,,,,,,,,,,,,,,,25,29,Male,0.7142857142857143,0.25,0.0,1.0,2.5555555555555554,1.125,2.4444444444444446,2.7777777777777777,2.375,3.4444444444444446,2.0,2.0,2.5,1.0,0.8068181818181819,0.7757575757575758,0.7675454230943265,1.7252055000806727,-0.0001466183211784669,-0.4659850651322992,0.00037179445300966315,0.6596860012599293,-0.001695821691048793,-1.76548175155812,-0.00022035341905724416,-0.2878647135781191,2.845,2.6870205686892237,1.173,-0.2462024588925523,,,,,,,,,,,,,,,,,,,,
47,240624_150634,LEARNING,1.0,48,3.0,583.0,,,,,,,,,,48.0,48.0,48.0,cue2.png,Hard,A,,,,,,,,,,,,,,,,,,,,,,,,,,,25,29,Male,0.7142857142857143,0.25,0.0,1.0,2.5555555555555554,1.125,2.4444444444444446,2.7777777777777777,2.375,3.4444444444444446,2.0,2.0,2.5,1.0,1.0,0.9333333333333332,0.7288175642856264,1.3423549071640555,2.9556767296535797e-05,-0.14077556566120658,3.27601739224183e-05,0.08254953146429403,,,0.00011922125377780961,0.2839245735091329,1.051,-0.8105607097844454,1.566,0.33071659086333477,,,,,,,,,,,,,,,,,,,,
48,240624_150659,LEARNING,1.0,49,1.0,583.0,,,,,,,,,,49.0,49.0,49.0,cue1.png,Easy,A,,,,,,,,,,,,,,,,,,,,,,,,,,,25,29,Male,0.7142857142857143,0.25,0.0,1.0,2.5555555555555554,1.125,2.4444444444444446,2.7777777777777777,2.375,3.4444444444444446,2.0,2.0,2.5,1.0,1.0,1.0,0.4671261666653057,-1.2446382760896213,-2.3696009450538142e-05,-0.2390772553113811,,,,,0.0003809526110181141,0.7246382018706528,1.5,0.0648094095213949,,,,,,,,,,,,,,,,,,,,,,
49,240624_150726,LEARNING,1.0,50,1.0,583.0,,,,,,,,,,50.0,50.0,50.0,cue1.png,Easy,A,,,,,,,,,,,,,,,,,,,,,,,,,,,25,29,Male,0.7142857142857143,0.25,0.0,1.0,2.5555555555555554,1.125,2.4444444444444446,2.7777777777777777,2.375,3.4444444444444446,2.0,2.0,2.5,1.0,1.0,1.0,0.5194306933321059,-0.727573308838993,5.411345061791728e-05,-0.09544528224403813,2.909050365855221e-05,0.07630266891368839,-0.00019088973827008273,-0.3571752355441552,0.0009580157221090709,1.696319929899071,1.37,-0.18863850920858088,1.454,0.16630200161992661,,,,,,,,,,,,,,,,,,,,
0,240624_151155,TrueCHOICE,9.0,1,1.0,583.0,,,,,,,,,,,2.0,1.0,,,A,,,,,,True,cue1.png,Easy,cue2.png,Hard,Left,Easy,Easy,0.0151696999091655,,,,,,,,,,,,,25,29,Male,0.7142857142857143,0.25,0.0,1.0,2.5555555555555554,1.125,2.4444444444444446,2.7777777777777777,2.375,3.4444444444444446,2.0,2.0,2.5,1.0,1.0,1.0,0.4570995599962771,-0.9351435340034336,,,,,,,,,,,,,-0.0001909306144731479,-0.8494189179147744,,,0.8170000000000002,-1.6615415462587504,,,,,,,,,,,,,,
1,240624_151219,TrueCHOICE,9.0,2,1.0,583.0,,,,,,,,,,,3.0,2.0,,,A,,,,,,True,cue1.png,Easy,cue2.png,Hard,Left,Easy,Easy,0.0170672999229282,,,,,,,,,,,,,25,29,Male,0.7142857142857143,0.25,0.0,1.0,2.5555555555555554,1.125,2.4444444444444446,2.7777777777777777,2.375,3.4444444444444446,2.0,2.0,2.5,1.0,1.0,1.0,0.4527381533291191,-1.0841094736729253,,,,,,,,,,,,,0.00041141451760313714,1.180050290361832,0.0011804125740263235,2.102623695601768,1.5930000000000002,0.8609552897606829,,,,,,,,,,,,,,
2,240624_151244,TrueCHOICE,9.0,3,1.0,583.0,,,,,,,,,,,4.0,3.0,,,A,,,,,,True,cue2.png,Hard,cue1.png,Easy,Right,Easy,Easy,0.0144770999904721,,,,,,,,,,,,,25,29,Male,0.7142857142857143,0.25,0.0,1.0,2.5555555555555554,1.125,2.4444444444444446,2.7777777777777777,2.375,3.4444444444444446,2.0,2.0,2.5,1.0,1.0,1.0,0.5241679333305608,1.355608972768914,,,,,,,,,,,,,,,8.985930256378508e-05,0.47239768146982974,1.587,0.841451448245068,,,,,,,,,,,,,,
3,240624_151309,TrueCHOICE,9.0,4,1.0,583.0,,,,,,,,,,,5.0,4.0,,,A,,,,,,True,cue1.png,Easy,cue2.png,Hard,Left,Easy,Easy,0.0165597999002784,,,,,,,,,,,,,25,29,Male,0.7142857142857143,0.25,0.0,1.0,2.5555555555555554,1.125,2.4444444444444446,2.7777777777777777,2.375,3.4444444444444446,2.0,2.0,2.5,1.0,0.905,0.9,0.5163768800441175,1.0895018054254997,,,,,,,,,,,,,,,-0.00046440886644260725,-0.3561564218136407,,,,,,,,,,,,,,,,
4,240624_151333,TrueCHOICE,9.0,5,1.0,583.0,,,,,,,,,,,6.0,5.0,,,A,,,,,,True,cue2.png,Hard,cue1.png,Easy,Right,Easy,Easy,0.0158774999435991,,,,,,,,,,,,,25,29,Male,0.7142857142857143,0.25,0.0,1.0,2.5555555555555554,1.125,2.4444444444444446,2.7777777777777777,2.375,3.4444444444444446,2.0,2.0,2.5,1.0,1.0,1.0,0.4499433332898964,-1.1795678945729942,,,,,,,,,,,,,0.0001683495765527638,0.3610965258100712,,,1.4680000000000002,0.4546252581853877,,,,,,,,,,,,,,
5,240624_151357,TrueCHOICE,9.0,6,1.0,583.0,,,,,,,,,,,7.0,6.0,,,A,,,,,,True,cue2.png,Hard,cue1.png,Easy,Right,Easy,Easy,0.0157103000674396,,,,,,,,,,,,,25,29,Male,0.7142857142857143,0.25,0.0,1.0,2.5555555555555554,1.125,2.4444444444444446,2.7777777777777777,2.375,3.4444444444444446,2.0,2.0,2.5,1.0,1.0,1.0,0.4909411533580472,0.2207323426971224,,,,,,,,,,,,,,,-0.0001766761644504014,0.07396409423882032,0.9450000000000003,-1.2454595939256474,,,,,,,,,,,,,,
6,240624_151422,TrueCHOICE,9.0,7,1.0,583.0,,,,,,,,,,,8.0,7.0,,,A,,,,,,True,cue1.png,Easy,cue2.png,Hard,Left,Easy,Easy,0.0163362000603228,,,,,,,,,,,,,25,29,Male,0.7142857142857143,0.25,0.0,1.0,2.5555555555555554,1.125,2.4444444444444446,2.7777777777777777,2.375,3.4444444444444446,2.0,2.0,2.5,1.0,1.0,1.0,0.463491526649644,-0.7168228426482937,,,,,,,,,,,,,0.0004265522711556016,1.2310536156668925,-0.00044766879857470335,-0.33113234015645354,,,,,,,,,,,,,,,,
7,240624_151446,TrueCHOICE,9.0,8,1.0,583.0,,,,,,,,,,,9.0,8.0,,,A,,,,,,True,cue2.png,Hard,cue1.png,Easy,Right,Easy,Easy,0.0168546000495553,,,,,,,,,,,,,25,29,Male,0.7142857142857143,0.25,0.0,1.0,2.5555555555555554,1.125,2.4444444444444446,2.7777777777777777,2.375,3.4444444444444446,2.0,2.0,2.5,1.0,0.905,0.9,0.4599696400264899,-0.8371145719608076,,,,,,,,,,,,,-0.0003554854586081957,-1.4038502089815394,-0.001088336736405621,-1.288842124724371,1.6320000000000001,0.9877302596121749,,,,,,,,,,,,,,
8,240624_151510,TrueCHOICE,9.0,9,1.0,583.0,,,,,,,,,,,10.0,9.0,,,A,,,,,,True,cue1.png,Easy,cue2.png,Hard,Left,Easy,Easy,0.0160905998200178,,,,,,,,,,,,,25,29,Male,0.7142857142857143,0.25,0.0,1.0,2.5555555555555554,1.125,2.4444444444444446,2.7777777777777777,2.375,3.4444444444444446,2.0,2.0,2.5,1.0,1.0,1.0,0.5213496000195543,1.2593474447767354,,,,,,,,,,,,,,,,,,,,,,,,,,,,,,,,
9,240624_151535,TrueCHOICE,9.0,10,1.0,583.0,,,,,,,,,,,11.0,10.0,,,A,,,,,,True,cue2.png,Hard,cue1.png,Easy,Right,Easy,Easy,0.0154993999749422,,,,,,,,,,,,,25,29,Male,0.7142857142857143,0.25,0.0,1.0,2.5555555555555554,1.125,2.4444444444444446,2.7777777777777777,2.375,3.4444444444444446,2.0,2.0,2.5,1.0,1.0,1.0,0.5087080066557974,0.8275677511902227,,,,,,,,,,,,,-9.284210735338886e-05,-0.5189313049424821,-0.0006762667404528822,-0.6728545846159526,1.255,-0.23776111561891647,,,,,,,,,,,,,,
0,240624_152008,FalseCHOICE,9.0,1,2.0,583.0,,,,,,,,,,,1.0,1.0,,,A,,,,,,False,cue1.png,Easy,cue2.png,Hard,Left,Easy,Mid,0.0128317999187856,,,,,,,,,,,,,25,29,Male,0.7142857142857143,0.25,0.0,1.0,2.5555555555555554,1.125,2.4444444444444446,2.7777777777777777,2.375,3.4444444444444446,2.0,2.0,2.5,1.0,0.7386363636363636,0.8181818181818181,0.6820241067092866,2.000068435563475,,,,,,,,,,,,,,,,,,,-2.4468832865358857e-05,-0.3343673508934803,,,,,,,,,,,,
1,240624_152035,FalseCHOICE,9.0,2,2.0,583.0,,,,,,,,,,,2.0,2.0,,,A,,,,,,False,cue2.png,Hard,cue1.png,Easy,Right,Easy,Mid,0.0164363000076264,,,,,,,,,,,,,25,29,Male,0.7142857142857143,0.25,0.0,1.0,2.5555555555555554,1.125,2.4444444444444446,2.7777777777777777,2.375,3.4444444444444446,2.0,2.0,2.5,1.0,0.8920454545454546,0.7757575757575758,0.6386133999599574,1.0579778739624803,,,,,,,,,,,,,,,,,,,,,,,1.4669999999999999,-0.11898742475728177,,,,,,,,
2,240624_152102,FalseCHOICE,9.0,3,2.0,583.0,,,,,,,,,,,3.0,3.0,,,A,,,,,,False,cue2.png,Hard,cue1.png,Easy,Right,Easy,Mid,0.0166355001274496,,,,,,,,,,,,,25,29,Male,0.7142857142857143,0.25,0.0,1.0,2.5555555555555554,1.125,2.4444444444444446,2.7777777777777777,2.375,3.4444444444444446,2.0,2.0,2.5,1.0,1.0,1.0,0.6688952200269948,1.7151479365921638,,,,,,,,,,,,,,,,,,,0.004044008597733258,3.1650813327435823,0.0005789483540702437,0.7175814505222164,1.1329999999999998,-0.6616877735856558,,,,,,,,
3,240624_152129,FalseCHOICE,9.0,4,2.0,583.0,,,,,,,,,,,4.0,4.0,,,A,,,,,,False,cue2.png,Hard,cue1.png,Easy,Right,Easy,Mid,0.0143977000843733,,,,,,,,,,,,,25,29,Male,0.7142857142857143,0.25,0.0,1.0,2.5555555555555554,1.125,2.4444444444444446,2.7777777777777777,2.375,3.4444444444444446,2.0,2.0,2.5,1.0,0.905,0.9,0.6967509867002567,2.3196682688819648,,,,,,,,,,,,,,,,,,,,,-0.0010354562187879267,-1.3293000734222293,1.578,0.06137107440424401,,,,,,,,
4,240624_152155,FalseCHOICE,9.0,5,2.0,583.0,,,,,,,,,,,5.0,5.0,,,A,,,,,,False,cue1.png,Easy,cue2.png,Hard,Left,Easy,Mid,0.0161385000683367,,,,,,,,,,,,,25,29,Male,0.7142857142857143,0.25,0.0,1.0,2.5555555555555554,1.125,2.4444444444444446,2.7777777777777777,2.375,3.4444444444444446,2.0,2.0,2.5,1.0,1.0,1.0,0.6095180666695038,0.42655671240779036,,,,,,,,,,,,,,,,,,,2.627665349681828e-05,-0.2907192716107805,-5.0863880878150754e-05,-0.08094888626176026,1.552,0.019124939465508285,,,,,,,,
5,240624_152221,FalseCHOICE,9.0,6,2.0,583.0,,,,,,,,,,,6.0,6.0,,,A,,,,,,False,cue2.png,Hard,cue1.png,Easy,Right,Easy,Mid,0.0164900999516248,,,,,,,,,,,,,25,29,Male,0.7142857142857143,0.25,0.0,1.0,2.5555555555555554,1.125,2.4444444444444446,2.7777777777777777,2.375,3.4444444444444446,2.0,2.0,2.5,1.0,0.8920454545454546,0.8424242424242424,0.5895279142839301,-0.007265616174905331,,,,,,,,,,,,,,,,,,,-0.0005636948290405693,-0.798175675921003,,,0.044499999999999984,-2.430338461309263,,,,,,,,
6,240624_152247,FalseCHOICE,9.0,7,2.0,583.0,,,,,,,,,,,7.0,7.0,,,A,,,,,,False,cue2.png,Hard,cue1.png,Easy,Right,Easy,Mid,0.0165756000205874,,,,,,,,,,,,,25,29,Male,0.7142857142857143,0.25,0.0,1.0,2.5555555555555554,1.125,2.4444444444444446,2.7777777777777777,2.375,3.4444444444444446,2.0,2.0,2.5,1.0,1.0,1.0,0.5670463600040724,-0.49515585531508466,,,,,,,,,,,,,,,,,,,-1.7083716417001012e-05,-0.32801513769466956,-0.00010107014864564265,-0.14460472793070914,1.4699999999999998,-0.11411287072588937,,,,,,,,
7,240624_152312,FalseCHOICE,9.0,8,2.0,583.0,,,,,,,,,,,8.0,8.0,,,A,,,,,,False,cue1.png,Easy,cue2.png,Hard,Left,Easy,Mid,0.014911700040102,,,,,,,,,,,,,25,29,Male,0.7142857142857143,0.25,0.0,1.0,2.5555555555555554,1.125,2.4444444444444446,2.7777777777777777,2.375,3.4444444444444446,2.0,2.0,2.5,1.0,0.8920454545454546,0.9090909090909092,0.613811073328058,0.5197226928021679,,,,,,,,,,,,,,,,,,,-1.610997484211311e-05,-0.327177586367282,9.96739680042217e-05,0.10991599774073288,1.948,0.6625660716093287,,,,,,,,
8,240624_152338,FalseCHOICE,9.0,9,2.0,583.0,,,,,,,,,,,9.0,9.0,,,A,,,,,,False,cue1.png,Easy,cue2.png,Hard,Left,Easy,Mid,0.0159436999820172,,,,,,,,,,,,,25,29,Male,0.7142857142857143,0.25,0.0,1.0,2.5555555555555554,1.125,2.4444444444444446,2.7777777777777777,2.375,3.4444444444444446,2.0,2.0,2.5,1.0,0.8920454545454546,0.9090909090909092,0.5928822133534898,0.06552871800782396,,,,,,,,,,,,,,,,,,,0.0006239953550650607,0.2234008037906159,-0.0003979227035119902,-0.5209800306938119,0.9580000000000002,-0.9460367587502223,,,,,,,,
9,240624_152403,FalseCHOICE,9.0,10,2.0,583.0,,,,,,,,,,,10.0,10.0,,,A,,,,,,False,cue2.png,Hard,cue1.png,Easy,Right,Easy,Mid,0.0172190000303089,,,,,,,,,,,,,25,29,Male,0.7142857142857143,0.25,0.0,1.0,2.5555555555555554,1.125,2.4444444444444446,2.7777777777777777,2.375,3.4444444444444446,2.0,2.0,2.5,1.0,0.675,0.7333333333333334,0.5574065214189302,-0.7043577233901729,,,,,,,,,,,,,,,,,,,,,-0.00026062594776536316,-0.34690334795886196,1.989,0.7291849767050275,,,,,,,,
10,240624_152429,FalseCHOICE,9.0,11,2.0,583.0,,,,,,,,,,,11.0,11.0,,,A,,,,,,False,cue1.png,Easy,cue2.png,Hard,Left,Easy,Mid,0.0160731000360101,,,,,,,,,,,,,25,29,Male,0.7142857142857143,0.25,0.0,1.0,2.5555555555555554,1.125,2.4444444444444446,2.7777777777777777,2.375,3.4444444444444446,2.0,2.0,2.5,1.0,0.835,0.8333333333333334,0.6055193071453167,0.3397764250560528,,,,,,,,,,,,,,,,,,,-2.817877084226395e-05,-0.3375584064642975,0.00012896273922626857,0.14705083102933403,,,,,,,,,,
11,240624_152455,FalseCHOICE,9.0,12,2.0,583.0,,,,,,,,,,,12.0,12.0,,,A,,,,,,False,cue2.png,Hard,cue1.png,Easy,Right,Easy,Mid,0.01629009982571,,,,,,,,,,,,,25,29,Male,0.7142857142857143,0.25,0.0,1.0,2.5555555555555554,1.125,2.4444444444444446,2.7777777777777777,2.375,3.4444444444444446,2.0,2.0,2.5,1.0,0.8920454545454546,0.9090909090909092,0.6158497733219216,0.5639661563616414,,,,,,,,,,,,,,,,,,,-2.337972933319629e-05,-0.333430572458062,-9.79802311707953e-06,-0.028882045688302646,2.896,2.2029251455293837,,,,,,,,
12,240624_152522,FalseCHOICE,9.0,13,2.0,583.0,,,,,,,,,,,13.0,13.0,,,A,,,,,,False,cue1.png,Easy,cue2.png,Hard,Left,Easy,Mid,0.0162453998345881,,,,,,,,,,,,,25,29,Male,0.7142857142857143,0.25,0.0,1.0,2.5555555555555554,1.125,2.4444444444444446,2.7777777777777777,2.375,3.4444444444444446,2.0,2.0,2.5,1.0,0.8068181818181819,0.7757575757575758,0.6302960384637117,0.8774761417911285,,,,,,,,,,,,,,,,,,,,,,,,,,,,,,,,
13,240624_152547,FalseCHOICE,9.0,14,2.0,583.0,,,,,,,,,,,14.0,14.0,,,A,,,,,,False,cue2.png,Hard,cue1.png,Easy,Right,Easy,Mid,0.0149774001911282,,,,,,,,,,,,,25,29,Male,0.7142857142857143,0.25,0.0,1.0,2.5555555555555554,1.125,2.4444444444444446,2.7777777777777777,2.375,3.4444444444444446,2.0,2.0,2.5,1.0,0.8920454545454546,0.9090909090909092,0.5534831132895003,-0.7895027496941195,,,,,,,,,,,,,,,,,,,0.0005451218392434998,0.15555876071088393,0.0004947533284829385,0.6108317267044896,,,,,,,,,,
14,240624_152612,FalseCHOICE,9.0,15,2.0,583.0,,,,,,,,,,,15.0,15.0,,,A,,,,,,False,cue1.png,Easy,cue2.png,Hard,Left,Easy,Mid,0.015836999984458,,,,,,,,,,,,,25,29,Male,0.7142857142857143,0.25,0.0,1.0,2.5555555555555554,1.125,2.4444444444444446,2.7777777777777777,2.375,3.4444444444444446,2.0,2.0,2.5,1.0,0.6666666666666666,0.8333333333333334,0.5977266933613767,0.17066266382559228,,,,,,,,,,,,,,,,,,,1.7188356588869556e-05,-0.29853645363859,-0.00010690106687645876,-0.15199766957306216,,,,,,,,,,
15,240624_152637,FalseCHOICE,9.0,16,2.0,583.0,,,,,,,,,,,16.0,16.0,,,A,,,,,,False,cue1.png,Easy,cue2.png,Hard,Left,Easy,Mid,0.0150859002023935,,,,,,,,,,,,,25,29,Male,0.7142857142857143,0.25,0.0,1.0,2.5555555555555554,1.125,2.4444444444444446,2.7777777777777777,2.375,3.4444444444444446,2.0,2.0,2.5,1.0,0.905,0.9,0.5634903732687235,-0.5723271752821858,,,,,,,,,,,,,,,,,,,,,0.0003778995029877167,0.4626743562227282,1.683,0.23198046550298426,,,,,,,,
16,240624_152702,FalseCHOICE,9.0,17,2.0,583.0,,,,,,,,,,,17.0,17.0,,,A,,,,,,False,cue2.png,Hard,cue1.png,Easy,Right,Easy,Mid,0.0154063999652862,,,,,,,,,,,,,25,29,Male,0.7142857142857143,0.25,0.0,1.0,2.5555555555555554,1.125,2.4444444444444446,2.7777777777777777,2.375,3.4444444444444446,2.0,2.0,2.5,1.0,1.0,1.0,0.5402146466231594,-1.0774523858393608,,,,,,,,,,,,,,,,,,,0.0003564257285245524,-0.00674577889318501,-0.00028009103228732266,-0.3715828629576814,,,,,,,,,,
17,240624_152728,FalseCHOICE,9.0,18,2.0,583.0,,,,,,,,,,,18.0,18.0,,,A,,,,,,False,cue2.png,Hard,cue1.png,Easy,Right,Easy,Mid,0.0164553001523017,,,,,,,,,,,,,25,29,Male,0.7142857142857143,0.25,0.0,1.0,2.5555555555555554,1.125,2.4444444444444446,2.7777777777777777,2.375,3.4444444444444446,2.0,2.0,2.5,1.0,1.0,1.0,0.5283116400086632,-1.335769078330538,,,,,,,,,,,,,,,,,,,-0.00048413437834864993,-0.7297427746224837,0.00196683526308963,2.4772643200811615,,,,,,,,,,
18,240624_152753,FalseCHOICE,9.0,19,2.0,583.0,,,,,,,,,,,19.0,19.0,,,A,,,,,,False,cue1.png,Easy,cue2.png,Hard,Left,Easy,Mid,0.0159057001583278,,,,,,,,,,,,,25,29,Male,0.7142857142857143,0.25,0.0,1.0,2.5555555555555554,1.125,2.4444444444444446,2.7777777777777777,2.375,3.4444444444444446,2.0,2.0,2.5,1.0,0.8920454545454546,0.8424242424242424,0.5334448357378798,-1.2243694811005235,,,,,,,,,,,,,,,,,,,-6.303411126380677e-05,-0.367538780507553,0.00011229764411779287,0.12592138439259398,,,,,,,,,,
19,240624_152818,FalseCHOICE,9.0,20,2.0,583.0,,,,,,,,,,,20.0,20.0,,,A,,,,,,False,cue1.png,Easy,cue2.png,Hard,Left,Easy,Mid,0.0127512998878955,,,,,,,,,,,,,25,29,Male,0.7142857142857143,0.25,0.0,1.0,2.5555555555555554,1.125,2.4444444444444446,2.7777777777777777,2.375,3.4444444444444446,2.0,2.0,2.5,1.0,0.835,0.8333333333333334,0.5117653642747817,-1.694853077781391,,,,,,,,,,,,,,,,,,,,,0.0004460224492991074,0.5490465100841228,,,,,,,,,,
20,240624_152843,FalseCHOICE,9.0,21,2.0,583.0,,,,,,,,,,,21.0,21.0,,,A,,,,,,False,cue1.png,Easy,cue2.png,Hard,Left,Easy,Mid,0.0150917000137269,,,,,,,,,,,,,25,29,Male,0.7142857142857143,0.25,0.0,1.0,2.5555555555555554,1.125,2.4444444444444446,2.7777777777777777,2.375,3.4444444444444446,2.0,2.0,2.5,1.0,1.0,1.0,0.5665268999679635,-0.5064290741542293,,,,,,,,,,,,,,,,,,,5.3210563718555925e-05,-0.2675524141614102,0.00011696260817828201,0.13183602865575722,,,,,,,,,,
21,240624_152908,FalseCHOICE,9.0,22,2.0,583.0,,,,,,,,,,,22.0,22.0,,,A,,,,,,False,cue2.png,Hard,cue1.png,Easy,Right,Easy,Mid,0.015392699977383,,,,,,,,,,,,,25,29,Male,0.7142857142857143,0.25,0.0,1.0,2.5555555555555554,1.125,2.4444444444444446,2.7777777777777777,2.375,3.4444444444444446,2.0,2.0,2.5,1.0,0.7386363636363636,0.8181818181818181,0.5980410866594563,0.1774855649237404,,,,,,,,,,,,,,,,,,,0.002766551410789296,2.066292916803912,0.0009475878529415322,1.1849744398147894,2.002,0.7503080441743948,,,,,,,,
22,240624_152935,FalseCHOICE,9.0,23,2.0,583.0,,,,,,,,,,,23.0,23.0,,,A,,,,,,False,cue1.png,Easy,cue2.png,Hard,Left,Easy,Mid,0.0161005000118166,,,,,,,,,,,,,25,29,Male,0.7142857142857143,0.25,0.0,1.0,2.5555555555555554,1.125,2.4444444444444446,2.7777777777777777,2.375,3.4444444444444446,2.0,2.0,2.5,1.0,0.77,0.8,0.6674591000502308,1.6839815452397155,,,,,,,,,,,,,,,,,,,-4.342403723632711e-06,-0.3170558609890211,-0.0005193126794046368,-0.6748887243534334,,,,,,,,,,
23,240624_152959,FalseCHOICE,9.0,24,2.0,583.0,,,,,,,,,,,24.0,24.0,,,A,,,,,,False,cue2.png,Hard,cue1.png,Easy,Right,Easy,Mid,0.0167656999547034,,,,,,,,,,,,,25,29,Male,0.7142857142857143,0.25,0.0,1.0,2.5555555555555554,1.125,2.4444444444444446,2.7777777777777777,2.375,3.4444444444444446,2.0,2.0,2.5,1.0,0.905,0.9,0.5300258333173891,-1.2985679945924757,,,,,,,,,,,,,,,,,,,0.001588090431620344,1.0526548193538665,-2.863556718652946e-05,-0.052765910712286174,1.6969999999999998,0.2547283843161493,,,,,,,,
24,240624_153026,FalseCHOICE,9.0,25,2.0,583.0,,,,,,,,,,,25.0,25.0,,,A,,,,,,False,cue2.png,Hard,cue1.png,Easy,Right,Easy,Mid,0.0149618999566882,,,,,,,,,,,,,25,29,Male,0.7142857142857143,0.25,0.0,1.0,2.5555555555555554,1.125,2.4444444444444446,2.7777777777777777,2.375,3.4444444444444446,2.0,2.0,2.5,1.0,0.835,0.8333333333333334,0.6572476142651534,1.4623739028303289,,,,,,,,,,,,,,,,,,,-0.00016340093879882835,-0.45386802000552934,-0.0004444811679869872,-0.5800108723547563,1.882,0.5553258829186918,,,,,,,,
25,240624_153053,FalseCHOICE,9.0,26,2.0,583.0,,,,,,,,,,,26.0,26.0,,,A,,,,,,False,cue1.png,Easy,cue2.png,Hard,Left,Easy,Mid,0.0157025000080466,,,,,,,,,,,,,25,29,Male,0.7142857142857143,0.25,0.0,1.0,2.5555555555555554,1.125,2.4444444444444446,2.7777777777777777,2.375,3.4444444444444446,2.0,2.0,2.5,1.0,1.0,1.0,0.6513541733225187,1.3344756145239567,,,,,,,,,,,,,,,,,,,0.0007167200537102516,0.30315676413443754,,,,,,,,,,,,
26,240624_153118,FalseCHOICE,9.0,27,2.0,583.0,,,,,,,,,,,27.0,27.0,,,A,,,,,,False,cue1.png,Easy,cue2.png,Hard,Left,Easy,Mid,0.014610799960792,,,,,,,,,,,,,25,29,Male,0.7142857142857143,0.25,0.0,1.0,2.5555555555555554,1.125,2.4444444444444446,2.7777777777777777,2.375,3.4444444444444446,2.0,2.0,2.5,1.0,1.0,1.0,0.6116059533475587,0.47186761564753993,,,,,,,,,,,,,,,,,,,-0.00010406507043385707,-0.40283103381492164,0.00037797339111228945,0.4627680379674219,1.854,0.5098300452923614,,,,,,,,
27,240624_153144,FalseCHOICE,9.0,28,2.0,583.0,,,,,,,,,,,28.0,28.0,,,A,,,,,,False,cue2.png,Hard,cue1.png,Easy,Right,Easy,Mid,0.0164985000155866,,,,,,,,,,,,,25,29,Male,0.7142857142857143,0.25,0.0,1.0,2.5555555555555554,1.125,2.4444444444444446,2.7777777777777777,2.375,3.4444444444444446,2.0,2.0,2.5,1.0,0.8920454545454546,0.9090909090909092,0.5727632133445392,-0.37108983618274016,,,,,,,,,,,,,,,,,,,0.0029753082221631324,2.2458524107974562,,,1.5470000000000002,0.011000682746520826,,,,,,,,
28,240624_153209,FalseCHOICE,9.0,29,2.0,583.0,,,,,,,,,,,29.0,29.0,,,A,,,,,,False,cue1.png,Easy,cue2.png,Hard,Left,Easy,Mid,0.0168853001669049,,,,,,,,,,,,,25,29,Male,0.7142857142857143,0.25,0.0,1.0,2.5555555555555554,1.125,2.4444444444444446,2.7777777777777777,2.375,3.4444444444444446,2.0,2.0,2.5,1.0,0.8920454545454546,0.9090909090909092,0.5819930133409799,-0.17078654436300905,,,,,,,,,,,,,,,,,,,-0.0005064382827851027,-0.7489271919755444,-0.0004545139843195175,-0.592731343251235,1.126,-0.6730617329922383,,,,,,,,
29,240624_153233,FalseCHOICE,9.0,30,2.0,583.0,,,,,,,,,,,30.0,30.0,,,A,,,,,,False,cue1.png,Easy,cue2.png,Hard,Left,Easy,Mid,0.0160376999992877,,,,,,,,,,,,,25,29,Male,0.7142857142857143,0.25,0.0,1.0,2.5555555555555554,1.125,2.4444444444444446,2.7777777777777777,2.375,3.4444444444444446,2.0,2.0,2.5,1.0,0.075,0.6,0.506230006661887,-1.8149803125741046,,,,,,,,,,,,,,,,,,,3.7551204227017927e-05,-0.2810216113965044,0.00042749287099193376,0.5255531106469004,1.1760000000000002,-0.5918191658023615,,,,,,,,
30,240624_153304,FalseCHOICE,9.0,31,2.0,583.0,,,,,,,,,,,32.0,31.0,,,A,,,,,,False,cue2.png,Hard,cue1.png,Easy,Right,Easy,Mid,0.0169331999495625,,,,,,,,,,,,,25,29,Male,0.7142857142857143,0.25,0.0,1.0,2.5555555555555554,1.125,2.4444444444444446,2.7777777777777777,2.375,3.4444444444444446,2.0,2.0,2.5,1.0,0.905,0.9,0.6031918733380734,0.28926691745424965,,,,,,,,,,,,,,,,,,,,,0.00266303827842365,3.359970621190487,-0.18300000000000005,-2.7999921420232003,,,,,,,,
31,240624_153330,FalseCHOICE,9.0,32,2.0,583.0,,,,,,,,,,,33.0,32.0,,,A,,,,,,False,cue1.png,Easy,cue2.png,Hard,Left,Easy,Mid,0.016663399990648,,,,,,,,,,,,,25,29,Male,0.7142857142857143,0.25,0.0,1.0,2.5555555555555554,1.125,2.4444444444444446,2.7777777777777777,2.375,3.4444444444444446,2.0,2.0,2.5,1.0,1.0,1.0,0.5891892200025419,-0.01461589240068925,,,,,,,,,,,,,,,,,,,0.0029667463121042193,2.238487993666925,-0.0020363833035804257,-2.5983618632127192,1.8919999999999997,0.5715743963566667,,,,,,,,
32,240624_153355,FalseCHOICE,9.0,33,2.0,583.0,,,,,,,,,,,34.0,33.0,,,A,,,,,,False,cue2.png,Hard,cue1.png,Easy,Right,Easy,Mid,0.0165071000810712,,,,,,,,,,,,,25,29,Male,0.7142857142857143,0.25,0.0,1.0,2.5555555555555554,1.125,2.4444444444444446,2.7777777777777777,2.375,3.4444444444444446,2.0,2.0,2.5,1.0,0.905,0.9,0.6219233133519689,0.695772919399468,,,,,,,,,,,,,,,,,,,-0.0001613256487552773,-0.452082985890199,0.0006975439879720133,0.8679472361098035,2.3200000000000003,1.2670107715020091,,,,,,,,
33,240624_153422,FalseCHOICE,9.0,34,2.0,583.0,,,,,,,,,,,35.0,34.0,,,A,,,,,,False,cue2.png,Hard,cue1.png,Easy,Right,Easy,Mid,0.0161714998539537,,,,,,,,,,,,,25,29,Male,0.7142857142857143,0.25,0.0,1.0,2.5555555555555554,1.125,2.4444444444444446,2.7777777777777777,2.375,3.4444444444444446,2.0,2.0,2.5,1.0,0.1590909090909091,0.6363636363636364,0.6595742999886473,1.5128671756667398,,,,,,,,,,,,,,,,,,,-0.00023205469677986534,-0.5129196694473029,-0.00023004099340298394,-0.30812510175741364,2.516,1.5854816348863239,,,,,,,,
34,240624_153448,FalseCHOICE,9.0,35,2.0,583.0,,,,,,,,,,,36.0,35.0,,,A,,,,,,False,cue2.png,Hard,cue1.png,Easy,Right,Easy,Mid,0.0152483999263495,,,,,,,,,,,,,25,29,Male,0.7142857142857143,0.25,0.0,1.0,2.5555555555555554,1.125,2.4444444444444446,2.7777777777777777,2.375,3.4444444444444446,2.0,2.0,2.5,1.0,0.905,0.9,0.6202950733713806,0.6604371777680008,,,,,,,,,,,,,,,,,,,-0.0001075843971642342,-0.4058581375666303,-0.00039021276409196073,-0.5112047037312218,1.1640000000000001,-0.6113173819279318,,,,,,,,
35,240624_153513,FalseCHOICE,9.0,36,2.0,583.0,,,,,,,,,,,37.0,36.0,,,A,,,,,,False,cue1.png,Easy,cue2.png,Hard,Left,Easy,Mid,0.0158424000255763,,,,,,,,,,,,,25,29,Male,0.7142857142857143,0.25,0.0,1.0,2.5555555555555554,1.125,2.4444444444444446,2.7777777777777777,2.375,3.4444444444444446,2.0,2.0,2.5,1.0,1.0,1.0,0.5986108667061975,0.18985081866915857,,,,,,,,,,,,,,,,,,,0.0032598222085309927,2.4905734672750506,-0.0010802172978984495,-1.3860520347109277,1.564,0.03862315559107862,,,,,,,,
36,240624_153539,FalseCHOICE,9.0,37,2.0,583.0,,,,,,,,,,,38.0,37.0,,,A,,,,,,False,cue2.png,Hard,cue1.png,Easy,Right,Easy,Mid,0.0162155998405069,,,,,,,,,,,,,25,29,Male,0.7142857142857143,0.25,0.0,1.0,2.5555555555555554,1.125,2.4444444444444446,2.7777777777777777,2.375,3.4444444444444446,2.0,2.0,2.5,1.0,0.7386363636363636,0.7515151515151515,0.5557022786067266,-0.7413428634231248,,,,,,,,,,,,,,,,,,,-0.0012592586638155464,-1.3964559877846725,-0.0003896825191733325,-0.5105324134358692,0.9100000000000001,-1.0240296232525037,,,,,,,,
37,240624_153610,FalseCHOICE,9.0,38,2.0,583.0,,,,,,,,,,,40.0,38.0,,,A,,,,,,False,cue1.png,Easy,cue2.png,Hard,Left,Easy,Mid,0.0161328001413494,,,,,,,,,,,,,25,29,Male,0.7142857142857143,0.25,0.0,1.0,2.5555555555555554,1.125,2.4444444444444446,2.7777777777777777,2.375,3.4444444444444446,2.0,2.0,2.5,1.0,0.8920454545454546,0.9090909090909092,0.6097734866663813,0.4320997866012592,,,,,,,,,,,,,,,,,,,,,0.0008309507133333,1.037091802411734,1.9320000000000002,0.6365684501085686,,,,,,,,
38,240624_153636,FalseCHOICE,9.0,39,2.0,583.0,,,,,,,,,,,41.0,39.0,,,A,,,,,,False,cue1.png,Easy,cue2.png,Hard,Left,Easy,Mid,0.0150637000333517,,,,,,,,,,,,,25,29,Male,0.7142857142857143,0.25,0.0,1.0,2.5555555555555554,1.125,2.4444444444444446,2.7777777777777777,2.375,3.4444444444444446,2.0,2.0,2.5,1.0,0.9375,0.9333333333333332,0.5695968071564234,-0.4398065562592909,,,,,,,,,,,,,,,,,,,,,0.0008834032938467408,1.1035957133527758,1.7060000000000002,0.2693520464103276,,,,,,,,
39,240624_153702,FalseCHOICE,9.0,40,2.0,583.0,,,,,,,,,,,42.0,40.0,,,A,,,,,,False,cue2.png,Hard,cue1.png,Easy,Right,Easy,Mid,0.0166266001760959,,,,,,,,,,,,,25,29,Male,0.7142857142857143,0.25,0.0,1.0,2.5555555555555554,1.125,2.4444444444444446,2.7777777777777777,2.375,3.4444444444444446,2.0,2.0,2.5,1.0,0.905,0.9,0.6157192333135754,0.561133202950299,,,,,,,,,,,,,,,,,,,-0.0006857614204145985,-0.9031696889852611,0.000699708329205388,0.8706913748198808,1.9379999999999997,0.6463175581713531,,,,,,,,
40,240624_153728,FalseCHOICE,9.0,41,2.0,583.0,,,,,,,,,,,43.0,41.0,,,A,,,,,,False,cue2.png,Hard,cue1.png,Easy,Right,Easy,Mid,0.0167055001948028,,,,,,,,,,,,,25,29,Male,0.7142857142857143,0.25,0.0,1.0,2.5555555555555554,1.125,2.4444444444444446,2.7777777777777777,2.375,3.4444444444444446,2.0,2.0,2.5,1.0,0.8920454545454546,0.9090909090909092,0.6111597933185597,0.46218513904768416,,,,,,,,,,,,,,,,,,,-1.715801885468493e-05,-0.32807904798351334,-0.00022070814988209807,-0.2962921168353348,0.9010000000000002,-1.0386532853466812,,,,,,,,
41,240624_153754,FalseCHOICE,9.0,42,2.0,583.0,,,,,,,,,,,44.0,42.0,,,A,,,,,,False,cue1.png,Easy,cue2.png,Hard,Left,Easy,Mid,0.0161496000364422,,,,,,,,,,,,,25,29,Male,0.7142857142857143,0.25,0.0,1.0,2.5555555555555554,1.125,2.4444444444444446,2.7777777777777777,2.375,3.4444444444444446,2.0,2.0,2.5,1.0,1.0,0.9333333333333332,0.6030692071487594,0.2866048401043556,,,,,,,,,,,,,,,,,,,-0.00010157369632011592,-0.40068811032290264,-0.0007533795443302738,-0.9716589077627054,1.694,0.2498538302847569,,,,,,,,
42,240624_153818,FalseCHOICE,9.0,43,2.0,583.0,,,,,,,,,,,45.0,43.0,,,A,,,,,,False,cue2.png,Hard,cue1.png,Easy,Right,Easy,Mid,0.0173870001453906,,,,,,,,,,,,,25,29,Male,0.7142857142857143,0.25,0.0,1.0,2.5555555555555554,1.125,2.4444444444444446,2.7777777777777777,2.375,3.4444444444444446,2.0,2.0,2.5,1.0,0.8920454545454546,0.9090909090909092,0.5628507266441981,-0.5862086596635625,,,,,,,,,,,,,,,,,,,-6.944925790442272e-05,-0.3730566866161139,0.0004444520691207071,0.5470554464890506,,,,,,,,,,
43,240624_153843,FalseCHOICE,9.0,44,2.0,583.0,,,,,,,,,,,46.0,44.0,,,A,,,,,,False,cue1.png,Easy,cue2.png,Hard,Left,Easy,Mid,0.0160010999534279,,,,,,,,,,,,,25,29,Male,0.7142857142857143,0.25,0.0,1.0,2.5555555555555554,1.125,2.4444444444444446,2.7777777777777777,2.375,3.4444444444444446,2.0,2.0,2.5,1.0,1.0,1.0,0.5222519733322163,-1.4672747645957556,,,,,,,,,,,,,,,,,,,-0.0004222721391965809,-0.6765327630001022,-0.00087100927054459,-1.1208000321764306,0.8109999999999999,-1.184889906288459,,,,,,,,
44,240624_153907,FalseCHOICE,9.0,45,2.0,583.0,,,,,,,,,,,47.0,45.0,,,A,,,,,,False,cue2.png,Hard,cue1.png,Easy,Right,Easy,Mid,0.01641929987818,,,,,,,,,,,,,25,29,Male,0.7142857142857143,0.25,0.0,1.0,2.5555555555555554,1.125,2.4444444444444446,2.7777777777777777,2.375,3.4444444444444446,2.0,2.0,2.5,1.0,0.905,0.9,0.5383719267013173,-1.1174427286841806,,,,,,,,,,,,,,,,,,,-0.0001062522807758824,-0.40471233473960483,-0.0006297347538670468,-0.8148913654835768,2.75,1.965696849334945,,,,,,,,
45,240624_153932,FalseCHOICE,9.0,46,2.0,583.0,,,,,,,,,,,48.0,46.0,,,A,,,,,,False,cue2.png,Hard,cue1.png,Easy,Right,Easy,Mid,0.0159636999014765,,,,,,,,,,,,,25,29,Male,0.7142857142857143,0.25,0.0,1.0,2.5555555555555554,1.125,2.4444444444444446,2.7777777777777777,2.375,3.4444444444444446,2.0,2.0,2.5,1.0,0.8920454545454546,0.9090909090909092,0.5876175000177075,-0.04872504827650398,,,,,,,,,,,,,,,,,,,1.729468053295307e-05,-0.2984450004616929,-0.0004276388434060127,-0.5586567188887276,1.601,0.09874265531158698,,,,,,,,
46,240624_153958,FalseCHOICE,9.0,47,2.0,583.0,,,,,,,,,,,49.0,47.0,,,A,,,,,,False,cue1.png,Easy,cue2.png,Hard,Left,Easy,Mid,0.0165230000857263,,,,,,,,,,,,,25,29,Male,0.7142857142857143,0.25,0.0,1.0,2.5555555555555554,1.125,2.4444444444444446,2.7777777777777777,2.375,3.4444444444444446,2.0,2.0,2.5,1.0,0.8920454545454546,0.9090909090909092,0.5775982733039806,-0.2661603223909599,,,,,,,,,,,,,,,,,,,,,,,1.2650000000000001,-0.4472073962043817,,,,,,,,
47,240624_154022,FalseCHOICE,9.0,48,2.0,583.0,,,,,,,,,,,50.0,48.0,,,A,,,,,,False,cue1.png,Easy,cue2.png,Hard,Left,Easy,Mid,0.01384919998236,,,,,,,,,,,,,25,29,Male,0.7142857142857143,0.25,0.0,1.0,2.5555555555555554,1.125,2.4444444444444446,2.7777777777777777,2.375,3.4444444444444446,2.0,2.0,2.5,1.0,1.0,1.0,0.5444724533086022,-0.9850503082910796,,,,,,,,,,,,,,,,,,,-6.75804051015476e-05,-0.3714492168457899,-0.0002927622488597889,-0.387648525508526,1.566,0.04187285827867368,,,,,,,,
48,240624_154046,FalseCHOICE,9.0,49,2.0,583.0,,,,,,,,,,,51.0,49.0,,,A,,,,,,False,cue2.png,Hard,cue1.png,Easy,Right,Easy,Mid,0.0165850999765098,,,,,,,,,,,,,25,29,Male,0.7142857142857143,0.25,0.0,1.0,2.5555555555555554,1.125,2.4444444444444446,2.7777777777777777,2.375,3.4444444444444446,2.0,2.0,2.5,1.0,1.0,1.0,0.5071395333545904,-1.795241944395308,,,,,,,,,,,,,,,,,,,-0.00012827793595383656,-0.4236574195615193,,,1.5839999999999999,0.07112018246702882,,,,,,,,
49,240624_154111,FalseCHOICE,9.0,50,2.0,583.0,,,,,,,,,,,52.0,50.0,,,A,,,,,,False,cue1.png,Easy,cue2.png,Hard,Left,Easy,Mid,0.0161041000392287,,,,,,,,,,,,,25,29,Male,0.7142857142857143,0.25,0.0,1.0,2.5555555555555554,1.125,2.4444444444444446,2.7777777777777777,2.375,3.4444444444444446,2.0,2.0,2.5,1.0,0.77,0.8,0.5552029933625211,-0.7521782529234333,,,,,,,,,,,,,,,,,,,-6.669575761645468e-05,-0.3706882986571063,-0.0007378349348604362,-0.9519501095743979,1.0550000000000002,-0.7884261784018622,,,,,,,,
0,240624_144344,OFFLINERATING,9.0,1,1.0,,,,,,,,,,,,,,,,,T0,cue1.png,Easy,63.0,2.864817299880088,,,,,,,,,,,,,,,,,,,,,,25,29,Male,0.7142857142857143,0.25,0.0,1.0,2.5555555555555554,1.125,2.4444444444444446,2.7777777777777777,2.375,3.4444444444444446,2.0,2.0,2.5,1.0,,,,,,,,,,,,,,,,,,,,,,,,,,,,,1.2193455289874087,9.123915737330136e-05,1.3106414239232056,,,,,
1,240624_144352,OFFLINERATING,9.0,2,3.0,,,,,,,,,,,,,,,,,T0,cue2.png,Hard,44.0,1.3626178000122309,,,,,,,,,,,,,,,,,,,,,,25,29,Male,0.7142857142857143,0.25,0.0,1.0,2.5555555555555554,1.125,2.4444444444444446,2.7777777777777777,2.375,3.4444444444444446,2.0,2.0,2.5,1.0,,,,,,,,,,,,,,,,,,,,,,,,,,,,,-1.1568149890393364,-3.970680747443934e-05,-1.1153905908087334,,,1.409,0.03179930792245941,
2,240624_150833,OFFLINERATING,9.0,3,1.0,,,,,,,,,,,,,,,,,T1,cue1.png,Easy,52.0,1.6232204001862556,,,,,,,,,,,,,,,,,,,,,,25,29,Male,0.7142857142857143,0.25,0.0,1.0,2.5555555555555554,1.125,2.4444444444444446,2.7777777777777777,2.375,3.4444444444444446,2.0,2.0,2.5,1.0,,,,,,,,,,,,,,,,,,,,,,,,,,,,,-0.1563263498701806,,,0.0007187012862224272,0.9292484099419279,1.459,0.3665288650009933,
3,240624_150840,OFFLINERATING,9.0,4,3.0,,,,,,,,,,,,,,,,,T1,cue2.png,Hard,52.0,0.784775999840349,,,,,,,,,,,,,,,,,,,,,,25,29,Male,0.7142857142857143,0.25,0.0,1.0,2.5555555555555554,1.125,2.4444444444444446,2.7777777777777777,2.375,3.4444444444444446,2.0,2.0,2.5,1.0,,,,,,,,,,,,,,,,,,,,,,,,,,,,,-0.1563263498701806,9.95807231048574e-06,-0.19525083311447242,-7.594372695794238e-05,-1.2482948544387276,1.169,-1.5749025660545015,
4,240624_151725,OFFLINERATING,9.0,5,1.0,,,,,,,,,,,,,,,,,T2,cue1.png,Easy,65.0,1.0854225000366569,,,,,,,,,,,,,,,,,,,,,,25,29,Male,0.7142857142857143,0.25,0.0,1.0,2.5555555555555554,1.125,2.4444444444444446,2.7777777777777777,2.375,3.4444444444444446,2.0,2.0,2.5,1.0,,,,,,,,,,,,,,,,,,,,,,,,,,,,,1.4694676887796976,,,,,1.5799999999999998,1.176574393131043,
5,240624_151731,OFFLINERATING,9.0,6,3.0,,,,,,,,,,,,,,,,,T2,cue2.png,Hard,47.0,0.7679295998532325,,,,,,,,,,,,,,,,,,,,,,25,29,Male,0.7142857142857143,0.25,0.0,1.0,2.5555555555555554,1.125,2.4444444444444446,2.7777777777777777,2.375,3.4444444444444446,2.0,2.0,2.5,1.0,,,,,,,,,,,,,,,,,,,,,,,,,,,,,-0.781631749350903,,,,,,,
6,240624_154129,OFFLINERATING,9.0,7,1.0,,,,,,,,,,,,,,,,,T3,cue1.png,Easy,60.0,1.021435300121084,,,,,,,,,,,,,,,,,,,,,,25,29,Male,0.7142857142857143,0.25,0.0,1.0,2.5555555555555554,1.125,2.4444444444444446,2.7777777777777777,2.375,3.4444444444444446,2.0,2.0,2.5,1.0,,,,,,,,,,,,,,,,,,,,,,,,,,,,,0.8441622892989752,,,0.00011890177868570818,-0.7143652237586322,,,
7,240624_154136,OFFLINERATING,9.0,8,3.0,,,,,,,,,,,,,,,,,T3,cue2.png,Hard,43.0,0.784963299985975,,,,,,,,,,,,,,,,,,,,,,25,29,Male,0.7142857142857143,0.25,0.0,1.0,2.5555555555555554,1.125,2.4444444444444446,2.7777777777777777,2.375,3.4444444444444446,2.0,2.0,2.5,1.0,,,,,,,,,,,,,,,,,,,,,,,,,,,,,-1.281876068935481,,,0.0007567133042288695,1.0334116682554317,,,
0,240624_151810,LEARNINGCHECK,9.0,1,,,,,,,,,,,,1.0,2.0,1.0,,,A,,,,,,,,,,,,,,,cue1.png,Easy,Left,Middle,unsure,0.0149254999123513,0.0,,,,,,25,29,Male,0.7142857142857143,0.25,0.0,1.0,2.5555555555555554,1.125,2.4444444444444446,2.7777777777777777,2.375,3.4444444444444446,2.0,2.0,2.5,1.0,,,,,,,,,,,,,,,,,,,,,,,,,,,,,,,,,,,,
1,240624_151817,LEARNINGCHECK,9.0,2,,,,,,,,,,,,2.0,3.0,2.0,,,A,,,,,,,,,,,,,,,cue2.png,Hard,Right,Middle,unsure,0.015954100061208,0.0,,,,,,25,29,Male,0.7142857142857143,0.25,0.0,1.0,2.5555555555555554,1.125,2.4444444444444446,2.7777777777777777,2.375,3.4444444444444446,2.0,2.0,2.5,1.0,,,,,,,,,,,,,,,,,,,,,,,,,,,,,,,,,,,,
2,240624_154154,LEARNINGCHECK,9.0,1,,,,,,,,,,,,1.0,1.0,1.0,,,A,,,,,,,,,,,,,,,cue1.png,Easy,Middle,Middle,Mid,0.0121036998461931,1.0,,,,,,25,29,Male,0.7142857142857143,0.25,0.0,1.0,2.5555555555555554,1.125,2.4444444444444446,2.7777777777777777,2.375,3.4444444444444446,2.0,2.0,2.5,1.0,,,,,,,,,,,,,,,,,,,,,,,,,,,,,,,,,,,,
3,240624_154202,LEARNINGCHECK,9.0,2,,,,,,,,,,,,2.0,2.0,2.0,,,A,,,,,,,,,,,,,,,cue2.png,Hard,Middle,Right,Hard,0.0160620999522507,0.0,,,,,,25,29,Male,0.7142857142857143,0.25,0.0,1.0,2.5555555555555554,1.125,2.4444444444444446,2.7777777777777777,2.375,3.4444444444444446,2.0,2.0,2.5,1.0,,,,,,,,,,,,,,,,,,,,,,,,,,,,,,,,,,,,
0,240624_154224,DEMANDRATING,9.0,-1,,,,,,,,,,,,,,,,,,,,,,,,,,,,,,,,,,,,,,,1.0,MentalDemand,1.0,33.0,8.187689800048247,25,29,Male,0.7142857142857143,0.25,0.0,1.0,2.5555555555555554,1.125,2.4444444444444446,2.7777777777777777,2.375,3.4444444444444446,2.0,2.0,2.5,1.0,,,,,,,,,,,,,,,,,,,,,,,,,,,,,,,,,,,,-0.8931580174256857
1,240624_154230,DEMANDRATING,9.0,-1,,,,,,,,,,,,,,,,,,,,,,,,,,,,,,,,,,,,,,,2.0,Effort,1.0,25.0,5.173654500162229,25,29,Male,0.7142857142857143,0.25,0.0,1.0,2.5555555555555554,1.125,2.4444444444444446,2.7777777777777777,2.375,3.4444444444444446,2.0,2.0,2.5,1.0,,,,,,,,,,,,,,,,,,,,,,,,,,,,,,,,,,,,-1.1656469040979287
2,240624_154236,DEMANDRATING,9.0,-1,,,,,,,,,,,,,,,,,,,,,,,,,,,,,,,,,,,,,,,3.0,Frustration,1.0,33.0,4.321206599939615,25,29,Male,0.7142857142857143,0.25,0.0,1.0,2.5555555555555554,1.125,2.4444444444444446,2.7777777777777777,2.375,3.4444444444444446,2.0,2.0,2.5,1.0,,,,,,,,,,,,,,,,,,,,,,,,,,,,,,,,,,,,-0.8931580174256857
3,240624_154242,DEMANDRATING,9.0,-1,,,,,,,,,,,,,,,,,,,,,,,,,,,,,,,,,,,,,,,4.0,MentalDemand,2.0,46.0,4.083761499961838,25,29,Male,0.7142857142857143,0.25,0.0,1.0,2.5555555555555554,1.125,2.4444444444444446,2.7777777777777777,2.375,3.4444444444444446,2.0,2.0,2.5,1.0,,,,,,,,,,,,,,,,,,,,,,,,,,,,,,,,,,,,-0.4503635765832907
4,240624_154250,DEMANDRATING,9.0,-1,,,,,,,,,,,,,,,,,,,,,,,,,,,,,,,,,,,,,,,5.0,Effort,2.0,49.0,6.208482600050047,25,29,Male,0.7142857142857143,0.25,0.0,1.0,2.5555555555555554,1.125,2.4444444444444446,2.7777777777777777,2.375,3.4444444444444446,2.0,2.0,2.5,1.0,,,,,,,,,,,,,,,,,,,,,,,,,,,,,,,,,,,,-0.3481802440811995
5,240624_154256,DEMANDRATING,9.0,-1,,,,,,,,,,,,,,,,,,,,,,,,,,,,,,,,,,,,,,,6.0,Frustration,2.0,49.0,4.607503100065514,25,29,Male,0.7142857142857143,0.25,0.0,1.0,2.5555555555555554,1.125,2.4444444444444446,2.7777777777777777,2.375,3.4444444444444446,2.0,2.0,2.5,1.0,,,,,,,,,,,,,,,,,,,,,,,,,,,,,,,,,,,,-0.3481802440811995
6,240624_154303,DEMANDRATING,9.0,-1,,,,,,,,,,,,,,,,,,,,,,,,,,,,,,,,,,,,,,,7.0,MentalDemand,3.0,99.0,5.723007200052962,25,29,Male,0.7142857142857143,0.25,0.0,1.0,2.5555555555555554,1.125,2.4444444444444446,2.7777777777777777,2.375,3.4444444444444446,2.0,2.0,2.5,1.0,,,,,,,,,,,,,,,,,,,,,,,,,,,,,,,,,,,,1.35487529762032
7,240624_154308,DEMANDRATING,9.0,-1,,,,,,,,,,,,,,,,,,,,,,,,,,,,,,,,,,,,,,,8.0,Effort,3.0,99.0,3.022223500069231,25,29,Male,0.7142857142857143,0.25,0.0,1.0,2.5555555555555554,1.125,2.4444444444444446,2.7777777777777777,2.375,3.4444444444444446,2.0,2.0,2.5,1.0,,,,,,,,,,,,,,,,,,,,,,,,,,,,,,,,,,,,1.35487529762032
8,240624_154311,DEMANDRATING,9.0,-1,,,,,,,,,,,,,,,,,,,,,,,,,,,,,,,,,,,,,,,9.0,Frustration,3.0,100.0,2.057941200211644,25,29,Male,0.7142857142857143,0.25,0.0,1.0,2.5555555555555554,1.125,2.4444444444444446,2.7777777777777777,2.375,3.4444444444444446,2.0,2.0,2.5,1.0,,,,,,,,,,,,,,,,,,,,,,,,,,,,,,,,,,,,1.3889364084543503
