,END,Phase,Block,TrialN,NbackLevel,ISI,Letter_Resp,Letter_RT,Letter_Accuracy,Trial_A_measure,Trial_ACC,Trial_RT,TrialCountCali,CaliEnd_A_measure,ISI_calibrated,TrialIndex,TrialNumber_total,TrialNumber_valid,CueLearning,TrialDemandLearning,CueMapping,OfflineRatingTimePoint,CueFigure,TrialDemand,OfflineRating,OfflineRatingRT,PhaseType,CueLeft,CueDemandLeft,CueRight,CueDemandRight,Choice,ChoiceDemand,TaskDemand,ChoiceRT,CueCheck,CueDemandCheck,CorrectAnswer,Answer,AnswerDemand,AnswerRT,AnswerACC,DemandRatingQuesIndex,QuesTLX,DemandLevel,DemandRating,DemandRatingRT,PID,Age,Gender,Task_A_measure,Task_ACC,Task_RT,cue_i_on_zyg_values,cue_i_on_zyg_zvalues,cue_e_on_zyg_values,cue_e_on_zyg_zvalues,cue_i_on_cor_values,cue_i_on_cor_zvalues,cue_e_on_cor_values,cue_e_on_cor_zvalues,cue_i_on_scr_values,cue_i_on_scr_zvalues,cue_e_on_scr_values,cue_e_on_scr_zvalues,BAI_bis,BAI_bas_d,BAI_bas_rr,BAI_bas_fs,NFC,BFI_ext,BFI_agr,BFI_con,BFI_neu,BFI_open,UPPS_lps,UPPS_lpm,UPPS_pu,UPPS_ss,cue_e_true_zyg_values,cue_e_true_zyg_zvalues,cue_e_true_cor_values,cue_e_true_cor_zvalues,cue_e_true_scr_values,cue_e_true_scr_zvalues,cue_i_off_zyg_values,cue_i_off_zyg_zvalues,cue_i_off_cor_values,cue_i_off_cor_zvalues,cue_i_off_scr_values,cue_i_off_scr_zvalues
0,240625_145249,LEARNING,1.0,1,1.0,679.0,,,,,,,,,,1.0,1.0,1.0,cue1.png,Easy,A,,,,,,,,,,,,,,,,,,,,,,,,,,,27,27,Female,1.0,0.9285714285714286,0.5566644461359829,0.00012216087739558724,0.013937162875335092,4.925840564556569e-05,-0.12009148966719492,-9.327096778659252e-05,-0.3835165332006839,-0.00014301169062932344,0.137372174391541,1.2320000000000002,-0.8145644057227778,,,0.7142857142857143,0.5,0.6,0.25,2.7777777777777777,3.125,2.3333333333333335,2.7777777777777777,2.25,3.2222222222222223,2.0,1.25,1.5,0.25,,,,,,,,,,,,
1,240625_145316,LEARNING,1.0,2,3.0,679.0,,,,,,,,,,2.0,2.0,2.0,cue2.png,Hard,A,,,,,,,,,,,,,,,,,,,,,,,,,,,27,27,Female,0.8875,0.7571428571428571,0.5438477833134433,0.0001653412943630906,0.054206251949863636,,,,,,,1.9369999999999998,0.7426817948822859,1.4460000000000002,0.022568237255250596,0.7142857142857143,0.5,0.6,0.25,2.7777777777777777,3.125,2.3333333333333335,2.7777777777777777,2.25,3.2222222222222223,2.0,1.25,1.5,0.25,,,,,,,,,,,,
2,240625_145345,LEARNING,1.0,3,1.0,679.0,,,,,,,,,,3.0,3.0,3.0,cue1.png,Easy,A,,,,,,,,,,,,,,,,,,,,,,,,,,,27,27,Female,0.8875,0.6857142857142857,0.6630439636593853,0.0009424441394915049,0.7789149483502775,-0.0004087618153508924,-0.9553189066968109,-9.482062578841741e-06,-0.237684393152848,0.0009949123461965854,1.664595369481142,,,1.118,-0.5863680563979847,0.7142857142857143,0.5,0.6,0.25,2.7777777777777777,3.125,2.3333333333333335,2.7777777777777777,2.25,3.2222222222222223,2.0,1.25,1.5,0.25,,,,,,,,,,,,
3,240625_145411,LEARNING,1.0,4,3.0,679.0,,,,,,,,,,4.0,4.0,4.0,cue2.png,Hard,A,,,,,,,,,,,,,,,,,,,,,,,,,,,27,27,Female,0.8875,0.9,0.6016158428475527,-0.0017338916241678567,-1.7169758009505747,,,0.0012991720245969524,2.039989788673549,-0.0009883501098390526,-0.9971679176857902,,,1.584,0.2787670437313067,0.7142857142857143,0.5,0.6,0.25,2.7777777777777777,3.125,2.3333333333333335,2.7777777777777777,2.25,3.2222222222222223,2.0,1.25,1.5,0.25,,,,,,,,,,,,
4,240625_145439,LEARNING,1.0,5,3.0,679.0,,,,,,,,,,5.0,5.0,5.0,cue2.png,Hard,A,,,,,,,,,,,,,,,,,,,,,,,,,,,27,27,Female,0.6875,0.5428571428571429,0.4325357667015244,,,0.0004786516938455037,0.6629329938650749,-8.044785899429625e-05,-0.3611982872156081,6.382575466917177e-05,0.4149714989950215,1.4560000000000002,-0.31977979730358,1.5490000000000002,0.21378908556708967,0.7142857142857143,0.5,0.6,0.25,2.7777777777777777,3.125,2.3333333333333335,2.7777777777777777,2.25,3.2222222222222223,2.0,1.25,1.5,0.25,,,,,,,,,,,,
5,240625_145506,LEARNING,1.0,6,1.0,679.0,,,,,,,,,,6.0,6.0,6.0,cue1.png,Easy,A,,,,,,,,,,,,,,,,,,,,,,,,,,,27,27,Female,0.725,0.5857142857142857,0.4207933000288903,0.0003598606688000588,0.2356106608470467,-0.0004561671199771883,-1.0417653305040022,8.304063685954897e-05,-0.07665133956838495,-0.00017107747790771856,0.0997047028091886,,,,,0.7142857142857143,0.5,0.6,0.25,2.7777777777777777,3.125,2.3333333333333335,2.7777777777777777,2.25,3.2222222222222223,2.0,1.25,1.5,0.25,,,,,,,,,,,,
6,240625_145531,LEARNING,1.0,7,3.0,679.0,,,,,,,,,,7.0,7.0,7.0,cue2.png,Hard,A,,,,,,,,,,,,,,,,,,,,,,,,,,,27,27,Female,1.0,0.9285714285714286,0.43723953074704,0.0016084972296933724,1.4000611322300942,-0.00039409410803924877,-0.9285714603395347,,,-0.0025644500407859465,-3.1124728892156868,1.1199999999999999,-1.0619567099323775,,,0.7142857142857143,0.5,0.6,0.25,2.7777777777777777,3.125,2.3333333333333335,2.7777777777777777,2.25,3.2222222222222223,2.0,1.25,1.5,0.25,,,,,,,,,,,,
7,240625_145557,LEARNING,1.0,8,3.0,679.0,,,,,,,,,,8.0,8.0,8.0,cue2.png,Hard,A,,,,,,,,,,,,,,,,,,,,,,,,,,,27,27,Female,0.0291666666666666,0.5571428571428572,0.4567488083266653,0.0003907949004852817,0.26445923199729354,-0.00027112144883776647,-0.7043234210572001,1.7515685288367784e-05,-0.19069560223613766,,,,,,,0.7142857142857143,0.5,0.6,0.25,2.7777777777777777,3.125,2.3333333333333335,2.7777777777777777,2.25,3.2222222222222223,2.0,1.25,1.5,0.25,,,,,,,,,,,,
8,240625_145622,LEARNING,1.0,9,1.0,679.0,,,,,,,,,,9.0,9.0,9.0,cue1.png,Easy,A,,,,,,,,,,,,,,,,,,,,,,,,,,,27,27,Female,0.8875,0.9,0.4926343785565613,-0.000507739505399802,-0.5734938163566785,0.0013906771258424414,2.3260662157452776,0.0007827184952470543,1.1411175187278795,-0.0011651521379669062,-1.234456303867452,,,,,0.7142857142857143,0.5,0.6,0.25,2.7777777777777777,3.125,2.3333333333333335,2.7777777777777777,2.25,3.2222222222222223,2.0,1.25,1.5,0.25,,,,,,,,,,,,
9,240625_145648,LEARNING,1.0,10,1.0,679.0,,,,,,,,,,10.0,10.0,10.0,cue1.png,Easy,A,,,,,,,,,,,,,,,,,,,,,,,,,,,27,27,Female,1.0,0.9285714285714286,0.5193631923041091,-0.00041661862250810984,-0.4885165232361255,-3.891680658946704e-05,-0.2808842917860212,0.0010115834263845574,1.5394502407861133,-0.0020036495899735988,-2.3598150416089814,,,,,0.7142857142857143,0.5,0.6,0.25,2.7777777777777777,3.125,2.3333333333333335,2.7777777777777777,2.25,3.2222222222222223,2.0,1.25,1.5,0.25,,,,,,,,,,,,
10,240625_145711,LEARNING,1.0,11,3.0,679.0,,,,,,,,,,11.0,11.0,11.0,cue2.png,Hard,A,,,,,,,,,,,,,,,,,,,,,,,,,,,27,27,Female,0.725,0.8,0.3511207642732188,,,0.0004500038655539905,0.6106919561760128,-0.00012311085734666724,-0.43545198864728685,4.735401725582773e-05,0.39286455808598364,,,,,0.7142857142857143,0.5,0.6,0.25,2.7777777777777777,3.125,2.3333333333333335,2.7777777777777777,2.25,3.2222222222222223,2.0,1.25,1.5,0.25,,,,,,,,,,,,
11,240625_145737,LEARNING,1.0,12,1.0,679.0,,,,,,,,,,12.0,12.0,12.0,cue1.png,Easy,A,,,,,,,,,,,,,,,,,,,,,,,,,,,27,27,Female,0.9375,0.9285714285714286,0.5528970615436825,0.0006986107802054373,0.5515214224419541,0.0003899970339510273,0.5012658901066249,-1.4962432103617519e-05,-0.24722281609881416,-2.1157595162767107e-06,0.3264705035645558,1.4729999999999999,-0.282229179700338,1.1839999999999997,-0.4638381924311759,0.7142857142857143,0.5,0.6,0.25,2.7777777777777777,3.125,2.3333333333333335,2.7777777777777777,2.25,3.2222222222222223,2.0,1.25,1.5,0.25,,,,,,,,,,,,
12,240625_145804,LEARNING,1.0,13,1.0,679.0,,,,,,,,,,13.0,13.0,13.0,cue1.png,Easy,A,,,,,,,,,,,,,,,,,,,,,,,,,,,27,27,Female,1.0,1.0,0.6222464356604698,0.0015904193148244868,1.3832020739981008,,,-6.387002899754584e-05,-0.33234505873886594,-7.706715385454163e-05,0.22587722647991157,,,,,0.7142857142857143,0.5,0.6,0.25,2.7777777777777777,3.125,2.3333333333333335,2.7777777777777777,2.25,3.2222222222222223,2.0,1.25,1.5,0.25,,,,,,,,,,,,
13,240625_145832,LEARNING,1.0,14,1.0,679.0,,,,,,,,,,14.0,14.0,14.0,cue1.png,Easy,A,,,,,,,,,,,,,,,,,,,,,,,,,,,27,27,Female,0.8875,0.9,0.6818652285562296,-0.000555043282984476,-0.6176082591271709,0.0008047471403141646,1.2575876509598873,0.0005253027153797863,0.6930928791046637,-0.000198978833293608,0.062257917487184136,,,,,0.7142857142857143,0.5,0.6,0.25,2.7777777777777777,3.125,2.3333333333333335,2.7777777777777777,2.25,3.2222222222222223,2.0,1.25,1.5,0.25,,,,,,,,,,,,
14,240625_145856,LEARNING,1.0,15,3.0,679.0,,,,,,,,,,15.0,15.0,15.0,cue2.png,Hard,A,,,,,,,,,,,,,,,,,,,,,,,,,,,27,27,Female,0.175,0.4142857142857142,0.1729969599517062,-0.00017759353247116284,-0.26560708146327666,0.0007622493601068259,1.1800903930553235,0.0002461936277513982,0.2073116715005617,0.0010549487182728774,1.7451709940541995,,,,,0.7142857142857143,0.5,0.6,0.25,2.7777777777777777,3.125,2.3333333333333335,2.7777777777777777,2.25,3.2222222222222223,2.0,1.25,1.5,0.25,,,,,,,,,,,,
15,240625_145922,LEARNING,1.0,16,1.0,679.0,,,,,,,,,,16.0,16.0,16.0,cue1.png,Easy,A,,,,,,,,,,,,,,,,,,,,,,,,,,,27,27,Female,0.8875,0.9,0.5566220999795145,2.1855596608104377e-05,-0.07960529387575555,-5.336115028018763e-05,-0.30722442114808685,-1.1889463545663396e-05,-0.24187440415817565,4.906410708512476e-05,0.3951596927069854,,,,,0.7142857142857143,0.5,0.6,0.25,2.7777777777777777,3.125,2.3333333333333335,2.7777777777777777,2.25,3.2222222222222223,2.0,1.25,1.5,0.25,,,,,,,,,,,,
16,240625_145948,LEARNING,1.0,17,1.0,679.0,,,,,,,,,,17.0,17.0,17.0,cue1.png,Easy,A,,,,,,,,,,,,,,,,,,,,,,,,,,,27,27,Female,1.0,1.0,0.5605346642966781,-0.0012282332930745182,-1.2454101745371153,0.0010761273943120419,1.7524658641670745,,,,,,,,,0.7142857142857143,0.5,0.6,0.25,2.7777777777777777,3.125,2.3333333333333335,2.7777777777777777,2.25,3.2222222222222223,2.0,1.25,1.5,0.25,,,,,,,,,,,,
17,240625_150015,LEARNING,1.0,18,3.0,679.0,,,,,,,,,,18.0,18.0,18.0,cue2.png,Hard,A,,,,,,,,,,,,,,,,,,,,,,,,,,,27,27,Female,0.8875,0.9,0.6436728071754,-2.1888859465250127e-05,-0.12040039317876637,0.00017251846316074237,0.1046806377234843,,,,,,,,,0.7142857142857143,0.5,0.6,0.25,2.7777777777777777,3.125,2.3333333333333335,2.7777777777777777,2.25,3.2222222222222223,2.0,1.25,1.5,0.25,,,,,,,,,,,,
18,240625_150042,LEARNING,1.0,19,3.0,679.0,,,,,,,,,,19.0,19.0,19.0,cue2.png,Hard,A,,,,,,,,,,,,,,,,,,,,,,,,,,,27,27,Female,0.8875,0.7571428571428571,0.4651832583476789,-0.0020933467111609863,-2.0521955587243883,0.0005872892608054375,0.8610401303729829,0.000345310292908027,0.3798213296510881,8.718367205927694e-05,0.4463204749131855,2.108,1.1203968307737278,,,0.7142857142857143,0.5,0.6,0.25,2.7777777777777777,3.125,2.3333333333333335,2.7777777777777777,2.25,3.2222222222222223,2.0,1.25,1.5,0.25,,,,,,,,,,,,
19,240625_150106,LEARNING,1.0,20,3.0,679.0,,,,,,,,,,20.0,20.0,20.0,cue2.png,Hard,A,,,,,,,,,,,,,,,,,,,,,,,,,,,27,27,Female,0.15,0.6,0.4482572500294606,-0.00114468601899065,-1.167495859245781,0.0002844467755709363,0.30878864645607934,,,-8.116552894420637e-05,0.22037674200418816,1.3080000000000003,-0.6466910564376926,,,0.7142857142857143,0.5,0.6,0.25,2.7777777777777777,3.125,2.3333333333333335,2.7777777777777777,2.25,3.2222222222222223,2.0,1.25,1.5,0.25,,,,,,,,,,,,
20,240625_150131,LEARNING,1.0,21,1.0,679.0,,,,,,,,,,21.0,21.0,21.0,cue1.png,Easy,A,,,,,,,,,,,,,,,,,,,,,,,,,,,27,27,Female,1.0,1.0,0.5326920571470899,0.0020568299337409765,1.8181661636822968,0.00018294316979894885,0.12369071719067014,-0.001722536409572861,-3.219205405045445,1.2923712414905034e-05,0.34665518165543063,1.572,-0.06355205365792427,1.4979999999999998,0.11910691795637252,0.7142857142857143,0.5,0.6,0.25,2.7777777777777777,3.125,2.3333333333333335,2.7777777777777777,2.25,3.2222222222222223,2.0,1.25,1.5,0.25,,,,,,,,,,,,
21,240625_150156,LEARNING,1.0,22,3.0,679.0,,,,,,,,,,22.0,22.0,22.0,cue2.png,Hard,A,,,,,,,,,,,,,,,,,,,,,,,,,,,27,27,Female,0.0291666666666666,0.7,0.4822266214261098,0.0003288105327972548,0.20665399992795153,,,4.09333005542134e-05,-0.1499379274512995,5.15144197747717e-05,0.3984482904110022,1.762,0.35613131955478805,1.785,0.6519261749029536,0.7142857142857143,0.5,0.6,0.25,2.7777777777777777,3.125,2.3333333333333335,2.7777777777777777,2.25,3.2222222222222223,2.0,1.25,1.5,0.25,,,,,,,,,,,,
22,240625_150222,LEARNING,1.0,23,3.0,679.0,,,,,,,,,,23.0,23.0,23.0,cue2.png,Hard,A,,,,,,,,,,,,,,,,,,,,,,,,,,,27,27,Female,0.9375,0.7857142857142857,0.3641100545540791,0.000840335050845133,0.683690300818176,,,4.818724881435832e-05,-0.1373126425648304,1.1239968648990139e-05,0.344395406441379,2.356,1.6681940758092677,2.121,1.2757145732794386,0.7142857142857143,0.5,0.6,0.25,2.7777777777777777,3.125,2.3333333333333335,2.7777777777777777,2.25,3.2222222222222223,2.0,1.25,1.5,0.25,,,,,,,,,,,,
23,240625_150249,LEARNING,1.0,24,3.0,679.0,,,,,,,,,,24.0,24.0,24.0,cue2.png,Hard,A,,,,,,,,,,,,,,,,,,,,,,,,,,,27,27,Female,0.7999999999999999,0.7571428571428571,0.5129932333171988,-4.3648397009371856e-05,-0.14069285020261174,0.0009936299056191276,1.6020267323695605,-0.00015120585767606273,-0.48435051539759694,-7.545264831068307e-05,0.22804407614244204,2.073,1.0430867357082279,1.314,-0.22249149067836865,0.7142857142857143,0.5,0.6,0.25,2.7777777777777777,3.125,2.3333333333333335,2.7777777777777777,2.25,3.2222222222222223,2.0,1.25,1.5,0.25,,,,,,,,,,,,
24,240625_150315,LEARNING,1.0,25,1.0,679.0,,,,,,,,,,25.0,25.0,25.0,cue1.png,Easy,A,,,,,,,,,,,,,,,,,,,,,,,,,,,27,27,Female,0.5625,0.5857142857142857,0.4304840817878192,,,0.0004610437345405529,0.630823821179552,0.0005435770315186453,0.7248987921170466,-0.0016841162561869764,-1.9309650453258849,1.417,-0.4059253318051371,1.505,0.13210250958921615,0.7142857142857143,0.5,0.6,0.25,2.7777777777777777,3.125,2.3333333333333335,2.7777777777777777,2.25,3.2222222222222223,2.0,1.25,1.5,0.25,,,,,,,,,,,,
25,240625_150341,LEARNING,1.0,26,1.0,679.0,,,,,,,,,,26.0,26.0,26.0,cue1.png,Easy,A,,,,,,,,,,,,,,,,,,,,,,,,,,,27,27,Female,0.8875,0.7571428571428571,0.4278040166245773,,,,,-1.5061501230990114e-05,-0.24739524301884128,-2.34661703993771e-05,0.2978158292013031,1.7530000000000001,0.3362515808236598,1.428,-0.010848998372061533,0.7142857142857143,0.5,0.6,0.25,2.7777777777777777,3.125,2.3333333333333335,2.7777777777777777,2.25,3.2222222222222223,2.0,1.25,1.5,0.25,,,,,,,,,,,,
26,240625_150407,LEARNING,1.0,27,3.0,679.0,,,,,,,,,,27.0,27.0,27.0,cue2.png,Hard,A,,,,,,,,,,,,,,,,,,,,,,,,,,,27,27,Female,0.15,0.4571428571428571,0.5012284833355807,0.0031243486530764635,2.8137101953668258,,,0.0014576207012970714,2.315765078416666,-0.0022991911499644414,-2.756465354744104,2.074,1.0452955955672418,1.8290000000000002,0.7336127508808271,0.7142857142857143,0.5,0.6,0.25,2.7777777777777777,3.125,2.3333333333333335,2.7777777777777777,2.25,3.2222222222222223,2.0,1.25,1.5,0.25,,,,,,,,,,,,
27,240625_150432,LEARNING,1.0,28,1.0,679.0,,,,,,,,,,28.0,28.0,28.0,cue1.png,Easy,A,,,,,,,,,,,,,,,,,,,,,,,,,,,27,27,Female,0.0291666666666666,0.4857142857142856,0.3329615090889009,,,-0.0001287464338575687,-0.44469401920949647,,,-4.736910110726775e-06,0.32295262200469954,1.33,-0.598096139539379,1.106,-0.6086462134828592,0.7142857142857143,0.5,0.6,0.25,2.7777777777777777,3.125,2.3333333333333335,2.7777777777777777,2.25,3.2222222222222223,2.0,1.25,1.5,0.25,,,,,,,,,,,,
28,240625_150457,LEARNING,1.0,29,1.0,679.0,,,,,,,,,,29.0,29.0,29.0,cue1.png,Easy,A,,,,,,,,,,,,,,,,,,,,,,,,,,,27,27,Female,0.15,0.4571428571428571,0.3742029499844648,-0.00011277728466921582,-0.20516090146974816,,,,,,,1.6079999999999999,0.015966901266589253,1.8930000000000002,0.8524295886668243,0.7142857142857143,0.5,0.6,0.25,2.7777777777777777,3.125,2.3333333333333335,2.7777777777777777,2.25,3.2222222222222223,2.0,1.25,1.5,0.25,,,,,,,,,,,,
29,240625_150522,LEARNING,1.0,30,3.0,679.0,,,,,,,,,,30.0,30.0,30.0,cue2.png,Hard,A,,,,,,,,,,,,,,,,,,,,,,,,,,,27,27,Female,0.0291666666666666,0.7,0.4925721142873434,-0.0005074477508855884,-0.5732217326357268,0.0002935826607390526,0.3254484824664723,,,,,1.105,-1.0950896078175913,,,0.7142857142857143,0.5,0.6,0.25,2.7777777777777777,3.125,2.3333333333333335,2.7777777777777777,2.25,3.2222222222222223,2.0,1.25,1.5,0.25,,,,,,,,,,,,
30,240625_150548,LEARNING,1.0,31,3.0,679.0,,,,,,,,,,31.0,31.0,31.0,cue2.png,Hard,A,,,,,,,,,,,,,,,,,,,,,,,,,,,27,27,Female,0.6875,0.7571428571428571,0.4405719417069728,,,,,-1.1768757857975702e-05,-0.2416643194374385,5.2553714571461786e-05,0.39984314197285903,1.4009999999999998,-0.44126708954936605,,,0.7142857142857143,0.5,0.6,0.25,2.7777777777777777,3.125,2.3333333333333335,2.7777777777777777,2.25,3.2222222222222223,2.0,1.25,1.5,0.25,,,,,,,,,,,,
31,240625_150614,LEARNING,1.0,32,1.0,679.0,,,,,,,,,,32.0,32.0,32.0,cue1.png,Easy,A,,,,,,,,,,,,,,,,,,,,,,,,,,,27,27,Female,0.725,0.7285714285714286,0.5261584846302867,-0.0006464588161595574,-0.7028603364981069,-0.00011455933195515539,-0.41882298571820387,,,3.515235252201602e-05,0.3764885393034268,1.166,-0.9603491564177207,1.2359999999999998,-0.3672995117300532,0.7142857142857143,0.5,0.6,0.25,2.7777777777777777,3.125,2.3333333333333335,2.7777777777777777,2.25,3.2222222222222223,2.0,1.25,1.5,0.25,,,,,,,,,,,,
32,240625_150642,LEARNING,1.0,33,1.0,679.0,,,,,,,,,,33.0,33.0,33.0,cue1.png,Easy,A,,,,,,,,,,,,,,,,,,,,,,,,,,,27,27,Female,0.5625,0.6571428571428573,0.6010892249760218,-3.51590607596524e-05,-0.13277588548499794,-0.00026102828054634566,-0.6859179217031578,6.443793199842774e-05,-0.10902880355182222,2.4012568914710385e-05,0.36153768550055654,1.968,0.8111564505117288,1.762,0.609226373823611,0.7142857142857143,0.5,0.6,0.25,2.7777777777777777,3.125,2.3333333333333335,2.7777777777777777,2.25,3.2222222222222223,2.0,1.25,1.5,0.25,,,,,,,,,,,,
33,240625_150706,LEARNING,1.0,34,1.0,679.0,,,,,,,,,,34.0,34.0,34.0,cue1.png,Easy,A,,,,,,,,,,,,,,,,,,,,,,,,,,,27,27,Female,0.8875,0.9,0.400819192873314,,,,,,,,,2.587,2.178440703241566,1.693,0.481126970585583,0.7142857142857143,0.5,0.6,0.25,2.7777777777777777,3.125,2.3333333333333335,2.7777777777777777,2.25,3.2222222222222223,2.0,1.25,1.5,0.25,,,,,,,,,,,,
34,240625_150727,LEARNING,1.0,35,3.0,679.0,,,,,,,,,,35.0,35.0,35.0,cue2.png,Hard,A,,,,,,,,,,,,,,,,,,,,,,,,,,,27,27,Female,0.5625,0.7285714285714286,0.1723981846231394,,,0.0003834760000613344,0.4893743926522081,-9.480517050502882e-05,-0.38618676818158065,,,1.893,0.6454919610856582,1.18,-0.4712642447928003,0.7142857142857143,0.5,0.6,0.25,2.7777777777777777,3.125,2.3333333333333335,2.7777777777777777,2.25,3.2222222222222223,2.0,1.25,1.5,0.25,,,,,,,,,,,,
35,240625_150750,LEARNING,1.0,36,3.0,679.0,,,,,,,,,,36.0,36.0,36.0,cue2.png,Hard,A,,,,,,,,,,,,,,,,,,,,,,,,,,,27,27,Female,0.15,0.6,0.3542460428517578,0.00018413802843482256,0.07173566485975857,-0.0014792089689573372,-2.9073436649668816,0.001456884242905571,2.3144832941157207,,,1.013,-1.298304714846905,1.405,-0.053548799451404075,0.7142857142857143,0.5,0.6,0.25,2.7777777777777777,3.125,2.3333333333333335,2.7777777777777777,2.25,3.2222222222222223,2.0,1.25,1.5,0.25,,,,,,,,,,,,
36,240625_150813,LEARNING,1.0,37,1.0,679.0,,,,,,,,,,37.0,37.0,37.0,cue1.png,Easy,A,,,,,,,,,,,,,,,,,,,,,,,,,,,27,27,Female,0.725,0.7285714285714286,0.2646450307936622,,,0.000594339422645849,0.8738965244657956,,,-6.585699774748792e-05,0.2409225281636891,2.0949999999999998,1.0916816526065414,1.382,-0.09624860053074703,0.7142857142857143,0.5,0.6,0.25,2.7777777777777777,3.125,2.3333333333333335,2.7777777777777777,2.25,3.2222222222222223,2.0,1.25,1.5,0.25,,,,,,,,,,,,
37,240625_150838,LEARNING,1.0,38,3.0,679.0,,,,,,,,,,38.0,38.0,38.0,cue2.png,Hard,A,,,,,,,,,,,,,,,,,,,,,,,,,,,27,27,Female,0.725,0.6571428571428573,0.4096716249866101,-0.00048816756194202966,-0.5552414605478911,-0.0004923670462995168,-1.1077780731141034,1.0834765649149047e-05,-0.20232354755967627,2.78955420501166e-05,0.3667490761087061,1.4050000000000002,-0.432431650113308,1.266,-0.31160411901786655,0.7142857142857143,0.5,0.6,0.25,2.7777777777777777,3.125,2.3333333333333335,2.7777777777777777,2.25,3.2222222222222223,2.0,1.25,1.5,0.25,,,,,,,,,,,,
38,240625_150903,LEARNING,1.0,39,3.0,679.0,,,,,,,,,,39.0,39.0,39.0,cue2.png,Hard,A,,,,,,,,,,,,,,,,,,,,,,,,,,,27,27,Female,0.175,0.6285714285714286,0.3908165769400791,-0.0002640019133506224,-0.34618960082707545,0.0005478824751376007,0.7891794868948828,4.043568843395146e-06,-0.2141434270677511,-4.7572071469547794e-05,0.2654629742993267,1.388,-0.46998226771655144,1.1920000000000002,-0.4489860877079255,0.7142857142857143,0.5,0.6,0.25,2.7777777777777777,3.125,2.3333333333333335,2.7777777777777777,2.25,3.2222222222222223,2.0,1.25,1.5,0.25,,,,,,,,,,,,
39,240625_150927,LEARNING,1.0,40,3.0,679.0,,,,,,,,,,40.0,40.0,40.0,cue2.png,Hard,A,,,,,,,,,,,,,,,,,,,,,,,,,,,27,27,Female,0.8875,0.9,0.4188544285550181,0.0002981825132051877,0.17809099531274467,6.1775154382172e-05,-0.09726644562407342,-4.547408189246437e-05,-0.30032745058550553,7.75088527344911e-06,0.33971266059167254,2.2479999999999998,1.4296372110357256,2.3129999999999997,1.6321650866374293,0.7142857142857143,0.5,0.6,0.25,2.7777777777777777,3.125,2.3333333333333335,2.7777777777777777,2.25,3.2222222222222223,2.0,1.25,1.5,0.25,,,,,,,,,,,,
40,240625_150947,LEARNING,1.0,41,1.0,679.0,,,,,,,,,,41.0,41.0,41.0,cue1.png,Easy,A,,,,,,,,,,,,,,,,,,,,,,,,,,,27,27,Female,0.15,0.4571428571428571,0.0,6.76566040610227e-05,-0.03689230084901516,,,,,,,1.4979999999999998,-0.22700768322498133,2.0189999999999997,1.086350238058005,0.7142857142857143,0.5,0.6,0.25,2.7777777777777777,3.125,2.3333333333333335,2.7777777777777777,2.25,3.2222222222222223,2.0,1.25,1.5,0.25,,,,,,,,,,,,
41,240625_151009,LEARNING,1.0,42,3.0,679.0,,,,,,,,,,42.0,42.0,42.0,cue2.png,Hard,A,,,,,,,,,,,,,,,,,,,,,,,,,,,27,27,Female,0.175,0.4857142857142856,0.0226325000085952,0.0006731689521580469,0.5277949438248015,-0.00022423279486229967,-0.6188191407817067,1.8629137089019865e-05,-0.18875767192750548,5.4019592554096704e-05,0.40181051658118155,,,2.6740000000000004,2.3023663122740707,0.7142857142857143,0.5,0.6,0.25,2.7777777777777777,3.125,2.3333333333333335,2.7777777777777777,2.25,3.2222222222222223,2.0,1.25,1.5,0.25,,,,,,,,,,,,
42,240625_151030,LEARNING,1.0,43,3.0,679.0,,,,,,,,,,43.0,43.0,43.0,cue2.png,Hard,A,,,,,,,,,,,,,,,,,,,,,,,,,,,27,27,Female,0.725,0.8,0.2256417499821899,0.0002560489349058906,0.13879816451771315,5.166781971177679e-05,-0.11569777822210157,1.634987349015708e-05,-0.19272466358984008,0.00015420218615073457,0.5362669264411905,1.657,0.12420103435828912,2.328,1.6600127829935227,0.7142857142857143,0.5,0.6,0.25,2.7777777777777777,3.125,2.3333333333333335,2.7777777777777777,2.25,3.2222222222222223,2.0,1.25,1.5,0.25,,,,,,,,,,,,
43,240625_151055,LEARNING,1.0,44,1.0,679.0,,,,,,,,,,44.0,44.0,44.0,cue1.png,Easy,A,,,,,,,,,,,,,,,,,,,,,,,,,,,27,27,Female,0.9375,0.8571428571428572,0.3933781416659864,0.00018098101413178795,0.06879150407793619,0.0005685700435940884,0.8269045120672305,0.00021859554687056687,0.15927801852364468,9.21919602743862e-07,0.330547413674257,1.229,-0.8211909852998209,1.182,-0.46755121861198795,0.7142857142857143,0.5,0.6,0.25,2.7777777777777777,3.125,2.3333333333333335,2.7777777777777777,2.25,3.2222222222222223,2.0,1.25,1.5,0.25,,,,,,,,,,,,
44,240625_151122,LEARNING,1.0,45,1.0,679.0,,,,,,,,,,45.0,45.0,45.0,cue1.png,Easy,A,,,,,,,,,,,,,,,,,,,,,,,,,,,27,27,Female,0.8875,0.6857142857142857,0.4329583818008276,0.00042073121550100824,0.29237716842756645,-0.0004918036096041717,-1.10675061241665,-0.0008279247262181436,-1.6621599230459125,,,1.678,0.1705870913975887,0.16199999999999992,-2.361194570826317,0.7142857142857143,0.5,0.6,0.25,2.7777777777777777,3.125,2.3333333333333335,2.7777777777777777,2.25,3.2222222222222223,2.0,1.25,1.5,0.25,,,,,,,,,,,,
45,240625_151147,LEARNING,1.0,46,1.0,679.0,,,,,,,,,,46.0,46.0,46.0,cue1.png,Easy,A,,,,,,,,,,,,,,,,,,,,,,,,,,,27,27,Female,0.0291666666666666,0.6285714285714286,0.4719861384767752,0.0016440838858544056,1.433248450173127,-0.0001019795705565563,-0.395883034296535,8.734617674292962e-05,-0.0691576732685581,-0.00016964045098488744,0.10163335602108281,0.627,-2.1509246204264154,1.025,-0.7590237738057621,0.7142857142857143,0.5,0.6,0.25,2.7777777777777777,3.125,2.3333333333333335,2.7777777777777777,2.25,3.2222222222222223,2.0,1.25,1.5,0.25,,,,,,,,,,,,
46,240625_151212,LEARNING,1.0,47,3.0,679.0,,,,,,,,,,47.0,47.0,47.0,cue2.png,Hard,A,,,,,,,,,,,,,,,,,,,,,,,,,,,27,27,Female,0.15,0.3142857142857143,0.247804269962944,,,,,-0.0007485499594197154,-1.5240104618575603,,,1.364,-0.5229949043328936,0.6099999999999999,-1.5294767063243373,0.7142857142857143,0.5,0.6,0.25,2.7777777777777777,3.125,2.3333333333333335,2.7777777777777777,2.25,3.2222222222222223,2.0,1.25,1.5,0.25,,,,,,,,,,,,
47,240625_151235,LEARNING,1.0,48,3.0,679.0,,,,,,,,,,48.0,48.0,48.0,cue2.png,Hard,A,,,,,,,,,,,,,,,,,,,,,,,,,,,27,27,Female,0.0291666666666666,0.7,0.2985860571165436,0.001204740102106843,1.0235262843268456,-0.0006273537075923265,-1.35393436769813,0.0003605568217461539,0.4063574673802086,-1.1761971267191997e-05,0.31352419269143594,2.342,1.6372700377830682,0.7359999999999998,-1.2955560569331557,0.7142857142857143,0.5,0.6,0.25,2.7777777777777777,3.125,2.3333333333333335,2.7777777777777777,2.25,3.2222222222222223,2.0,1.25,1.5,0.25,,,,,,,,,,,,
48,240625_151300,LEARNING,1.0,49,1.0,679.0,,,,,,,,,,49.0,49.0,49.0,cue1.png,Easy,A,,,,,,,,,,,,,,,,,,,,,,,,,,,27,27,Female,1.0,1.0,0.5161059214567233,-0.0027975406120657603,-2.708911007827511,-0.000511697775047444,-1.1430288194813825,,,-0.00014276003873450694,0.13770991979317962,,,,,0.7142857142857143,0.5,0.6,0.25,2.7777777777777777,3.125,2.3333333333333335,2.7777777777777777,2.25,3.2222222222222223,2.0,1.25,1.5,0.25,,,,,,,,,,,,
49,240625_151327,LEARNING,1.0,50,1.0,679.0,,,,,,,,,,50.0,50.0,50.0,cue1.png,Easy,A,,,,,,,,,,,,,,,,,,,,,,,,,,,27,27,Female,1.0,1.0,0.6025104428076052,-0.00011715330823356285,-0.209241882967392,-0.00015514800038226098,-0.4928388634829218,7.753185553045902e-05,-0.08623921242917555,-0.00013384094149438731,0.14968036047599145,0.784,-1.804133622561174,0.3579999999999999,-1.9973180051067008,0.7142857142857143,0.5,0.6,0.25,2.7777777777777777,3.125,2.3333333333333335,2.7777777777777777,2.25,3.2222222222222223,2.0,1.25,1.5,0.25,,,,,,,,,,,,
0,240625_151454,TrueCHOICE,9.0,1,1.0,679.0,,,,,,,,,,,2.0,1.0,,,A,,,,,,True,cue1.png,Easy,cue2.png,Hard,Left,Easy,Easy,0.0159525000490248,,,,,,,,,,,,,27,27,Female,0.725,0.8,0.5279024642659351,,,,,,,,,,,,,0.7142857142857143,0.5,0.6,0.25,2.7777777777777777,3.125,2.3333333333333335,2.7777777777777777,2.25,3.2222222222222223,2.0,1.25,1.5,0.25,,,8.044975688520448e-06,-0.3808493787999295,,,,,,,,
1,240625_151516,TrueCHOICE,9.0,2,1.0,679.0,,,,,,,,,,,3.0,2.0,,,A,,,,,,True,cue1.png,Easy,cue2.png,Hard,Left,Easy,Easy,0.0166280001867562,,,,,,,,,,,,,27,27,Female,,,,,,,,,,,,,,,,0.7142857142857143,0.5,0.6,0.25,2.7777777777777777,3.125,2.3333333333333335,2.7777777777777777,2.25,3.2222222222222223,2.0,1.25,1.5,0.25,-4.514018312758248e-05,-0.04301661248143523,,,1.456,0.20217462973594968,,,,,,
2,240625_151539,TrueCHOICE,9.0,3,1.0,679.0,,,,,,,,,,,4.0,3.0,,,A,,,,,,True,cue2.png,Hard,cue1.png,Easy,Right,Easy,Easy,0.017028999980539,,,,,,,,,,,,,27,27,Female,0.725,0.8,0.4463876071884962,,,,,,,,,,,,,0.7142857142857143,0.5,0.6,0.25,2.7777777777777777,3.125,2.3333333333333335,2.7777777777777777,2.25,3.2222222222222223,2.0,1.25,1.5,0.25,0.0005603439474677003,1.0168318165067156,-7.30675022640858e-05,-0.6651186288022206,1.4509999999999998,0.17920023999322762,,,,,,
3,240625_151602,TrueCHOICE,9.0,4,1.0,679.0,,,,,,,,,,,5.0,4.0,,,A,,,,,,True,cue1.png,Easy,cue2.png,Hard,Left,Easy,Easy,0.0152543999720364,,,,,,,,,,,,,27,27,Female,0.175,0.4857142857142856,0.293090709104118,,,,,,,,,,,,,0.7142857142857143,0.5,0.6,0.25,2.7777777777777777,3.125,2.3333333333333335,2.7777777777777777,2.25,3.2222222222222223,2.0,1.25,1.5,0.25,0.0006445038614825652,1.1641465819073193,-1.629750503650152e-05,-0.46616077494468117,,,,,,,,
4,240625_151625,TrueCHOICE,9.0,5,1.0,679.0,,,,,,,,,,,6.0,5.0,,,A,,,,,,True,cue2.png,Hard,cue1.png,Easy,Right,Easy,Easy,0.0165301000233739,,,,,,,,,,,,,27,27,Female,0.5625,0.5857142857142857,0.3341489181303503,,,,,,,,,,,,,0.7142857142857143,0.5,0.6,0.25,2.7777777777777777,3.125,2.3333333333333335,2.7777777777777777,2.25,3.2222222222222223,2.0,1.25,1.5,0.25,-0.00040149407272064425,-0.6667837617173792,,,1.571,0.7305855938185449,,,,,,
5,240625_151648,TrueCHOICE,9.0,6,1.0,679.0,,,,,,,,,,,7.0,6.0,,,A,,,,,,True,cue2.png,Hard,cue1.png,Easy,Right,Easy,Easy,0.0165593000128865,,,,,,,,,,,,,27,27,Female,0.8875,0.8285714285714286,0.3822584769043785,,,,,,,,,,,,,0.7142857142857143,0.5,0.6,0.25,2.7777777777777777,3.125,2.3333333333333335,2.7777777777777777,2.25,3.2222222222222223,2.0,1.25,1.5,0.25,,,,,1.5899999999999999,0.8178882748408863,,,,,,
6,240625_151710,TrueCHOICE,9.0,7,3.0,679.0,,,,,,,,,,,8.0,7.0,,,A,,,,,,True,cue1.png,Easy,cue2.png,Hard,Right,Hard,Hard,0.0169087001122534,,,,,,,,,,,,,27,27,Female,,,,,,,,,,,,,,,,0.7142857142857143,0.5,0.6,0.25,2.7777777777777777,3.125,2.3333333333333335,2.7777777777777777,2.25,3.2222222222222223,2.0,1.25,1.5,0.25,,,,,,,,,,,,
7,240625_151730,TrueCHOICE,9.0,8,1.0,679.0,,,,,,,,,,,9.0,8.0,,,A,,,,,,True,cue2.png,Hard,cue1.png,Easy,Right,Easy,Easy,0.0156505999621003,,,,,,,,,,,,,27,27,Female,0.0291666666666666,0.4857142857142856,0.0590839181942018,,,,,,,,,,,,,0.7142857142857143,0.5,0.6,0.25,2.7777777777777777,3.125,2.3333333333333335,2.7777777777777777,2.25,3.2222222222222223,2.0,1.25,1.5,0.25,,,0.0006849286821535936,1.9913777856571353,,,,,,,,
8,240625_151749,TrueCHOICE,9.0,9,3.0,679.0,,,,,,,,,,,10.0,9.0,,,A,,,,,,True,cue1.png,Easy,cue2.png,Hard,Right,Hard,Hard,0.0166002998594194,,,,,,,,,,,,,27,27,Female,0.725,0.8,0.1784936428635514,,,,,,,,,,,,,0.7142857142857143,0.5,0.6,0.25,2.7777777777777777,3.125,2.3333333333333335,2.7777777777777777,2.25,3.2222222222222223,2.0,1.25,1.5,0.25,,,,,,,,,,,,
9,240625_151810,TrueCHOICE,9.0,10,1.0,679.0,,,,,,,,,,,11.0,10.0,,,A,,,,,,True,cue2.png,Hard,cue1.png,Easy,Right,Easy,Easy,0.0165568999946117,,,,,,,,,,,,,27,27,Female,0.8875,0.9,0.3743176428335054,,,,,,,,,,,,,0.7142857142857143,0.5,0.6,0.25,2.7777777777777777,3.125,2.3333333333333335,2.7777777777777777,2.25,3.2222222222222223,2.0,1.25,1.5,0.25,-0.0008610389919402059,-1.4711780242152208,-2.0032058170596067e-05,-0.479249003110304,0.992,-1.9298487383886085,,,,,,
0,240625_151957,FalseCHOICE,9.0,1,2.0,679.0,,,,,,,,,,,2.0,1.0,,,A,,,,,,False,cue1.png,Easy,cue2.png,Hard,Left,Easy,Mid,0.0161540999542921,,,,,,,,,,,,,27,27,Female,0.8875,0.8285714285714286,0.2915510077280207,,,,,,,,,,,,,0.7142857142857143,0.5,0.6,0.25,2.7777777777777777,3.125,2.3333333333333335,2.7777777777777777,2.25,3.2222222222222223,2.0,1.25,1.5,0.25,,,8.044975688520448e-06,-0.3808493787999295,,,,,,,,
1,240625_152021,FalseCHOICE,9.0,2,2.0,679.0,,,,,,,,,,,3.0,2.0,,,A,,,,,,False,cue2.png,Hard,cue1.png,Easy,Right,Easy,Mid,0.0154378998558968,,,,,,,,,,,,,27,27,Female,,,,,,,,,,,,,,,,0.7142857142857143,0.5,0.6,0.25,2.7777777777777777,3.125,2.3333333333333335,2.7777777777777777,2.25,3.2222222222222223,2.0,1.25,1.5,0.25,-4.514018312758248e-05,-0.04301661248143523,,,1.456,0.20217462973594968,,,,,,
2,240625_152044,FalseCHOICE,9.0,3,2.0,679.0,,,,,,,,,,,4.0,3.0,,,A,,,,,,False,cue2.png,Hard,cue1.png,Easy,Left,Hard,Mid,0.0151526001282036,,,,,,,,,,,,,27,27,Female,,,,,,,,,,,,,,,,0.7142857142857143,0.5,0.6,0.25,2.7777777777777777,3.125,2.3333333333333335,2.7777777777777777,2.25,3.2222222222222223,2.0,1.25,1.5,0.25,0.0005603439474677003,1.0168318165067156,-7.30675022640858e-05,-0.6651186288022206,1.4509999999999998,0.17920023999322762,,,,,,
3,240625_152105,FalseCHOICE,9.0,4,2.0,679.0,,,,,,,,,,,5.0,4.0,,,A,,,,,,False,cue2.png,Hard,cue1.png,Easy,Right,Easy,Mid,0.0164063000120222,,,,,,,,,,,,,27,27,Female,0.725,0.8,0.4275408000020044,,,,,,,,,,,,,0.7142857142857143,0.5,0.6,0.25,2.7777777777777777,3.125,2.3333333333333335,2.7777777777777777,2.25,3.2222222222222223,2.0,1.25,1.5,0.25,0.0006445038614825652,1.1641465819073193,-1.629750503650152e-05,-0.46616077494468117,,,,,,,,
4,240625_152129,FalseCHOICE,9.0,5,2.0,679.0,,,,,,,,,,,6.0,5.0,,,A,,,,,,False,cue1.png,Easy,cue2.png,Hard,Left,Easy,Mid,0.0159952999092638,,,,,,,,,,,,,27,27,Female,,,,,,,,,,,,,,,,0.7142857142857143,0.5,0.6,0.25,2.7777777777777777,3.125,2.3333333333333335,2.7777777777777777,2.25,3.2222222222222223,2.0,1.25,1.5,0.25,-0.00040149407272064425,-0.6667837617173792,,,1.571,0.7305855938185449,,,,,,
5,240625_152146,FalseCHOICE,9.0,6,2.0,679.0,,,,,,,,,,,7.0,6.0,,,A,,,,,,False,cue2.png,Hard,cue1.png,Easy,Right,Easy,Mid,0.0165075999684631,,,,,,,,,,,,,27,27,Female,0.725,0.8,0.0415385500195303,,,,,,,,,,,,,0.7142857142857143,0.5,0.6,0.25,2.7777777777777777,3.125,2.3333333333333335,2.7777777777777777,2.25,3.2222222222222223,2.0,1.25,1.5,0.25,,,,,1.5899999999999999,0.8178882748408863,,,,,,
6,240625_152211,FalseCHOICE,9.0,7,2.0,679.0,,,,,,,,,,,9.0,7.0,,,A,,,,,,False,cue2.png,Hard,cue1.png,Easy,Right,Easy,Mid,0.0166019999887794,,,,,,,,,,,,,27,27,Female,0.725,0.7285714285714286,0.3787576692501226,,,,,,,,,,,,,0.7142857142857143,0.5,0.6,0.25,2.7777777777777777,3.125,2.3333333333333335,2.7777777777777777,2.25,3.2222222222222223,2.0,1.25,1.5,0.25,,,,,,,,,,,,
7,240625_152232,FalseCHOICE,9.0,8,2.0,679.0,,,,,,,,,,,10.0,8.0,,,A,,,,,,False,cue1.png,Easy,cue2.png,Hard,Left,Easy,Mid,0.0158021000679582,,,,,,,,,,,,,27,27,Female,,,,,,,,,,,,,,,,0.7142857142857143,0.5,0.6,0.25,2.7777777777777777,3.125,2.3333333333333335,2.7777777777777777,2.25,3.2222222222222223,2.0,1.25,1.5,0.25,,,0.0006849286821535936,1.9913777856571353,,,,,,,,
8,240625_152253,FalseCHOICE,9.0,9,2.0,679.0,,,,,,,,,,,11.0,9.0,,,A,,,,,,False,cue1.png,Easy,cue2.png,Hard,Left,Easy,Mid,0.016184999840334,,,,,,,,,,,,,27,27,Female,0.8875,0.9,0.3154607142454811,,,,,,,,,,,,,0.7142857142857143,0.5,0.6,0.25,2.7777777777777777,3.125,2.3333333333333335,2.7777777777777777,2.25,3.2222222222222223,2.0,1.25,1.5,0.25,,,,,,,,,,,,
9,240625_152312,FalseCHOICE,9.0,10,2.0,679.0,,,,,,,,,,,12.0,10.0,,,A,,,,,,False,cue2.png,Hard,cue1.png,Easy,Right,Easy,Mid,0.016509500099346,,,,,,,,,,,,,27,27,Female,,,,,,,,,,,,,,,,0.7142857142857143,0.5,0.6,0.25,2.7777777777777777,3.125,2.3333333333333335,2.7777777777777777,2.25,3.2222222222222223,2.0,1.25,1.5,0.25,-0.0008610389919402059,-1.4711780242152208,-2.0032058170596067e-05,-0.479249003110304,0.992,-1.9298487383886085,,,,,,
0,240625_145204,OFFLINERATING,9.0,1,1.0,,,,,,,,,,,,,,,,,T0,cue1.png,Easy,0.0,1.1185108998324722,,,,,,,,,,,,,,,,,,,,,,27,27,Female,,,,,,,,,,,,,,,,0.7142857142857143,0.5,0.6,0.25,2.7777777777777777,3.125,2.3333333333333335,2.7777777777777777,2.25,3.2222222222222223,2.0,1.25,1.5,0.25,,,,,,,,,,,1.4069999999999998,0.5188996737276261
1,240625_145213,OFFLINERATING,9.0,2,3.0,,,,,,,,,,,,,,,,,T0,cue2.png,Hard,0.0,2.236021399963647,,,,,,,,,,,,,,,,,,,,,,27,27,Female,,,,,,,,,,,,,,,,0.7142857142857143,0.5,0.6,0.25,2.7777777777777777,3.125,2.3333333333333335,2.7777777777777777,2.25,3.2222222222222223,2.0,1.25,1.5,0.25,,,,,,,,,,,1.455,0.8798733597990217
2,240625_151351,OFFLINERATING,9.0,3,1.0,,,,,,,,,,,,,,,,,T1,cue1.png,Easy,0.0,1.8081859999801964,,,,,,,,,,,,,,,,,,,,,,27,27,Female,,,,,,,,,,,,,,,,0.7142857142857143,0.5,0.6,0.25,2.7777777777777777,3.125,2.3333333333333335,2.7777777777777777,2.25,3.2222222222222223,2.0,1.25,1.5,0.25,,,,,,,0.0004200882319954722,0.9403156666731625,,,1.1520000000000001,-1.3987730335266495
3,240625_151359,OFFLINERATING,9.0,4,3.0,,,,,,,,,,,,,,,,,T1,cue2.png,Hard,0.0,2.226913799997419,,,,,,,,,,,,,,,,,,,,,,27,27,Female,,,,,,,,,,,,,,,,0.7142857142857143,0.5,0.6,0.25,2.7777777777777777,3.125,2.3333333333333335,2.7777777777777777,2.25,3.2222222222222223,2.0,1.25,1.5,0.25,,,,,,,0.0002909771737627338,0.7662103160755663,,,,
4,240625_151835,OFFLINERATING,9.0,5,1.0,,,,,,,,,,,,,,,,,T2,cue1.png,Easy,0.0,1.518689699936658,,,,,,,,,,,,,,,,,,,,,,27,27,Female,,,,,,,,,,,,,,,,0.7142857142857143,0.5,0.6,0.25,2.7777777777777777,3.125,2.3333333333333335,2.7777777777777777,2.25,3.2222222222222223,2.0,1.25,1.5,0.25,,,,,,,-0.0014530458372774453,-1.5855924027904733,-0.00032072794049892075,-1.6250726863770328,,
5,240625_151843,OFFLINERATING,9.0,6,3.0,,,,,,,,,,,,,,,,,T2,cue2.png,Hard,0.0,1.6354906000196934,,,,,,,,,,,,,,,,,,,,,,27,27,Female,,,,,,,,,,,,,,,,0.7142857142857143,0.5,0.6,0.25,2.7777777777777777,3.125,2.3333333333333335,2.7777777777777777,2.25,3.2222222222222223,2.0,1.25,1.5,0.25,,,,,,,-0.0003669008686322632,-0.12093357995825554,7.467936609886717e-05,0.9215801531085611,,
6,240625_153653,OFFLINERATING,9.0,7,1.0,,,,,,,,,,,,,,,,,T3,cue1.png,Easy,2.0,2.0576418000273407,,,,,,,,,,,,,,,,,,,,,,27,27,Female,,,,,,,,,,,,,,,,0.7142857142857143,0.5,0.6,0.25,2.7777777777777777,3.125,2.3333333333333335,2.7777777777777777,2.25,3.2222222222222223,2.0,1.25,1.5,0.25,,,,,,,,,4.244101350925041e-05,0.7139464275987842,,
7,240625_153701,OFFLINERATING,9.0,8,3.0,,,,,,,,,,,,,,,,,T3,cue2.png,Hard,0.0,1.9689551999326795,,,,,,,,,,,,,,,,,,,,,,27,27,Female,,,,,,,,,,,,,,,,0.7142857142857143,0.5,0.6,0.25,2.7777777777777777,3.125,2.3333333333333335,2.7777777777777777,2.25,3.2222222222222223,2.0,1.25,1.5,0.25,,,,,,,,,-7.003335902847335e-05,-0.010453894330312654,,
