,END,Phase,Block,TrialN,NbackLevel,ISI,Letter_Resp,Letter_RT,Letter_Accuracy,Trial_A_measure,Trial_ACC,Trial_RT,TrialCountCali,CaliEnd_A_measure,ISI_calibrated,TrialIndex,TrialNumber_total,TrialNumber_valid,CueLearning,TrialDemandLearning,CueMapping,OfflineRatingTimePoint,CueFigure,TrialDemand,OfflineRating,OfflineRatingRT,PhaseType,CueLeft,CueDemandLeft,CueRight,CueDemandRight,Choice,ChoiceDemand,TaskDemand,ChoiceRT,CueCheck,CueDemandCheck,CorrectAnswer,Answer,AnswerDemand,AnswerRT,AnswerACC,DemandRatingQuesIndex,QuesTLX,DemandLevel,DemandRating,DemandRatingRT,PID,Age,Gender,BAI_bis,BAI_bas_d,BAI_bas_rr,BAI_bas_fs,NFC,BFI_ext,BFI_agr,BFI_con,BFI_neu,BFI_open,UPPS_lps,UPPS_lpm,UPPS_pu,UPPS_ss,Task_A_measure,Task_ACC,Task_RT,Task_RT_z,cue_i_on_zyg_values,cue_i_on_zyg_zvalues,cue_e_on_zyg_values,cue_e_on_zyg_zvalues,cue_i_on_cor_values,cue_i_on_cor_zvalues,cue_e_on_cor_values,cue_e_on_cor_zvalues,cue_i_on_scr_values,cue_i_on_scr_zvalues,cue_e_on_scr_values,cue_e_on_scr_zvalues,cue_e_true_zyg_values,cue_e_true_zyg_zvalues,cue_e_true_cor_values,cue_e_true_cor_zvalues,cue_e_true_scr_values,cue_e_true_scr_zvalues,cue_e_false_zyg_values,cue_e_false_zyg_zvalues,cue_e_false_cor_values,cue_e_false_cor_zvalues,cue_e_false_scr_values,cue_e_false_scr_zvalues,OfflineRating_z,cue_i_off_zyg_values,cue_i_off_zyg_zvalues,cue_i_off_cor_values,cue_i_off_cor_zvalues,cue_i_off_scr_values,cue_i_off_scr_zvalues,DemandRating_z
0,240625_144928,PRACTICE,0.0,1,3.0,679.0,,,,,,,,,,7.0,1.0,1.0,cue2.png,Hard,A,,,,,,,,,,,,,,,,,,,,,,,,,,,27,27,Female,0.7142857142857143,0.5,0.6,0.25,2.7777777777777777,3.125,2.3333333333333335,2.7777777777777777,2.25,3.2222222222222223,2.0,1.25,1.5,0.25,,,,,,,,,,,,,,,,,,,,,,,,,,,,,,,,,,,,
0,240625_145249,LEARNING,1.0,1,1.0,679.0,,,,,,,,,,1.0,1.0,1.0,cue1.png,Easy,A,,,,,,,,,,,,,,,,,,,,,,,,,,,27,27,Female,0.7142857142857143,0.5,0.6,0.25,2.7777777777777777,3.125,2.3333333333333335,2.7777777777777777,2.25,3.2222222222222223,2.0,1.25,1.5,0.25,1.0,0.9285714285714286,0.5566644461359829,0.824956103419945,0.021760746757990453,-0.5975682426211436,0.022496807198107524,-0.5375627565057353,0.0053951496419765614,-0.5391764707225947,0.007175404589010845,-0.18765447943640773,2.6823893727396496e+46,-0.16867458146298628,,,,,,,,,,,,,,,,,,,,,,
1,240625_145316,LEARNING,1.0,2,3.0,679.0,,,,,,,,,,2.0,2.0,2.0,cue2.png,Hard,A,,,,,,,,,,,,,,,,,,,,,,,,,,,27,27,Female,0.7142857142857143,0.5,0.6,0.25,2.7777777777777777,3.125,2.3333333333333335,2.7777777777777777,2.25,3.2222222222222223,2.0,1.25,1.5,0.25,0.8875,0.7571428571428571,0.5438477833134433,0.7370102437767612,0.025428328649751218,-0.3520385491357612,,,,,,,3.494620723127249e+45,-0.1712182555658376,2.8367010783386326e+44,-0.17929451662355894,,,,,,,,,,,,,,,,,,,,
2,240625_145345,LEARNING,1.0,3,1.0,679.0,,,,,,,,,,3.0,3.0,3.0,cue1.png,Easy,A,,,,,,,,,,,,,,,,,,,,,,,,,,,27,27,Female,0.7142857142857143,0.5,0.6,0.25,2.7777777777777777,3.125,2.3333333333333335,2.7777777777777777,2.25,3.2222222222222223,2.0,1.25,1.5,0.25,0.8875,0.6857142857142857,0.6630439636593853,1.5549150831139265,0.02474225513690014,-0.39796838091325776,0.04947366260036999,1.6647130259131826,0.00511952371495483,-0.5582305685252317,0.04112398529712752,2.8977674993686935,,,-1.723008205535132e+45,-0.1809362291215342,,,,,,,,,,,,,,,,,,,,
3,240625_145411,LEARNING,1.0,4,3.0,679.0,,,,,,,,,,4.0,4.0,4.0,cue2.png,Hard,A,,,,,,,,,,,,,,,,,,,,,,,,,,,27,27,Female,0.7142857142857143,0.5,0.6,0.25,2.7777777777777777,3.125,2.3333333333333335,2.7777777777777777,2.25,3.2222222222222223,2.0,1.25,1.5,0.25,0.8875,0.9,0.6016158428475527,1.1334052902869411,0.026528735252926695,-0.27837080184048435,,,0.02348541217848049,0.7114084628883436,0.014299758207482745,0.459843494873821,,,-1.5748826811243103e+45,-0.18081504401524473,,,,,,,,,,,,,,,,,,,,
4,240625_145439,LEARNING,1.0,5,3.0,679.0,,,,,,,,,,5.0,5.0,5.0,cue2.png,Hard,A,,,,,,,,,,,,,,,,,,,,,,,,,,,27,27,Female,0.7142857142857143,0.5,0.6,0.25,2.7777777777777777,3.125,2.3333333333333335,2.7777777777777777,2.25,3.2222222222222223,2.0,1.25,1.5,0.25,0.6875,0.5428571428571429,0.4325357667015244,-0.026794743925320986,,,0.02336789451753232,-0.4664508911924582,0.005536982158313495,-0.5293715490046716,0.005793582234935273,-0.3132416166049912,5.505231142952727e+49,5.8309511941010275,7.024959272831722e+48,5.5677640200543985,,,,,,,,,,,,,,,,,,,,
5,240625_145506,LEARNING,1.0,6,1.0,679.0,,,,,,,,,,6.0,6.0,6.0,cue1.png,Easy,A,,,,,,,,,,,,,,,,,,,,,,,,,,,27,27,Female,0.7142857142857143,0.5,0.6,0.25,2.7777777777777777,3.125,2.3333333333333335,2.7777777777777777,2.25,3.2222222222222223,2.0,1.25,1.5,0.25,0.725,0.5857142857142857,0.4207933000288903,-0.10736964397185385,0.044555279846905604,0.928433054047058,0.023236857251656765,-0.4771482164710717,0.006163112707269512,-0.4860869681746321,0.006420152493353346,-0.2562956823048128,,,,,,,,,,,,,,,,,,,,,,,,
6,240625_145531,LEARNING,1.0,7,3.0,679.0,,,,,,,,,,7.0,7.0,7.0,cue2.png,Hard,A,,,,,,,,,,,,,,,,,,,,,,,,,,,27,27,Female,0.7142857142857143,0.5,0.6,0.25,2.7777777777777777,3.125,2.3333333333333335,2.7777777777777777,2.25,3.2222222222222223,2.0,1.25,1.5,0.25,1.0,0.9285714285714286,0.43723953074704,0.005481721350341182,0.05226381975748558,1.444488454395838,0.03083938097856749,0.1434894983174553,,,0.00568678597148482,-0.32294781143349854,6.090143975195322e+44,-0.17153288354760665,,,,,,,,,,,,,,,,,,,,,,
7,240625_145557,LEARNING,1.0,8,3.0,679.0,,,,,,,,,,8.0,8.0,8.0,cue2.png,Hard,A,,,,,,,,,,,,,,,,,,,,,,,,,,,27,27,Female,0.7142857142857143,0.5,0.6,0.25,2.7777777777777777,3.125,2.3333333333333335,2.7777777777777777,2.25,3.2222222222222223,2.0,1.25,1.5,0.25,0.0291666666666666,0.5571428571428572,0.4567488083266653,0.13935121698381314,0.026173576551887175,-0.3021472326274286,0.030151664536900345,0.08734725185948428,0.007613563630524353,-0.38581688818522747,,,,,,,,,,,,,,,,,,,,,,,,,,
8,240625_145622,LEARNING,1.0,9,1.0,679.0,,,,,,,,,,9.0,9.0,9.0,cue1.png,Easy,A,,,,,,,,,,,,,,,,,,,,,,,,,,,27,27,Female,0.7142857142857143,0.5,0.6,0.25,2.7777777777777777,3.125,2.3333333333333335,2.7777777777777777,2.25,3.2222222222222223,2.0,1.25,1.5,0.25,0.8875,0.9,0.4926343785565613,0.38559217427137493,0.030914146686896474,0.015214660452480556,0.028766782996834623,-0.025708589220865267,0.024552788319600997,0.7851964755215232,0.008443767510926235,-0.07237912020928251,,,,,,,,,,,,,,,,,,,,,,,,
9,240625_145648,LEARNING,1.0,10,1.0,679.0,,,,,,,,,,10.0,10.0,10.0,cue1.png,Easy,A,,,,,,,,,,,,,,,,,,,,,,,,,,,27,27,Female,0.7142857142857143,0.5,0.6,0.25,2.7777777777777777,3.125,2.3333333333333335,2.7777777777777777,2.25,3.2222222222222223,2.0,1.25,1.5,0.25,1.0,0.9285714285714286,0.5193631923041091,0.5690009550763664,0.02599492064989429,-0.31410751876424575,0.03728534175772592,0.669710331201196,0.023849961593311254,0.7366098663961194,0.0032353618863547257,-0.545745866429188,,,,,,,,,,,,,,,,,,,,,,,,
10,240625_145711,LEARNING,1.0,11,3.0,679.0,,,,,,,,,,11.0,11.0,11.0,cue2.png,Hard,A,,,,,,,,,,,,,,,,,,,,,,,,,,,27,27,Female,0.7142857142857143,0.5,0.6,0.25,2.7777777777777777,3.125,2.3333333333333335,2.7777777777777777,2.25,3.2222222222222223,2.0,1.25,1.5,0.25,0.725,0.8,0.3511207642732188,-0.5854512737528323,,,0.02774794177425585,-0.1088824550090601,0.005432496365693021,-0.5365946812153783,0.005238748257135314,-0.36366778800845617,,,,,,,,,,,,,,,,,,,,,,,,
11,240625_145737,LEARNING,1.0,12,1.0,679.0,,,,,,,,,,12.0,12.0,12.0,cue1.png,Easy,A,,,,,,,,,,,,,,,,,,,,,,,,,,,27,27,Female,0.7142857142857143,0.5,0.6,0.25,2.7777777777777777,3.125,2.3333333333333335,2.7777777777777777,2.25,3.2222222222222223,2.0,1.25,1.5,0.25,0.9375,0.9285714285714286,0.5528970615436825,0.7991049219412787,0.03390159780342363,0.2152123642778006,0.027980016337452257,-0.08993687433919317,0.007571800239907065,-0.3887040031166497,0.006772376852604223,-0.2242837172436823,1.7130331333084634e+44,-0.17158060875315326,5.594131708005031e+44,-0.17906892449467293,,,,,,,,,,,,,,,,,,,,
12,240625_145804,LEARNING,1.0,13,1.0,679.0,,,,,,,,,,13.0,13.0,13.0,cue1.png,Easy,A,,,,,,,,,,,,,,,,,,,,,,,,,,,27,27,Female,0.7142857142857143,0.5,0.6,0.25,2.7777777777777777,3.125,2.3333333333333335,2.7777777777777777,2.25,3.2222222222222223,2.0,1.25,1.5,0.25,1.0,1.0,0.6222464356604698,1.274969069017993,0.03839922451221843,0.5163101828985304,,,0.005834875577703572,-0.5087780931960932,0.005765465977261493,-0.315796967007834,,,,,,,,,,,,,,,,,,,,,,,,
13,240625_145832,LEARNING,1.0,14,1.0,679.0,,,,,,,,,,14.0,14.0,14.0,cue1.png,Easy,A,,,,,,,,,,,,,,,,,,,,,,,,,,,27,27,Female,0.7142857142857143,0.5,0.6,0.25,2.7777777777777777,3.125,2.3333333333333335,2.7777777777777777,2.25,3.2222222222222223,2.0,1.25,1.5,0.25,0.8875,0.9,0.6818652285562296,1.6840635474094912,0.02983677527681144,-0.05691097433766613,0.041463085039679236,1.0107635309836098,0.033396763057101535,1.3965829348189445,0.00918564289799524,-0.00495366155822383,,,,,,,,,,,,,,,,,,,,,,,,
14,240625_145856,LEARNING,1.0,15,3.0,679.0,,,,,,,,,,15.0,15.0,15.0,cue2.png,Hard,A,,,,,,,,,,,,,,,,,,,,,,,,,,,27,27,Female,0.7142857142857143,0.5,0.6,0.25,2.7777777777777777,3.125,2.3333333333333335,2.7777777777777777,2.25,3.2222222222222223,2.0,1.25,1.5,0.25,0.175,0.4142857142857142,0.1729969599517062,-1.8077079025548755,0.03632593602990168,0.3775119500046457,0.09074733205132413,5.034119924086223,0.0134902495304758,0.020440059784053922,0.06607629062766661,5.1655616068936085,,,,,,,,,,,,,,,,,,,,,,,,
15,240625_145922,LEARNING,1.0,16,1.0,679.0,,,,,,,,,,16.0,16.0,16.0,cue1.png,Easy,A,,,,,,,,,,,,,,,,,,,,,,,,,,,27,27,Female,0.7142857142857143,0.5,0.6,0.25,2.7777777777777777,3.125,2.3333333333333335,2.7777777777777777,2.25,3.2222222222222223,2.0,1.25,1.5,0.25,0.8875,0.9,0.5566220999795145,0.8246655309686945,0.03090895724143841,0.014867248181867191,0.03113867137437669,0.16792229379241982,0.0059505734467356925,-0.500779866991775,0.009741872755262762,0.045599374565331,,,,,,,,,,,,,,,,,,,,,,,,
16,240625_145948,LEARNING,1.0,17,1.0,679.0,,,,,,,,,,17.0,17.0,17.0,cue1.png,Easy,A,,,,,,,,,,,,,,,,,,,,,,,,,,,27,27,Female,0.7142857142857143,0.5,0.6,0.25,2.7777777777777777,3.125,2.3333333333333335,2.7777777777777777,2.25,3.2222222222222223,2.0,1.25,1.5,0.25,1.0,1.0,0.5605346642966781,0.8515129121510309,0.028201309907380238,-0.1663987302251342,0.029012103645479917,-0.005681654450939452,,,,,,,,,,,,,,,,,,,,,,,,,,,,
17,240625_150015,LEARNING,1.0,18,3.0,679.0,,,,,,,,,,18.0,18.0,18.0,cue2.png,Hard,A,,,,,,,,,,,,,,,,,,,,,,,,,,,27,27,Female,0.7142857142857143,0.5,0.6,0.25,2.7777777777777777,3.125,2.3333333333333335,2.7777777777777777,2.25,3.2222222222222223,2.0,1.25,1.5,0.25,0.8875,0.9,0.6436728071754,1.4219933520162862,0.030242901571487846,-0.02972247041570486,0.02714561468235339,-0.1580538779867118,,,,,,,,,,,,,,,,,,,,,,,,,,,,
18,240625_150042,LEARNING,1.0,19,3.0,679.0,,,,,,,,,,19.0,19.0,19.0,cue2.png,Hard,A,,,,,,,,,,,,,,,,,,,,,,,,,,,27,27,Female,0.7142857142857143,0.5,0.6,0.25,2.7777777777777777,3.125,2.3333333333333335,2.7777777777777777,2.25,3.2222222222222223,2.0,1.25,1.5,0.25,0.8875,0.7571428571428571,0.4651832583476789,0.19722704378726244,0.03426807955111206,0.23974682699288594,0.0335824615185204,0.3674229313393138,0.022188389024510563,0.621744887712126,0.005988342036428828,-0.29554084209301695,7.726024126662426e+44,-0.17151504696103193,,,,,,,,,,,,,,,,,,,,,,
19,240625_150106,LEARNING,1.0,20,3.0,679.0,,,,,,,,,,20.0,20.0,20.0,cue2.png,Hard,A,,,,,,,,,,,,,,,,,,,,,,,,,,,27,27,Female,0.7142857142857143,0.5,0.6,0.25,2.7777777777777777,3.125,2.3333333333333335,2.7777777777777777,2.25,3.2222222222222223,2.0,1.25,1.5,0.25,0.15,0.6,0.4482572500294606,0.08108352246004442,0.02379799465841076,-0.46118278012672775,0.03303073495356466,0.32238232025247415,,,0.005139555349828467,-0.3726829506444879,5.864052610537494e+44,-0.17153534870264622,,,,,,,,,,,,,,,,,,,,,,
20,240625_150131,LEARNING,1.0,21,1.0,679.0,,,,,,,,,,21.0,21.0,21.0,cue1.png,Easy,A,,,,,,,,,,,,,,,,,,,,,,,,,,,27,27,Female,0.7142857142857143,0.5,0.6,0.25,2.7777777777777777,3.125,2.3333333333333335,2.7777777777777777,2.25,3.2222222222222223,2.0,1.25,1.5,0.25,1.0,1.0,0.5326920571470899,0.6604614618334198,0.038968727230017985,0.5544360739807569,0.02509985969725991,-0.3250606174029114,0.004708955548438557,-0.5866132612710909,0.007431792096743714,-0.1643526613647932,2.6350308988733368e+44,-0.17157055588164405,1.5200870654817949e+44,-0.17940223202893885,,,,,,,,,,,,,,,,,,,,
21,240625_150156,LEARNING,1.0,22,3.0,679.0,,,,,,,,,,22.0,22.0,22.0,cue2.png,Hard,A,,,,,,,,,,,,,,,,,,,,,,,,,,,27,27,Female,0.7142857142857143,0.5,0.6,0.25,2.7777777777777777,3.125,2.3333333333333335,2.7777777777777777,2.25,3.2222222222222223,2.0,1.25,1.5,0.25,0.0291666666666666,0.7,0.4822266214261098,0.31417583442779723,0.034286581396558914,0.24098545030806962,,,0.007397443680172427,-0.4007573210958874,0.006321861623765759,-0.26522886310400007,-1.0469434971074784e+44,-0.17161070176581586,3.7543734760091293e+43,-0.17949587861569516,,,,,,,,,,,,,,,,,,,,
22,240625_150222,LEARNING,1.0,23,3.0,679.0,,,,,,,,,,23.0,23.0,23.0,cue2.png,Hard,A,,,,,,,,,,,,,,,,,,,,,,,,,,,27,27,Female,0.7142857142857143,0.5,0.6,0.25,2.7777777777777777,3.125,2.3333333333333335,2.7777777777777777,2.25,3.2222222222222223,2.0,1.25,1.5,0.25,0.9375,0.7857142857142857,0.3641100545540791,-0.49632087251483237,0.03917622017564554,0.5683268829234996,,,0.006879469229441897,-0.436565040457167,0.006360185502452608,-0.2617457914954956,-4.0814846474045644e+44,-0.17164378845367206,-7.533680917213526e+43,-0.17958822894335713,,,,,,,,,,,,,,,,,,,,
23,240625_150249,LEARNING,1.0,24,3.0,679.0,,,,,,,,,,24.0,24.0,24.0,cue2.png,Hard,A,,,,,,,,,,,,,,,,,,,,,,,,,,,27,27,Female,0.7142857142857143,0.5,0.6,0.25,2.7777777777777777,3.125,2.3333333333333335,2.7777777777777777,2.25,3.2222222222222223,2.0,1.25,1.5,0.25,0.7999999999999999,0.7571428571428571,0.5129932333171988,0.5252913306013858,0.038873537450425676,0.5480635053248951,0.031282970310440555,0.17970224544296012,0.018803632219095763,0.3877556984315772,0.0053716202263233565,-0.35159169865365486,-5.716793193322189e+44,-0.17166161880782696,-1.6249044134093853e+44,-0.17965953145668087,,,,,,,,,,,,,,,,,,,,
24,240625_150315,LEARNING,1.0,25,1.0,679.0,,,,,,,,,,25.0,25.0,25.0,cue1.png,Easy,A,,,,,,,,,,,,,,,,,,,,,,,,,,,27,27,Female,0.7142857142857143,0.5,0.6,0.25,2.7777777777777777,3.125,2.3333333333333335,2.7777777777777777,2.25,3.2222222222222223,2.0,1.25,1.5,0.25,0.5625,0.5857142857142857,0.4304840817878192,-0.04087307273455148,,,0.03685690771856524,0.6347347977397106,0.01591604093295612,0.18813570123222462,0.00742317217910963,-0.16513608390467374,-5.611617653743613e+44,-0.17166047204128934,-1.949198465381243e+44,-0.179686062744461,,,,,,,,,,,,,,,,,,,,
25,240625_150341,LEARNING,1.0,26,1.0,679.0,,,,,,,,,,26.0,26.0,26.0,cue1.png,Easy,A,,,,,,,,,,,,,,,,,,,,,,,,,,,27,27,Female,0.7142857142857143,0.5,0.6,0.25,2.7777777777777777,3.125,2.3333333333333335,2.7777777777777777,2.25,3.2222222222222223,2.0,1.25,1.5,0.25,0.8875,0.7571428571428571,0.4278040166245773,-0.05926324480543991,,,,,0.006087426574997789,-0.491319171770976,0.005414717841760796,-0.34767476524639246,-4.143207865408644e+44,-0.17164446144400122,-1.6839855782788847e+44,-0.17966436503095706,,,,,,,,,,,,,,,,,,,,
26,240625_150407,LEARNING,1.0,27,3.0,679.0,,,,,,,,,,27.0,27.0,27.0,cue2.png,Hard,A,,,,,,,,,,,,,,,,,,,,,,,,,,,27,27,Female,0.7142857142857143,0.5,0.6,0.25,2.7777777777777777,3.125,2.3333333333333335,2.7777777777777777,2.25,3.2222222222222223,2.0,1.25,1.5,0.25,0.15,0.4571428571428571,0.5012284833355807,0.4445635261060558,0.10844210099402257,5.205395935024843,,,0.027393990154955975,0.981609556949879,0.010292269920334388,0.0956223055616184,5.519337808006568e+44,-0.17153910725146984,9.996750524648702e+42,-0.17951841547573874,,,,,,,,,,,,,,,,,,,,
27,240625_150432,LEARNING,1.0,28,1.0,679.0,,,,,,,,,,28.0,28.0,28.0,cue1.png,Easy,A,,,,,,,,,,,,,,,,,,,,,,,,,,,27,27,Female,0.7142857142857143,0.5,0.6,0.25,2.7777777777777777,3.125,2.3333333333333335,2.7777777777777777,2.25,3.2222222222222223,2.0,1.25,1.5,0.25,0.0291666666666666,0.4857142857142856,0.3329615090889009,-0.7100571348710808,,,0.022492350187406515,-0.5379266079102986,,,0.006101588577680974,-0.28524841277447727,9.862323993383994e+43,-0.17158853332158963,8.326491933492273e+42,-0.17951978195505217,,,,,,,,,,,,,,,,,,,,
28,240625_150457,LEARNING,1.0,29,1.0,679.0,,,,,,,,,,29.0,29.0,29.0,cue1.png,Easy,A,,,,,,,,,,,,,,,,,,,,,,,,,,,27,27,Female,0.7142857142857143,0.5,0.6,0.25,2.7777777777777777,3.125,2.3333333333333335,2.7777777777777777,2.25,3.2222222222222223,2.0,1.25,1.5,0.25,0.15,0.4571428571428571,0.3742029499844648,-0.42706506254275156,0.01702837704416035,-0.9143811508499982,,,,,,,3.2451743760972423e+44,-0.17156390326901547,8.898711387746723e+43,-0.17945379153184499,,,,,,,,,,,,,,,,,,,,
29,240625_150522,LEARNING,1.0,30,3.0,679.0,,,,,,,,,,30.0,30.0,30.0,cue2.png,Hard,A,,,,,,,,,,,,,,,,,,,,,,,,,,,27,27,Female,0.7142857142857143,0.5,0.6,0.25,2.7777777777777777,3.125,2.3333333333333335,2.7777777777777777,2.25,3.2222222222222223,2.0,1.25,1.5,0.25,0.0291666666666666,0.7,0.4925721142873434,0.385164926963925,0.018656556621840605,-0.8053811490926908,0.03111010604319038,0.16559034160042682,,,,,4.817497276666961e+44,-0.17154675966988672,,,,,,,,,,,,,,,,,,,,,,
30,240625_150548,LEARNING,1.0,31,3.0,679.0,,,,,,,,,,31.0,31.0,31.0,cue2.png,Hard,A,,,,,,,,,,,,,,,,,,,,,,,,,,,27,27,Female,0.7142857142857143,0.5,0.6,0.25,2.7777777777777777,3.125,2.3333333333333335,2.7777777777777777,2.25,3.2222222222222223,2.0,1.25,1.5,0.25,0.6875,0.7571428571428571,0.4405719417069728,0.028348184376914526,,,,,0.003983465886365813,-0.6367665655168347,0.006329869343717219,-0.26450108024465824,4.9648564295208814e+44,-0.17154515296032116,,,,,,,,,,,,,,,,,,,,,,
31,240625_150614,LEARNING,1.0,32,1.0,679.0,,,,,,,,,,32.0,32.0,32.0,cue1.png,Easy,A,,,,,,,,,,,,,,,,,,,,,,,,,,,27,27,Female,0.7142857142857143,0.5,0.6,0.25,2.7777777777777777,3.125,2.3333333333333335,2.7777777777777777,2.25,3.2222222222222223,2.0,1.25,1.5,0.25,0.725,0.7285714285714286,0.5261584846302867,0.6156291478771818,0.017609294455562294,-0.875491092448776,0.024179725508311184,-0.4001764606204092,,,0.006381870235762865,-0.25977497117357273,3.807704287500115e+44,-0.17155776980413015,1.3985715905481574e+44,-0.17941217350648245,,,,,,,,,,,,,,,,,,,,
32,240625_150642,LEARNING,1.0,33,1.0,679.0,,,,,,,,,,33.0,33.0,33.0,cue1.png,Easy,A,,,,,,,,,,,,,,,,,,,,,,,,,,,27,27,Female,0.7142857142857143,0.5,0.6,0.25,2.7777777777777777,3.125,2.3333333333333335,2.7777777777777777,2.25,3.2222222222222223,2.0,1.25,1.5,0.25,0.5625,0.6571428571428573,0.6010892249760218,1.1297917239431503,0.014714606427011665,-1.0692786847538047,0.017992817760901725,-0.9052493053611317,0.005795352417184446,-0.5115103403911888,0.005669897909198893,-0.3244826855716675,1.665386861568603e+44,-0.17158112825750088,8.07398114836809e+43,-0.1794605388511957,,,,,,,,,,,,,,,,,,,,
33,240625_150706,LEARNING,1.0,34,1.0,679.0,,,,,,,,,,34.0,34.0,34.0,cue1.png,Easy,A,,,,,,,,,,,,,,,,,,,,,,,,,,,27,27,Female,0.7142857142857143,0.5,0.6,0.25,2.7777777777777777,3.125,2.3333333333333335,2.7777777777777777,2.25,3.2222222222222223,2.0,1.25,1.5,0.25,0.8875,0.9,0.400819192873314,-0.24442872469550164,,,,,,,,,-7.530426373594865e+43,-0.17160749725959054,7.426908945132069e+42,-0.17952051792584786,,,,,,,,,,,,,,,,,,,,
34,240625_150727,LEARNING,1.0,35,3.0,679.0,,,,,,,,,,35.0,35.0,35.0,cue2.png,Hard,A,,,,,,,,,,,,,,,,,,,,,,,,,,,27,27,Female,0.7142857142857143,0.5,0.6,0.25,2.7777777777777777,3.125,2.3333333333333335,2.7777777777777777,2.25,3.2222222222222223,2.0,1.25,1.5,0.25,0.5625,0.7285714285714286,0.1723981846231394,-1.8118166016548727,,,0.0172721577170091,-0.9640809274444296,0.006734933133596917,-0.4465568613863513,,,-3.023802178488926e+44,-0.1716322561632971,-8.101579098627838e+43,-0.17959287505696583,,,,,,,,,,,,,,,,,,,,
35,240625_150750,LEARNING,1.0,36,3.0,679.0,,,,,,,,,,36.0,36.0,36.0,cue2.png,Hard,A,,,,,,,,,,,,,,,,,,,,,,,,,,,27,27,Female,0.7142857142857143,0.5,0.6,0.25,2.7777777777777777,3.125,2.3333333333333335,2.7777777777777777,2.25,3.2222222222222223,2.0,1.25,1.5,0.25,0.15,0.6,0.3542460428517578,-0.5640061195017058,0.04117088227200007,0.7018613990102598,0.03775532126544528,0.7080774600844496,0.08676705198064975,5.086086008396278,,,-4.3166625007044506e+44,-0.17164635268194825,-1.3324155711969908e+44,-0.17963560223072675,,,,,,,,,,,,,,,,,,,,
36,240625_150813,LEARNING,1.0,37,1.0,679.0,,,,,,,,,,37.0,37.0,37.0,cue1.png,Easy,A,,,,,,,,,,,,,,,,,,,,,,,,,,,27,27,Female,0.7142857142857143,0.5,0.6,0.25,2.7777777777777777,3.125,2.3333333333333335,2.7777777777777777,2.25,3.2222222222222223,2.0,1.25,1.5,0.25,0.725,0.7285714285714286,0.2646450307936622,-1.178833718499672,,,0.02011253551718779,-0.7322045597589196,,,0.005631652497073925,-0.32795862573462764,-4.382156736394814e+44,-0.1716470667890324,-1.5034709005680906e+44,-0.17964959668465605,,,,,,,,,,,,,,,,,,,,
37,240625_150838,LEARNING,1.0,38,3.0,679.0,,,,,,,,,,38.0,38.0,38.0,cue2.png,Hard,A,,,,,,,,,,,,,,,,,,,,,,,,,,,27,27,Female,0.7142857142857143,0.5,0.6,0.25,2.7777777777777777,3.125,2.3333333333333335,2.7777777777777777,2.25,3.2222222222222223,2.0,1.25,1.5,0.25,0.725,0.6571428571428573,0.4096716249866101,-0.18368477262963268,0.01984839542877776,-0.7255923875632857,0.01928819291555877,-0.7995003850474202,0.0057882343590665575,-0.5120024137494851,0.007618351956256665,-0.14739713984084252,-3.121977051065387e+44,-0.1716333265990577,-1.0727973754041998e+44,-0.17961436223257182,,,,,,,,,,,,,,,,,,,,
38,240625_150903,LEARNING,1.0,39,3.0,679.0,,,,,,,,,,39.0,39.0,39.0,cue2.png,Hard,A,,,,,,,,,,,,,,,,,,,,,,,,,,,27,27,Female,0.7142857142857143,0.5,0.6,0.25,2.7777777777777777,3.125,2.3333333333333335,2.7777777777777777,2.25,3.2222222222222223,2.0,1.25,1.5,0.25,0.175,0.6285714285714286,0.3908165769400791,-0.3130650514140231,0.01736485634525777,-0.8918552299296714,0.019573974009717273,-0.7761704315241615,0.0051173260090300095,-0.5583824965535032,0.0049350321729090185,-0.3912710710336103,-5.830772367060236e+43,-0.17160564406601717,-3.969986018584029e+43,-0.1795590734857281,,,,,,,,,,,,,,,,,,,,
39,240625_150927,LEARNING,1.0,40,3.0,679.0,,,,,,,,,,40.0,40.0,40.0,cue2.png,Hard,A,,,,,,,,,,,,,,,,,,,,,,,,,,,27,27,Female,0.7142857142857143,0.5,0.6,0.25,2.7777777777777777,3.125,2.3333333333333335,2.7777777777777777,2.25,3.2222222222222223,2.0,1.25,1.5,0.25,0.8875,0.9,0.4188544285550181,-0.12067386527097927,0.020200902094142624,-0.7019934997802956,0.019793401805886648,-0.7582572791464074,0.006265094893414884,-0.47903691098321466,0.005872775907500629,-0.30604408749423745,2.0715227932750435e+44,-0.17157670001213063,5.19182465858538e+43,-0.1794841184767833,,,,,,,,,,,,,,,,,,,,
40,240625_150947,LEARNING,1.0,41,1.0,679.0,,,,,,,,,,41.0,41.0,41.0,cue1.png,Easy,A,,,,,,,,,,,,,,,,,,,,,,,,,,,27,27,Female,0.7142857142857143,0.5,0.6,0.25,2.7777777777777777,3.125,2.3333333333333335,2.7777777777777777,2.25,3.2222222222222223,2.0,1.25,1.5,0.25,0.15,0.4571428571428571,0.0,-2.9947849575784375,0.027969217892360565,-0.1819363468319244,,,,,,,4.082328286945811e+44,-0.17155477548040954,1.2303644913530056e+44,-0.17942593493975043,,,,,,,,,,,,,,,,,,,,
41,240625_151009,LEARNING,1.0,42,3.0,679.0,,,,,,,,,,42.0,42.0,42.0,cue2.png,Hard,A,,,,,,,,,,,,,,,,,,,,,,,,,,,27,27,Female,0.7142857142857143,0.5,0.6,0.25,2.7777777777777777,3.125,2.3333333333333335,2.7777777777777777,2.25,3.2222222222222223,2.0,1.25,1.5,0.25,0.175,0.4857142857142856,0.0226325000085952,-2.8394844166583892,0.027230105975105744,-0.2314168841043576,0.022870600585080083,-0.5070478535830999,0.006605614752947476,-0.45549667738696575,0.00982768471113705,0.05339840737248097,,,1.5042989272419948e+44,-0.17940352369505672,,,,,,,,,,,,,,,,,,,,
42,240625_151030,LEARNING,1.0,43,3.0,679.0,,,,,,,,,,43.0,43.0,43.0,cue2.png,Hard,A,,,,,,,,,,,,,,,,,,,,,,,,,,,27,27,Female,0.7142857142857143,0.5,0.6,0.25,2.7777777777777777,3.125,2.3333333333333335,2.7777777777777777,2.25,3.2222222222222223,2.0,1.25,1.5,0.25,0.725,0.8,0.2256417499821899,-1.4464678996717841,0.02814295128140816,-0.17030560291946775,0.02573005693987608,-0.27361399381147633,0.009895682611526228,-0.22805336161453763,0.006627101423519157,-0.2374870969588242,3.304490216624151e+44,-0.17156325652718424,1.2230035696199148e+44,-0.17942653715472057,,,,,,,,,,,,,,,,,,,,
43,240625_151055,LEARNING,1.0,44,1.0,679.0,,,,,,,,,,44.0,44.0,44.0,cue1.png,Easy,A,,,,,,,,,,,,,,,,,,,,,,,,,,,27,27,Female,0.7142857142857143,0.5,0.6,0.25,2.7777777777777777,3.125,2.3333333333333335,2.7777777777777777,2.25,3.2222222222222223,2.0,1.25,1.5,0.25,0.9375,0.8571428571428572,0.3933781416659864,-0.29548801010687453,0.020077451779409616,-0.7102579963427752,0.023966869969268185,-0.4175530818684442,0.01773147091541108,0.31363688616541474,0.007201150196356153,-0.18531458595326408,5.820933194478545e+43,-0.1715929397945701,3.4245589756037546e+43,-0.179498576908609,,,,,,,,,,,,,,,,,,,,
44,240625_151122,LEARNING,1.0,45,1.0,679.0,,,,,,,,,,45.0,45.0,45.0,cue1.png,Easy,A,,,,,,,,,,,,,,,,,,,,,,,,,,,27,27,Female,0.7142857142857143,0.5,0.6,0.25,2.7777777777777777,3.125,2.3333333333333335,2.7777777777777777,2.25,3.2222222222222223,2.0,1.25,1.5,0.25,0.8875,0.6857142857142857,0.4329583818008276,-0.02389482772084334,0.024707391834332123,-0.40030233724907777,0.026000735808857554,-0.2515169217442684,0.007513707576269588,-0.39271996528147496,,,-2.6118130341826933e+44,-0.17162776409825575,-8.663157193546751e+43,-0.1795974694644046,,,,,,,,,,,,,,,,,,,,
45,240625_151147,LEARNING,1.0,46,1.0,679.0,,,,,,,,,,46.0,46.0,46.0,cue1.png,Easy,A,,,,,,,,,,,,,,,,,,,,,,,,,,,27,27,Female,0.7142857142857143,0.5,0.6,0.25,2.7777777777777777,3.125,2.3333333333333335,2.7777777777777777,2.25,3.2222222222222223,2.0,1.25,1.5,0.25,0.0291666666666666,0.6285714285714286,0.4719861384767752,0.24390730285990922,0.02728634015963799,-0.2276522341254108,0.025793130039677793,-0.26846497410016656,0.006176930655556441,-0.485131729525874,0.00498478205453526,-0.3867495453906883,-4.898206646387307e+44,-0.1716526934658328,-1.5793229884115885e+44,-0.17965580232906753,,,,,,,,,,,,,,,,,,,,
46,240625_151212,LEARNING,1.0,47,3.0,679.0,,,,,,,,,,47.0,47.0,47.0,cue2.png,Hard,A,,,,,,,,,,,,,,,,,,,,,,,,,,,27,27,Female,0.7142857142857143,0.5,0.6,0.25,2.7777777777777777,3.125,2.3333333333333335,2.7777777777777777,2.25,3.2222222222222223,2.0,1.25,1.5,0.25,0.15,0.3142857142857143,0.247804269962944,-1.294392285406662,,,,,0.019029783159464,0.4033895765013821,,,-3.1600646849391984e+44,-0.17163374188215677,-1.2205571909457718e+44,-0.17962645082366574,,,,,,,,,,,,,,,,,,,,
47,240625_151235,LEARNING,1.0,48,3.0,679.0,,,,,,,,,,48.0,48.0,48.0,cue2.png,Hard,A,,,,,,,,,,,,,,,,,,,,,,,,,,,27,27,Female,0.7142857142857143,0.5,0.6,0.25,2.7777777777777777,3.125,2.3333333333333335,2.7777777777777777,2.25,3.2222222222222223,2.0,1.25,1.5,0.25,0.0291666666666666,0.7,0.2985860571165436,-0.9459359058266006,0.03658968803280173,0.39516907405515034,0.02830361952858026,-0.06351928562072023,0.01189652334206648,-0.08973467955453067,0.006833926008038149,-0.21868981278607058,2.0316706293992435e+44,-0.17157713453453163,3.784756960919782e+43,-0.1794956300409905,,,,,,,,,,,,,,,,,,,,
48,240625_151300,LEARNING,1.0,49,1.0,679.0,,,,,,,,,,49.0,49.0,49.0,cue1.png,Easy,A,,,,,,,,,,,,,,,,,,,,,,,,,,,27,27,Female,0.7142857142857143,0.5,0.6,0.25,2.7777777777777777,3.125,2.3333333333333335,2.7777777777777777,2.25,3.2222222222222223,2.0,1.25,1.5,0.25,1.0,1.0,0.5161059214567233,0.5466500913039148,0.02192281771044188,-0.586718251413673,0.025157674262926533,-0.3203408820616311,,,0.006473706814525989,-0.2514283895886094,,,,,,,,,,,,,,,,,,,,,,,,
49,240625_151327,LEARNING,1.0,50,1.0,679.0,,,,,,,,,,50.0,50.0,50.0,cue1.png,Easy,A,,,,,,,,,,,,,,,,,,,,,,,,,,,27,27,Female,0.7142857142857143,0.5,0.6,0.25,2.7777777777777777,3.125,2.3333333333333335,2.7777777777777777,2.25,3.2222222222222223,2.0,1.25,1.5,0.25,1.0,1.0,0.6025104428076052,1.1395438899842993,0.022963563791495487,-0.5170445334658166,0.017005287584842516,-0.9858670704309882,0.006129505713109336,-0.4884102291265314,0.005933503869287822,-0.3005248173475051,-2.758806956991318e+44,-0.17162936682558746,-9.24555578898714e+43,-0.17960223420943908,,,,,,,,,,,,,,,,,,,,
0,240625_151454,TrueCHOICE,9.0,1,1.0,679.0,,,,,,,,,,,2.0,1.0,,,A,,,,,,True,cue1.png,Easy,cue2.png,Hard,Left,Easy,Easy,0.0159525000490248,,,,,,,,,,,,,27,27,Female,0.7142857142857143,0.5,0.6,0.25,2.7777777777777777,3.125,2.3333333333333335,2.7777777777777777,2.25,3.2222222222222223,2.0,1.25,1.5,0.25,0.8875,0.8285714285714286,0.2915510077280207,-0.30693592166914496,,,,,,,,,,,,,,,0.005662802784737602,-0.46787969861041695,,,,,,,,,,,,,,,,
1,240625_151516,TrueCHOICE,9.0,2,1.0,679.0,,,,,,,,,,,3.0,2.0,,,A,,,,,,True,cue1.png,Easy,cue2.png,Hard,Left,Easy,Easy,0.0166280001867562,,,,,,,,,,,,,27,27,Female,0.7142857142857143,0.5,0.6,0.25,2.7777777777777777,3.125,2.3333333333333335,2.7777777777777777,2.25,3.2222222222222223,2.0,1.25,1.5,0.25,0.8875,0.9,0.3902214214239003,0.4922390914722561,,,,,,,,,,,,,0.016470137805117576,-1.9044623689637716,,,7987842.950117024,-0.5000244012693886,,,,,,,,,,,,,,
2,240625_151539,TrueCHOICE,9.0,3,1.0,679.0,,,,,,,,,,,4.0,3.0,,,A,,,,,,True,cue2.png,Hard,cue1.png,Easy,Right,Easy,Easy,0.017028999980539,,,,,,,,,,,,,27,27,Female,0.7142857142857143,0.5,0.6,0.25,2.7777777777777777,3.125,2.3333333333333335,2.7777777777777777,2.25,3.2222222222222223,2.0,1.25,1.5,0.25,0.725,0.8,0.4463876071884962,0.9471536962176265,,,,,,,,,,,,,0.026647993427106796,0.3448061775393513,0.004790206448637693,-0.5295292498603316,53176121.16739212,-0.4999327392101434,,,,,,,,,,,,,,
3,240625_151602,TrueCHOICE,9.0,4,1.0,679.0,,,,,,,,,,,5.0,4.0,,,A,,,,,,True,cue1.png,Easy,cue2.png,Hard,Left,Easy,Easy,0.0152543999720364,,,,,,,,,,,,,27,27,Female,0.7142857142857143,0.5,0.6,0.25,2.7777777777777777,3.125,2.3333333333333335,2.7777777777777777,2.25,3.2222222222222223,2.0,1.25,1.5,0.25,0.175,0.4857142857142856,0.293090709104118,-0.2944652040407684,,,,,,,,,,,,,0.028177746608253222,0.6828759873362066,0.005301208073669409,-0.4934266219121259,,,,,,,,,,,,,,,,
4,240625_151625,TrueCHOICE,9.0,5,1.0,679.0,,,,,,,,,,,6.0,5.0,,,A,,,,,,True,cue2.png,Hard,cue1.png,Easy,Right,Easy,Easy,0.0165301000233739,,,,,,,,,,,,,27,27,Female,0.7142857142857143,0.5,0.6,0.25,2.7777777777777777,3.125,2.3333333333333335,2.7777777777777777,2.25,3.2222222222222223,2.0,1.25,1.5,0.25,0.8875,0.8285714285714286,0.3822584769043785,0.42774370676000106,,,,,,,,,,,,,0.029103765861592457,0.8875228262530629,,,1232489551864.434,1.9999999987916717,,,,,,,,,,,,,,
5,240625_151648,TrueCHOICE,9.0,6,1.0,679.0,,,,,,,,,,,7.0,6.0,,,A,,,,,,True,cue2.png,Hard,cue1.png,Easy,Right,Easy,Easy,0.0165593000128865,,,,,,,,,,,,,27,27,Female,0.7142857142857143,0.5,0.6,0.25,2.7777777777777777,3.125,2.3333333333333335,2.7777777777777777,2.25,3.2222222222222223,2.0,1.25,1.5,0.25,0.8875,0.9,0.5003074571390503,1.383874240692408,,,,,,,,,,,,,,,,,10131532.193445886,-0.5000200529078627,,,,,,,,,,,,,,
6,240625_151710,TrueCHOICE,9.0,7,3.0,679.0,,,,,,,,,,,8.0,7.0,,,A,,,,,,True,cue1.png,Easy,cue2.png,Hard,Right,Hard,Hard,0.0169087001122534,,,,,,,,,,,,,27,27,Female,0.7142857142857143,0.5,0.6,0.25,2.7777777777777777,3.125,2.3333333333333335,2.7777777777777777,2.25,3.2222222222222223,2.0,1.25,1.5,0.25,0.725,0.7285714285714286,0.3787576692501226,0.3993891281350583,,,,,,,,,,,,,,,,,,,,,,,,,,,,,,,,
7,240625_151730,TrueCHOICE,9.0,8,1.0,679.0,,,,,,,,,,,9.0,8.0,,,A,,,,,,True,cue2.png,Hard,cue1.png,Easy,Right,Easy,Easy,0.0156505999621003,,,,,,,,,,,,,27,27,Female,0.7142857142857143,0.5,0.6,0.25,2.7777777777777777,3.125,2.3333333333333335,2.7777777777777777,2.25,3.2222222222222223,2.0,1.25,1.5,0.25,0.0291666666666666,0.4857142857142856,0.0590839181942018,-2.189788971274743,,,,,,,,,,,,,,,0.040587786795390546,1.9995952409367463,,,,,,,,,,,,,,,,
8,240625_151749,TrueCHOICE,9.0,9,3.0,679.0,,,,,,,,,,,10.0,9.0,,,A,,,,,,True,cue1.png,Easy,cue2.png,Hard,Right,Hard,Hard,0.0166002998594194,,,,,,,,,,,,,27,27,Female,0.7142857142857143,0.5,0.6,0.25,2.7777777777777777,3.125,2.3333333333333335,2.7777777777777777,2.25,3.2222222222222223,2.0,1.25,1.5,0.25,0.725,0.8,0.1784936428635514,-1.2226371705741894,,,,,,,,,,,,,,,,,,,,,,,,,,,,,,,,
9,240625_151810,TrueCHOICE,9.0,10,1.0,679.0,,,,,,,,,,,11.0,10.0,,,A,,,,,,True,cue2.png,Hard,cue1.png,Easy,Right,Easy,Easy,0.0165568999946117,,,,,,,,,,,,,27,27,Female,0.7142857142857143,0.5,0.6,0.25,2.7777777777777777,3.125,2.3333333333333335,2.7777777777777777,2.25,3.2222222222222223,2.0,1.25,1.5,0.25,0.8875,0.9,0.3743176428335054,0.3634274042814933,,,,,,,,,,,,,0.025039148473672126,-0.010742622164846054,0.005084181967318838,-0.5087596705538716,8774585.003247831,-0.5000228054042765,,,,,,,,,,,,,,
0,240625_151957,FalseCHOICE,9.0,1,2.0,679.0,,,,,,,,,,,2.0,1.0,,,A,,,,,,False,cue1.png,Easy,cue2.png,Hard,Left,Easy,Mid,0.0161540999542921,,,,,,,,,,,,,27,27,Female,0.7142857142857143,0.5,0.6,0.25,2.7777777777777777,3.125,2.3333333333333335,2.7777777777777777,2.25,3.2222222222222223,2.0,1.25,1.5,0.25,0.725,0.8,0.5279024642659351,2.2448387276828226,,,,,,,,,,,,,,,,,,,0.025925673806011365,-0.2186377447085106,0.01470957798163123,-0.2898219780193368,1.3513409035503854e+46,-0.17497326217638687,,,,,,,,
1,240625_152021,FalseCHOICE,9.0,2,2.0,679.0,,,,,,,,,,,3.0,2.0,,,A,,,,,,False,cue2.png,Hard,cue1.png,Easy,Right,Easy,Mid,0.0154378998558968,,,,,,,,,,,,,27,27,Female,0.7142857142857143,0.5,0.6,0.25,2.7777777777777777,3.125,2.3333333333333335,2.7777777777777777,2.25,3.2222222222222223,2.0,1.25,1.5,0.25,0.7999999999999999,0.7571428571428571,0.464303766648906,1.8087967774906542,,,,,,,,,,,,,,,,,,,0.019191690471729684,-0.2839079001496599,0.017032987436848827,-0.17990517799010403,,,,,,,,,,
2,240625_152044,FalseCHOICE,9.0,3,2.0,679.0,,,,,,,,,,,4.0,3.0,,,A,,,,,,False,cue2.png,Hard,cue1.png,Easy,Left,Hard,Mid,0.0151526001282036,,,,,,,,,,,,,27,27,Female,0.7142857142857143,0.5,0.6,0.25,2.7777777777777777,3.125,2.3333333333333335,2.7777777777777777,2.25,3.2222222222222223,2.0,1.25,1.5,0.25,1.0,1.0,0.4787986642913893,1.9081759105968632,,,,,,,,,,,,,,,,,,,0.017099857562084896,-0.304183308090507,0.0051603008437906845,-0.7415830669770476,-1.3133118598152119e+45,-0.1770050558566712,,,,,,,,
3,240625_152105,FalseCHOICE,9.0,4,2.0,679.0,,,,,,,,,,,5.0,4.0,,,A,,,,,,False,cue2.png,Hard,cue1.png,Easy,Right,Easy,Mid,0.0164063000120222,,,,,,,,,,,,,27,27,Female,0.7142857142857143,0.5,0.6,0.25,2.7777777777777777,3.125,2.3333333333333335,2.7777777777777777,2.25,3.2222222222222223,2.0,1.25,1.5,0.25,0.725,0.8,0.4275408000020044,1.5567445142809058,,,,,,,,,,,,,,,,,,,0.035415303626799115,-0.1266580674900411,0.009191090442895714,-0.5508928322748542,-1.5600799494347012e+45,-0.1770388719545478,,,,,,,,
4,240625_152129,FalseCHOICE,9.0,5,2.0,679.0,,,,,,,,,,,6.0,5.0,,,A,,,,,,False,cue1.png,Easy,cue2.png,Hard,Left,Easy,Mid,0.0159952999092638,,,,,,,,,,,,,27,27,Female,0.7142857142857143,0.5,0.6,0.25,2.7777777777777777,3.125,2.3333333333333335,2.7777777777777777,2.25,3.2222222222222223,2.0,1.25,1.5,0.25,0.5625,0.5857142857142857,0.3341489181303503,0.9164361458823554,,,,,,,,,,,,,,,,,,,0.09523170281713317,0.4531214596149819,,,4.2570430127132653e+49,5.656853953746675,,,,,,,,
5,240625_152146,FalseCHOICE,9.0,6,2.0,679.0,,,,,,,,,,,7.0,6.0,,,A,,,,,,False,cue2.png,Hard,cue1.png,Easy,Right,Easy,Mid,0.0165075999684631,,,,,,,,,,,,,27,27,Female,0.7142857142857143,0.5,0.6,0.25,2.7777777777777777,3.125,2.3333333333333335,2.7777777777777777,2.25,3.2222222222222223,2.0,1.25,1.5,0.25,0.725,0.8,0.0415385500195303,-1.089743231025621,,,,,,,,,,,,,,,,,,,,,,,-2.3042719720033624e+44,-0.17685666173571138,,,,,,,,
6,240625_152211,FalseCHOICE,9.0,7,2.0,679.0,,,,,,,,,,,9.0,7.0,,,A,,,,,,False,cue2.png,Hard,cue1.png,Easy,Right,Easy,Mid,0.0166019999887794,,,,,,,,,,,,,27,27,Female,0.7142857142857143,0.5,0.6,0.25,2.7777777777777777,3.125,2.3333333333333335,2.7777777777777777,2.25,3.2222222222222223,2.0,1.25,1.5,0.25,0.725,0.6571428571428573,0.1000153833301737,-0.6888175298205714,,,,,,,,,,,,,,,,,,,0.03855991298974741,-0.09617846400239412,0.06760799090312106,2.212717667714623,,,,,,,,,,
7,240625_152232,FalseCHOICE,9.0,8,2.0,679.0,,,,,,,,,,,10.0,8.0,,,A,,,,,,False,cue1.png,Easy,cue2.png,Hard,Left,Easy,Mid,0.0158021000679582,,,,,,,,,,,,,27,27,Female,0.7142857142857143,0.5,0.6,0.25,2.7777777777777777,3.125,2.3333333333333335,2.7777777777777777,2.25,3.2222222222222223,2.0,1.25,1.5,0.25,0.8875,0.9,0.3154607142454811,0.7883070933565173,,,,,,,,,,,,,,,,,,,,,,,3.207443917495912e+44,-0.1767811314172352,,,,,,,,
8,240625_152253,FalseCHOICE,9.0,9,2.0,679.0,,,,,,,,,,,11.0,9.0,,,A,,,,,,False,cue1.png,Easy,cue2.png,Hard,Left,Easy,Mid,0.016184999840334,,,,,,,,,,,,,27,27,Female,0.7142857142857143,0.5,0.6,0.25,2.7777777777777777,3.125,2.3333333333333335,2.7777777777777777,2.25,3.2222222222222223,2.0,1.25,1.5,0.25,0.0291666666666666,0.7,0.3555015142774209,1.0628326605044007,,,,,,,,,,,,,,,,,,,0.03499501873501459,-0.13073174258761527,0.007900018641631623,-0.6119713824564604,,,,,,,,,,
9,240625_152312,FalseCHOICE,9.0,10,2.0,679.0,,,,,,,,,,,12.0,10.0,,,A,,,,,,False,cue2.png,Hard,cue1.png,Easy,Right,Easy,Mid,0.016509500099346,,,,,,,,,,,,,27,27,Female,0.7142857142857143,0.5,0.6,0.25,2.7777777777777777,3.125,2.3333333333333335,2.7777777777777777,2.25,3.2222222222222223,2.0,1.25,1.5,0.25,0.0291666666666666,0.7,0.1407023785702352,-0.40986155404308117,,,,,,,,,,,,,,,,,,,0.049915692222464635,0.013889149604774352,0.009252512606722326,-0.5479870475525225,6.1819968356836765e+44,-0.1767403693508045,,,,,,,,
10,240625_152330,FalseCHOICE,9.0,11,2.0,679.0,,,,,,,,,,,13.0,11.0,,,A,,,,,,False,cue1.png,Easy,cue2.png,Hard,Left,Easy,Mid,0.0155803000088781,,,,,,,,,,,,,27,27,Female,0.7142857142857143,0.5,0.6,0.25,2.7777777777777777,3.125,2.3333333333333335,2.7777777777777777,2.25,3.2222222222222223,2.0,1.25,1.5,0.25,0.8875,0.9,0.1098393642709457,-0.6214628831285937,,,,,,,,,,,,,,,,,,,0.01602400764867915,-0.3146111466510594,0.007526603696074856,-0.6296370486637307,,,,,,,,,,
11,240625_152351,FalseCHOICE,9.0,12,2.0,679.0,,,,,,,,,,,14.0,12.0,,,A,,,,,,False,cue2.png,Hard,cue1.png,Easy,Right,Easy,Mid,0.016825099941343,,,,,,,,,,,,,27,27,Female,0.7142857142857143,0.5,0.6,0.25,2.7777777777777777,3.125,2.3333333333333335,2.7777777777777777,2.25,3.2222222222222223,2.0,1.25,1.5,0.25,0.8875,0.8285714285714286,0.3609180000001707,1.099968876908673,,,,,,,,,,,,,,,,,,,,,0.03670694458927822,0.7508383933812829,,,,,,,,,,
12,240625_152417,FalseCHOICE,9.0,13,2.0,679.0,,,,,,,,,,,15.0,13.0,,,A,,,,,,False,cue1.png,Easy,cue2.png,Hard,Left,Easy,Mid,0.0158704000059515,,,,,,,,,,,,,27,27,Female,0.7142857142857143,0.5,0.6,0.25,2.7777777777777777,3.125,2.3333333333333335,2.7777777777777777,2.25,3.2222222222222223,2.0,1.25,1.5,0.25,0.5625,0.3714285714285715,0.2729527874907944,0.4968665454328365,,,,,,,,,,,,,,,,,,,0.05502834305589731,0.06344429372217042,0.05537637386334965,1.634059351086229,,,,,,,,,,
13,240625_152441,FalseCHOICE,9.0,14,2.0,679.0,,,,,,,,,,,17.0,14.0,,,A,,,,,,False,cue2.png,Hard,cue1.png,Easy,Right,Easy,Mid,0.0165607000235468,,,,,,,,,,,,,27,27,Female,0.7142857142857143,0.5,0.6,0.25,2.7777777777777777,3.125,2.3333333333333335,2.7777777777777777,2.25,3.2222222222222223,2.0,1.25,1.5,0.25,0.15,0.6,0.1248012856979455,-0.5188817668149143,,,,,,,,,,,,,,,,,,,0.014821831764540095,-0.32626341885462984,0.008621202925173264,-0.5778533028815247,,,,,,,,,,
14,240625_152502,FalseCHOICE,9.0,15,2.0,679.0,,,,,,,,,,,18.0,15.0,,,A,,,,,,False,cue1.png,Easy,cue2.png,Hard,Left,Easy,Mid,0.0167020999360829,,,,,,,,,,,,,27,27,Female,0.7142857142857143,0.5,0.6,0.25,2.7777777777777777,3.125,2.3333333333333335,2.7777777777777777,2.25,3.2222222222222223,2.0,1.25,1.5,0.25,0.725,0.8,0.3357022214581125,0.9270858201312833,,,,,,,,,,,,,,,,,,,,,0.006811753923080081,-0.6634554526358581,,,,,,,,,,
15,240625_152522,FalseCHOICE,9.0,16,2.0,679.0,,,,,,,,,,,19.0,16.0,,,A,,,,,,False,cue1.png,Easy,cue2.png,Hard,Left,Easy,Mid,0.0169432999100536,,,,,,,,,,,,,27,27,Female,0.7142857142857143,0.5,0.6,0.25,2.7777777777777777,3.125,2.3333333333333335,2.7777777777777777,2.25,3.2222222222222223,2.0,1.25,1.5,0.25,0.725,0.8,0.2320570428523101,0.21647935332230406,,,,,,,,,,,,,,,,,,,,,0.07122295100253977,2.383735671221994,,,,,,,,,,
16,240625_152538,FalseCHOICE,9.0,17,2.0,679.0,,,,,,,,,,,20.0,17.0,,,A,,,,,,False,cue2.png,Hard,cue1.png,Easy,Right,Easy,Mid,0.0164838000200688,,,,,,,,,,,,,27,27,Female,0.7142857142857143,0.5,0.6,0.25,2.7777777777777777,3.125,2.3333333333333335,2.7777777777777777,2.25,3.2222222222222223,2.0,1.25,1.5,0.25,1.0,1.0,0.0154219000001571,-1.2688027940925948,,,,,,,,,,,,,,,,,,,0.01181374746235301,-0.3554197324713127,0.006176484650092361,-0.6935090299280138,,,,,,,,,,
17,240625_152556,FalseCHOICE,9.0,18,2.0,679.0,,,,,,,,,,,21.0,18.0,,,A,,,,,,False,cue2.png,Hard,cue1.png,Easy,Right,Easy,Mid,0.0150357999373227,,,,,,,,,,,,,27,27,Female,0.7142857142857143,0.5,0.6,0.25,2.7777777777777777,3.125,2.3333333333333335,2.7777777777777777,2.25,3.2222222222222223,2.0,1.25,1.5,0.25,0.7999999999999999,0.8285714285714286,0.044152815396396,-1.0718194461690085,,,,,,,,,,,,,,,,,,,,,0.0065147469418880225,-0.6775063797704024,,,,,,,,,,
18,240625_152612,FalseCHOICE,9.0,19,2.0,679.0,,,,,,,,,,,22.0,19.0,,,A,,,,,,False,cue1.png,Easy,cue2.png,Hard,Left,Easy,Mid,0.0165011000353842,,,,,,,,,,,,,27,27,Female,0.7142857142857143,0.5,0.6,0.25,2.7777777777777777,3.125,2.3333333333333335,2.7777777777777777,2.25,3.2222222222222223,2.0,1.25,1.5,0.25,0.725,0.8,0.0110918285458215,-1.2984903957599971,,,,,,,,,,,,,,,,,,,0.014525002339677994,-0.32914048310301103,,,,,,,,,,,,
19,240625_152634,FalseCHOICE,9.0,20,2.0,679.0,,,,,,,,,,,23.0,20.0,,,A,,,,,,False,cue1.png,Easy,cue2.png,Hard,Left,Easy,Mid,0.0138352001085877,,,,,,,,,,,,,27,27,Female,0.7142857142857143,0.5,0.6,0.25,2.7777777777777777,3.125,2.3333333333333335,2.7777777777777777,2.25,3.2222222222222223,2.0,1.25,1.5,0.25,0.15,0.5285714285714286,0.288804992263277,0.6055515742594034,,,,,,,,,,,,,,,,,,,,,,,1.5011558480852911e+44,-0.1768045136967065,,,,,,,,
20,240625_152657,FalseCHOICE,9.0,21,2.0,679.0,,,,,,,,,,,24.0,21.0,,,A,,,,,,False,cue1.png,Easy,cue2.png,Hard,Left,Easy,Mid,0.0160085998941212,,,,,,,,,,,,,27,27,Female,0.7142857142857143,0.5,0.6,0.25,2.7777777777777777,3.125,2.3333333333333335,2.7777777777777777,2.25,3.2222222222222223,2.0,1.25,1.5,0.25,0.725,0.8,0.3726534428341048,1.1804287852308706,,,,,,,,,,,,,,,,,,,,,0.007338044661959012,-0.6385574761846197,4.991187876491751e+43,-0.17681824520606165,,,,,,,,
21,240625_152721,FalseCHOICE,9.0,22,2.0,679.0,,,,,,,,,,,25.0,22.0,,,A,,,,,,False,cue2.png,Hard,cue1.png,Easy,Right,Easy,Mid,0.016020500101149,,,,,,,,,,,,,27,27,Female,0.7142857142857143,0.5,0.6,0.25,2.7777777777777777,3.125,2.3333333333333335,2.7777777777777777,2.25,3.2222222222222223,2.0,1.25,1.5,0.25,0.225,0.6142857142857143,0.365909090032801,1.1341885183943827,,,,,,,,,,,,,,,,,,,,,0.019869181991123665,-0.04572933181449742,-5.703939861980183e+43,-0.17683290137521887,,,,,,,,
22,240625_152752,FalseCHOICE,9.0,23,2.0,679.0,,,,,,,,,,,26.0,23.0,,,A,,,,,,False,cue1.png,Easy,cue2.png,Hard,Left,Easy,Mid,0.0154728000052273,,,,,,,,,,,,,27,27,Female,0.7142857142857143,0.5,0.6,0.25,2.7777777777777777,3.125,2.3333333333333335,2.7777777777777777,2.25,3.2222222222222223,2.0,1.25,1.5,0.25,0.5,0.1428571428571429,0.1768191999290138,-0.16223935720414473,,,,,,,,,,,,,,,,,,,0.023089851075010832,-0.24612438690342975,0.03434235741613689,0.6389735411150591,-1.260386261373573e+44,-0.17684235674943174,,,,,,,,
23,240625_152820,FalseCHOICE,9.0,24,2.0,679.0,,,,,,,,,,,28.0,24.0,,,A,,,,,,False,cue2.png,Hard,cue1.png,Easy,Right,Easy,Mid,0.0166098000481724,,,,,,,,,,,,,27,27,Female,0.7142857142857143,0.5,0.6,0.25,2.7777777777777777,3.125,2.3333333333333335,2.7777777777777777,2.25,3.2222222222222223,2.0,1.25,1.5,0.25,0.15,0.4571428571428571,0.3255933833230908,0.8577781509536115,,,,,,,,,,,,,,,,,,,0.04316828218278832,-0.05151114621609768,0.00892711358298858,-0.5633811569898967,-1.717606628281006e+44,-0.17684862231184797,,,,,,,,
24,240625_152841,FalseCHOICE,9.0,25,2.0,679.0,,,,,,,,,,,29.0,25.0,,,A,,,,,,False,cue2.png,Hard,cue1.png,Easy,Right,Easy,Mid,0.0158547998871654,,,,,,,,,,,,,27,27,Female,0.7142857142857143,0.5,0.6,0.25,2.7777777777777777,3.125,2.3333333333333335,2.7777777777777777,2.25,3.2222222222222223,2.0,1.25,1.5,0.25,0.0291666666666666,0.7,0.2868532857391983,0.5921703895677507,,,,,,,,,,,,,,,,,,,,,0.03753745879117057,0.7901286972258498,-1.5497276649518579e+44,-0.1768463217666421,,,,,,,,
25,240625_152900,FalseCHOICE,9.0,26,2.0,679.0,,,,,,,,,,,30.0,26.0,,,A,,,,,,False,cue1.png,Easy,cue2.png,Hard,Left,Easy,Mid,0.0161788000259548,,,,,,,,,,,,,27,27,Female,0.7142857142857143,0.5,0.6,0.25,2.7777777777777777,3.125,2.3333333333333335,2.7777777777777777,2.25,3.2222222222222223,2.0,1.25,1.5,0.25,0.725,0.8,0.1241762428544461,-0.5231671517464472,,,,,,,,,,,,,,,,,,,0.09213668007613317,0.42312248198601354,0.05011428550538912,1.3851183336176,-1.0657821275753543e+44,-0.17683968997333202,,,,,,,,
26,240625_152924,FalseCHOICE,9.0,27,2.0,679.0,,,,,,,,,,,32.0,27.0,,,A,,,,,,False,cue1.png,Easy,cue2.png,Hard,Left,Easy,Mid,0.0164888999424874,,,,,,,,,,,,,27,27,Female,0.7142857142857143,0.5,0.6,0.25,2.7777777777777777,3.125,2.3333333333333335,2.7777777777777777,2.25,3.2222222222222223,2.0,1.25,1.5,0.25,0.15,0.5285714285714286,0.1221542230699784,-0.5370304144103413,,,,,,,,,,,,,,,,,,,0.05806165160206768,0.09284509715178357,0.015165630501622743,-0.26824685981097945,4.220550176549174e+44,-0.1767672482200729,,,,,,,,
27,240625_152947,FalseCHOICE,9.0,28,2.0,679.0,,,,,,,,,,,33.0,28.0,,,A,,,,,,False,cue2.png,Hard,cue1.png,Easy,Right,Easy,Mid,0.0162195998709648,,,,,,,,,,,,,27,27,Female,0.7142857142857143,0.5,0.6,0.25,2.7777777777777777,3.125,2.3333333333333335,2.7777777777777777,2.25,3.2222222222222223,2.0,1.25,1.5,0.25,0.5625,0.5142857142857143,0.086973759974353,-0.7782328023783089,,,,,,,,,,,,,,,,,,,0.030504530077654086,-0.17425648539185362,0.016908014425328854,-0.1858174520774131,5.58652605473513e+43,-0.17681742937877476,,,,,,,,
28,240625_153004,FalseCHOICE,9.0,29,2.0,679.0,,,,,,,,,,,34.0,29.0,,,A,,,,,,False,cue1.png,Easy,cue2.png,Hard,Right,Hard,Mid,0.0151575999334454,,,,,,,,,,,,,27,27,Female,0.7142857142857143,0.5,0.6,0.25,2.7777777777777777,3.125,2.3333333333333335,2.7777777777777777,2.25,3.2222222222222223,2.0,1.25,1.5,0.25,0.725,0.8,0.1152436499916283,-0.5844103117185283,,,,,,,,,,,,,,,,,,,0.027965835227539735,-0.19886317050808347,0.007374335523429787,-0.636840613341433,1.158736916450428e+44,-0.1768092060668281,,,,,,,,
29,240625_153021,FalseCHOICE,9.0,30,2.0,679.0,,,,,,,,,,,35.0,30.0,,,A,,,,,,False,cue1.png,Easy,cue2.png,Hard,Left,Easy,Mid,0.0015190001577138,,,,,,,,,,,,,27,27,Female,0.7142857142857143,0.5,0.6,0.25,2.7777777777777777,3.125,2.3333333333333335,2.7777777777777777,2.25,3.2222222222222223,2.0,1.25,1.5,0.25,0.725,0.8,0.1059625500181157,-0.6480428872902536,,,,,,,,,,,,,,,,,,,0.014569121862768361,-0.32871284792971955,0.007044337023562199,-0.6524523166675242,1.4589325118655752e+44,-0.1768050923081763,,,,,,,,
30,240625_153038,FalseCHOICE,9.0,31,2.0,679.0,,,,,,,,,,,36.0,31.0,,,A,,,,,,False,cue2.png,Hard,cue1.png,Easy,Right,Easy,Mid,0.0172822999302297,,,,,,,,,,,,,27,27,Female,0.7142857142857143,0.5,0.6,0.25,2.7777777777777777,3.125,2.3333333333333335,2.7777777777777777,2.25,3.2222222222222223,2.0,1.25,1.5,0.25,0.0291666666666666,0.7,0.0578590214385518,-0.9778476977482192,,,,,,,,,,,,,,,,,,,0.008580957105361922,-0.3867540436263855,0.008489342581955018,-0.5840914056596459,,,,,,,,,,
31,240625_153059,FalseCHOICE,9.0,32,2.0,679.0,,,,,,,,,,,37.0,32.0,,,A,,,,,,False,cue1.png,Easy,cue2.png,Hard,Left,Easy,Mid,0.0165872001089155,,,,,,,,,,,,,27,27,Female,0.7142857142857143,0.5,0.6,0.25,2.7777777777777777,3.125,2.3333333333333335,2.7777777777777777,2.25,3.2222222222222223,2.0,1.25,1.5,0.25,0.0291666666666666,0.6285714285714286,0.3103866461807719,0.7535185423760143,,,,,,,,,,,,,,,,,,,0.1513182014327626,0.9967483593365021,0.031118013427014937,0.4864349635165683,1.0167346107352733e+44,-0.17681115200881606,,,,,,,,
32,240625_153117,FalseCHOICE,9.0,33,2.0,679.0,,,,,,,,,,,38.0,33.0,,,A,,,,,,False,cue2.png,Hard,cue1.png,Easy,Right,Easy,Mid,0.0166844001505523,,,,,,,,,,,,,27,27,Female,0.7142857142857143,0.5,0.6,0.25,2.7777777777777777,3.125,2.3333333333333335,2.7777777777777777,2.25,3.2222222222222223,2.0,1.25,1.5,0.25,0.15,0.6,0.1284336285732154,-0.493977894087256,,,,,,,,,,,,,,,,,,,0.02760679414384655,-0.20234323070115087,0.027515665516690185,0.3160136225834408,3.5648933025850306e+43,-0.17682019974228175,,,,,,,,
33,240625_153136,FalseCHOICE,9.0,34,2.0,679.0,,,,,,,,,,,39.0,34.0,,,A,,,,,,False,cue2.png,Hard,cue1.png,Easy,Right,Easy,Mid,0.0162283000536263,,,,,,,,,,,,,27,27,Female,0.7142857142857143,0.5,0.6,0.25,2.7777777777777777,3.125,2.3333333333333335,2.7777777777777777,2.25,3.2222222222222223,2.0,1.25,1.5,0.25,0.0291666666666666,0.6285714285714286,0.1060161153570963,-0.647675635510784,,,,,,,,,,,,,,,,,,,0.0083066922155,-0.38941239769480207,,,-3.3495114358421184e+43,-0.1768296749620216,,,,,,,,
34,240625_153152,FalseCHOICE,9.0,35,2.0,679.0,,,,,,,,,,,40.0,35.0,,,A,,,,,,False,cue2.png,Hard,cue1.png,Easy,Right,Easy,Mid,0.0168500000145286,,,,,,,,,,,,,27,27,Female,0.7142857142857143,0.5,0.6,0.25,2.7777777777777777,3.125,2.3333333333333335,2.7777777777777777,2.25,3.2222222222222223,2.0,1.25,1.5,0.25,0.0291666666666666,0.7,0.0411258571215772,-1.092572713747697,,,,,,,,,,,,,,,,,,,0.007955740483273535,-0.39281405062110913,0.0056579776299915206,-0.7180387710436795,-9.608280046414116e+43,-0.17683825172461065,,,,,,,,
35,240625_153213,FalseCHOICE,9.0,36,2.0,679.0,,,,,,,,,,,41.0,36.0,,,A,,,,,,False,cue1.png,Easy,cue2.png,Hard,Right,Hard,Mid,0.012671299977228,,,,,,,,,,,,,27,27,Female,0.7142857142857143,0.5,0.6,0.25,2.7777777777777777,3.125,2.3333333333333335,2.7777777777777777,2.25,3.2222222222222223,2.0,1.25,1.5,0.25,0.725,0.7285714285714286,0.3620998461265117,1.1080717863874168,,,,,,,,,,,,,,,,,,,,,,,-1.3191900018484334e+44,-0.17684316257203483,,,,,,,,
36,240625_153232,FalseCHOICE,9.0,37,2.0,679.0,,,,,,,,,,,42.0,37.0,,,A,,,,,,False,cue2.png,Hard,cue1.png,Easy,Right,Easy,Mid,0.0166094999294728,,,,,,,,,,,,,27,27,Female,0.7142857142857143,0.5,0.6,0.25,2.7777777777777777,3.125,2.3333333333333335,2.7777777777777777,2.25,3.2222222222222223,2.0,1.25,1.5,0.25,0.725,0.8,0.209091292827257,0.059022820346561894,,,,,,,,,,,,,,,,,,,0.01969466455834476,-0.27903274748197987,,,,,,,,,,,,
37,240625_153249,FalseCHOICE,9.0,38,2.0,679.0,,,,,,,,,,,43.0,38.0,,,A,,,,,,False,cue1.png,Easy,cue2.png,Hard,Left,Easy,Mid,0.0173351000994443,,,,,,,,,,,,,27,27,Female,0.7142857142857143,0.5,0.6,0.25,2.7777777777777777,3.125,2.3333333333333335,2.7777777777777777,2.25,3.2222222222222223,2.0,1.25,1.5,0.25,0.8875,0.9,0.0748298071557655,-0.8614935147586946,,,,,,,,,,,,,,,,,,,0.01113363957506598,-0.36201178138447077,0.005369282430155826,-0.7316964810433004,-7.90829398791298e+43,-0.1768359221326836,,,,,,,,
38,240625_153306,FalseCHOICE,9.0,39,2.0,679.0,,,,,,,,,,,44.0,39.0,,,A,,,,,,False,cue1.png,Easy,cue2.png,Hard,Left,Easy,Mid,0.0165822000708431,,,,,,,,,,,,,27,27,Female,0.7142857142857143,0.5,0.6,0.25,2.7777777777777777,3.125,2.3333333333333335,2.7777777777777777,2.25,3.2222222222222223,2.0,1.25,1.5,0.25,0.0291666666666666,0.7,0.0533172428674463,-1.008986794297196,,,,,,,,,,,,,,,,,,,0.009569543925804686,-0.3771720158377388,0.0051756559773768855,-0.7408566400685117,-1.0559628228453452e+43,-0.1768265319760504,,,,,,,,
39,240625_153322,FalseCHOICE,9.0,40,2.0,679.0,,,,,,,,,,,45.0,40.0,,,A,,,,,,False,cue2.png,Hard,cue1.png,Easy,Right,Easy,Mid,0.0145688999909907,,,,,,,,,,,,,27,27,Female,0.7142857142857143,0.5,0.6,0.25,2.7777777777777777,3.125,2.3333333333333335,2.7777777777777777,2.25,3.2222222222222223,2.0,1.25,1.5,0.25,0.725,0.8,0.0,-1.3745375906167383,,,,,,,,,,,,,,,,,,,0.01082782115242468,-0.3649759728580296,0.004069684028798983,-0.7931784110920326,7.56400889568132e+43,-0.17681471951651492,,,,,,,,
40,240625_153340,FalseCHOICE,9.0,41,2.0,679.0,,,,,,,,,,,46.0,41.0,,,A,,,,,,False,cue2.png,Hard,cue1.png,Easy,Right,Easy,Mid,0.0166239000391215,,,,,,,,,,,,,27,27,Female,0.7142857142857143,0.5,0.6,0.25,2.7777777777777777,3.125,2.3333333333333335,2.7777777777777777,2.25,3.2222222222222223,2.0,1.25,1.5,0.25,0.0291666666666666,0.7,0.1421901428506576,-0.3996612250651506,,,,,,,,,,,,,,,,,,,0.010652212823270894,-0.3666780832393067,0.0055567733977428205,-0.7228265820484129,,,,,,,,,,
41,240625_153356,FalseCHOICE,9.0,42,2.0,679.0,,,,,,,,,,,47.0,42.0,,,A,,,,,,False,cue1.png,Easy,cue2.png,Hard,Right,Hard,Mid,0.0017240999732166,,,,,,,,,,,,,27,27,Female,0.7142857142857143,0.5,0.6,0.25,2.7777777777777777,3.125,2.3333333333333335,2.7777777777777777,2.25,3.2222222222222223,2.0,1.25,1.5,0.25,0.0291666666666666,0.7,0.0905678357563114,-0.7535912944257316,,,,,,,,,,,,,,,,,,,0.024100742353886515,-0.23632616976641685,0.006175901479857372,-0.6935366187828145,,,,,,,,,,
42,240625_153414,FalseCHOICE,9.0,43,2.0,679.0,,,,,,,,,,,48.0,43.0,,,A,,,,,,False,cue2.png,Hard,cue1.png,Easy,Right,Easy,Mid,0.0156205999664962,,,,,,,,,,,,,27,27,Female,0.7142857142857143,0.5,0.6,0.25,2.7777777777777777,3.125,2.3333333333333335,2.7777777777777777,2.25,3.2222222222222223,2.0,1.25,1.5,0.25,0.0291666666666666,0.7,0.0595429357074733,-0.9663025358299925,,,,,,,,,,,,,,,,,,,0.660878781700413,5.935741616334151,,,1.005893825400093e+44,-0.17681130056654024,,,,,,,,
43,240625_153432,FalseCHOICE,9.0,44,2.0,679.0,,,,,,,,,,,49.0,44.0,,,A,,,,,,False,cue1.png,Easy,cue2.png,Hard,Left,Easy,Mid,0.0165830999612808,,,,,,,,,,,,,27,27,Female,0.7142857142857143,0.5,0.6,0.25,2.7777777777777777,3.125,2.3333333333333335,2.7777777777777777,2.25,3.2222222222222223,2.0,1.25,1.5,0.25,0.0291666666666666,0.7,0.1044145928462967,-0.6586559075140072,,,,,,,,,,,,,,,,,,,0.024767740838748886,-0.22986118572579003,0.049947304697804513,1.377218737618806,1.2226583143026997e+43,-0.17682340944608646,,,,,,,,
44,240625_153449,FalseCHOICE,9.0,45,2.0,679.0,,,,,,,,,,,50.0,45.0,,,A,,,,,,False,cue2.png,Hard,cue1.png,Easy,Right,Easy,Mid,0.0161482000257819,,,,,,,,,,,,,27,27,Female,0.7142857142857143,0.5,0.6,0.25,2.7777777777777777,3.125,2.3333333333333335,2.7777777777777777,2.25,3.2222222222222223,2.0,1.25,1.5,0.25,0.0291666666666666,0.7,0.0936575071287474,-0.7324080566996626,,,,,,,,,,,,,,,,,,,0.02200471328290529,-0.25664224963784193,0.005629753153122285,-0.7193740260814855,-8.2889716172979e+43,-0.17683644379786304,,,,,,,,
45,240625_153514,FalseCHOICE,9.0,46,2.0,679.0,,,,,,,,,,,51.0,46.0,,,A,,,,,,False,cue2.png,Hard,cue1.png,Easy,Right,Easy,Mid,0.0163561999797821,,,,,,,,,,,,,27,27,Female,0.7142857142857143,0.5,0.6,0.25,2.7777777777777777,3.125,2.3333333333333335,2.7777777777777777,2.25,3.2222222222222223,2.0,1.25,1.5,0.25,0.725,0.7285714285714286,0.5070561461795408,2.1019133293129704,,,,,,,,,,,,,,,,,,,0.05502920226001714,0.0634526216884978,0.08260531211935088,2.922217043038512,-1.430331651662889e+44,-0.17684468561211433,,,,,,,,
46,240625_153534,FalseCHOICE,9.0,47,2.0,679.0,,,,,,,,,,,52.0,47.0,,,A,,,,,,False,cue1.png,Easy,cue2.png,Hard,Left,Easy,Mid,0.0161220000591129,,,,,,,,,,,,,27,27,Female,0.7142857142857143,0.5,0.6,0.25,2.7777777777777777,3.125,2.3333333333333335,2.7777777777777777,2.25,3.2222222222222223,2.0,1.25,1.5,0.25,0.0291666666666666,0.7,0.2393616928353107,0.26656109938632916,,,,,,,,,,,,,,,,,,,0.039036946944206535,-0.09155474000240377,0.05019324473633608,1.3888537690480487,-8.578229941834451e+43,-0.1768368401857359,,,,,,,,
47,240625_153553,FalseCHOICE,9.0,48,2.0,679.0,,,,,,,,,,,53.0,48.0,,,A,,,,,,False,cue1.png,Easy,cue2.png,Hard,Left,Easy,Mid,0.0155998999252915,,,,,,,,,,,,,27,27,Female,0.7142857142857143,0.5,0.6,0.25,2.7777777777777777,3.125,2.3333333333333335,2.7777777777777777,2.25,3.2222222222222223,2.0,1.25,1.5,0.25,0.725,0.8,0.1274143214437312,-0.500966412488395,,,,,,,,,,,,,,,,,,,0.02790798419930131,-0.19942390037896535,,,4.2252150830828734e+43,-0.17681929486410264,,,,,,,,
48,240625_153614,FalseCHOICE,9.0,49,2.0,679.0,,,,,,,,,,,54.0,49.0,,,A,,,,,,False,cue2.png,Hard,cue1.png,Easy,Right,Easy,Mid,0.0152863000985234,,,,,,,,,,,,,27,27,Female,0.7142857142857143,0.5,0.6,0.25,2.7777777777777777,3.125,2.3333333333333335,2.7777777777777777,2.25,3.2222222222222223,2.0,1.25,1.5,0.25,0.725,0.7285714285714286,0.2527684769234978,0.35847996720372827,,,,,,,,,,,,,,,,,,,0.025009541959366863,-0.2275174916675892,0.00680595927712971,-0.6637295881046352,,,,,,,,,,
49,240625_153630,FalseCHOICE,9.0,50,2.0,679.0,,,,,,,,,,,55.0,50.0,,,A,,,,,,False,cue1.png,Easy,cue2.png,Hard,Left,Easy,Mid,0.0159937001299113,,,,,,,,,,,,,27,27,Female,0.7142857142857143,0.5,0.6,0.25,2.7777777777777777,3.125,2.3333333333333335,2.7777777777777777,2.25,3.2222222222222223,2.0,1.25,1.5,0.25,1.0,1.0,0.0,-1.3745375906167383,,,,,,,,,,,,,,,,,,,0.02840103055426657,-0.19464497375696954,0.004689976525923491,-0.7638333612072791,-7.516398327091732e+43,-0.176835385094769,,,,,,,,
0,240625_145204,OFFLINERATING,9.0,1,1.0,,,,,,,,,,,,,,,,,T0,cue1.png,Easy,0.0,1.1185108998324722,,,,,,,,,,,,,,,,,,,,,,27,27,Female,0.7142857142857143,0.5,0.6,0.25,2.7777777777777777,3.125,2.3333333333333335,2.7777777777777777,2.25,3.2222222222222223,2.0,1.25,1.5,0.25,,,,,,,,,,,,,,,,,,,,,,,,,,,,,-0.3779644730092272,,,,,150823122.74298295,1.4141540938513601,
1,240625_145213,OFFLINERATING,9.0,2,3.0,,,,,,,,,,,,,,,,,T0,cue2.png,Hard,0.0,2.236021399963647,,,,,,,,,,,,,,,,,,,,,,27,27,Female,0.7142857142857143,0.5,0.6,0.25,2.7777777777777777,3.125,2.3333333333333335,2.7777777777777777,2.25,3.2222222222222223,2.0,1.25,1.5,0.25,,,,,,,,,,,,,,,,,,,,,,,,,,,,,-0.3779644730092272,,,,,1755387.63899898,-0.6958454338367888,
2,240625_151351,OFFLINERATING,9.0,3,1.0,,,,,,,,,,,,,,,,,T1,cue1.png,Easy,0.0,1.8081859999801964,,,,,,,,,,,,,,,,,,,,,,27,27,Female,0.7142857142857143,0.5,0.6,0.25,2.7777777777777777,3.125,2.3333333333333335,2.7777777777777777,2.25,3.2222222222222223,2.0,1.25,1.5,0.25,,,,,,,,,,,,,,,,,,,,,,,,,,,,,-0.3779644730092272,0.026972742812468486,-0.46632397130253767,,,168400.43567981155,-0.7183086600145715,
3,240625_151359,OFFLINERATING,9.0,4,3.0,,,,,,,,,,,,,,,,,T1,cue2.png,Hard,0.0,2.226913799997419,,,,,,,,,,,,,,,,,,,,,,27,27,Female,0.7142857142857143,0.5,0.6,0.25,2.7777777777777777,3.125,2.3333333333333335,2.7777777777777777,2.25,3.2222222222222223,2.0,1.25,1.5,0.25,,,,,,,,,,,,,,,,,,,,,,,,,,,,,-0.3779644730092272,0.025083475462123934,-0.7389846300928365,,,,,
4,240625_151835,OFFLINERATING,9.0,5,1.0,,,,,,,,,,,,,,,,,T2,cue1.png,Easy,0.0,1.518689699936658,,,,,,,,,,,,,,,,,,,,,,27,27,Female,0.7142857142857143,0.5,0.6,0.25,2.7777777777777777,3.125,2.3333333333333335,2.7777777777777777,2.25,3.2222222222222223,2.0,1.25,1.5,0.25,,,,,,,,,,,,,,,,,,,,,,,,,,,,,-0.3779644730092272,0.026617265560268742,-0.5176267484092668,0.0060036101367013815,0.18293576415145488,,,
5,240625_151843,OFFLINERATING,9.0,6,3.0,,,,,,,,,,,,,,,,,T2,cue2.png,Hard,0.0,1.6354906000196934,,,,,,,,,,,,,,,,,,,,,,27,27,Female,0.7142857142857143,0.5,0.6,0.25,2.7777777777777777,3.125,2.3333333333333335,2.7777777777777777,2.25,3.2222222222222223,2.0,1.25,1.5,0.25,,,,,,,,,,,,,,,,,,,,,,,,,,,,,-0.3779644730092272,0.042142133861238405,1.722935349804639,0.00663850205924593,1.0412904696252565,,,
6,240625_153653,OFFLINERATING,9.0,7,1.0,,,,,,,,,,,,,,,,,T3,cue1.png,Easy,2.0,2.0576418000273407,,,,,,,,,,,,,,,,,,,,,,27,27,Female,0.7142857142857143,0.5,0.6,0.25,2.7777777777777777,3.125,2.3333333333333335,2.7777777777777777,2.25,3.2222222222222223,2.0,1.25,1.5,0.25,,,,,,,,,,,,,,,,,,,,,,,,,,,,,2.6457513110645903,,,0.006179381696236237,0.4205736043220006,,,
7,240625_153701,OFFLINERATING,9.0,8,3.0,,,,,,,,,,,,,,,,,T3,cue2.png,Hard,0.0,1.9689551999326795,,,,,,,,,,,,,,,,,,,,,,27,27,Female,0.7142857142857143,0.5,0.6,0.25,2.7777777777777777,3.125,2.3333333333333335,2.7777777777777777,2.25,3.2222222222222223,2.0,1.25,1.5,0.25,,,,,,,,,,,,,,,,,,,,,,,,,,,,,-0.3779644730092272,,,0.004651704493246919,-1.6447998380987083,,,
0,240625_151903,LEARNINGCHECK,9.0,1,,,,,,,,,,,,1.0,1.0,1.0,,,A,,,,,,,,,,,,,,,cue1.png,Easy,Left,Left,Easy,0.0144056999124586,1.0,,,,,,27,27,Female,0.7142857142857143,0.5,0.6,0.25,2.7777777777777777,3.125,2.3333333333333335,2.7777777777777777,2.25,3.2222222222222223,2.0,1.25,1.5,0.25,,,,,,,,,,,,,,,,,,,,,,,,,,,,,,,,,,,,
1,240625_151909,LEARNINGCHECK,9.0,2,,,,,,,,,,,,2.0,2.0,2.0,,,A,,,,,,,,,,,,,,,cue2.png,Hard,Right,Right,Hard,0.0134869001340121,1.0,,,,,,27,27,Female,0.7142857142857143,0.5,0.6,0.25,2.7777777777777777,3.125,2.3333333333333335,2.7777777777777777,2.25,3.2222222222222223,2.0,1.25,1.5,0.25,,,,,,,,,,,,,,,,,,,,,,,,,,,,,,,,,,,,
2,240625_153717,LEARNINGCHECK,9.0,1,,,,,,,,,,,,1.0,1.0,1.0,,,A,,,,,,,,,,,,,,,cue1.png,Easy,Middle,Middle,Mid,0.0162790999747812,1.0,,,,,,27,27,Female,0.7142857142857143,0.5,0.6,0.25,2.7777777777777777,3.125,2.3333333333333335,2.7777777777777777,2.25,3.2222222222222223,2.0,1.25,1.5,0.25,,,,,,,,,,,,,,,,,,,,,,,,,,,,,,,,,,,,
3,240625_153721,LEARNINGCHECK,9.0,2,,,,,,,,,,,,2.0,2.0,2.0,,,A,,,,,,,,,,,,,,,cue2.png,Hard,Middle,Middle,Mid,0.0150369999464601,1.0,,,,,,27,27,Female,0.7142857142857143,0.5,0.6,0.25,2.7777777777777777,3.125,2.3333333333333335,2.7777777777777777,2.25,3.2222222222222223,2.0,1.25,1.5,0.25,,,,,,,,,,,,,,,,,,,,,,,,,,,,,,,,,,,,
0,240625_153738,DEMANDRATING,9.0,-1,,,,,,,,,,,,,,,,,,,,,,,,,,,,,,,,,,,,,,,1.0,MentalDemand,1.0,62.0,6.269227100070566,27,27,Female,0.7142857142857143,0.5,0.6,0.25,2.7777777777777777,3.125,2.3333333333333335,2.7777777777777777,2.25,3.2222222222222223,2.0,1.25,1.5,0.25,,,,,,,,,,,,,,,,,,,,,,,,,,,,,,,,,,,,-0.9097034785020387
1,240625_153743,DEMANDRATING,9.0,-1,,,,,,,,,,,,,,,,,,,,,,,,,,,,,,,,,,,,,,,2.0,Effort,1.0,63.0,3.605279500130564,27,27,Female,0.7142857142857143,0.5,0.6,0.25,2.7777777777777777,3.125,2.3333333333333335,2.7777777777777777,2.25,3.2222222222222223,2.0,1.25,1.5,0.25,,,,,,,,,,,,,,,,,,,,,,,,,,,,,,,,,,,,-0.8532391246639812
2,240625_153747,DEMANDRATING,9.0,-1,,,,,,,,,,,,,,,,,,,,,,,,,,,,,,,,,,,,,,,3.0,Frustration,1.0,66.0,2.477461200207472,27,27,Female,0.7142857142857143,0.5,0.6,0.25,2.7777777777777777,3.125,2.3333333333333335,2.7777777777777777,2.25,3.2222222222222223,2.0,1.25,1.5,0.25,,,,,,,,,,,,,,,,,,,,,,,,,,,,,,,,,,,,-0.6838460631498084
3,240625_153749,DEMANDRATING,9.0,-1,,,,,,,,,,,,,,,,,,,,,,,,,,,,,,,,,,,,,,,4.0,MentalDemand,2.0,51.0,0.8643163999076933,27,27,Female,0.7142857142857143,0.5,0.6,0.25,2.7777777777777777,3.125,2.3333333333333335,2.7777777777777777,2.25,3.2222222222222223,2.0,1.25,1.5,0.25,,,,,,,,,,,,,,,,,,,,,,,,,,,,,,,,,,,,-1.530811370720672
4,240625_153753,DEMANDRATING,9.0,-1,,,,,,,,,,,,,,,,,,,,,,,,,,,,,,,,,,,,,,,5.0,Effort,2.0,79.0,1.6096969000063837,27,27,Female,0.7142857142857143,0.5,0.6,0.25,2.7777777777777777,3.125,2.3333333333333335,2.7777777777777777,2.25,3.2222222222222223,2.0,1.25,1.5,0.25,,,,,,,,,,,,,,,,,,,,,,,,,,,,,,,,,,,,0.05019053674493988
5,240625_153756,DEMANDRATING,9.0,-1,,,,,,,,,,,,,,,,,,,,,,,,,,,,,,,,,,,,,,,6.0,Frustration,2.0,82.0,1.5840640000533313,27,27,Female,0.7142857142857143,0.5,0.6,0.25,2.7777777777777777,3.125,2.3333333333333335,2.7777777777777777,2.25,3.2222222222222223,2.0,1.25,1.5,0.25,,,,,,,,,,,,,,,,,,,,,,,,,,,,,,,,,,,,0.21958359825911258
6,240625_153759,DEMANDRATING,9.0,-1,,,,,,,,,,,,,,,,,,,,,,,,,,,,,,,,,,,,,,,7.0,MentalDemand,3.0,100.0,1.616096000187099,27,27,Female,0.7142857142857143,0.5,0.6,0.25,2.7777777777777777,3.125,2.3333333333333335,2.7777777777777777,2.25,3.2222222222222223,2.0,1.25,1.5,0.25,,,,,,,,,,,,,,,,,,,,,,,,,,,,,,,,,,,,1.2359419673441487
7,240625_153802,DEMANDRATING,9.0,-1,,,,,,,,,,,,,,,,,,,,,,,,,,,,,,,,,,,,,,,8.0,Effort,3.0,100.0,1.2440655999816954,27,27,Female,0.7142857142857143,0.5,0.6,0.25,2.7777777777777777,3.125,2.3333333333333335,2.7777777777777777,2.25,3.2222222222222223,2.0,1.25,1.5,0.25,,,,,,,,,,,,,,,,,,,,,,,,,,,,,,,,,,,,1.2359419673441487
8,240625_153806,DEMANDRATING,9.0,-1,,,,,,,,,,,,,,,,,,,,,,,,,,,,,,,,,,,,,,,9.0,Frustration,3.0,100.0,2.368200099794194,27,27,Female,0.7142857142857143,0.5,0.6,0.25,2.7777777777777777,3.125,2.3333333333333335,2.7777777777777777,2.25,3.2222222222222223,2.0,1.25,1.5,0.25,,,,,,,,,,,,,,,,,,,,,,,,,,,,,,,,,,,,1.2359419673441487
