,END,Phase,Block,TrialN,NbackLevel,ISI,Letter_Resp,Letter_RT,Letter_Accuracy,Trial_A_measure,Trial_ACC,Trial_RT,TrialCountCali,CaliEnd_A_measure,ISI_calibrated,TrialIndex,TrialNumber_total,TrialNumber_valid,CueLearning,TrialDemandLearning,CueMapping,OfflineRatingTimePoint,CueFigure,TrialDemand,OfflineRating,OfflineRatingRT,PhaseType,CueLeft,CueDemandLeft,CueRight,CueDemandRight,Choice,ChoiceDemand,TaskDemand,ChoiceRT,CueCheck,CueDemandCheck,CorrectAnswer,Answer,AnswerDemand,AnswerRT,AnswerACC,DemandRatingQuesIndex,QuesTLX,DemandLevel,DemandRating,DemandRatingRT,PID,Age,Gender,BAI_bis,BAI_bas_d,BAI_bas_rr,BAI_bas_fs,NFC,BFI_ext,BFI_agr,BFI_con,BFI_neu,BFI_open,UPPS_lps,UPPS_lpm,UPPS_pu,UPPS_ss,Task_A_measure,Task_ACC,Task_RT,Task_RT_z,cue_i_on_zyg_values,cue_i_on_zyg_zvalues,cue_e_on_zyg_values,cue_e_on_zyg_zvalues,cue_i_on_cor_values,cue_i_on_cor_zvalues,cue_e_on_cor_values,cue_e_on_cor_zvalues,cue_i_on_scr_values,cue_i_on_scr_zvalues,cue_e_on_scr_values,cue_e_on_scr_zvalues,cue_e_true_zyg_values,cue_e_true_zyg_zvalues,cue_e_true_cor_values,cue_e_true_cor_zvalues,cue_e_true_scr_values,cue_e_true_scr_zvalues,cue_e_false_zyg_values,cue_e_false_zyg_zvalues,cue_e_false_cor_values,cue_e_false_cor_zvalues,cue_e_false_scr_values,cue_e_false_scr_zvalues,OfflineRating_z,cue_i_off_zyg_values,cue_i_off_zyg_zvalues,cue_i_off_cor_values,cue_i_off_cor_zvalues,cue_i_off_scr_values,cue_i_off_scr_zvalues,DemandRating_z
0,240626_143711,PRACTICE,0.0,1,3.0,1472.0,,,,,,,,,,31.0,1.0,1.0,cue2.png,Hard,A,,,,,,,,,,,,,,,,,,,,,,,,,,,29,32,Male,1.1428571428571428,0.25,0.0,0.5,3.5,1.75,2.888888888888889,2.6666666666666665,1.75,3.111111111111111,2.25,2.25,1.25,1.75,,,,,,,,,,,,,,,,,,,,,,,,,,,,,,,,,,,,
0,240626_144013,LEARNING,1.0,1,1.0,1472.0,,,,,,,,,,1.0,1.0,1.0,cue1.png,Easy,A,,,,,,,,,,,,,,,,,,,,,,,,,,,29,32,Male,1.1428571428571428,0.25,0.0,0.5,3.5,1.75,2.888888888888889,2.6666666666666665,1.75,3.111111111111111,2.25,2.25,1.25,1.75,0.9166666666666666,0.8888888888888888,0.4205907374853268,-1.03014039876521,0.009036533790778947,-0.22330518187104054,0.00812233885314496,-0.4292265542974711,0.010784778791993495,-0.7266248346323879,,,7.919004812747846e+45,0.7478192709631161,,,,,,,,,,,,,,,,,,,,,,
1,240626_144035,LEARNING,1.0,2,3.0,1472.0,,,,,,,,,,2.0,2.0,2.0,cue2.png,Hard,A,,,,,,,,,,,,,,,,,,,,,,,,,,,29,32,Male,1.1428571428571428,0.25,0.0,0.5,3.5,1.75,2.888888888888889,2.6666666666666665,1.75,3.111111111111111,2.25,2.25,1.25,1.75,0.8194444444444444,0.8333333333333334,0.6328173110830702,0.6421014271003014,,,,,,,0.013000738496925556,0.2163487098338551,9.093832764795955e+44,-0.08011240833885169,1.768765203992635e+45,3.4738761696210485,,,,,,,,,,,,,,,,,,,,
2,240626_144056,LEARNING,1.0,3,1.0,1472.0,,,,,,,,,,3.0,3.0,3.0,cue1.png,Easy,A,,,,,,,,,,,,,,,,,,,,,,,,,,,29,32,Male,1.1428571428571428,0.25,0.0,0.5,3.5,1.75,2.888888888888889,2.6666666666666665,1.75,3.111111111111111,2.25,2.25,1.25,1.75,1.0,1.0,0.5187174333518164,-0.2569499246403754,,,,,,,0.012429151946717239,-0.05294516193192564,-1.3123468627350982e+45,-0.34252896757795276,-1.4243255403624507e+45,-2.624281267589897,,,,,,,,,,,,,,,,,,,,
3,240626_144116,LEARNING,1.0,4,3.0,1472.0,,,,,,,,,,4.0,4.0,4.0,cue2.png,Hard,A,,,,,,,,,,,,,,,,,,,,,,,,,,,29,32,Male,1.1428571428571428,0.25,0.0,0.5,3.5,1.75,2.888888888888889,2.6666666666666665,1.75,3.111111111111111,2.25,2.25,1.25,1.75,0.5,0.6666666666666667,0.5468885666535547,-0.034975142733514215,0.011125468793076795,0.4361407029920692,0.012081376315865087,0.9992517415325662,,,,,-1.3016284696768104e+45,-0.3412629795187898,-1.5641448660393517e+45,-2.8913078975877315,,,,,,,,,,,,,,,,,,,,
4,240626_144137,LEARNING,1.0,5,3.0,1472.0,,,,,,,,,,5.0,5.0,5.0,cue2.png,Hard,A,,,,,,,,,,,,,,,,,,,,,,,,,,,29,32,Male,1.1428571428571428,0.25,0.0,0.5,3.5,1.75,2.888888888888889,2.6666666666666665,1.75,3.111111111111111,2.25,2.25,1.25,1.75,0.5,0.6666666666666667,0.5141453889146861,-0.2929754034853412,0.011625432026230802,0.5939717012393072,0.009877948166098898,0.20422281897234396,0.012944055350817552,0.1778317815291079,0.00945728053477299,-1.4530949006212444,,,,,,,,,,,,,,,,,,,,,,,,
5,240626_144157,LEARNING,1.0,6,1.0,1472.0,,,,,,,,,,6.0,6.0,6.0,cue1.png,Easy,A,,,,,,,,,,,,,,,,,,,,,,,,,,,29,32,Male,1.1428571428571428,0.25,0.0,0.5,3.5,1.75,2.888888888888889,2.6666666666666665,1.75,3.111111111111111,2.25,2.25,1.25,1.75,1.0,1.0,0.4762736666792382,-0.5913860919588523,0.010653313269248019,0.28708818730260444,0.010317539642144522,0.3628338168414124,0.012687324701937803,0.07029496184669543,,,,,,,,,,,,,,,,,,,,,,,,,,
6,240626_144219,LEARNING,1.0,7,3.0,1472.0,,,,,,,,,,7.0,7.0,7.0,cue2.png,Hard,A,,,,,,,,,,,,,,,,,,,,,,,,,,,29,32,Male,1.1428571428571428,0.25,0.0,0.5,3.5,1.75,2.888888888888889,2.6666666666666665,1.75,3.111111111111111,2.25,2.25,1.25,1.75,0.8194444444444444,0.8333333333333334,0.6307566777233862,0.6258646418880561,0.010189013481895045,0.1405156114321565,0.009443537747268825,0.047481221898686025,0.01023078429847045,-0.9586766220406834,0.012199811413598098,-0.16099529028776774,1.8447784589851442e+44,-0.1657336030596764,9.458008141483878e+43,0.27652123238210474,,,,,,,,,,,,,,,,,,,,
7,240626_144242,LEARNING,1.0,8,3.0,1472.0,,,,,,,,,,8.0,8.0,8.0,cue2.png,Hard,A,,,,,,,,,,,,,,,,,,,,,,,,,,,29,32,Male,1.1428571428571428,0.25,0.0,0.5,3.5,1.75,2.888888888888889,2.6666666666666665,1.75,3.111111111111111,2.25,2.25,1.25,1.75,0.8194444444444444,0.8333333333333334,0.7539438666620603,1.5965195710134752,0.009852752937551959,0.034363130878690244,0.006174365665321314,-1.1320836113138166,0.009795124981293611,-1.1411613298020562,0.010876775276647824,-0.7843226300852686,5.103940844002496e+44,-0.12723846073874356,,,,,,,,,,,,,,,,,,,,,,
8,240626_144302,LEARNING,1.0,9,1.0,1472.0,,,,,,,,,,9.0,9.0,9.0,cue1.png,Easy,A,,,,,,,,,,,,,,,,,,,,,,,,,,,29,32,Male,1.1428571428571428,0.25,0.0,0.5,3.5,1.75,2.888888888888889,2.6666666666666665,1.75,3.111111111111111,2.25,2.25,1.25,1.75,1.0,1.0,0.4359452888990442,-0.9091540271900453,0.006316905080274022,-1.081851742451063,0.007246534433584646,-0.7452295263618892,0.01109426553394515,-0.5969900593978148,0.010181192769961116,-1.1120352158519258,5.38303748359966e+46,6.170576760183958,,,,,,,,,,,,,,,,,,,,,,
9,240626_144323,LEARNING,1.0,10,1.0,1472.0,,,,,,,,,,10.0,10.0,10.0,cue1.png,Easy,A,,,,,,,,,,,,,,,,,,,,,,,,,,,29,32,Male,1.1428571428571428,0.25,0.0,0.5,3.5,1.75,2.888888888888889,2.6666666666666665,1.75,3.111111111111111,2.25,2.25,1.25,1.75,0.8194444444444444,0.7222222222222223,0.4809548750054091,-0.554500454944091,0.009112775645851091,-0.19923675584229875,,,,,,,6.436614833476396e+44,-0.1114977676305878,,,,,,,,,,,,,,,,,,,,,,
10,240626_144347,LEARNING,1.0,11,3.0,1472.0,,,,,,,,,,11.0,11.0,11.0,cue2.png,Hard,A,,,,,,,,,,,,,,,,,,,,,,,,,,,29,32,Male,1.1428571428571428,0.25,0.0,0.5,3.5,1.75,2.888888888888889,2.6666666666666665,1.75,3.111111111111111,2.25,2.25,1.25,1.75,0.8194444444444444,0.8333333333333334,0.8042529889175462,1.9929309017531593,0.010966489015645628,0.38595313856899605,0.01566865837910099,2.2935952825083326,,,,,,,,,,,,,,,,,,,,,,,,,,,,
11,240626_144408,LEARNING,1.0,12,1.0,1472.0,,,,,,,,,,12.0,12.0,12.0,cue1.png,Easy,A,,,,,,,,,,,,,,,,,,,,,,,,,,,29,32,Male,1.1428571428571428,0.25,0.0,0.5,3.5,1.75,2.888888888888889,2.6666666666666665,1.75,3.111111111111111,2.25,2.25,1.25,1.75,1.0,1.0,0.6093124222113855,0.4568943740097083,0.0116498466791818,0.6016790460830606,0.00755451011305526,-0.6341074220853073,0.009367472132709989,-1.3202923664175863,0.011406311377532173,-0.5348401557427044,5.751563199535996e+44,-0.1195891595375863,,,,,,,,,,,,,,,,,,,,,,
12,240626_144428,LEARNING,1.0,13,1.0,1472.0,,,,,,,,,,13.0,13.0,13.0,cue1.png,Easy,A,,,,,,,,,,,,,,,,,,,,,,,,,,,29,32,Male,1.1428571428571428,0.25,0.0,0.5,3.5,1.75,2.888888888888889,2.6666666666666665,1.75,3.111111111111111,2.25,2.25,1.25,1.75,1.0,1.0,0.4801407444239076,-0.5609154066017639,0.007878956830049362,-0.5887351078025646,0.007641919972139021,-0.6025686736600967,0.011448856975143546,-0.44846226951582285,0.012421173056510991,-0.05670428858606304,,,-8.255503556564959e+43,-0.061771010929622845,,,,,,,,,,,,,,,,,,,,
13,240626_144449,LEARNING,1.0,14,1.0,1472.0,,,,,,,,,,14.0,14.0,14.0,cue1.png,Easy,A,,,,,,,,,,,,,,,,,,,,,,,,,,,29,32,Male,1.1428571428571428,0.25,0.0,0.5,3.5,1.75,2.888888888888889,2.6666666666666665,1.75,3.111111111111111,2.25,2.25,1.25,1.75,1.0,1.0,0.5403285000680221,-0.08666526588266785,0.008749965733651669,-0.31377047916268647,0.007576454683103234,-0.626189502055494,0.012103841132915873,-0.17410892067903908,0.010984242198130769,-0.733691306863363,2.7031679794630994e+44,-0.15559485486182612,,,,,,,,,,,,,,,,,,,,,,
14,240626_144511,LEARNING,1.0,15,3.0,1472.0,,,,,,,,,,15.0,15.0,15.0,cue2.png,Hard,A,,,,,,,,,,,,,,,,,,,,,,,,,,,29,32,Male,1.1428571428571428,0.25,0.0,0.5,3.5,1.75,2.888888888888889,2.6666666666666665,1.75,3.111111111111111,2.25,2.25,1.25,1.75,0.8194444444444444,0.8333333333333334,0.621721366704959,0.5546708006146462,0.013478791312730488,1.1790498167913117,,,0.01843224572529939,2.4766712121100807,0.018157616594248565,2.6459294418264863,2.701179617895951e+43,-0.1843324860810791,,,,,,,,,,,,,,,,,,,,,,
15,240626_144531,LEARNING,1.0,16,1.0,1472.0,,,,,,,,,,16.0,16.0,16.0,cue1.png,Easy,A,,,,,,,,,,,,,,,,,,,,,,,,,,,29,32,Male,1.1428571428571428,0.25,0.0,0.5,3.5,1.75,2.888888888888889,2.6666666666666665,1.75,3.111111111111111,2.25,2.25,1.25,1.75,1.0,1.0,0.4669772332999855,-0.6646374499986071,0.007234834908398408,-0.7920748719003446,0.007122295082837219,-0.7900568910185448,0.008955469997428266,-1.492867785534421,0.011863260173468584,-0.3195560305099109,,,,,,,,,,,,,,,,,,,,,,,,
16,240626_144553,LEARNING,1.0,17,1.0,1472.0,,,,,,,,,,17.0,17.0,17.0,cue1.png,Easy,A,,,,,,,,,,,,,,,,,,,,,,,,,,,29,32,Male,1.1428571428571428,0.25,0.0,0.5,3.5,1.75,2.888888888888889,2.6666666666666665,1.75,3.111111111111111,2.25,2.25,1.25,1.75,0.9166666666666666,0.8888888888888888,0.5489300749904942,-0.018889053366806952,0.007388395149153386,-0.7435981750509614,,,0.011267972391347171,-0.524229432322123,0.009896264133954412,-1.246274790837068,-3.327851199792818e+44,-0.2268293974280432,,,,,,,,,,,,,,,,,,,,,,
17,240626_144618,LEARNING,1.0,18,3.0,1472.0,,,,,,,,,,18.0,18.0,18.0,cue2.png,Hard,A,,,,,,,,,,,,,,,,,,,,,,,,,,,29,32,Male,1.1428571428571428,0.25,0.0,0.5,3.5,1.75,2.888888888888889,2.6666666666666665,1.75,3.111111111111111,2.25,2.25,1.25,1.75,0.5,0.6666666666666667,0.996362377760104,3.506659129646494,0.012974204301251744,1.0197591601126659,0.010788563832555368,0.5327861952032266,0.012021471255458173,-0.2086112081857408,,,1.3333429400399491e+45,-0.03003700349828028,,,,,,,,,,,,,,,,,,,,,,
18,240626_144640,LEARNING,1.0,19,3.0,1472.0,,,,,,,,,,19.0,19.0,19.0,cue2.png,Hard,A,,,,,,,,,,,,,,,,,,,,,,,,,,,29,32,Male,1.1428571428571428,0.25,0.0,0.5,3.5,1.75,2.888888888888889,2.6666666666666665,1.75,3.111111111111111,2.25,2.25,1.25,1.75,0.8194444444444444,0.8333333333333334,0.6222111778075082,0.5585302730575674,0.008643321766906343,-0.3474364021992216,0.006786815328222661,-0.9111028656196597,0.01167705805344369,-0.3528756369280285,0.014267305909531751,0.8130717122711622,,,,,,,,,,,,,,,,,,,,,,,,
19,240626_144701,LEARNING,1.0,20,3.0,1472.0,,,,,,,,,,20.0,20.0,20.0,cue2.png,Hard,A,,,,,,,,,,,,,,,,,,,,,,,,,,,29,32,Male,1.1428571428571428,0.25,0.0,0.5,3.5,1.75,2.888888888888889,2.6666666666666665,1.75,3.111111111111111,2.25,2.25,1.25,1.75,1.0,1.0,0.5742590221990314,0.18069068921310974,,,0.007271548440432041,-0.7362041088937007,0.010900469734675405,-0.6781653456841082,0.013603948696251327,0.5005415586786066,,,2.4347559815141795e+44,0.5608815514114737,,,,,,,,,,,,,,,,,,,,
20,240626_144722,LEARNING,1.0,21,1.0,1472.0,,,,,,,,,,21.0,21.0,21.0,cue1.png,Easy,A,,,,,,,,,,,,,,,,,,,,,,,,,,,29,32,Male,1.1428571428571428,0.25,0.0,0.5,3.5,1.75,2.888888888888889,2.6666666666666665,1.75,3.111111111111111,2.25,2.25,1.25,1.75,1.0,1.0,0.511374444493817,-0.3148090932027692,,,,,0.011527353157272519,-0.4155825575679325,0.013427558719946933,0.41743823925590023,2.2725847241366375e+44,-0.16068062897697946,1.4468618078577217e+44,0.37221374693674564,,,,,,,,,,,,,,,,,,,,
21,240626_144743,LEARNING,1.0,22,3.0,1472.0,,,,,,,,,,22.0,22.0,22.0,cue2.png,Hard,A,,,,,,,,,,,,,,,,,,,,,,,,,,,29,32,Male,1.1428571428571428,0.25,0.0,0.5,3.5,1.75,2.888888888888889,2.6666666666666665,1.75,3.111111111111111,2.25,2.25,1.25,1.75,0.8194444444444444,0.8333333333333334,0.6017910111178126,0.3976293253073665,,,,,0.009376567553565023,-1.3164825656139372,0.010907211760704746,-0.7699829668590457,2.199501785181849e+44,-0.16154383792576635,2.3685407376222293e+43,0.14112674523465202,,,,,,,,,,,,,,,,,,,,
22,240626_144803,LEARNING,1.0,23,3.0,1472.0,,,,,,,,,,23.0,23.0,23.0,cue2.png,Hard,A,,,,,,,,,,,,,,,,,,,,,,,,,,,29,32,Male,1.1428571428571428,0.25,0.0,0.5,3.5,1.75,2.888888888888889,2.6666666666666665,1.75,3.111111111111111,2.25,2.25,1.25,1.75,1.0,1.0,0.5056904444419261,-0.3595962396183238,,,,,0.011861317084731308,-0.2756950186072538,0.010855523048639749,-0.794335277796902,1.212290983950662e+44,-0.1732041407289832,-9.922463040873378e+43,-0.09360656522677399,,,,,,,,,,,,,,,,,,,,
23,240626_144825,LEARNING,1.0,24,3.0,1472.0,,,,,,,,,,24.0,24.0,24.0,cue2.png,Hard,A,,,,,,,,,,,,,,,,,,,,,,,,,,,29,32,Male,1.1428571428571428,0.25,0.0,0.5,3.5,1.75,2.888888888888889,2.6666666666666665,1.75,3.111111111111111,2.25,2.25,1.25,1.75,1.0,1.0,0.6362750554819487,0.6693467654617291,0.010811817639584869,0.337125672737276,0.007781259754693813,-0.5522928535903262,0.012326185035781295,-0.08097568436987515,0.010256420159611476,-1.076593033011208,,,-1.7780126683564827e+44,-0.24367204666193706,,,,,,,,,,,,,,,,,,,,
24,240626_144845,LEARNING,1.0,25,1.0,1472.0,,,,,,,,,,25.0,25.0,25.0,cue1.png,Easy,A,,,,,,,,,,,,,,,,,,,,,,,,,,,29,32,Male,1.1428571428571428,0.25,0.0,0.5,3.5,1.75,2.888888888888889,2.6666666666666665,1.75,3.111111111111111,2.25,2.25,1.25,1.75,1.0,1.0,0.4696138888700968,-0.643861890887435,0.006982187708292377,-0.8718318563200796,0.0074096903398524795,-0.6863605024805268,0.012932508773861266,0.17299526446534733,0.011258974830924022,-0.6042554159062753,-9.775521777351463e+43,-0.19906916806150993,-2.0432013851575305e+44,-0.2943177274489188,,,,,,,,,,,,,,,,,,,,
25,240626_144905,LEARNING,1.0,26,1.0,1472.0,,,,,,,,,,26.0,26.0,26.0,cue1.png,Easy,A,,,,,,,,,,,,,,,,,,,,,,,,,,,29,32,Male,1.1428571428571428,0.25,0.0,0.5,3.5,1.75,2.888888888888889,2.6666666666666665,1.75,3.111111111111111,2.25,2.25,1.25,1.75,1.0,1.0,0.4663623777580344,-0.6694822115978997,0.007850210235333194,-0.5978099825921354,0.011750457050414553,0.8798512577484796,0.014649588261530073,0.8922287025123119,0.012760423915036675,0.10312833371575751,-1.6191207652919119e+44,-0.20664696602584978,-1.679498673720875e+44,-0.22485786638477037,,,,,,,,,,,,,,,,,,,,
26,240626_144927,LEARNING,1.0,27,3.0,1472.0,,,,,,,,,,27.0,27.0,27.0,cue2.png,Hard,A,,,,,,,,,,,,,,,,,,,,,,,,,,,29,32,Male,1.1428571428571428,0.25,0.0,0.5,3.5,1.75,2.888888888888889,2.6666666666666665,1.75,3.111111111111111,2.25,2.25,1.25,1.75,0.8194444444444444,0.8333333333333334,0.5814838333365818,0.23761867501327888,0.00790181105737836,-0.5815203662489711,0.008829047324194438,-0.17423585974622477,0.011608811505275252,-0.38146208259145153,0.013174301801693156,0.29812028811941266,-1.5910591680512354e+44,-0.20631552038064396,1.4816810133305227e+44,0.3788635108743071,,,,,,,,,,,,,,,,,,,,
27,240626_144946,LEARNING,1.0,28,1.0,1472.0,,,,,,,,,,28.0,28.0,28.0,cue1.png,Easy,A,,,,,,,,,,,,,,,,,,,,,,,,,,,29,32,Male,1.1428571428571428,0.25,0.0,0.5,3.5,1.75,2.888888888888889,2.6666666666666665,1.75,3.111111111111111,2.25,2.25,1.25,1.75,1.0,1.0,0.3952629888792419,-1.2297106969427636,0.009782422160851905,0.012160744867129834,0.008831013002046004,-0.1735266145890378,0.01174464776040831,-0.3245643224747006,0.012998790564088881,0.21543097239700212,-1.1645547451864379e+44,-0.20127792282669443,1.647185254852572e+43,0.12735031464024643,,,,,,,,,,,,,,,,,,,,
28,240626_145006,LEARNING,1.0,29,1.0,1472.0,,,,,,,,,,29.0,29.0,29.0,cue1.png,Easy,A,,,,,,,,,,,,,,,,,,,,,,,,,,,29,32,Male,1.1428571428571428,0.25,0.0,0.5,3.5,1.75,2.888888888888889,2.6666666666666665,1.75,3.111111111111111,2.25,2.25,1.25,1.75,1.0,1.0,0.4142047444668909,-1.0804589071597088,0.008356320805045149,-0.438038361112701,,,,,0.014297140195610784,0.8271276595404998,-3.8604930697547137e+43,-0.19208271433407073,,,,,,,,,,,,,,,,,,,,,,
29,240626_145026,LEARNING,1.0,30,3.0,1472.0,,,,,,,,,,30.0,30.0,30.0,cue2.png,Hard,A,,,,,,,,,,,,,,,,,,,,,,,,,,,29,32,Male,1.1428571428571428,0.25,0.0,0.5,3.5,1.75,2.888888888888889,2.6666666666666665,1.75,3.111111111111111,2.25,2.25,1.25,1.75,0.8194444444444444,0.8333333333333334,0.5169712555232562,-0.2707089537328024,0.025697811528150885,5.036413779410778,0.012487633701644504,1.1458353148306635,0.01836807197891785,2.4497907417685396,0.014098486493500033,0.733535141377654,5.302382056468798e+43,-0.1812601120705437,1.6228383125603184e+44,0.40582169975874627,,,,,,,,,,,,,,,,,,,,
30,240626_145047,LEARNING,1.0,31,3.0,1472.0,,,,,,,,,,31.0,31.0,31.0,cue2.png,Hard,A,,,,,,,,,,,,,,,,,,,,,,,,,,,29,32,Male,1.1428571428571428,0.25,0.0,0.5,3.5,1.75,2.888888888888889,2.6666666666666665,1.75,3.111111111111111,2.25,2.25,1.25,1.75,0.5,0.6666666666666667,0.4716703221977998,-0.6276581998774354,0.009098310177818245,-0.20380329015590185,0.007562397150743347,-0.6312616641802824,0.011703677824040082,-0.34172540814505104,0.012770755640020944,0.10799596088791392,1.1663062836997398e+44,-0.17374728260767033,,,,,,,,,,,,,,,,,,,,,,
31,240626_145107,LEARNING,1.0,32,1.0,1472.0,,,,,,,,,,32.0,32.0,32.0,cue1.png,Easy,A,,,,,,,,,,,,,,,,,,,,,,,,,,,29,32,Male,1.1428571428571428,0.25,0.0,0.5,3.5,1.75,2.888888888888889,2.6666666666666665,1.75,3.111111111111111,2.25,2.25,1.25,1.75,0.8194444444444444,0.8333333333333334,0.5018175778030936,-0.39011253863623285,0.007676318274500046,-0.6527051027639242,0.0066664142479791,-0.954545326455645,0.010637203159409445,-0.7884398701957587,0.016210468697238273,1.7285618167565893,1.4717558131401357e+44,-0.17013950805745948,1.4919472205290482e+44,0.3808241487888516,,,,,,,,,,,,,,,,,,,,
32,240626_145127,LEARNING,1.0,33,1.0,1472.0,,,,,,,,,,33.0,33.0,33.0,cue1.png,Easy,A,,,,,,,,,,,,,,,,,,,,,,,,,,,29,32,Male,1.1428571428571428,0.25,0.0,0.5,3.5,1.75,2.888888888888889,2.6666666666666665,1.75,3.111111111111111,2.25,2.25,1.25,1.75,1.0,1.0,0.4744533222530865,-0.6057295176443734,0.005514070075555413,-1.335294879505767,,,0.010836186611461079,-0.7050916307220867,0.011445050657442571,-0.5165887628911977,1.3674552816037878e+44,-0.17137143925060846,8.612895235678642e+43,0.260381285338852,,,,,,,,,,,,,,,,,,,,
33,240626_145147,LEARNING,1.0,34,1.0,1472.0,,,,,,,,,,34.0,34.0,34.0,cue1.png,Easy,A,,,,,,,,,,,,,,,,,,,,,,,,,,,29,32,Male,1.1428571428571428,0.25,0.0,0.5,3.5,1.75,2.888888888888889,2.6666666666666665,1.75,3.111111111111111,2.25,2.25,1.25,1.75,1.0,1.0,0.443434811093741,-0.8501402474479348,0.009991436336109901,0.07814342867506265,0.008851340471638163,-0.16619216792239935,0.016117655012672462,1.5071581244111758,0.018500012277587678,2.807243698099094,8.289984006403532e+43,-0.17773134766194176,-5.1790170169513864e+42,0.08600153321390935,,,,,,,,,,,,,,,,,,,,
34,240626_145207,LEARNING,1.0,35,3.0,1472.0,,,,,,,,,,35.0,35.0,35.0,cue2.png,Hard,A,,,,,,,,,,,,,,,,,,,,,,,,,,,29,32,Male,1.1428571428571428,0.25,0.0,0.5,3.5,1.75,2.888888888888889,2.6666666666666665,1.75,3.111111111111111,2.25,2.25,1.25,1.75,0.8194444444444444,0.8333333333333334,0.4458930666765405,-0.8307703931712674,0.007624337856337665,-0.6691145519870639,,,0.014744938842042556,0.9321682197765205,0.015800712312212466,1.5355116420032926,1.0660338007566669e+43,-0.18626381577596082,-9.24036834165745e+43,-0.08057993618323929,,,,,,,,,,,,,,,,,,,,
35,240626_145229,LEARNING,1.0,36,3.0,1472.0,,,,,,,,,,36.0,36.0,36.0,cue2.png,Hard,A,,,,,,,,,,,,,,,,,,,,,,,,,,,29,32,Male,1.1428571428571428,0.25,0.0,0.5,3.5,1.75,2.888888888888889,2.6666666666666665,1.75,3.111111111111111,2.25,2.25,1.25,1.75,1.0,1.0,0.6226220000276549,0.5617673516565288,0.008265256347164053,-0.4667860636218365,0.0077682531475511025,-0.5569858266123557,,,0.011108936385647174,-0.6749436324634969,-7.225777695445715e+43,-0.1960575733718395,-1.436550832994087e+44,-0.17845974304920476,,,,,,,,,,,,,,,,,,,,
36,240626_145249,LEARNING,1.0,37,1.0,1472.0,,,,,,,,,,37.0,37.0,37.0,cue1.png,Easy,A,,,,,,,,,,,,,,,,,,,,,,,,,,,29,32,Male,1.1428571428571428,0.25,0.0,0.5,3.5,1.75,2.888888888888889,2.6666666666666665,1.75,3.111111111111111,2.25,2.25,1.25,1.75,1.0,1.0,0.4150783333203031,-1.0735754533371225,,,0.010763925133755618,0.5238961943370176,0.011990530927637235,-0.22157118966170905,0.012624927622083015,0.03929141990786035,-1.2474186041158154e+44,-0.2022566577487137,-1.591814856493696e+44,-0.20811203092449554,,,,,,,,,,,,,,,,,,,,
37,240626_145310,LEARNING,1.0,38,3.0,1472.0,,,,,,,,,,38.0,38.0,38.0,cue2.png,Hard,A,,,,,,,,,,,,,,,,,,,,,,,,,,,29,32,Male,1.1428571428571428,0.25,0.0,0.5,3.5,1.75,2.888888888888889,2.6666666666666665,1.75,3.111111111111111,2.25,2.25,1.25,1.75,0.8194444444444444,0.8333333333333334,0.6558121110881783,0.8232892288637048,0.007352981096665875,-0.7547778676472011,0.007190521484626743,-0.7654398129846446,0.013502953546697227,0.41193758375177064,,,-1.3239493809296312e+44,-0.20316059035388942,-1.2222945873397904e+44,-0.1375411340113794,,,,,,,,,,,,,,,,,,,,
38,240626_145331,LEARNING,1.0,39,3.0,1472.0,,,,,,,,,,39.0,39.0,39.0,cue2.png,Hard,A,,,,,,,,,,,,,,,,,,,,,,,,,,,29,32,Male,1.1428571428571428,0.25,0.0,0.5,3.5,1.75,2.888888888888889,2.6666666666666665,1.75,3.111111111111111,2.25,2.25,1.25,1.75,1.0,1.0,0.5569084333255887,0.043976516592287275,0.009512162081284765,-0.0731563651038754,0.006492360057211025,-1.017346609886701,0.015471166703537508,1.236363433439952,0.01292902267936212,0.18256094808287038,,,,,,,,,,,,,,,,,,,,,,,,
39,240626_145352,LEARNING,1.0,40,3.0,1472.0,,,,,,,,,,40.0,40.0,40.0,cue2.png,Hard,A,,,,,,,,,,,,,,,,,,,,,,,,,,,29,32,Male,1.1428571428571428,0.25,0.0,0.5,3.5,1.75,2.888888888888889,2.6666666666666665,1.75,3.111111111111111,2.25,2.25,1.25,1.75,0.8194444444444444,0.8333333333333334,0.498180411161027,-0.41877163670957207,0.006643182974125696,-0.9788506370142694,0.02057716420824684,4.064655573782404,0.010987252256023566,-0.6418147331237296,,,-1.4686712766394937e+43,-0.18925764735503497,5.700539849671032e+43,0.2047611884519072,,,,,,,,,,,,,,,,,,,,
40,240626_145412,LEARNING,1.0,41,1.0,1472.0,,,,,,,,,,41.0,41.0,41.0,cue1.png,Easy,A,,,,,,,,,,,,,,,,,,,,,,,,,,,29,32,Male,1.1428571428571428,0.25,0.0,0.5,3.5,1.75,2.888888888888889,2.6666666666666665,1.75,3.111111111111111,2.25,2.25,1.25,1.75,1.0,1.0,0.4660463555871199,-0.6719723120746937,0.009750826946569879,0.0021866030117194827,0.00851180096916727,-0.288702958594068,0.013797074002762443,0.5351358796576432,0.012106989347960381,-0.20472692363667727,7.517138227396869e+43,-0.17864418368360674,1.3409866190384918e+44,0.3519937274695413,,,,,,,,,,,,,,,,,,,,
41,240626_145434,LEARNING,1.0,42,3.0,1472.0,,,,,,,,,,42.0,42.0,42.0,cue2.png,Hard,A,,,,,,,,,,,,,,,,,,,,,,,,,,,29,32,Male,1.1428571428571428,0.25,0.0,0.5,3.5,1.75,2.888888888888889,2.6666666666666665,1.75,3.111111111111111,2.25,2.25,1.25,1.75,0.8194444444444444,0.8333333333333334,0.66360602227764,0.8847014453319524,0.010006653292052307,0.08294719660720228,0.009520560268855059,0.07527206788387175,0.016817041799825676,1.8001104117463154,0.01090487553779622,-0.771083640960134,1.2746232917301218e+44,-0.17246791136213938,,,,,,,,,,,,,,,,,,,,,,
42,240626_145455,LEARNING,1.0,43,3.0,1472.0,,,,,,,,,,43.0,43.0,43.0,cue2.png,Hard,A,,,,,,,,,,,,,,,,,,,,,,,,,,,29,32,Male,1.1428571428571428,0.25,0.0,0.5,3.5,1.75,2.888888888888889,2.6666666666666665,1.75,3.111111111111111,2.25,2.25,1.25,1.75,0.8194444444444444,0.8333333333333334,0.5429832888767123,-0.06574682570115699,0.009774378334326934,0.009621427801443313,0.008895364095976256,-0.15030780399230095,,,,,1.2759288450885766e+44,-0.17245249100058505,,,,,,,,,,,,,,,,,,,,,,
43,240626_145516,LEARNING,1.0,44,1.0,1472.0,,,,,,,,,,44.0,44.0,44.0,cue1.png,Easy,A,,,,,,,,,,,,,,,,,,,,,,,,,,,29,32,Male,1.1428571428571428,0.25,0.0,0.5,3.5,1.75,2.888888888888889,2.6666666666666665,1.75,3.111111111111111,2.25,2.25,1.25,1.75,1.0,1.0,0.5180780000519007,-0.26198834697761264,0.0076002407754531195,-0.6767216440263313,0.008070271666954966,-0.4480131523273487,,,,,6.643517060308094e+43,-0.17967604915052127,1.461202939482829e+43,0.12379842861362247,,,,,,,,,,,,,,,,,,,,
44,240626_145536,LEARNING,1.0,45,1.0,1472.0,,,,,,,,,,45.0,45.0,45.0,cue1.png,Easy,A,,,,,,,,,,,,,,,,,,,,,,,,,,,29,32,Male,1.1428571428571428,0.25,0.0,0.5,3.5,1.75,2.888888888888889,2.6666666666666665,1.75,3.111111111111111,2.25,2.25,1.25,1.75,1.0,1.0,0.4602950666772408,-0.7172896618518496,,,0.011871322109665947,0.9234611289584889,0.01688698217658008,1.8294063517378085,0.012798875634535536,0.12124424707328205,-3.5738472129539057e+43,-0.19174414657494404,,,,,,,,,,,,,,,,,,,,,,
45,240626_145556,LEARNING,1.0,46,1.0,1472.0,,,,,,,,,,46.0,46.0,46.0,cue1.png,Easy,A,,,,,,,,,,,,,,,,,,,,,,,,,,,29,32,Male,1.1428571428571428,0.25,0.0,0.5,3.5,1.75,2.888888888888889,2.6666666666666665,1.75,3.111111111111111,2.25,2.25,1.25,1.75,1.0,1.0,0.4684000445219378,-0.6534263919518933,0.012486579725692122,0.8658232935791492,0.008874917552337333,-0.15768521430679566,0.013242439302163804,0.30281592857996203,0.014645546245352248,0.991273603925135,-1.3133946154083997e+44,-0.2030359242118243,-1.6645997895847142e+44,-0.22201248088291162,,,,,,,,,,,,,,,,,,,,
46,240626_145620,LEARNING,1.0,47,3.0,1472.0,,,,,,,,,,47.0,47.0,47.0,cue2.png,Hard,A,,,,,,,,,,,,,,,,,,,,,,,,,,,29,32,Male,1.1428571428571428,0.25,0.0,0.5,3.5,1.75,2.888888888888889,2.6666666666666665,1.75,3.111111111111111,2.25,2.25,1.25,1.75,0.8194444444444444,0.8333333333333334,0.9538153555865088,3.171409359372345,0.01011655999296258,0.11764311656375133,0.008847626822594459,-0.16753210650777903,,,,,-1.2181690884386457e+44,-0.201911181170441,-1.1757511945474098e+44,-0.12865228744753984,,,,,,,,,,,,,,,,,,,,
47,240626_145644,LEARNING,1.0,48,3.0,1472.0,,,,,,,,,,48.0,48.0,48.0,cue2.png,Hard,A,,,,,,,,,,,,,,,,,,,,,,,,,,,29,32,Male,1.1428571428571428,0.25,0.0,0.5,3.5,1.75,2.888888888888889,2.6666666666666665,1.75,3.111111111111111,2.25,2.25,1.25,1.75,0.5,0.5555555555555556,0.7660618625523057,1.692003464617411,,,,,0.009431988580954464,-1.2932683484762555,0.008698659096466634,-1.810507271943818,1.2744637998848763e+43,-0.18601763158712514,3.9617691820924343e+43,0.1715541858108337,,,,,,,,,,,,,,,,,,,,
48,240626_145704,LEARNING,1.0,49,1.0,1472.0,,,,,,,,,,49.0,49.0,49.0,cue1.png,Easy,A,,,,,,,,,,,,,,,,,,,,,,,,,,,29,32,Male,1.1428571428571428,0.25,0.0,0.5,3.5,1.75,2.888888888888889,2.6666666666666665,1.75,3.111111111111111,2.25,2.25,1.25,1.75,1.0,1.0,0.4303736333321366,-0.95305595389202,0.013729977637491148,1.258345624470869,0.009497755390715939,0.0670437361826608,,,,,,,,,,,,,,,,,,,,,,,,,,,,
49,240626_145724,LEARNING,1.0,50,1.0,1472.0,,,,,,,,,,50.0,50.0,50.0,cue1.png,Easy,A,,,,,,,,,,,,,,,,,,,,,,,,,,,29,32,Male,1.1428571428571428,0.25,0.0,0.5,3.5,1.75,2.888888888888889,2.6666666666666665,1.75,3.111111111111111,2.25,2.25,1.25,1.75,1.0,1.0,0.4362757888933022,-0.9065498485309954,0.010097063307296192,0.11148830125498113,0.013128339482415343,1.377011278802258,0.01398733519735563,0.6148306253563206,0.011253406816466296,-0.6068786969663744,-6.857468941943562e+43,-0.1956225506203102,-1.18807777684409e+43,0.07320252578157957,,,,,,,,,,,,,,,,,,,,
0,240626_145913,TrueCHOICE,9.0,1,3.0,1472.0,,,,,,,,,,,1.0,1.0,,,A,,,,,,True,cue1.png,Easy,cue2.png,Hard,Right,Hard,Hard,0.0155142999719828,,,,,,,,,,,,,29,32,Male,1.1428571428571428,0.25,0.0,0.5,3.5,1.75,2.888888888888889,2.6666666666666665,1.75,3.111111111111111,2.25,2.25,1.25,1.75,0.8194444444444444,0.8333333333333334,0.4429630333454245,-0.4604671660668005,,,,,,,,,,,,,0.007948600856557962,-0.8157046216712446,0.016787873619236678,1.4164095322849586,,,,,,,,,,,,,,,,
1,240626_145933,TrueCHOICE,9.0,2,3.0,1472.0,,,,,,,,,,,2.0,2.0,,,A,,,,,,True,cue1.png,Easy,cue2.png,Hard,Right,Hard,Hard,0.0165715999901294,,,,,,,,,,,,,29,32,Male,1.1428571428571428,0.25,0.0,0.5,3.5,1.75,2.888888888888889,2.6666666666666665,1.75,3.111111111111111,2.25,2.25,1.25,1.75,0.5,0.6666666666666667,0.4362088222729249,-0.5493665943892099,,,,,,,,,,,,,0.006592956584823449,-1.2879210694685888,0.013854707219964572,0.1321585010013796,17435982.843430642,-0.5773448804898362,,,,,,,,,,,,,,
2,240626_145954,TrueCHOICE,9.0,3,3.0,1472.0,,,,,,,,,,,3.0,3.0,,,A,,,,,,True,cue2.png,Hard,cue1.png,Easy,Left,Hard,Hard,0.0160129000432789,,,,,,,,,,,,,29,32,Male,1.1428571428571428,0.25,0.0,0.5,3.5,1.75,2.888888888888889,2.6666666666666665,1.75,3.111111111111111,2.25,2.25,1.25,1.75,0.5,0.5555555555555556,0.5265907624561805,0.6402472223415866,,,,,,,,,,,,,,,0.014758767762960904,0.5279903518551039,25792639.785475686,-0.5773237769446905,,,,,,,,,,,,,,
3,240626_150014,TrueCHOICE,9.0,4,3.0,1472.0,,,,,,,,,,,4.0,4.0,,,A,,,,,,True,cue1.png,Easy,cue2.png,Hard,Right,Hard,Hard,0.0168037000112235,,,,,,,,,,,,,29,32,Male,1.1428571428571428,0.25,0.0,0.5,3.5,1.75,2.888888888888889,2.6666666666666665,1.75,3.111111111111111,2.25,2.25,1.25,1.75,0.5,0.6666666666666667,0.6724883333728131,2.56056189845917,,,,,,,,,,,,,,,,,,,,,,,,,,,,,,,,
4,240626_150038,TrueCHOICE,9.0,5,1.0,1472.0,,,,,,,,,,,6.0,5.0,,,A,,,,,,True,cue2.png,Hard,cue1.png,Easy,Right,Easy,Easy,0.0165707999840378,,,,,,,,,,,,,29,32,Male,1.1428571428571428,0.25,0.0,0.5,3.5,1.75,2.888888888888889,2.6666666666666665,1.75,3.111111111111111,2.25,2.25,1.25,1.75,1.0,1.0,0.4530750222297178,-0.3273724165295234,,,,,,,,,,,,,,,0.009993065307622787,-1.5586141771540543,914500162557.7471,1.7320508071905871,,,,,,,,,,,,,,
5,240626_150055,TrueCHOICE,9.0,6,1.0,1472.0,,,,,,,,,,,7.0,6.0,,,A,,,,,,True,cue2.png,Hard,cue1.png,Easy,Right,Easy,Easy,0.01647389982827,,,,,,,,,,,,,29,32,Male,1.1428571428571428,0.25,0.0,0.5,3.5,1.75,2.888888888888889,2.6666666666666665,1.75,3.111111111111111,2.25,2.25,1.25,1.75,1.0,1.0,0.413347822225963,-0.8502647767584749,,,,,,,,,,,,,0.014366847736745812,1.4199864117669438,0.012369904501779657,-0.5179442079873924,,,,,,,,,,,,,,,,
6,240626_150113,TrueCHOICE,9.0,7,1.0,1472.0,,,,,,,,,,,8.0,7.0,,,A,,,,,,True,cue1.png,Easy,cue2.png,Hard,Left,Easy,Easy,0.0123697000090032,,,,,,,,,,,,,29,32,Male,1.1428571428571428,0.25,0.0,0.5,3.5,1.75,2.888888888888889,2.6666666666666665,1.75,3.111111111111111,2.25,2.25,1.25,1.75,1.0,1.0,0.4132462222543027,-0.851602043139585,,,,,,,,,,,,,0.01342317398440748,1.0912731375695461,,,2677966.113945715,-0.5773821497560601,,,,,,,,,,,,,,
7,240626_150131,TrueCHOICE,9.0,8,1.0,1472.0,,,,,,,,,,,9.0,8.0,,,A,,,,,,True,cue2.png,Hard,cue1.png,Easy,Right,Easy,Easy,0.0166621000971645,,,,,,,,,,,,,29,32,Male,1.1428571428571428,0.25,0.0,0.5,3.5,1.75,2.888888888888889,2.6666666666666665,1.75,3.111111111111111,2.25,2.25,1.25,1.75,1.0,1.0,0.4176575333242201,-0.7935400388494458,,,,,,,,,,,,,0.008444729120810153,-0.6428864779429664,,,,,,,,,,,,,,,,,,
8,240626_150150,TrueCHOICE,9.0,9,1.0,1472.0,,,,,,,,,,,10.0,9.0,,,A,,,,,,True,cue1.png,Easy,cue2.png,Hard,Left,Easy,Easy,0.0160885998047888,,,,,,,,,,,,,29,32,Male,1.1428571428571428,0.25,0.0,0.5,3.5,1.75,2.888888888888889,2.6666666666666665,1.75,3.111111111111111,2.25,2.25,1.25,1.75,1.0,1.0,0.482199755574887,0.05596948922912538,,,,,,,,,,,,,,,,,,,,,,,,,,,,,,,,
9,240626_150209,TrueCHOICE,9.0,10,3.0,1472.0,,,,,,,,,,,11.0,10.0,,,A,,,,,,True,cue2.png,Hard,cue1.png,Easy,Left,Hard,Hard,0.0152169000357389,,,,,,,,,,,,,29,32,Male,1.1428571428571428,0.25,0.0,0.5,3.5,1.75,2.888888888888889,2.6666666666666665,1.75,3.111111111111111,2.25,2.25,1.25,1.75,0.8194444444444444,0.8333333333333334,0.5216969444364723,0.5758344257031537,,,,,,,,,,,,,0.010965700686119701,0.23525261974631279,,,,,,,,,,,,,,,,,,
0,240626_150356,FalseCHOICE,9.0,1,2.0,1472.0,,,,,,,,,,,1.0,1.0,,,A,,,,,,False,cue1.png,Easy,cue2.png,Hard,Left,Easy,Mid,0.016172399977222,,,,,,,,,,,,,29,32,Male,1.1428571428571428,0.25,0.0,0.5,3.5,1.75,2.888888888888889,2.6666666666666665,1.75,3.111111111111111,2.25,2.25,1.25,1.75,0.8194444444444444,0.8333333333333334,0.6222418444489853,0.5065819334893424,,,,,,,,,,,,,,,,,,,0.008872130751492943,0.6255936604726094,,,1.2955287995602019e+45,-0.19094988546917374,,,,,,,,
1,240626_150417,FalseCHOICE,9.0,2,2.0,1472.0,,,,,,,,,,,2.0,2.0,,,A,,,,,,False,cue2.png,Hard,cue1.png,Easy,Right,Easy,Mid,0.0168236000463366,,,,,,,,,,,,,29,32,Male,1.1428571428571428,0.25,0.0,0.5,3.5,1.75,2.888888888888889,2.6666666666666665,1.75,3.111111111111111,2.25,2.25,1.25,1.75,0.8194444444444444,0.8333333333333334,0.6577888111480408,0.7527870460496418,,,,,,,,,,,,,,,,,,,0.0067123435350208965,-0.6165089497366733,0.01009795182042156,-1.2712015963795,7.256377323167899e+43,-0.20047477480556478,,,,,,,,
2,240626_150439,FalseCHOICE,9.0,3,2.0,1472.0,,,,,,,,,,,3.0,3.0,,,A,,,,,,False,cue2.png,Hard,cue1.png,Easy,Left,Hard,Mid,0.0161725999787449,,,,,,,,,,,,,29,32,Male,1.1428571428571428,0.25,0.0,0.5,3.5,1.75,2.888888888888889,2.6666666666666665,1.75,3.111111111111111,2.25,2.25,1.25,1.75,1.0,1.0,0.6414580777701404,0.6396772529261391,,,,,,,,,,,,,,,,,,,0.007594275913573132,-0.10930597109454493,0.010247375501829737,-1.2013242968062467,-3.152186380792205e+44,-0.2034949630160353,,,,,,,,
3,240626_150503,FalseCHOICE,9.0,4,2.0,1472.0,,,,,,,,,,,5.0,4.0,,,A,,,,,,False,cue2.png,Hard,cue1.png,Easy,Left,Hard,Mid,0.0161393000744283,,,,,,,,,,,,,29,32,Male,1.1428571428571428,0.25,0.0,0.5,3.5,1.75,2.888888888888889,2.6666666666666665,1.75,3.111111111111111,2.25,2.25,1.25,1.75,1.0,1.0,0.5822042444358684,0.2292738328761996,,,,,,,,,,,,,,,,,,,0.013576644435869615,3.3311790452563628,,,-2.8728012016043066e+44,-0.2032773678390104,,,,,,,,
4,240626_150522,FalseCHOICE,9.0,5,2.0,1472.0,,,,,,,,,,,6.0,5.0,,,A,,,,,,False,cue1.png,Easy,cue2.png,Hard,Left,Easy,Mid,0.016696099890396,,,,,,,,,,,,,29,32,Male,1.1428571428571428,0.25,0.0,0.5,3.5,1.75,2.888888888888889,2.6666666666666665,1.75,3.111111111111111,2.25,2.25,1.25,1.75,1.0,1.0,0.4454446000098768,-0.7179497075926551,,,,,,,,,,,,,,,,,,,0.008925159712570168,0.6560908365223409,0.012569811826514505,-0.11524759684534149,7.696312004787838e+47,5.793123320546104,,,,,,,,
5,240626_150540,FalseCHOICE,9.0,6,2.0,1472.0,,,,,,,,,,,7.0,6.0,,,A,,,,,,False,cue2.png,Hard,cue1.png,Easy,Right,Easy,Mid,0.0161651999223977,,,,,,,,,,,,,29,32,Male,1.1428571428571428,0.25,0.0,0.5,3.5,1.75,2.888888888888889,2.6666666666666665,1.75,3.111111111111111,2.25,2.25,1.25,1.75,1.0,1.0,0.475896911126458,-0.5070311572236765,,,,,,,,,,,,,,,,,,,0.007987703310583906,0.11695576109274299,0.013049827631873814,0.10922959388430191,-6.313026702190118e+42,-0.20108909555424084,,,,,,,,
6,240626_150558,FalseCHOICE,9.0,7,2.0,1472.0,,,,,,,,,,,8.0,7.0,,,A,,,,,,False,cue2.png,Hard,cue1.png,Easy,Right,Easy,Mid,0.0155608998611569,,,,,,,,,,,,,29,32,Male,1.1428571428571428,0.25,0.0,0.5,3.5,1.75,2.888888888888889,2.6666666666666665,1.75,3.111111111111111,2.25,2.25,1.25,1.75,1.0,1.0,0.4724648777498967,-0.5308020789718163,,,,,,,,,,,,,,,,,,,0.005638809042528163,-1.2339031009313726,0.012532374947464283,-0.13275478170269986,2.4073301353895953e+43,-0.20085243595577104,,,,,,,,
7,240626_150617,FalseCHOICE,9.0,8,2.0,1472.0,,,,,,,,,,,9.0,8.0,,,A,,,,,,False,cue1.png,Easy,cue2.png,Hard,Left,Easy,Mid,0.0153714001644402,,,,,,,,,,,,,29,32,Male,1.1428571428571428,0.25,0.0,0.5,3.5,1.75,2.888888888888889,2.6666666666666665,1.75,3.111111111111111,2.25,2.25,1.25,1.75,1.0,1.0,0.5985878999862406,0.3427501751216198,,,,,,,,,,,,,,,,,,,0.005572811576100288,-1.2718585183410416,0.010746664964929566,-0.9678338683949023,,,,,,,,,,
8,240626_150635,FalseCHOICE,9.0,9,2.0,1472.0,,,,,,,,,,,10.0,9.0,,,A,,,,,,False,cue1.png,Easy,cue2.png,Hard,Left,Easy,Mid,0.0165386998560279,,,,,,,,,,,,,29,32,Male,1.1428571428571428,0.25,0.0,0.5,3.5,1.75,2.888888888888889,2.6666666666666665,1.75,3.111111111111111,2.25,2.25,1.25,1.75,1.0,1.0,0.4172181888328244,-0.9134512478465563,,,,,,,,,,,,,,,,,,,0.007416060808456113,-0.2117982191995036,0.009558670501197608,-1.523394032963445,1.585533993674557e+47,1.0338306946692983,,,,,,,,
9,240626_150653,FalseCHOICE,9.0,10,2.0,1472.0,,,,,,,,,,,11.0,10.0,,,A,,,,,,False,cue2.png,Hard,cue1.png,Easy,Right,Easy,Mid,0.0174899001140147,,,,,,,,,,,,,29,32,Male,1.1428571428571428,0.25,0.0,0.5,3.5,1.75,2.888888888888889,2.6666666666666665,1.75,3.111111111111111,2.25,2.25,1.25,1.75,1.0,1.0,0.4389414444255332,-0.7629918110777607,,,,,,,,,,,,,,,,,,,0.006184303705323298,-0.920186851781678,0.009951542949187885,-1.3396690337961334,1.3216919676910982e+44,-0.20001054643368146,,,,,,,,
10,240626_150711,FalseCHOICE,9.0,11,2.0,1472.0,,,,,,,,,,,12.0,11.0,,,A,,,,,,False,cue1.png,Easy,cue2.png,Hard,Left,Easy,Mid,0.0160842000041157,,,,,,,,,,,,,29,32,Male,1.1428571428571428,0.25,0.0,0.5,3.5,1.75,2.888888888888889,2.6666666666666665,1.75,3.111111111111111,2.25,2.25,1.25,1.75,1.0,1.0,0.4592248555272817,-0.6225050135489714,,,,,,,,,,,,,,,,,,,0.00534344321856564,-1.4037692146449934,0.011801310534300793,-0.4746337029322108,,,,,,,,,,
11,240626_150729,FalseCHOICE,9.0,12,2.0,1472.0,,,,,,,,,,,13.0,12.0,,,A,,,,,,False,cue2.png,Hard,cue1.png,Easy,Right,Easy,Mid,0.0157622001133859,,,,,,,,,,,,,29,32,Male,1.1428571428571428,0.25,0.0,0.5,3.5,1.75,2.888888888888889,2.6666666666666665,1.75,3.111111111111111,2.25,2.25,1.25,1.75,0.8194444444444444,0.8333333333333334,0.4418799111671332,-0.7426394265551861,,,,,,,,,,,,,,,,,,,0.009258067405361179,0.8475474351264914,,,8.250523472612779e+43,-0.20039734714529808,,,,,,,,
12,240626_150747,FalseCHOICE,9.0,13,2.0,1472.0,,,,,,,,,,,14.0,13.0,,,A,,,,,,False,cue1.png,Easy,cue2.png,Hard,Left,Easy,Mid,0.0162148000672459,,,,,,,,,,,,,29,32,Male,1.1428571428571428,0.25,0.0,0.5,3.5,1.75,2.888888888888889,2.6666666666666665,1.75,3.111111111111111,2.25,2.25,1.25,1.75,1.0,1.0,0.4802748777955357,-0.4767085199738953,,,,,,,,,,,,,,,,,,,0.007850790695101514,0.038216746543408606,0.009900443581219045,-1.3635654189601998,,,,,,,,,,
13,240626_150805,FalseCHOICE,9.0,14,2.0,1472.0,,,,,,,,,,,15.0,14.0,,,A,,,,,,False,cue2.png,Hard,cue1.png,Easy,Right,Easy,Mid,0.0179445000831037,,,,,,,,,,,,,29,32,Male,1.1428571428571428,0.25,0.0,0.5,3.5,1.75,2.888888888888889,2.6666666666666665,1.75,3.111111111111111,2.25,2.25,1.25,1.75,0.8194444444444444,0.8333333333333334,0.4050674888615806,-0.9976093274777502,,,,,,,,,,,,,,,,,,,0.007373602206139328,-0.2362163379666213,0.012302410693572461,-0.24029651075729605,,,,,,,,,,
14,240626_150823,FalseCHOICE,9.0,15,2.0,1472.0,,,,,,,,,,,16.0,15.0,,,A,,,,,,False,cue1.png,Easy,cue2.png,Hard,Left,Easy,Mid,0.0161705999635159,,,,,,,,,,,,,29,32,Male,1.1428571428571428,0.25,0.0,0.5,3.5,1.75,2.888888888888889,2.6666666666666665,1.75,3.111111111111111,2.25,2.25,1.25,1.75,0.5,0.6666666666666667,0.495053288863144,-0.3743504090507611,,,,,,,,,,,,,,,,,,,0.005714244487958474,-1.1905198625472029,0.013500513071097724,0.31999057335665576,,,,,,,,,,
15,240626_150843,FalseCHOICE,9.0,16,2.0,1472.0,,,,,,,,,,,17.0,16.0,,,A,,,,,,False,cue1.png,Easy,cue2.png,Hard,Right,Hard,Mid,0.0166639999952167,,,,,,,,,,,,,29,32,Male,1.1428571428571428,0.25,0.0,0.5,3.5,1.75,2.888888888888889,2.6666666666666665,1.75,3.111111111111111,2.25,2.25,1.25,1.75,1.0,1.0,0.539462811106609,-0.0667615361303621,,,,,,,,,,,,,,,,,,,,,0.016022076025066265,1.4991879286002043,,,,,,,,,,
16,240626_150901,FalseCHOICE,9.0,17,2.0,1472.0,,,,,,,,,,,18.0,17.0,,,A,,,,,,False,cue2.png,Hard,cue1.png,Easy,Left,Hard,Mid,0.0166693001519888,,,,,,,,,,,,,29,32,Male,1.1428571428571428,0.25,0.0,0.5,3.5,1.75,2.888888888888889,2.6666666666666665,1.75,3.111111111111111,2.25,2.25,1.25,1.75,1.0,1.0,0.4354966221273773,-0.7868513113509652,,,,,,,,,,,,,,,,,,,0.00731736349685547,-0.2685594535585292,0.011858155281886936,-0.4480505173299755,,,,,,,,,,
17,240626_150921,FalseCHOICE,9.0,18,2.0,1472.0,,,,,,,,,,,19.0,18.0,,,A,,,,,,False,cue2.png,Hard,cue1.png,Easy,Left,Hard,Mid,0.0167212001979351,,,,,,,,,,,,,29,32,Male,1.1428571428571428,0.25,0.0,0.5,3.5,1.75,2.888888888888889,2.6666666666666665,1.75,3.111111111111111,2.25,2.25,1.25,1.75,0.8194444444444444,0.8333333333333334,0.4896508110687136,-0.41176900695091867,,,,,,,,,,,,,,,,,,,0.008223592039214368,0.2526163499304942,0.012594714581705642,-0.10360193754762283,,,,,,,,,,
18,240626_150939,FalseCHOICE,9.0,19,2.0,1472.0,,,,,,,,,,,20.0,19.0,,,A,,,,,,False,cue1.png,Easy,cue2.png,Hard,Left,Easy,Mid,0.0159331001341342,,,,,,,,,,,,,29,32,Male,1.1428571428571428,0.25,0.0,0.5,3.5,1.75,2.888888888888889,2.6666666666666665,1.75,3.111111111111111,2.25,2.25,1.25,1.75,1.0,1.0,0.4336595666439582,-0.7995751101466223,,,,,,,,,,,,,,,,,,,0.008277621389092039,0.2836888537397296,0.014279397008407708,0.6842320758232541,,,,,,,,,,
19,240626_150957,FalseCHOICE,9.0,20,2.0,1472.0,,,,,,,,,,,21.0,20.0,,,A,,,,,,False,cue1.png,Easy,cue2.png,Hard,Left,Easy,Mid,0.0157335998956114,,,,,,,,,,,,,29,32,Male,1.1428571428571428,0.25,0.0,0.5,3.5,1.75,2.888888888888889,2.6666666666666665,1.75,3.111111111111111,2.25,2.25,1.25,1.75,1.0,1.0,0.4467170999851078,-0.709136128580777,,,,,,,,,,,,,,,,,,,0.007225318196930827,-0.32149508833863033,0.011034962876918901,-0.8330126715633827,4.538328720064083e+43,-0.20068646615894073,,,,,,,,
20,240626_151016,FalseCHOICE,9.0,21,2.0,1472.0,,,,,,,,,,,22.0,21.0,,,A,,,,,,False,cue1.png,Easy,cue2.png,Hard,Left,Easy,Mid,0.0152234998531639,,,,,,,,,,,,,29,32,Male,1.1428571428571428,0.25,0.0,0.5,3.5,1.75,2.888888888888889,2.6666666666666665,1.75,3.111111111111111,2.25,2.25,1.25,1.75,0.8194444444444444,0.8333333333333334,0.6015927222195185,0.36356215051268853,,,,,,,,,,,,,,,,,,,0.008000835056594477,0.12450788283507767,,,3.3071286521906427e+43,-0.2007823564268142,,,,,,,,
21,240626_151035,FalseCHOICE,9.0,22,2.0,1472.0,,,,,,,,,,,23.0,22.0,,,A,,,,,,False,cue2.png,Hard,cue1.png,Easy,Left,Hard,Mid,0.015943800099194,,,,,,,,,,,,,29,32,Male,1.1428571428571428,0.25,0.0,0.5,3.5,1.75,2.888888888888889,2.6666666666666665,1.75,3.111111111111111,2.25,2.25,1.25,1.75,1.0,1.0,0.4310880222150849,-0.8173861203215463,,,,,,,,,,,,,,,,,,,0.007269796675409915,-0.2959153303904115,0.010801508849489326,-0.9421863772139394,1.0481108081989874e+43,-0.2009582968217538,,,,,,,,
22,240626_151053,FalseCHOICE,9.0,23,2.0,1472.0,,,,,,,,,,,24.0,23.0,,,A,,,,,,False,cue1.png,Easy,cue2.png,Hard,Left,Easy,Mid,0.0157155999913811,,,,,,,,,,,,,29,32,Male,1.1428571428571428,0.25,0.0,0.5,3.5,1.75,2.888888888888889,2.6666666666666665,1.75,3.111111111111111,2.25,2.25,1.25,1.75,0.8194444444444444,0.8333333333333334,0.4907113777784009,-0.40442331840463813,,,,,,,,,,,,,,,,,,,0.007606086715146835,-0.10251352999133144,0.010537592627249551,-1.065605588612654,-1.0638612864666503e+43,-0.2011227847674445,,,,,,,,
23,240626_151111,FalseCHOICE,9.0,24,2.0,1472.0,,,,,,,,,,,25.0,24.0,,,A,,,,,,False,cue2.png,Hard,cue1.png,Easy,Right,Easy,Mid,0.0164143999572843,,,,,,,,,,,,,29,32,Male,1.1428571428571428,0.25,0.0,0.5,3.5,1.75,2.888888888888889,2.6666666666666665,1.75,3.111111111111111,2.25,2.25,1.25,1.75,1.0,1.0,0.4047060222106261,-1.0001129148650647,,,,,,,,,,,,,,,,,,,0.008413168511071156,0.361642567296584,0.009191145886727568,-1.6952652339929088,-2.806309224654948e+43,-0.20125849284926503,,,,,,,,
24,240626_151129,FalseCHOICE,9.0,25,2.0,1472.0,,,,,,,,,,,26.0,25.0,,,A,,,,,,False,cue2.png,Hard,cue1.png,Easy,Right,Easy,Mid,0.015111300162971,,,,,,,,,,,,,29,32,Male,1.1428571428571428,0.25,0.0,0.5,3.5,1.75,2.888888888888889,2.6666666666666665,1.75,3.111111111111111,2.25,2.25,1.25,1.75,0.8194444444444444,0.8333333333333334,0.4881466555460874,-0.4221870767370596,,,,,,,,,,,,,,,,,,,0.007472284566813345,-0.17946370194767552,0.01295008115788563,0.06258361261438411,,,,,,,,,,
25,240626_151147,FalseCHOICE,9.0,26,2.0,1472.0,,,,,,,,,,,27.0,26.0,,,A,,,,,,False,cue1.png,Easy,cue2.png,Hard,Left,Easy,Mid,0.0162971999961882,,,,,,,,,,,,,29,32,Male,1.1428571428571428,0.25,0.0,0.5,3.5,1.75,2.888888888888889,2.6666666666666665,1.75,3.111111111111111,2.25,2.25,1.25,1.75,1.0,1.0,0.4819532555476244,-0.46508375359452686,,,,,,,,,,,,,,,,,,,,,0.0119671753359917,-0.3970677888335408,,,,,,,,,,
26,240626_151211,FalseCHOICE,9.0,27,2.0,1472.0,,,,,,,,,,,29.0,27.0,,,A,,,,,,False,cue1.png,Easy,cue2.png,Hard,Left,Easy,Mid,0.0174440001137554,,,,,,,,,,,,,29,32,Male,1.1428571428571428,0.25,0.0,0.5,3.5,1.75,2.888888888888889,2.6666666666666665,1.75,3.111111111111111,2.25,2.25,1.25,1.75,1.0,1.0,0.4399023444340046,-0.7563364332294115,,,,,,,,,,,,,,,,,,,0.010088595664438932,1.325187690881936,0.01208490293830241,-0.3420130153386074,-6.34795973228839e+42,-0.20108936762518212,,,,,,,,
27,240626_151229,FalseCHOICE,9.0,28,2.0,1472.0,,,,,,,,,,,30.0,28.0,,,A,,,,,,False,cue2.png,Hard,cue1.png,Easy,Right,Easy,Mid,0.0175928999669849,,,,,,,,,,,,,29,32,Male,1.1428571428571428,0.25,0.0,0.5,3.5,1.75,2.888888888888889,2.6666666666666665,1.75,3.111111111111111,2.25,2.25,1.25,1.75,0.5,0.6666666666666667,0.5564672221533127,0.05101427780108444,,,,,,,,,,,,,,,,,,,0.012255933131696014,2.571632481717302,0.01092850027918734,-0.882799417311623,-2.0830201930411702e+42,-0.2010561507495862,,,,,,,,
28,240626_151247,FalseCHOICE,9.0,29,2.0,1472.0,,,,,,,,,,,31.0,29.0,,,A,,,,,,False,cue1.png,Easy,cue2.png,Hard,Left,Easy,Mid,0.016240700148046,,,,,,,,,,,,,29,32,Male,1.1428571428571428,0.25,0.0,0.5,3.5,1.75,2.888888888888889,2.6666666666666665,1.75,3.111111111111111,2.25,2.25,1.25,1.75,1.0,1.0,0.3954497666563838,-1.0642235170414152,,,,,,,,,,,,,,,,,,,,,0.014299509358278688,0.693637524034756,1.4103445394852482e+43,-0.20093008476229066,,,,,,,,
29,240626_151304,FalseCHOICE,9.0,30,2.0,1472.0,,,,,,,,,,,32.0,30.0,,,A,,,,,,False,cue1.png,Easy,cue2.png,Hard,Left,Easy,Mid,0.0164173000957816,,,,,,,,,,,,,29,32,Male,1.1428571428571428,0.25,0.0,0.5,3.5,1.75,2.888888888888889,2.6666666666666665,1.75,3.111111111111111,2.25,2.25,1.25,1.75,0.8194444444444444,0.8333333333333334,0.3831622889006717,-1.149328945854492,,,,,,,,,,,,,,,,,,,0.00880171978111055,0.5851000185840359,0.014955587546259936,1.0004494808343558,2.5538903768249395e+43,-0.2008410213196144,,,,,,,,
30,240626_151322,FalseCHOICE,9.0,31,2.0,1472.0,,,,,,,,,,,33.0,31.0,,,A,,,,,,False,cue2.png,Hard,cue1.png,Easy,Left,Hard,Mid,0.0165017000399529,,,,,,,,,,,,,29,32,Male,1.1428571428571428,0.25,0.0,0.5,3.5,1.75,2.888888888888889,2.6666666666666665,1.75,3.111111111111111,2.25,2.25,1.25,1.75,1.0,1.0,0.4468108999749852,-0.7084864518513548,,,,,,,,,,,,,,,,,,,0.007376953448276562,-0.2342890246765179,0.013500879875579918,0.32016210779112797,,,,,,,,,,
31,240626_151341,FalseCHOICE,9.0,32,2.0,1472.0,,,,,,,,,,,34.0,32.0,,,A,,,,,,False,cue1.png,Easy,cue2.png,Hard,Left,Easy,Mid,0.0160860999021679,,,,,,,,,,,,,29,32,Male,1.1428571428571428,0.25,0.0,0.5,3.5,1.75,2.888888888888889,2.6666666666666665,1.75,3.111111111111111,2.25,2.25,1.25,1.75,0.8194444444444444,0.8333333333333334,0.4545008000245111,-0.6552247284728229,,,,,,,,,,,,,,,,,,,0.006741353667244549,-0.5998251020489482,0.013364310047438445,0.2562958537691788,2.6108258287381674e+43,-0.20083658698284174,,,,,,,,
32,240626_151402,FalseCHOICE,9.0,33,2.0,1472.0,,,,,,,,,,,35.0,33.0,,,A,,,,,,False,cue2.png,Hard,cue1.png,Easy,Right,Easy,Mid,0.0158869000151753,,,,,,,,,,,,,29,32,Male,1.1428571428571428,0.25,0.0,0.5,3.5,1.75,2.888888888888889,2.6666666666666665,1.75,3.111111111111111,2.25,2.25,1.25,1.75,1.0,1.0,0.608385288880931,0.41060877065343976,,,,,,,,,,,,,,,,,,,0.007878132557324872,0.053941165216045014,0.01773742295723863,2.301362057371936,1.6300150817293624e+43,-0.200912976034238,,,,,,,,
33,240626_151420,FalseCHOICE,9.0,34,2.0,1472.0,,,,,,,,,,,36.0,34.0,,,A,,,,,,False,cue2.png,Hard,cue1.png,Easy,Right,Easy,Mid,0.0164970001205801,,,,,,,,,,,,,29,32,Male,1.1428571428571428,0.25,0.0,0.5,3.5,1.75,2.888888888888889,2.6666666666666665,1.75,3.111111111111111,2.25,2.25,1.25,1.75,0.8194444444444444,0.8333333333333334,0.443651088901485,-0.7303719096910264,,,,,,,,,,,,,,,,,,,0.010937042836919651,1.8131331882557171,0.012626057333107501,-0.08894464354631287,1.4882407283775068e+42,-0.20102833649134036,,,,,,,,
34,240626_151438,FalseCHOICE,9.0,35,2.0,1472.0,,,,,,,,,,,37.0,35.0,,,A,,,,,,False,cue2.png,Hard,cue1.png,Easy,Right,Easy,Mid,0.0166384000331163,,,,,,,,,,,,,29,32,Male,1.1428571428571428,0.25,0.0,0.5,3.5,1.75,2.888888888888889,2.6666666666666665,1.75,3.111111111111111,2.25,2.25,1.25,1.75,0.8194444444444444,0.8333333333333334,0.4896419778104043,-0.4118301877930065,,,,,,,,,,,,,,,,,,,0.008590575580763858,0.4636701108686003,0.012610457655030268,-0.09623976148194602,-1.345768657969896e+43,-0.20114474072251165,,,,,,,,
35,240626_151457,FalseCHOICE,9.0,36,2.0,1472.0,,,,,,,,,,,38.0,36.0,,,A,,,,,,False,cue1.png,Easy,cue2.png,Hard,Right,Hard,Mid,0.0154566001147031,,,,,,,,,,,,,29,32,Male,1.1428571428571428,0.25,0.0,0.5,3.5,1.75,2.888888888888889,2.6666666666666665,1.75,3.111111111111111,2.25,2.25,1.25,1.75,1.0,1.0,0.4548724444531318,-0.6526506478443512,,,,,,,,,,,,,,,,,,,0.006574935980252354,-0.695532605927802,0.012833898915929034,0.00825151980430158,-2.441210554560265e+43,-0.20123005765811364,,,,,,,,
36,240626_151515,FalseCHOICE,9.0,37,2.0,1472.0,,,,,,,,,,,39.0,37.0,,,A,,,,,,False,cue2.png,Hard,cue1.png,Easy,Left,Hard,Mid,0.0169289000332355,,,,,,,,,,,,,29,32,Male,1.1428571428571428,0.25,0.0,0.5,3.5,1.75,2.888888888888889,2.6666666666666665,1.75,3.111111111111111,2.25,2.25,1.25,1.75,1.0,1.0,0.4032186110659192,-1.010415009876613,,,,,,,,,,,,,,,,,,,0.006000197804942429,-1.0260669207412247,0.01429550107948148,0.6917630708313145,,,,,,,,,,
37,240626_151536,FalseCHOICE,9.0,38,2.0,1472.0,,,,,,,,,,,40.0,38.0,,,A,,,,,,False,cue1.png,Easy,cue2.png,Hard,Right,Hard,Mid,0.0168167001102119,,,,,,,,,,,,,29,32,Male,1.1428571428571428,0.25,0.0,0.5,3.5,1.75,2.888888888888889,2.6666666666666665,1.75,3.111111111111111,2.25,2.25,1.25,1.75,0.125,0.5,0.7021748222565899,1.0602130763379987,,,,,,,,,,,,,,,,,,,0.007751609339776075,-0.018822863374764624,0.012924215346042343,0.05048758428844934,-2.0686692721874514e+43,-0.20120104280968015,,,,,,,,
38,240626_151554,FalseCHOICE,9.0,39,2.0,1472.0,,,,,,,,,,,41.0,39.0,,,A,,,,,,False,cue1.png,Easy,cue2.png,Hard,Left,Easy,Mid,0.015986300073564,,,,,,,,,,,,,29,32,Male,1.1428571428571428,0.25,0.0,0.5,3.5,1.75,2.888888888888889,2.6666666666666665,1.75,3.111111111111111,2.25,2.25,1.25,1.75,0.8194444444444444,0.8333333333333334,0.4822232111408893,-0.4632139893530726,,,,,,,,,,,,,,,,,,,,,0.015338101247943062,1.1793302597811062,-7.345469579868876e+42,-0.20109713658889375,,,,,,,,
39,240626_151614,FalseCHOICE,9.0,40,2.0,1472.0,,,,,,,,,,,42.0,40.0,,,A,,,,,,False,cue2.png,Hard,cue1.png,Easy,Right,Easy,Mid,0.0167232998646795,,,,,,,,,,,,,29,32,Male,1.1428571428571428,0.25,0.0,0.5,3.5,1.75,2.888888888888889,2.6666666666666665,1.75,3.111111111111111,2.25,2.25,1.25,1.75,0.8194444444444444,0.8333333333333334,0.5932308333770683,0.3056461038046333,,,,,,,,,,,,,,,,,,,,,0.013619082123242058,0.3754388470086323,1.0732109010465184e+43,-0.20095634193668707,,,,,,,,
40,240626_151633,FalseCHOICE,9.0,41,2.0,1472.0,,,,,,,,,,,43.0,41.0,,,A,,,,,,False,cue2.png,Hard,cue1.png,Easy,Right,Easy,Mid,0.0163439000025391,,,,,,,,,,,,,29,32,Male,1.1428571428571428,0.25,0.0,0.5,3.5,1.75,2.888888888888889,2.6666666666666665,1.75,3.111111111111111,2.25,2.25,1.25,1.75,0.8194444444444444,0.8333333333333334,0.5437644777767774,-0.03696736731443774,,,,,,,,,,,,,,,,,,,,,0.01731775255394296,2.1051051172620747,2.2555497941784455e+43,-0.2008642571519815,,,,,,,,
41,240626_151654,FalseCHOICE,9.0,42,2.0,1472.0,,,,,,,,,,,44.0,42.0,,,A,,,,,,False,cue1.png,Easy,cue2.png,Hard,Left,Easy,Mid,0.0159350999165326,,,,,,,,,,,,,29,32,Male,1.1428571428571428,0.25,0.0,0.5,3.5,1.75,2.888888888888889,2.6666666666666665,1.75,3.111111111111111,2.25,2.25,1.25,1.75,1.0,1.0,0.8311686221924093,1.953648887659223,,,,,,,,,,,,,,,,,,,0.00692790364466995,-0.4925394342167844,0.014567217117822592,0.8188298304713321,,,,,,,,,,
42,240626_151716,FalseCHOICE,9.0,43,2.0,1472.0,,,,,,,,,,,45.0,43.0,,,A,,,,,,False,cue2.png,Hard,cue1.png,Easy,Right,Easy,Mid,0.0165897000115364,,,,,,,,,,,,,29,32,Male,1.1428571428571428,0.25,0.0,0.5,3.5,1.75,2.888888888888889,2.6666666666666665,1.75,3.111111111111111,2.25,2.25,1.25,1.75,1.0,1.0,0.8527106000110507,2.102852759778951,,,,,,,,,,,,,,,,,,,0.0053575038142513656,-1.395682907591623,0.014351410066884222,0.7179086524738025,2.2040225147951189e+43,-0.20086827028092114,,,,,,,,
43,240626_151739,FalseCHOICE,9.0,44,2.0,1472.0,,,,,,,,,,,46.0,44.0,,,A,,,,,,False,cue1.png,Easy,cue2.png,Hard,Left,Easy,Mid,0.0160898999311029,,,,,,,,,,,,,29,32,Male,1.1428571428571428,0.25,0.0,0.5,3.5,1.75,2.888888888888889,2.6666666666666665,1.75,3.111111111111111,2.25,2.25,1.25,1.75,0.8194444444444444,0.8333333333333334,0.9654117666133162,2.8834426661949357,,,,,,,,,,,,,,,,,,,,,0.017799649687095763,2.330462102309343,7.058989630055263e+42,-0.20098494950506768,,,,,,,,
44,240626_151803,FalseCHOICE,9.0,45,2.0,1472.0,,,,,,,,,,,47.0,45.0,,,A,,,,,,False,cue2.png,Hard,cue1.png,Easy,Right,Easy,Mid,0.0164630999788641,,,,,,,,,,,,,29,32,Male,1.1428571428571428,0.25,0.0,0.5,3.5,1.75,2.888888888888889,2.6666666666666665,1.75,3.111111111111111,2.25,2.25,1.25,1.75,0.9166666666666666,0.8888888888888888,0.9687431125203148,2.9065162072076958,,,,,,,,,,,,,,,,,,,0.005800203261032536,-1.1410846146712177,,,-1.2816825601607225e+43,-0.2011397494678438,,,,,,,,
45,240626_151823,FalseCHOICE,9.0,46,2.0,1472.0,,,,,,,,,,,48.0,46.0,,,A,,,,,,False,cue2.png,Hard,cue1.png,Easy,Right,Easy,Mid,0.0164675000123679,,,,,,,,,,,,,29,32,Male,1.1428571428571428,0.25,0.0,0.5,3.5,1.75,2.888888888888889,2.6666666666666665,1.75,3.111111111111111,2.25,2.25,1.25,1.75,1.0,1.0,0.6412662332877517,0.6383485012275633,,,,,,,,,,,,,,,,,,,0.010339088400923799,1.4692471053711815,,,-2.8480964668824694e+43,-0.2012617473892504,,,,,,,,
46,240626_151843,FalseCHOICE,9.0,47,2.0,1472.0,,,,,,,,,,,49.0,47.0,,,A,,,,,,False,cue1.png,Easy,cue2.png,Hard,Left,Easy,Mid,0.0166655001230537,,,,,,,,,,,,,29,32,Male,1.1428571428571428,0.25,0.0,0.5,3.5,1.75,2.888888888888889,2.6666666666666665,1.75,3.111111111111111,2.25,2.25,1.25,1.75,1.0,1.0,0.7627197000094585,1.4795585177731094,,,,,,,,,,,,,,,,,,,,,,,-2.186231733376621e+43,-0.2012101989949253,,,,,,,,
47,240626_151904,FalseCHOICE,9.0,48,2.0,1472.0,,,,,,,,,,,50.0,48.0,,,A,,,,,,False,cue1.png,Easy,cue2.png,Hard,Left,Easy,Mid,0.0161509998142719,,,,,,,,,,,,,29,32,Male,1.1428571428571428,0.25,0.0,0.5,3.5,1.75,2.888888888888889,2.6666666666666665,1.75,3.111111111111111,2.25,2.25,1.25,1.75,0.8194444444444444,0.8333333333333334,0.7200449555336187,1.1839850485624341,,,,,,,,,,,,,,,,,,,0.006174183625979181,-0.9260069514993654,,,8.089906495995324e+42,-0.20097692035554035,,,,,,,,
48,240626_151925,FalseCHOICE,9.0,49,2.0,1472.0,,,,,,,,,,,51.0,49.0,,,A,,,,,,False,cue2.png,Hard,cue1.png,Easy,Right,Easy,Mid,0.0165686998516321,,,,,,,,,,,,,29,32,Male,1.1428571428571428,0.25,0.0,0.5,3.5,1.75,2.888888888888889,2.6666666666666665,1.75,3.111111111111111,2.25,2.25,1.25,1.75,1.0,1.0,0.7398760777949873,1.3213392067918355,,,,,,,,,,,,,,,,,,,0.008318277257307369,0.3070702126279789,,,3.710143372988509e+43,-0.2007509681979287,,,,,,,,
49,240626_151945,FalseCHOICE,9.0,50,2.0,1472.0,,,,,,,,,,,52.0,50.0,,,A,,,,,,False,cue1.png,Easy,cue2.png,Hard,Right,Hard,Mid,0.0165906997863203,,,,,,,,,,,,,29,32,Male,1.1428571428571428,0.25,0.0,0.5,3.5,1.75,2.888888888888889,2.6666666666666665,1.75,3.111111111111111,2.25,2.25,1.25,1.75,0.8194444444444444,0.8333333333333334,0.6987609222738279,1.0365677499549784,,,,,,,,,,,,,,,,,,,0.0072015634238628765,-0.33515655712018366,,,-2.290206834889379e+43,-0.2012182969479683,,,,,,,,
0,240626_143930,OFFLINERATING,9.0,1,1.0,,,,,,,,,,,,,,,,,T0,cue1.png,Easy,36.0,2.6103962999768555,,,,,,,,,,,,,,,,,,,,,,29,32,Male,1.1428571428571428,0.25,0.0,0.5,3.5,1.75,2.888888888888889,2.6666666666666665,1.75,3.111111111111111,2.25,2.25,1.25,1.75,,,,,,,,,,,,,,,,,,,,,,,,,,,,,-1.8360990625470575,,,0.011846544679773117,0.4824349452908682,,,
1,240626_143938,OFFLINERATING,9.0,2,3.0,,,,,,,,,,,,,,,,,T0,cue2.png,Hard,66.0,2.0357410998549312,,,,,,,,,,,,,,,,,,,,,,29,32,Male,1.1428571428571428,0.25,0.0,0.5,3.5,1.75,2.888888888888889,2.6666666666666665,1.75,3.111111111111111,2.25,2.25,1.25,1.75,,,,,,,,,,,,,,,,,,,,,,,,,,,,,1.4771624037032718,,,0.012024600523443969,0.7790475536624497,,,
2,240626_145754,OFFLINERATING,9.0,3,1.0,,,,,,,,,,,,,,,,,T1,cue1.png,Easy,42.0,1.0293586000334471,,,,,,,,,,,,,,,,,,,,,,29,32,Male,1.1428571428571428,0.25,0.0,0.5,3.5,1.75,2.888888888888889,2.6666666666666665,1.75,3.111111111111111,2.25,2.25,1.25,1.75,,,,,,,,,,,,,,,,,,,,,,,,,,,,,-1.1734467692969917,0.007789095480291625,-0.19300768082381733,,,,,
3,240626_145801,OFFLINERATING,9.0,4,3.0,,,,,,,,,,,,,,,,,T1,cue2.png,Hard,59.0,0.693017499987036,,,,,,,,,,,,,,,,,,,,,,29,32,Male,1.1428571428571428,0.25,0.0,0.5,3.5,1.75,2.888888888888889,2.6666666666666665,1.75,3.111111111111111,2.25,2.25,1.25,1.75,,,,,,,,,,,,,,,,,,,,,,,,,,,,,0.7040680615781949,0.008019516798543087,-0.05680254757651824,,,,,
4,240626_150225,OFFLINERATING,9.0,5,1.0,,,,,,,,,,,,,,,,,T2,cue1.png,Easy,54.0,1.20195519994013,,,,,,,,,,,,,,,,,,,,,,29,32,Male,1.1428571428571428,0.25,0.0,0.5,3.5,1.75,2.888888888888889,2.6666666666666665,1.75,3.111111111111111,2.25,2.25,1.25,1.75,,,,,,,,,,,,,,,,,,,,,,,,,,,,,0.1518578172031401,0.010697839345204619,1.5263898502257012,,,12955547956.764793,1.0,
5,240626_150232,OFFLINERATING,9.0,6,3.0,,,,,,,,,,,,,,,,,T2,cue2.png,Hard,54.0,0.8351966999471188,,,,,,,,,,,,,,,,,,,,,,29,32,Male,1.1428571428571428,0.25,0.0,0.5,3.5,1.75,2.888888888888889,2.6666666666666665,1.75,3.111111111111111,2.25,2.25,1.25,1.75,,,,,,,,,,,,,,,,,,,,,,,,,,,,,0.1518578172031401,,,,,-81714.17852604718,-1.0,
6,240626_152015,OFFLINERATING,9.0,7,1.0,,,,,,,,,,,,,,,,,T3,cue1.png,Easy,59.0,0.8776861999649554,,,,,,,,,,,,,,,,,,,,,,29,32,Male,1.1428571428571428,0.25,0.0,0.5,3.5,1.75,2.888888888888889,2.6666666666666665,1.75,3.111111111111111,2.25,2.25,1.25,1.75,,,,,,,,,,,,,,,,,,,,,,,,,,,,,0.7040680615781949,,,0.011831042979611971,0.4566115877183348,,,
7,240626_152023,OFFLINERATING,9.0,8,3.0,,,,,,,,,,,,,,,,,T3,cue2.png,Hard,51.0,1.735862399917096,,,,,,,,,,,,,,,,,,,,,,29,32,Male,1.1428571428571428,0.25,0.0,0.5,3.5,1.75,2.888888888888889,2.6666666666666665,1.75,3.111111111111111,2.25,2.25,1.25,1.75,,,,,,,,,,,,,,,,,,,,,,,,,,,,,-0.17946832942189284,0.0059559922108829285,-1.2765796218253642,0.010525572333184801,-1.7180940866716499,,,
0,240626_150255,LEARNINGCHECK,9.0,1,,,,,,,,,,,,1.0,1.0,1.0,,,A,,,,,,,,,,,,,,,cue1.png,Easy,Left,Left,Easy,0.0156400999985635,1.0,,,,,,29,32,Male,1.1428571428571428,0.25,0.0,0.5,3.5,1.75,2.888888888888889,2.6666666666666665,1.75,3.111111111111111,2.25,2.25,1.25,1.75,,,,,,,,,,,,,,,,,,,,,,,,,,,,,,,,,,,,
1,240626_150301,LEARNINGCHECK,9.0,2,,,,,,,,,,,,2.0,2.0,2.0,,,A,,,,,,,,,,,,,,,cue2.png,Hard,Right,Right,Hard,0.0130769999232143,1.0,,,,,,29,32,Male,1.1428571428571428,0.25,0.0,0.5,3.5,1.75,2.888888888888889,2.6666666666666665,1.75,3.111111111111111,2.25,2.25,1.25,1.75,,,,,,,,,,,,,,,,,,,,,,,,,,,,,,,,,,,,
2,240626_152042,LEARNINGCHECK,9.0,1,,,,,,,,,,,,1.0,1.0,1.0,,,A,,,,,,,,,,,,,,,cue1.png,Easy,Middle,Middle,Mid,0.0150742998812347,1.0,,,,,,29,32,Male,1.1428571428571428,0.25,0.0,0.5,3.5,1.75,2.888888888888889,2.6666666666666665,1.75,3.111111111111111,2.25,2.25,1.25,1.75,,,,,,,,,,,,,,,,,,,,,,,,,,,,,,,,,,,,
3,240626_152054,LEARNINGCHECK,9.0,2,,,,,,,,,,,,2.0,2.0,2.0,,,A,,,,,,,,,,,,,,,cue2.png,Hard,Middle,Right,Hard,0.0132098000030964,0.0,,,,,,29,32,Male,1.1428571428571428,0.25,0.0,0.5,3.5,1.75,2.888888888888889,2.6666666666666665,1.75,3.111111111111111,2.25,2.25,1.25,1.75,,,,,,,,,,,,,,,,,,,,,,,,,,,,,,,,,,,,
0,240626_152113,DEMANDRATING,9.0,-1,,,,,,,,,,,,,,,,,,,,,,,,,,,,,,,,,,,,,,,1.0,MentalDemand,1.0,73.0,8.41039830003865,29,32,Male,1.1428571428571428,0.25,0.0,0.5,3.5,1.75,2.888888888888889,2.6666666666666665,1.75,3.111111111111111,2.25,2.25,1.25,1.75,,,,,,,,,,,,,,,,,,,,,,,,,,,,,,,,,,,,-0.5667200668065973
1,240626_152119,DEMANDRATING,9.0,-1,,,,,,,,,,,,,,,,,,,,,,,,,,,,,,,,,,,,,,,2.0,Effort,1.0,77.0,5.350014999974519,29,32,Male,1.1428571428571428,0.25,0.0,0.5,3.5,1.75,2.888888888888889,2.6666666666666665,1.75,3.111111111111111,2.25,2.25,1.25,1.75,,,,,,,,,,,,,,,,,,,,,,,,,,,,,,,,,,,,-0.2946944347394304
2,240626_152127,DEMANDRATING,9.0,-1,,,,,,,,,,,,,,,,,,,,,,,,,,,,,,,,,,,,,,,3.0,Frustration,1.0,52.0,6.35587660013698,29,32,Male,1.1428571428571428,0.25,0.0,0.5,3.5,1.75,2.888888888888889,2.6666666666666665,1.75,3.111111111111111,2.25,2.25,1.25,1.75,,,,,,,,,,,,,,,,,,,,,,,,,,,,,,,,,,,,-1.9948546351592231
3,240626_152132,DEMANDRATING,9.0,-1,,,,,,,,,,,,,,,,,,,,,,,,,,,,,,,,,,,,,,,4.0,MentalDemand,2.0,86.0,3.38908930006437,29,32,Male,1.1428571428571428,0.25,0.0,0.5,3.5,1.75,2.888888888888889,2.6666666666666665,1.75,3.111111111111111,2.25,2.25,1.25,1.75,,,,,,,,,,,,,,,,,,,,,,,,,,,,,,,,,,,,0.317363237411695
4,240626_152137,DEMANDRATING,9.0,-1,,,,,,,,,,,,,,,,,,,,,,,,,,,,,,,,,,,,,,,5.0,Effort,2.0,87.0,3.2663938999176025,29,32,Male,1.1428571428571428,0.25,0.0,0.5,3.5,1.75,2.888888888888889,2.6666666666666665,1.75,3.111111111111111,2.25,2.25,1.25,1.75,,,,,,,,,,,,,,,,,,,,,,,,,,,,,,,,,,,,0.3853696454284867
5,240626_152143,DEMANDRATING,9.0,-1,,,,,,,,,,,,,,,,,,,,,,,,,,,,,,,,,,,,,,,6.0,Frustration,2.0,67.0,4.013984099961817,29,32,Male,1.1428571428571428,0.25,0.0,0.5,3.5,1.75,2.888888888888889,2.6666666666666665,1.75,3.111111111111111,2.25,2.25,1.25,1.75,,,,,,,,,,,,,,,,,,,,,,,,,,,,,,,,,,,,-0.9747585149073474
6,240626_152147,DEMANDRATING,9.0,-1,,,,,,,,,,,,,,,,,,,,,,,,,,,,,,,,,,,,,,,7.0,MentalDemand,3.0,99.0,2.6135017999913543,29,32,Male,1.1428571428571428,0.25,0.0,0.5,3.5,1.75,2.888888888888889,2.6666666666666665,1.75,3.111111111111111,2.25,2.25,1.25,1.75,,,,,,,,,,,,,,,,,,,,,,,,,,,,,,,,,,,,1.201446541629987
7,240626_152150,DEMANDRATING,9.0,-1,,,,,,,,,,,,,,,,,,,,,,,,,,,,,,,,,,,,,,,8.0,Effort,3.0,99.0,1.6858821001369506,29,32,Male,1.1428571428571428,0.25,0.0,0.5,3.5,1.75,2.888888888888889,2.6666666666666665,1.75,3.111111111111111,2.25,2.25,1.25,1.75,,,,,,,,,,,,,,,,,,,,,,,,,,,,,,,,,,,,1.201446541629987
8,240626_152153,DEMANDRATING,9.0,-1,,,,,,,,,,,,,,,,,,,,,,,,,,,,,,,,,,,,,,,9.0,Frustration,3.0,92.0,1.4487498002126813,29,32,Male,1.1428571428571428,0.25,0.0,0.5,3.5,1.75,2.888888888888889,2.6666666666666665,1.75,3.111111111111111,2.25,2.25,1.25,1.75,,,,,,,,,,,,,,,,,,,,,,,,,,,,,,,,,,,,0.7254016855124452
