,END,Phase,Block,TrialN,NbackLevel,ISI,Letter_Resp,Letter_RT,Letter_Accuracy,Trial_A_measure,Trial_ACC,Trial_RT,TrialCountCali,CaliEnd_A_measure,ISI_calibrated,TrialIndex,TrialNumber_total,TrialNumber_valid,CueLearning,TrialDemandLearning,CueMapping,OfflineRatingTimePoint,CueFigure,TrialDemand,OfflineRating,OfflineRatingRT,PhaseType,CueLeft,CueDemandLeft,CueRight,CueDemandRight,Choice,ChoiceDemand,TaskDemand,ChoiceRT,CueCheck,CueDemandCheck,CorrectAnswer,Answer,AnswerDemand,AnswerRT,AnswerACC,DemandRatingQuesIndex,QuesTLX,DemandLevel,DemandRating,DemandRatingRT,PID,Age,Gender,BAI_bis,BAI_bas_d,BAI_bas_rr,BAI_bas_fs,NFC,BFI_ext,BFI_agr,BFI_con,BFI_neu,BFI_open,UPPS_lps,UPPS_lpm,UPPS_pu,UPPS_ss,Task_A_measure,Task_ACC,Task_RT,Task_RT_z,cue_i_on_zyg_values,cue_i_on_zyg_zvalues,cue_e_on_zyg_values,cue_e_on_zyg_zvalues,cue_i_on_cor_values,cue_i_on_cor_zvalues,cue_e_on_cor_values,cue_e_on_cor_zvalues,cue_i_on_scr_values,cue_i_on_scr_zvalues,cue_e_on_scr_values,cue_e_on_scr_zvalues,cue_e_true_zyg_values,cue_e_true_zyg_zvalues,cue_e_true_cor_values,cue_e_true_cor_zvalues,cue_e_true_scr_values,cue_e_true_scr_zvalues,cue_e_false_zyg_values,cue_e_false_zyg_zvalues,cue_e_false_cor_values,cue_e_false_cor_zvalues,cue_e_false_scr_values,cue_e_false_scr_zvalues,OfflineRating_z,cue_i_off_zyg_values,cue_i_off_zyg_zvalues,cue_i_off_cor_values,cue_i_off_cor_zvalues,cue_i_off_scr_values,cue_i_off_scr_zvalues,DemandRating_z
0,240626_143711,PRACTICE,0.0,1,3.0,1472.0,,,,,,,,,,31.0,1.0,1.0,cue2.png,Hard,A,,,,,,,,,,,,,,,,,,,,,,,,,,,29,32,Male,1.1428571428571428,0.25,0.0,0.5,3.5,1.75,2.888888888888889,2.6666666666666665,1.75,3.111111111111111,2.25,2.25,1.25,1.75,,,,,,,,,,,,,,,,,,,,,,,,,,,,,,,,,,,,
0,240626_144013,LEARNING,1.0,1,1.0,1472.0,,,,,,,,,,1.0,1.0,1.0,cue1.png,Easy,A,,,,,,,,,,,,,,,,,,,,,,,,,,,29,32,Male,1.1428571428571428,0.25,0.0,0.5,3.5,1.75,2.888888888888889,2.6666666666666665,1.75,3.111111111111111,2.25,2.25,1.25,1.75,0.9166666666666666,0.8888888888888888,0.4205907374853268,-1.03014039876521,0.00013948026867413197,0.4682124178482492,-1.4884408576844397e-05,-0.17161018245548723,0.00024027728385558498,0.6155396607127175,,,1.3600000000000003,-0.471168556577876,,,,,,,,,,,,,,,,,,,,,,
1,240626_144035,LEARNING,1.0,2,3.0,1472.0,,,,,,,,,,2.0,2.0,2.0,cue2.png,Hard,A,,,,,,,,,,,,,,,,,,,,,,,,,,,29,32,Male,1.1428571428571428,0.25,0.0,0.5,3.5,1.75,2.888888888888889,2.6666666666666665,1.75,3.111111111111111,2.25,2.25,1.25,1.75,0.8194444444444444,0.8333333333333334,0.6328173110830702,0.6421014271003014,,,,,,,0.0004288247809660032,1.3645220766025226,1.452,-0.2941677104971717,1.0789999999999997,-0.6870015464246082,,,,,,,,,,,,,,,,,,,,
2,240626_144056,LEARNING,1.0,3,1.0,1472.0,,,,,,,,,,3.0,3.0,3.0,cue1.png,Easy,A,,,,,,,,,,,,,,,,,,,,,,,,,,,29,32,Male,1.1428571428571428,0.25,0.0,0.5,3.5,1.75,2.888888888888889,2.6666666666666665,1.75,3.111111111111111,2.25,2.25,1.25,1.75,1.0,1.0,0.5187174333518164,-0.2569499246403754,,,,,,,0.0006034814469765858,2.136131100955415,1.163,-0.8501812378593862,1.596,0.3587054774885037,,,,,,,,,,,,,,,,,,,,
3,240626_144116,LEARNING,1.0,4,3.0,1472.0,,,,,,,,,,4.0,4.0,4.0,cue2.png,Hard,A,,,,,,,,,,,,,,,,,,,,,,,,,,,29,32,Male,1.1428571428571428,0.25,0.0,0.5,3.5,1.75,2.888888888888889,2.6666666666666665,1.75,3.111111111111111,2.25,2.25,1.25,1.75,0.5,0.6666666666666667,0.5468885666535547,-0.034975142733514215,-0.00035678843348169046,-1.0819149718640895,-0.00013594536360719573,-0.6691802687018236,,,,,1.589,-0.03059036361612189,1.5979999999999999,0.36275076578217097,,,,,,,,,,,,,,,,,,,,
4,240626_144137,LEARNING,1.0,5,3.0,1472.0,,,,,,,,,,5.0,5.0,5.0,cue2.png,Hard,A,,,,,,,,,,,,,,,,,,,,,,,,,,,29,32,Male,1.1428571428571428,0.25,0.0,0.5,3.5,1.75,2.888888888888889,2.6666666666666665,1.75,3.111111111111111,2.25,2.25,1.25,1.75,0.5,0.6666666666666667,0.5141453889146861,-0.2929754034853412,-1.227811811486089e-05,-0.005814718979559258,0.00017788822899276156,0.6207005826247558,0.0001845118118956328,0.37056150087514556,-0.00010502727879817264,-0.993962580138026,,,,,,,,,,,,,,,,,,,,,,,,
5,240626_144157,LEARNING,1.0,6,1.0,1472.0,,,,,,,,,,6.0,6.0,6.0,cue1.png,Easy,A,,,,,,,,,,,,,,,,,,,,,,,,,,,29,32,Male,1.1428571428571428,0.25,0.0,0.5,3.5,1.75,2.888888888888889,2.6666666666666665,1.75,3.111111111111111,2.25,2.25,1.25,1.75,1.0,1.0,0.4762736666792382,-0.5913860919588523,0.0002397410282287504,0.7813833851565565,1.585513780495663e-05,-0.045268219098834835,0.0003848917816085722,1.2508322943122965,,,,,,,,,,,,,,,,,,,,,,,,,,
6,240626_144219,LEARNING,1.0,7,3.0,1472.0,,,,,,,,,,7.0,7.0,7.0,cue2.png,Hard,A,,,,,,,,,,,,,,,,,,,,,,,,,,,29,32,Male,1.1428571428571428,0.25,0.0,0.5,3.5,1.75,2.888888888888889,2.6666666666666665,1.75,3.111111111111111,2.25,2.25,1.25,1.75,0.8194444444444444,0.8333333333333334,0.6307566777233862,0.6258646418880561,-0.0003396909855994503,-1.0285099875454975,5.263756347567575e-05,0.10591045538577247,-0.00016013911326528702,-1.1434927420957277,4.819180273223783e-05,-0.3170618427521258,1.44,-0.3172547773772637,1.451,0.0654220761975924,,,,,,,,,,,,,,,,,,,,
7,240626_144242,LEARNING,1.0,8,3.0,1472.0,,,,,,,,,,8.0,8.0,8.0,cue2.png,Hard,A,,,,,,,,,,,,,,,,,,,,,,,,,,,29,32,Male,1.1428571428571428,0.25,0.0,0.5,3.5,1.75,2.888888888888889,2.6666666666666665,1.75,3.111111111111111,2.25,2.25,1.25,1.75,0.8194444444444444,0.8333333333333334,0.7539438666620603,1.5965195710134752,0.0002282961910232374,0.7456346958960878,6.872474422104681e-07,-0.10760944640927891,0.0004401533889786787,1.4935969730173793,-4.00656018021946e-06,-0.5476669997133777,2.034,0.8255550331872877,,,,,,,,,,,,,,,,,,,,,,
8,240626_144302,LEARNING,1.0,9,1.0,1472.0,,,,,,,,,,9.0,9.0,9.0,cue1.png,Easy,A,,,,,,,,,,,,,,,,,,,,,,,,,,,29,32,Male,1.1428571428571428,0.25,0.0,0.5,3.5,1.75,2.888888888888889,2.6666666666666665,1.75,3.111111111111111,2.25,2.25,1.25,1.75,1.0,1.0,0.4359452888990442,-0.9091540271900453,-2.8031884234164597e-05,-0.055022626402637574,2.5774771670993707e-06,-0.09984045295467946,0.0002908161420195751,0.8375572647634403,0.000365155628756564,1.0832405570370198,0.585,-1.9622082925838153,,,,,,,,,,,,,,,,,,,,,,
9,240626_144323,LEARNING,1.0,10,1.0,1472.0,,,,,,,,,,10.0,10.0,10.0,cue1.png,Easy,A,,,,,,,,,,,,,,,,,,,,,,,,,,,29,32,Male,1.1428571428571428,0.25,0.0,0.5,3.5,1.75,2.888888888888889,2.6666666666666665,1.75,3.111111111111111,2.25,2.25,1.25,1.75,0.8194444444444444,0.7222222222222223,0.4809548750054091,-0.554500454944091,9.879673884968755e-05,0.3411347810416296,,,,,,,0.794,-1.5601085444222138,,,,,,,,,,,,,,,,,,,,,,
10,240626_144347,LEARNING,1.0,11,3.0,1472.0,,,,,,,,,,11.0,11.0,11.0,cue2.png,Hard,A,,,,,,,,,,,,,,,,,,,,,,,,,,,29,32,Male,1.1428571428571428,0.25,0.0,0.5,3.5,1.75,2.888888888888889,2.6666666666666665,1.75,3.111111111111111,2.25,2.25,1.25,1.75,0.8194444444444444,0.8333333333333334,0.8042529889175462,1.9929309017531593,-0.0002773297478192334,-0.8337206278305953,0.00032750088164001327,1.235620401013538,,,,,,,,,,,,,,,,,,,,,,,,,,,,
11,240626_144408,LEARNING,1.0,12,1.0,1472.0,,,,,,,,,,12.0,12.0,12.0,cue1.png,Easy,A,,,,,,,,,,,,,,,,,,,,,,,,,,,29,32,Male,1.1428571428571428,0.25,0.0,0.5,3.5,1.75,2.888888888888889,2.6666666666666665,1.75,3.111111111111111,2.25,2.25,1.25,1.75,1.0,1.0,0.6093124222113855,0.4568943740097083,-0.00011393699265596245,-0.3233527888778547,-0.00031768909894597805,-1.416161374580076,0.00022861722767116835,0.5643169415772559,0.00016077196251464707,0.18030175198140755,2.996,2.6763682280746597,,,,,,,,,,,,,,,,,,,,,,
12,240626_144428,LEARNING,1.0,13,1.0,1472.0,,,,,,,,,,13.0,13.0,13.0,cue1.png,Easy,A,,,,,,,,,,,,,,,,,,,,,,,,,,,29,32,Male,1.1428571428571428,0.25,0.0,0.5,3.5,1.75,2.888888888888889,2.6666666666666665,1.75,3.111111111111111,2.25,2.25,1.25,1.75,1.0,1.0,0.4801407444239076,-0.5609154066017639,-0.00011172109204850116,-0.31643128000658305,2.760857756877247e-05,0.003039346585797064,6.814554838884294e-05,-0.14063641602834173,0.00029846377600122737,0.7886051639984627,,,2.2199999999999998,1.6208354251128383,,,,,,,,,,,,,,,,,,,,
13,240626_144449,LEARNING,1.0,14,1.0,1472.0,,,,,,,,,,14.0,14.0,14.0,cue1.png,Easy,A,,,,,,,,,,,,,,,,,,,,,,,,,,,29,32,Male,1.1428571428571428,0.25,0.0,0.5,3.5,1.75,2.888888888888889,2.6666666666666665,1.75,3.111111111111111,2.25,2.25,1.25,1.75,1.0,1.0,0.5403285000680221,-0.08666526588266785,0.00015378374149409117,0.5128902403462372,6.440492697472626e-05,0.15427524872187837,0.00015313070678651345,0.2327040576740483,-7.340401532679062e-05,-0.8542553703798306,2.7529999999999997,2.208855123752797,,,,,,,,,,,,,,,,,,,,,,
14,240626_144511,LEARNING,1.0,15,3.0,1472.0,,,,,,,,,,15.0,15.0,15.0,cue2.png,Hard,A,,,,,,,,,,,,,,,,,,,,,,,,,,,29,32,Male,1.1428571428571428,0.25,0.0,0.5,3.5,1.75,2.888888888888889,2.6666666666666665,1.75,3.111111111111111,2.25,2.25,1.25,1.75,0.8194444444444444,0.8333333333333334,0.621721366704959,0.5546708006146462,-7.988311322592104e-05,-0.2169832938821899,,,-7.269486689983002e-05,-0.7593494754812706,0.0004679284182627025,1.5372765446245296,1.293,-0.6000713466583901,,,,,,,,,,,,,,,,,,,,,,
15,240626_144531,LEARNING,1.0,16,1.0,1472.0,,,,,,,,,,16.0,16.0,16.0,cue1.png,Easy,A,,,,,,,,,,,,,,,,,,,,,,,,,,,29,32,Male,1.1428571428571428,0.25,0.0,0.5,3.5,1.75,2.888888888888889,2.6666666666666665,1.75,3.111111111111111,2.25,2.25,1.25,1.75,1.0,1.0,0.4669772332999855,-0.6646374499986071,8.824364109943353e-05,0.3081714976471349,4.6903770156050094e-05,0.08234411200239561,1.8977070805976416e-05,-0.35663392733633853,0.0001686937240385892,0.21529900012694878,,,,,,,,,,,,,,,,,,,,,,,,
16,240626_144553,LEARNING,1.0,17,1.0,1472.0,,,,,,,,,,17.0,17.0,17.0,cue1.png,Easy,A,,,,,,,,,,,,,,,,,,,,,,,,,,,29,32,Male,1.1428571428571428,0.25,0.0,0.5,3.5,1.75,2.888888888888889,2.6666666666666665,1.75,3.111111111111111,2.25,2.25,1.25,1.75,0.9166666666666666,0.8888888888888888,0.5489300749904942,-0.018889053366806952,-6.0084366609080946e-05,-0.1551406282467861,,,0.0002585659242339707,0.6958818026934322,0.0004305258076070127,1.3720369773323242,1.6589999999999998,0.1040841931844142,,,,,,,,,,,,,,,,,,,,,,
17,240626_144618,LEARNING,1.0,18,3.0,1472.0,,,,,,,,,,18.0,18.0,18.0,cue2.png,Hard,A,,,,,,,,,,,,,,,,,,,,,,,,,,,29,32,Male,1.1428571428571428,0.25,0.0,0.5,3.5,1.75,2.888888888888889,2.6666666666666665,1.75,3.111111111111111,2.25,2.25,1.25,1.75,0.5,0.6666666666666667,0.996362377760104,3.506659129646494,0.0001199341740176856,0.40715892695259726,-0.00027025855763313,-1.2212181038465235,-0.0003475723731062087,-1.9668885365608346,,,1.485,-0.23067827657691858,,,,,,,,,,,,,,,,,,,,,,
18,240626_144640,LEARNING,1.0,19,3.0,1472.0,,,,,,,,,,19.0,19.0,19.0,cue2.png,Hard,A,,,,,,,,,,,,,,,,,,,,,,,,,,,29,32,Male,1.1428571428571428,0.25,0.0,0.5,3.5,1.75,2.888888888888889,2.6666666666666665,1.75,3.111111111111111,2.25,2.25,1.25,1.75,0.8194444444444444,0.8333333333333334,0.6222111778075082,0.5585302730575674,8.854215773225092e-05,0.30910393365771704,9.710429361855111e-06,-0.07052345609267884,5.935119964090669e-05,-0.17927005970639523,0.00031110038568993434,0.8444319600535339,,,,,,,,,,,,,,,,,,,,,,,,
19,240626_144701,LEARNING,1.0,20,3.0,1472.0,,,,,,,,,,20.0,20.0,20.0,cue2.png,Hard,A,,,,,,,,,,,,,,,,,,,,,,,,,,,29,32,Male,1.1428571428571428,0.25,0.0,0.5,3.5,1.75,2.888888888888889,2.6666666666666665,1.75,3.111111111111111,2.25,2.25,1.25,1.75,1.0,1.0,0.5742590221990314,0.18069068921310974,,,5.3113439131421795e-05,0.10786634191427977,0.00023496564356211393,0.5922055828491226,0.000314177337331272,0.8580255073723045,,,1.6219999999999999,0.4112942253061839,,,,,,,,,,,,,,,,,,,,
20,240626_144722,LEARNING,1.0,21,1.0,1472.0,,,,,,,,,,21.0,21.0,21.0,cue1.png,Easy,A,,,,,,,,,,,,,,,,,,,,,,,,,,,29,32,Male,1.1428571428571428,0.25,0.0,0.5,3.5,1.75,2.888888888888889,2.6666666666666665,1.75,3.111111111111111,2.25,2.25,1.25,1.75,1.0,1.0,0.511374444493817,-0.3148090932027692,,,,,4.952238655104571e-05,-0.22244811342879126,-9.039803246425285e-06,-0.5699031723162071,1.2269999999999999,-0.7270502144988961,0.7550000000000001,-1.3423382499987815,,,,,,,,,,,,,,,,,,,,
21,240626_144743,LEARNING,1.0,22,3.0,1472.0,,,,,,,,,,22.0,22.0,22.0,cue2.png,Hard,A,,,,,,,,,,,,,,,,,,,,,,,,,,,29,32,Male,1.1428571428571428,0.25,0.0,0.5,3.5,1.75,2.888888888888889,2.6666666666666665,1.75,3.111111111111111,2.25,2.25,1.25,1.75,0.8194444444444444,0.8333333333333334,0.6017910111178126,0.3976293253073665,,,,,-0.00018490115106963413,-1.2522725702211623,0.00040778240658029697,1.2715597732407988,2.003,0.7659134437470508,1.834,0.8400947844349649,,,,,,,,,,,,,,,,,,,,
22,240626_144803,LEARNING,1.0,23,3.0,1472.0,,,,,,,,,,23.0,23.0,23.0,cue2.png,Hard,A,,,,,,,,,,,,,,,,,,,,,,,,,,,29,32,Male,1.1428571428571428,0.25,0.0,0.5,3.5,1.75,2.888888888888889,2.6666666666666665,1.75,3.111111111111111,2.25,2.25,1.25,1.75,1.0,1.0,0.5056904444419261,-0.3595962396183238,,,,,-0.00012721971381116038,-0.9988775596577233,-1.2370757056698843e-06,-0.5354317998657051,1.9339999999999997,0.6331628091865213,1.9160000000000001,1.0059516044753425,,,,,,,,,,,,,,,,,,,,
23,240626_144825,LEARNING,1.0,24,3.0,1472.0,,,,,,,,,,24.0,24.0,24.0,cue2.png,Hard,A,,,,,,,,,,,,,,,,,,,,,,,,,,,29,32,Male,1.1428571428571428,0.25,0.0,0.5,3.5,1.75,2.888888888888889,2.6666666666666665,1.75,3.111111111111111,2.25,2.25,1.25,1.75,1.0,1.0,0.6362750554819487,0.6693467654617291,0.0001134318829851752,0.3868486003460838,-5.4317369823999456e-05,-0.33368276749148224,0.0005316117430251093,1.8953742464556464,0.000110377646799476,-0.04233337366308806,,,2.2430000000000003,1.6673562404900184,,,,,,,,,,,,,,,,,,,,
24,240626_144845,LEARNING,1.0,25,1.0,1472.0,,,,,,,,,,25.0,25.0,25.0,cue1.png,Easy,A,,,,,,,,,,,,,,,,,,,,,,,,,,,29,32,Male,1.1428571428571428,0.25,0.0,0.5,3.5,1.75,2.888888888888889,2.6666666666666665,1.75,3.111111111111111,2.25,2.25,1.25,1.75,1.0,1.0,0.4696138888700968,-0.643861890887435,-5.211346086227142e-07,0.03090897944076471,8.367069721205902e-05,0.23345908595650472,-0.00029206267434501564,-1.7230339904104701,4.225141181985262e-05,-0.34330566923111405,0.873,-1.4081186874616085,0.7469999999999999,-1.3585194031734529,,,,,,,,,,,,,,,,,,,,
25,240626_144905,LEARNING,1.0,26,1.0,1472.0,,,,,,,,,,26.0,26.0,26.0,cue1.png,Easy,A,,,,,,,,,,,,,,,,,,,,,,,,,,,29,32,Male,1.1428571428571428,0.25,0.0,0.5,3.5,1.75,2.888888888888889,2.6666666666666665,1.75,3.111111111111111,2.25,2.25,1.25,1.75,1.0,1.0,0.4663623777580344,-0.6694822115978997,2.808311939826811e-05,0.1202562169468851,0.0006451647199585556,2.541243864746101,5.100667214718874e-06,-0.4175930781777593,-1.869660243673148e-05,-0.6125655772034759,0.8640000000000001,-1.4254339876216773,1.5050000000000001,0.1746448601266215,,,,,,,,,,,,,,,,,,,,
26,240626_144927,LEARNING,1.0,27,3.0,1472.0,,,,,,,,,,27.0,27.0,27.0,cue2.png,Hard,A,,,,,,,,,,,,,,,,,,,,,,,,,,,29,32,Male,1.1428571428571428,0.25,0.0,0.5,3.5,1.75,2.888888888888889,2.6666666666666665,1.75,3.111111111111111,2.25,2.25,1.25,1.75,0.8194444444444444,0.8333333333333334,0.5814838333365818,0.23761867501327888,-6.702634746007718e-05,-0.1768243544403614,8.603871239287395e-05,0.24319181536918213,0.0002699019613163836,0.7456811033484029,2.453440307634107e-05,-0.421576966532783,1.413,-0.3692006778574704,1.2010000000000003,-0.4402389605108748,,,,,,,,,,,,,,,,,,,,
27,240626_144946,LEARNING,1.0,28,1.0,1472.0,,,,,,,,,,28.0,28.0,28.0,cue1.png,Easy,A,,,,,,,,,,,,,,,,,,,,,,,,,,,29,32,Male,1.1428571428571428,0.25,0.0,0.5,3.5,1.75,2.888888888888889,2.6666666666666665,1.75,3.111111111111111,2.25,2.25,1.25,1.75,1.0,1.0,0.3952629888792419,-1.2297106969427636,2.7608525460630015e-05,0.11877379208606192,7.550222630178577e-05,0.19988602539121872,0.00021119628627361666,0.48778660808926416,0.0003452713009419318,0.9953943434603119,0.6649999999999998,-1.8082945133832027,0.9540000000000002,-0.9398320647788411,,,,,,,,,,,,,,,,,,,,
28,240626_145006,LEARNING,1.0,29,1.0,1472.0,,,,,,,,,,29.0,29.0,29.0,cue1.png,Easy,A,,,,,,,,,,,,,,,,,,,,,,,,,,,29,32,Male,1.1428571428571428,0.25,0.0,0.5,3.5,1.75,2.888888888888889,2.6666666666666665,1.75,3.111111111111111,2.25,2.25,1.25,1.75,1.0,1.0,0.4142047444668909,-1.0804589071597088,5.573505444012288e-05,0.20662882456997614,,,,,-3.076790673537614e-05,-0.6658949321333342,2.034,0.8255550331872877,,,,,,,,,,,,,,,,,,,,,,
29,240626_145026,LEARNING,1.0,30,3.0,1472.0,,,,,,,,,,30.0,30.0,30.0,cue2.png,Hard,A,,,,,,,,,,,,,,,,,,,,,,,,,,,29,32,Male,1.1428571428571428,0.25,0.0,0.5,3.5,1.75,2.888888888888889,2.6666666666666665,1.75,3.111111111111111,2.25,2.25,1.25,1.75,0.8194444444444444,0.8333333333333334,0.5169712555232562,-0.2707089537328024,0.0013099042431542604,4.124107404850577,-0.0008405819383408833,-3.5652922411760457,0.0003818784580793002,1.2375947401905192,-9.769839769304539e-05,-0.9615845957856684,1.4929999999999999,-0.21528689865685768,1.3820000000000001,-0.07414036993394457,,,,,,,,,,,,,,,,,,,,
30,240626_145047,LEARNING,1.0,31,3.0,1472.0,,,,,,,,,,31.0,31.0,31.0,cue2.png,Hard,A,,,,,,,,,,,,,,,,,,,,,,,,,,,29,32,Male,1.1428571428571428,0.25,0.0,0.5,3.5,1.75,2.888888888888889,2.6666666666666665,1.75,3.111111111111111,2.25,2.25,1.25,1.75,0.5,0.6666666666666667,0.4716703221977998,-0.6276581998774354,-1.5450416030999767e-05,-0.01572359670401069,0.00013079273927993958,0.4271344004287928,-0.0003692867541403586,-2.062279984365278,0.0001754926528467213,0.24533572843578821,1.174,-0.8290180932193021,,,,,,,,,,,,,,,,,,,,,,
31,240626_145107,LEARNING,1.0,32,1.0,1472.0,,,,,,,,,,32.0,32.0,32.0,cue1.png,Easy,A,,,,,,,,,,,,,,,,,,,,,,,,,,,29,32,Male,1.1428571428571428,0.25,0.0,0.5,3.5,1.75,2.888888888888889,2.6666666666666665,1.75,3.111111111111111,2.25,2.25,1.25,1.75,0.8194444444444444,0.8333333333333334,0.5018175778030936,-0.39011253863623285,-3.046592829962242e-05,-0.06262552047442259,-5.277444373018997e-05,-0.3273412193897344,-0.0002015841978778919,-1.32556132693618,-0.00023491773115189973,-1.5678006563059432,2.513,1.7471137861509585,1.556,0.27779971161514877,,,,,,,,,,,,,,,,,,,,
32,240626_145127,LEARNING,1.0,33,1.0,1472.0,,,,,,,,,,33.0,33.0,33.0,cue1.png,Easy,A,,,,,,,,,,,,,,,,,,,,,,,,,,,29,32,Male,1.1428571428571428,0.25,0.0,0.5,3.5,1.75,2.888888888888889,2.6666666666666665,1.75,3.111111111111111,2.25,2.25,1.25,1.75,1.0,1.0,0.4744533222530865,-0.6057295176443734,-0.0003000837053474181,-0.9047940858898456,,,-0.00022928607788548277,-1.4472559051363687,-4.7868433775858504e-05,-0.7414426984283083,2.4250000000000003,1.5778086290302848,1.907,0.9877478071538374,,,,,,,,,,,,,,,,,,,,
33,240626_145147,LEARNING,1.0,34,1.0,1472.0,,,,,,,,,,34.0,34.0,34.0,cue1.png,Easy,A,,,,,,,,,,,,,,,,,,,,,,,,,,,29,32,Male,1.1428571428571428,0.25,0.0,0.5,3.5,1.75,2.888888888888889,2.6666666666666665,1.75,3.111111111111111,2.25,2.25,1.25,1.75,1.0,1.0,0.443434811093741,-0.8501402474479348,-0.0013173089252724837,-4.082162854184439,8.839011898505254e-05,0.2528562821708621,0.00037943021575323563,1.2268395922684059,-0.0001528696683698585,-1.2053236485892167,1.5390000000000001,-0.1267864756165047,0.6280000000000001,-1.599214056646683,,,,,,,,,,,,,,,,,,,,
34,240626_145207,LEARNING,1.0,35,3.0,1472.0,,,,,,,,,,35.0,35.0,35.0,cue2.png,Hard,A,,,,,,,,,,,,,,,,,,,,,,,,,,,29,32,Male,1.1428571428571428,0.25,0.0,0.5,3.5,1.75,2.888888888888889,2.6666666666666665,1.75,3.111111111111111,2.25,2.25,1.25,1.75,0.8194444444444444,0.8333333333333334,0.4458930666765405,-0.8307703931712674,8.2943620113669e-06,0.05844475331729613,,,0.00011289512399040476,0.055948823889572556,6.968042574084874e-05,-0.22212807461666437,1.44,-0.3172547773772637,0.9650000000000001,-0.9175829791636687,,,,,,,,,,,,,,,,,,,,
35,240626_145229,LEARNING,1.0,36,3.0,1472.0,,,,,,,,,,36.0,36.0,36.0,cue2.png,Hard,A,,,,,,,,,,,,,,,,,,,,,,,,,,,29,32,Male,1.1428571428571428,0.25,0.0,0.5,3.5,1.75,2.888888888888889,2.6666666666666665,1.75,3.111111111111111,2.25,2.25,1.25,1.75,1.0,1.0,0.6226220000276549,0.5617673516565288,7.760408171648275e-06,0.05677691396294163,8.496116311541716e-05,0.23876300273686454,,,-0.00028032975080508104,-1.7684246861747055,1.797,0.3695854623054719,1.972,1.119219676698039,,,,,,,,,,,,,,,,,,,,
36,240626_145249,LEARNING,1.0,37,1.0,1472.0,,,,,,,,,,37.0,37.0,37.0,cue1.png,Easy,A,,,,,,,,,,,,,,,,,,,,,,,,,,,29,32,Male,1.1428571428571428,0.25,0.0,0.5,3.5,1.75,2.888888888888889,2.6666666666666665,1.75,3.111111111111111,2.25,2.25,1.25,1.75,1.0,1.0,0.4150783333203031,-1.0735754533371225,,,0.00011390859036067335,0.35773921490552435,-1.1218320984029626e-05,-0.4892825225388053,0.0002942676984023585,0.7700674727890354,1.3170000000000002,-0.5538972128982058,1.4139999999999997,-0.009415757235261557,,,,,,,,,,,,,,,,,,,,
37,240626_145310,LEARNING,1.0,38,3.0,1472.0,,,,,,,,,,38.0,38.0,38.0,cue2.png,Hard,A,,,,,,,,,,,,,,,,,,,,,,,,,,,29,32,Male,1.1428571428571428,0.25,0.0,0.5,3.5,1.75,2.888888888888889,2.6666666666666665,1.75,3.111111111111111,2.25,2.25,1.25,1.75,0.8194444444444444,0.8333333333333334,0.6558121110881783,0.8232892288637048,7.086557351026817e-05,0.2538899795235536,6.931915160228886e-05,0.17447310005352498,0.00028005180279767504,0.7902694373360628,,,1.7710000000000001,0.3195634840652731,1.5859999999999999,0.3384790360201645,,,,,,,,,,,,,,,,,,,,
38,240626_145331,LEARNING,1.0,39,3.0,1472.0,,,,,,,,,,39.0,39.0,39.0,cue2.png,Hard,A,,,,,,,,,,,,,,,,,,,,,,,,,,,29,32,Male,1.1428571428571428,0.25,0.0,0.5,3.5,1.75,2.888888888888889,2.6666666666666665,1.75,3.111111111111111,2.25,2.25,1.25,1.75,1.0,1.0,0.5569084333255887,0.043976516592287275,-0.00014608397854364063,-0.42376597855657705,-1.1705800822232187e-05,-0.15854585354606182,0.0003019340462505956,0.8863983060751992,8.036201957601664e-05,-0.17493826854772004,,,,,,,,,,,,,,,,,,,,,,,,
39,240626_145352,LEARNING,1.0,40,3.0,1472.0,,,,,,,,,,40.0,40.0,40.0,cue2.png,Hard,A,,,,,,,,,,,,,,,,,,,,,,,,,,,29,32,Male,1.1428571428571428,0.25,0.0,0.5,3.5,1.75,2.888888888888889,2.6666666666666665,1.75,3.111111111111111,2.25,2.25,1.25,1.75,0.8194444444444444,0.8333333333333334,0.498180411161027,-0.41877163670957207,-2.7225192181370723e-05,-0.05250287159910692,0.0008058428229170433,3.201643557833839,5.183252880381576e-05,-0.21229964022205403,,,1.5659999999999998,-0.07484057513629838,2.258,1.697695902692526,,,,,,,,,,,,,,,,,,,,
40,240626_145412,LEARNING,1.0,41,1.0,1472.0,,,,,,,,,,41.0,41.0,41.0,cue1.png,Easy,A,,,,,,,,,,,,,,,,,,,,,,,,,,,29,32,Male,1.1428571428571428,0.25,0.0,0.5,3.5,1.75,2.888888888888889,2.6666666666666665,1.75,3.111111111111111,2.25,2.25,1.25,1.75,1.0,1.0,0.4660463555871199,-0.6719723120746937,0.00014571149964093212,0.48767607080742315,-9.089382757147997e-05,-0.4840148975447812,0.00011377339396723488,0.05980707085140126,-0.00011187423975268611,-1.0242115078346898,1.8650000000000002,0.5004121746259935,1.2950000000000002,-0.25011041070849127,,,,,,,,,,,,,,,,,,,,
41,240626_145434,LEARNING,1.0,42,3.0,1472.0,,,,,,,,,,42.0,42.0,42.0,cue2.png,Hard,A,,,,,,,,,,,,,,,,,,,,,,,,,,,29,32,Male,1.1428571428571428,0.25,0.0,0.5,3.5,1.75,2.888888888888889,2.6666666666666665,1.75,3.111111111111111,2.25,2.25,1.25,1.75,0.8194444444444444,0.8333333333333334,0.66360602227764,0.8847014453319524,-9.389922384602e-05,-0.26076352196240327,-2.609882524874001e-05,-0.21770232066171974,0.00040347609161271985,1.332473315299918,0.000556389026964592,1.9280832944223996,1.883,0.5350427749461311,,,,,,,,,,,,,,,,,,,,,,
42,240626_145455,LEARNING,1.0,43,3.0,1472.0,,,,,,,,,,43.0,43.0,43.0,cue2.png,Hard,A,,,,,,,,,,,,,,,,,,,,,,,,,,,29,32,Male,1.1428571428571428,0.25,0.0,0.5,3.5,1.75,2.888888888888889,2.6666666666666665,1.75,3.111111111111111,2.25,2.25,1.25,1.75,0.8194444444444444,0.8333333333333334,0.5429832888767123,-0.06574682570115699,4.199488825267937e-05,0.16371052677317507,4.038993230573093e-05,0.05557172399203026,,,,,1.3650000000000002,-0.4615489453778379,,,,,,,,,,,,,,,,,,,,,,
43,240626_145516,LEARNING,1.0,44,1.0,1472.0,,,,,,,,,,44.0,44.0,44.0,cue1.png,Easy,A,,,,,,,,,,,,,,,,,,,,,,,,,,,29,32,Male,1.1428571428571428,0.25,0.0,0.5,3.5,1.75,2.888888888888889,2.6666666666666665,1.75,3.111111111111111,2.25,2.25,1.25,1.75,1.0,1.0,0.5180780000519007,-0.26198834697761264,-1.594950225186501e-05,-0.017282524795648267,3.4500598083721246e-06,-0.09625406938479691,,,,,2.041,0.8390224888673417,0.11499999999999999,-2.636830503972459,,,,,,,,,,,,,,,,,,,,
44,240626_145536,LEARNING,1.0,45,1.0,1472.0,,,,,,,,,,45.0,45.0,45.0,cue1.png,Easy,A,,,,,,,,,,,,,,,,,,,,,,,,,,,29,32,Male,1.1428571428571428,0.25,0.0,0.5,3.5,1.75,2.888888888888889,2.6666666666666665,1.75,3.111111111111111,2.25,2.25,1.25,1.75,1.0,1.0,0.4602950666772408,-0.7172896618518496,,,5.6993196398962605e-05,0.12381245069676167,0.00011646169479334351,0.07161679766484727,-3.5986990463750083e-05,-0.6889521231106467,1.9610000000000003,0.6851087096667293,,,,,,,,,,,,,,,,,,,,,,
45,240626_145556,LEARNING,1.0,46,1.0,1472.0,,,,,,,,,,46.0,46.0,46.0,cue1.png,Easy,A,,,,,,,,,,,,,,,,,,,,,,,,,,,29,32,Male,1.1428571428571428,0.25,0.0,0.5,3.5,1.75,2.888888888888889,2.6666666666666665,1.75,3.111111111111111,2.25,2.25,1.25,1.75,1.0,1.0,0.4684000445219378,-0.6534263919518933,6.6709579973184795e-06,0.05337394587807288,-4.298203976196846e-05,-0.287093665702376,-0.00013542024258672266,-1.0349025474956282,0.0002542985477602304,0.5934892863640321,1.234,-0.7135827588188421,1.432,0.026991837407748596,,,,,,,,,,,,,,,,,,,,
46,240626_145620,LEARNING,1.0,47,3.0,1472.0,,,,,,,,,,47.0,47.0,47.0,cue2.png,Hard,A,,,,,,,,,,,,,,,,,,,,,,,,,,,29,32,Male,1.1428571428571428,0.25,0.0,0.5,3.5,1.75,2.888888888888889,2.6666666666666665,1.75,3.111111111111111,2.25,2.25,1.25,1.75,0.8194444444444444,0.8333333333333334,0.9538153555865088,3.171409359372345,-1.1121491376568995e-05,-0.0022019205521924758,1.4590189223598251e-05,-0.05046725767048555,,,,,1.846,0.46385765206584767,1.3760000000000001,-0.08627623481494781,,,,,,,,,,,,,,,,,,,,
47,240626_145644,LEARNING,1.0,48,3.0,1472.0,,,,,,,,,,48.0,48.0,48.0,cue2.png,Hard,A,,,,,,,,,,,,,,,,,,,,,,,,,,,29,32,Male,1.1428571428571428,0.25,0.0,0.5,3.5,1.75,2.888888888888889,2.6666666666666665,1.75,3.111111111111111,2.25,2.25,1.25,1.75,0.5,0.5555555555555556,0.7660618625523057,1.692003464617411,,,,,-2.5141614877938288e-05,-0.5504476628510218,-0.00024638999429506345,-1.6184835301590363,1.835,0.44269450742576316,1.0770000000000002,-0.691046834718275,,,,,,,,,,,,,,,,,,,,
48,240626_145704,LEARNING,1.0,49,1.0,1472.0,,,,,,,,,,49.0,49.0,49.0,cue1.png,Easy,A,,,,,,,,,,,,,,,,,,,,,,,,,,,29,32,Male,1.1428571428571428,0.25,0.0,0.5,3.5,1.75,2.888888888888889,2.6666666666666665,1.75,3.111111111111111,2.25,2.25,1.25,1.75,1.0,1.0,0.4303736333321366,-0.95305595389202,-0.00012864988463591118,-0.3693094586031932,-0.0002551895142285875,-1.1592831453409658,,,,,,,,,,,,,,,,,,,,,,,,,,,,
49,240626_145724,LEARNING,1.0,50,1.0,1472.0,,,,,,,,,,50.0,50.0,50.0,cue1.png,Easy,A,,,,,,,,,,,,,,,,,,,,,,,,,,,29,32,Male,1.1428571428571428,0.25,0.0,0.5,3.5,1.75,2.888888888888889,2.6666666666666665,1.75,3.111111111111111,2.25,2.25,1.25,1.75,1.0,1.0,0.4362757888933022,-0.9065498485309954,0.00013357333368444694,0.44976172434897244,5.644466164063172e-05,0.12155792951820839,0.00029126746693860844,0.8395399387060734,5.057064067613736e-05,-0.3065524653151676,1.515,-0.17296060937668906,1.457,0.07755794107859564,,,,,,,,,,,,,,,,,,,,
0,240626_145913,TrueCHOICE,9.0,1,3.0,1472.0,,,,,,,,,,,1.0,1.0,,,A,,,,,,True,cue1.png,Easy,cue2.png,Hard,Right,Hard,Hard,0.0155142999719828,,,,,,,,,,,,,29,32,Male,1.1428571428571428,0.25,0.0,0.5,3.5,1.75,2.888888888888889,2.6666666666666665,1.75,3.111111111111111,2.25,2.25,1.25,1.75,0.8194444444444444,0.8333333333333334,0.4429630333454245,-0.4604671660668005,,,,,,,,,,,,,3.858605043997746e-05,0.6408482119008633,-0.00011543920470070057,-1.2149409482259377,,,,,,,,,,,,,,,,
1,240626_145933,TrueCHOICE,9.0,2,3.0,1472.0,,,,,,,,,,,2.0,2.0,,,A,,,,,,True,cue1.png,Easy,cue2.png,Hard,Right,Hard,Hard,0.0165715999901294,,,,,,,,,,,,,29,32,Male,1.1428571428571428,0.25,0.0,0.5,3.5,1.75,2.888888888888889,2.6666666666666665,1.75,3.111111111111111,2.25,2.25,1.25,1.75,0.5,0.6666666666666667,0.4362088222729249,-0.5493665943892099,,,,,,,,,,,,,-3.566022481601722e-05,0.5233901057568776,-3.225910512205058e-05,-0.14949418309370266,1.456,0.4130513504033835,,,,,,,,,,,,,,
2,240626_145954,TrueCHOICE,9.0,3,3.0,1472.0,,,,,,,,,,,3.0,3.0,,,A,,,,,,True,cue2.png,Hard,cue1.png,Easy,Left,Hard,Hard,0.0160129000432789,,,,,,,,,,,,,29,32,Male,1.1428571428571428,0.25,0.0,0.5,3.5,1.75,2.888888888888889,2.6666666666666665,1.75,3.111111111111111,2.25,2.25,1.25,1.75,0.5,0.5555555555555556,0.5265907624561805,0.6402472223415866,,,,,,,,,,,,,,,4.72234704444038e-05,0.8685913139257478,1.467,0.4490399829137777,,,,,,,,,,,,,,
3,240626_150014,TrueCHOICE,9.0,4,3.0,1472.0,,,,,,,,,,,4.0,4.0,,,A,,,,,,True,cue1.png,Easy,cue2.png,Hard,Right,Hard,Hard,0.0168037000112235,,,,,,,,,,,,,29,32,Male,1.1428571428571428,0.25,0.0,0.5,3.5,1.75,2.888888888888889,2.6666666666666665,1.75,3.111111111111111,2.25,2.25,1.25,1.75,0.5,0.6666666666666667,0.6724883333728131,2.56056189845917,,,,,,,,,,,,,,,,,,,,,,,,,,,,,,,,
4,240626_150038,TrueCHOICE,9.0,5,1.0,1472.0,,,,,,,,,,,6.0,5.0,,,A,,,,,,True,cue2.png,Hard,cue1.png,Easy,Right,Easy,Easy,0.0165707999840378,,,,,,,,,,,,,29,32,Male,1.1428571428571428,0.25,0.0,0.5,3.5,1.75,2.888888888888889,2.6666666666666665,1.75,3.111111111111111,2.25,2.25,1.25,1.75,1.0,1.0,0.4530750222297178,-0.3273724165295234,,,,,,,,,,,,,,,-9.065989791850809e-05,-0.897544931786416,1.588,0.8449149405281097,,,,,,,,,,,,,,
5,240626_150055,TrueCHOICE,9.0,6,1.0,1472.0,,,,,,,,,,,7.0,6.0,,,A,,,,,,True,cue2.png,Hard,cue1.png,Easy,Right,Easy,Easy,0.01647389982827,,,,,,,,,,,,,29,32,Male,1.1428571428571428,0.25,0.0,0.5,3.5,1.75,2.888888888888889,2.6666666666666665,1.75,3.111111111111111,2.25,2.25,1.25,1.75,1.0,1.0,0.413347822225963,-0.8502647767584749,,,,,,,,,,,,,-0.0017703527283848067,-2.220905086275777,8.819473653828196e-05,1.3933887491803087,,,,,,,,,,,,,,,,
6,240626_150113,TrueCHOICE,9.0,7,1.0,1472.0,,,,,,,,,,,8.0,7.0,,,A,,,,,,True,cue1.png,Easy,cue2.png,Hard,Left,Easy,Easy,0.0123697000090032,,,,,,,,,,,,,29,32,Male,1.1428571428571428,0.25,0.0,0.5,3.5,1.75,2.888888888888889,2.6666666666666665,1.75,3.111111111111111,2.25,2.25,1.25,1.75,1.0,1.0,0.4132462222543027,-0.851602043139585,,,,,,,,,,,,,-0.00019545599529342166,0.27059212356342727,,,0.8079999999999998,-1.707006273845271,,,,,,,,,,,,,,
7,240626_150131,TrueCHOICE,9.0,8,1.0,1472.0,,,,,,,,,,,9.0,8.0,,,A,,,,,,True,cue2.png,Hard,cue1.png,Easy,Right,Easy,Easy,0.0166621000971645,,,,,,,,,,,,,29,32,Male,1.1428571428571428,0.25,0.0,0.5,3.5,1.75,2.888888888888889,2.6666666666666665,1.75,3.111111111111111,2.25,2.25,1.25,1.75,1.0,1.0,0.4176575333242201,-0.7935400388494458,,,,,,,,,,,,,-0.00013054202519572353,0.3732864602648138,,,,,,,,,,,,,,,,,,
8,240626_150150,TrueCHOICE,9.0,9,1.0,1472.0,,,,,,,,,,,10.0,9.0,,,A,,,,,,True,cue1.png,Easy,cue2.png,Hard,Left,Easy,Easy,0.0160885998047888,,,,,,,,,,,,,29,32,Male,1.1428571428571428,0.25,0.0,0.5,3.5,1.75,2.888888888888889,2.6666666666666665,1.75,3.111111111111111,2.25,2.25,1.25,1.75,1.0,1.0,0.482199755574887,0.05596948922912538,,,,,,,,,,,,,,,,,,,,,,,,,,,,,,,,
9,240626_150209,TrueCHOICE,9.0,10,3.0,1472.0,,,,,,,,,,,11.0,10.0,,,A,,,,,,True,cue2.png,Hard,cue1.png,Easy,Left,Hard,Hard,0.0152169000357389,,,,,,,,,,,,,29,32,Male,1.1428571428571428,0.25,0.0,0.5,3.5,1.75,2.888888888888889,2.6666666666666665,1.75,3.111111111111111,2.25,2.25,1.25,1.75,0.8194444444444444,0.8333333333333334,0.5216969444364723,0.5758344257031537,,,,,,,,,,,,,-0.00010557264667898679,0.4127881847897949,,,,,,,,,,,,,,,,,,
0,240626_150356,FalseCHOICE,9.0,1,2.0,1472.0,,,,,,,,,,,1.0,1.0,,,A,,,,,,False,cue1.png,Easy,cue2.png,Hard,Left,Easy,Mid,0.016172399977222,,,,,,,,,,,,,29,32,Male,1.1428571428571428,0.25,0.0,0.5,3.5,1.75,2.888888888888889,2.6666666666666665,1.75,3.111111111111111,2.25,2.25,1.25,1.75,0.8194444444444444,0.8333333333333334,0.6222418444489853,0.5065819334893424,,,,,,,,,,,,,,,,,,,0.0001623830115510894,1.2414965658123098,,,1.3980000000000001,-0.0132525525935973,,,,,,,,
1,240626_150417,FalseCHOICE,9.0,2,2.0,1472.0,,,,,,,,,,,2.0,2.0,,,A,,,,,,False,cue2.png,Hard,cue1.png,Easy,Right,Easy,Mid,0.0168236000463366,,,,,,,,,,,,,29,32,Male,1.1428571428571428,0.25,0.0,0.5,3.5,1.75,2.888888888888889,2.6666666666666665,1.75,3.111111111111111,2.25,2.25,1.25,1.75,0.8194444444444444,0.8333333333333334,0.6577888111480408,0.7527870460496418,,,,,,,,,,,,,,,,,,,-0.00014680989709521487,-0.8969040536602336,-0.00038453547762242824,-1.1384000439191597,1.453,0.08251406833824113,,,,,,,,
2,240626_150439,FalseCHOICE,9.0,3,2.0,1472.0,,,,,,,,,,,3.0,3.0,,,A,,,,,,False,cue2.png,Hard,cue1.png,Easy,Left,Hard,Mid,0.0161725999787449,,,,,,,,,,,,,29,32,Male,1.1428571428571428,0.25,0.0,0.5,3.5,1.75,2.888888888888889,2.6666666666666665,1.75,3.111111111111111,2.25,2.25,1.25,1.75,1.0,1.0,0.6414580777701404,0.6396772529261391,,,,,,,,,,,,,,,,,,,8.117911950564737e-05,0.6798845488556257,0.0005730459988063773,2.0663664701253035,1.1389999999999998,-0.4642262766180739,,,,,,,,
3,240626_150503,FalseCHOICE,9.0,4,2.0,1472.0,,,,,,,,,,,5.0,4.0,,,A,,,,,,False,cue2.png,Hard,cue1.png,Easy,Left,Hard,Mid,0.0161393000744283,,,,,,,,,,,,,29,32,Male,1.1428571428571428,0.25,0.0,0.5,3.5,1.75,2.888888888888889,2.6666666666666665,1.75,3.111111111111111,2.25,2.25,1.25,1.75,1.0,1.0,0.5822042444358684,0.2292738328761996,,,,,,,,,,,,,,,,,,,0.0001954151760589491,1.469949415379209,,,1.5919999999999999,0.3245424376023418,,,,,,,,
4,240626_150522,FalseCHOICE,9.0,5,2.0,1472.0,,,,,,,,,,,6.0,5.0,,,A,,,,,,False,cue1.png,Easy,cue2.png,Hard,Left,Easy,Mid,0.016696099890396,,,,,,,,,,,,,29,32,Male,1.1428571428571428,0.25,0.0,0.5,3.5,1.75,2.888888888888889,2.6666666666666665,1.75,3.111111111111111,2.25,2.25,1.25,1.75,1.0,1.0,0.4454446000098768,-0.7179497075926551,,,,,,,,,,,,,,,,,,,1.5788551580057323e-05,0.2276386303707983,-5.158511545332858e-05,-0.02410512721100567,1.526,0.20962249248413584,,,,,,,,
5,240626_150540,FalseCHOICE,9.0,6,2.0,1472.0,,,,,,,,,,,7.0,6.0,,,A,,,,,,False,cue2.png,Hard,cue1.png,Easy,Right,Easy,Mid,0.0161651999223977,,,,,,,,,,,,,29,32,Male,1.1428571428571428,0.25,0.0,0.5,3.5,1.75,2.888888888888889,2.6666666666666665,1.75,3.111111111111111,2.25,2.25,1.25,1.75,1.0,1.0,0.475896911126458,-0.5070311572236765,,,,,,,,,,,,,,,,,,,-0.00011206891176159103,-0.6566328751142512,-0.0004467978463050877,-1.3467753719209363,0.010999999999999899,-2.4283126113655986,,,,,,,,
6,240626_150558,FalseCHOICE,9.0,7,2.0,1472.0,,,,,,,,,,,8.0,7.0,,,A,,,,,,False,cue2.png,Hard,cue1.png,Easy,Right,Easy,Mid,0.0155608998611569,,,,,,,,,,,,,29,32,Male,1.1428571428571428,0.25,0.0,0.5,3.5,1.75,2.888888888888889,2.6666666666666665,1.75,3.111111111111111,2.25,2.25,1.25,1.75,1.0,1.0,0.4724648777498967,-0.5308020789718163,,,,,,,,,,,,,,,,,,,-2.900237374541025e-05,-0.08213866330023865,-4.5957551461538876e-05,-0.005271190798837706,1.455,0.08599649091758071,,,,,,,,
7,240626_150617,FalseCHOICE,9.0,8,2.0,1472.0,,,,,,,,,,,9.0,8.0,,,A,,,,,,False,cue1.png,Easy,cue2.png,Hard,Left,Easy,Mid,0.0153714001644402,,,,,,,,,,,,,29,32,Male,1.1428571428571428,0.25,0.0,0.5,3.5,1.75,2.888888888888889,2.6666666666666665,1.75,3.111111111111111,2.25,2.25,1.25,1.75,1.0,1.0,0.5985878999862406,0.3427501751216198,,,,,,,,,,,,,,,,,,,-6.614339484309513e-05,-0.33900866355624704,0.00015818463638550767,0.6779375635683215,,,,,,,,,,
8,240626_150635,FalseCHOICE,9.0,9,2.0,1472.0,,,,,,,,,,,10.0,9.0,,,A,,,,,,False,cue1.png,Easy,cue2.png,Hard,Left,Easy,Mid,0.0165386998560279,,,,,,,,,,,,,29,32,Male,1.1428571428571428,0.25,0.0,0.5,3.5,1.75,2.888888888888889,2.6666666666666665,1.75,3.111111111111111,2.25,2.25,1.25,1.75,1.0,1.0,0.4172181888328244,-0.9134512478465563,,,,,,,,,,,,,,,,,,,-1.3068152811539224e-05,0.028063566320687836,0.0001477238803570479,0.6429282390807365,0.3500000000000001,-1.838041984167539,,,,,,,,
9,240626_150653,FalseCHOICE,9.0,10,2.0,1472.0,,,,,,,,,,,11.0,10.0,,,A,,,,,,False,cue2.png,Hard,cue1.png,Easy,Right,Easy,Mid,0.0174899001140147,,,,,,,,,,,,,29,32,Male,1.1428571428571428,0.25,0.0,0.5,3.5,1.75,2.888888888888889,2.6666666666666665,1.75,3.111111111111111,2.25,2.25,1.25,1.75,1.0,1.0,0.4389414444255332,-0.7629918110777607,,,,,,,,,,,,,,,,,,,-0.00010259014728689845,-0.5910770513624725,-9.429697389633273e-05,-0.16705017894825475,1.435,0.05117226512418485,,,,,,,,
10,240626_150711,FalseCHOICE,9.0,11,2.0,1472.0,,,,,,,,,,,12.0,11.0,,,A,,,,,,False,cue1.png,Easy,cue2.png,Hard,Left,Easy,Mid,0.0160842000041157,,,,,,,,,,,,,29,32,Male,1.1428571428571428,0.25,0.0,0.5,3.5,1.75,2.888888888888889,2.6666666666666665,1.75,3.111111111111111,2.25,2.25,1.25,1.75,1.0,1.0,0.4592248555272817,-0.6225050135489714,,,,,,,,,,,,,,,,,,,-6.524503452570371e-05,-0.33279553833409997,-8.720899033714266e-05,-0.1433286127716571,,,,,,,,,,
11,240626_150729,FalseCHOICE,9.0,12,2.0,1472.0,,,,,,,,,,,13.0,12.0,,,A,,,,,,False,cue2.png,Hard,cue1.png,Easy,Right,Easy,Mid,0.0157622001133859,,,,,,,,,,,,,29,32,Male,1.1428571428571428,0.25,0.0,0.5,3.5,1.75,2.888888888888889,2.6666666666666665,1.75,3.111111111111111,2.25,2.25,1.25,1.75,0.8194444444444444,0.8333333333333334,0.4418799111671332,-0.7426394265551861,,,,,,,,,,,,,,,,,,,-0.0002747681349452957,-1.7818725229670038,,,1.4539999999999997,0.08425527962791034,,,,,,,,
12,240626_150747,FalseCHOICE,9.0,13,2.0,1472.0,,,,,,,,,,,14.0,13.0,,,A,,,,,,False,cue1.png,Easy,cue2.png,Hard,Left,Easy,Mid,0.0162148000672459,,,,,,,,,,,,,29,32,Male,1.1428571428571428,0.25,0.0,0.5,3.5,1.75,2.888888888888889,2.6666666666666665,1.75,3.111111111111111,2.25,2.25,1.25,1.75,1.0,1.0,0.4802748777955357,-0.4767085199738953,,,,,,,,,,,,,,,,,,,0.00020597411242017543,1.5429757863741747,-7.698573275568069e-06,0.12277127364943188,,,,,,,,,,
13,240626_150805,FalseCHOICE,9.0,14,2.0,1472.0,,,,,,,,,,,15.0,14.0,,,A,,,,,,False,cue2.png,Hard,cue1.png,Easy,Right,Easy,Mid,0.0179445000831037,,,,,,,,,,,,,29,32,Male,1.1428571428571428,0.25,0.0,0.5,3.5,1.75,2.888888888888889,2.6666666666666665,1.75,3.111111111111111,2.25,2.25,1.25,1.75,0.8194444444444444,0.8333333333333334,0.4050674888615806,-0.9976093274777502,,,,,,,,,,,,,,,,,,,-4.5813403574228306e-05,-0.19840496693994739,-2.8534049852301305e-05,0.0530405621842369,,,,,,,,,,
14,240626_150823,FalseCHOICE,9.0,15,2.0,1472.0,,,,,,,,,,,16.0,15.0,,,A,,,,,,False,cue1.png,Easy,cue2.png,Hard,Left,Easy,Mid,0.0161705999635159,,,,,,,,,,,,,29,32,Male,1.1428571428571428,0.25,0.0,0.5,3.5,1.75,2.888888888888889,2.6666666666666665,1.75,3.111111111111111,2.25,2.25,1.25,1.75,0.5,0.6666666666666667,0.495053288863144,-0.3743504090507611,,,,,,,,,,,,,,,,,,,-0.00011431216455522761,-0.6721473744103311,-0.0001717893814569835,-0.42639633272854216,,,,,,,,,,
15,240626_150843,FalseCHOICE,9.0,16,2.0,1472.0,,,,,,,,,,,17.0,16.0,,,A,,,,,,False,cue1.png,Easy,cue2.png,Hard,Right,Hard,Mid,0.0166639999952167,,,,,,,,,,,,,29,32,Male,1.1428571428571428,0.25,0.0,0.5,3.5,1.75,2.888888888888889,2.6666666666666665,1.75,3.111111111111111,2.25,2.25,1.25,1.75,1.0,1.0,0.539462811106609,-0.0667615361303621,,,,,,,,,,,,,,,,,,,,,0.00020681530478367871,0.8406912732779996,,,,,,,,,,
16,240626_150901,FalseCHOICE,9.0,17,2.0,1472.0,,,,,,,,,,,18.0,17.0,,,A,,,,,,False,cue2.png,Hard,cue1.png,Easy,Left,Hard,Mid,0.0166693001519888,,,,,,,,,,,,,29,32,Male,1.1428571428571428,0.25,0.0,0.5,3.5,1.75,2.888888888888889,2.6666666666666665,1.75,3.111111111111111,2.25,2.25,1.25,1.75,1.0,1.0,0.4354966221273773,-0.7868513113509652,,,,,,,,,,,,,,,,,,,-7.770818832655759e-05,-0.41899161548545116,9.062227381269154e-05,0.45182458779253104,,,,,,,,,,
17,240626_150921,FalseCHOICE,9.0,18,2.0,1472.0,,,,,,,,,,,19.0,18.0,,,A,,,,,,False,cue2.png,Hard,cue1.png,Easy,Left,Hard,Mid,0.0167212001979351,,,,,,,,,,,,,29,32,Male,1.1428571428571428,0.25,0.0,0.5,3.5,1.75,2.888888888888889,2.6666666666666665,1.75,3.111111111111111,2.25,2.25,1.25,1.75,0.8194444444444444,0.8333333333333334,0.4896508110687136,-0.41176900695091867,,,,,,,,,,,,,,,,,,,-1.4598943048225663e-06,0.10834712550850956,0.0003334554478468558,1.2645216206822234,,,,,,,,,,
18,240626_150939,FalseCHOICE,9.0,19,2.0,1472.0,,,,,,,,,,,20.0,19.0,,,A,,,,,,False,cue1.png,Easy,cue2.png,Hard,Left,Easy,Mid,0.0159331001341342,,,,,,,,,,,,,29,32,Male,1.1428571428571428,0.25,0.0,0.5,3.5,1.75,2.888888888888889,2.6666666666666665,1.75,3.111111111111111,2.25,2.25,1.25,1.75,1.0,1.0,0.4336595666439582,-0.7995751101466223,,,,,,,,,,,,,,,,,,,7.038467189294812e-05,0.6052293649352686,2.4438263437182115e-05,0.23032458446370357,,,,,,,,,,
19,240626_150957,FalseCHOICE,9.0,20,2.0,1472.0,,,,,,,,,,,21.0,20.0,,,A,,,,,,False,cue1.png,Easy,cue2.png,Hard,Left,Easy,Mid,0.0157335998956114,,,,,,,,,,,,,29,32,Male,1.1428571428571428,0.25,0.0,0.5,3.5,1.75,2.888888888888889,2.6666666666666665,1.75,3.111111111111111,2.25,2.25,1.25,1.75,1.0,1.0,0.4467170999851078,-0.709136128580777,,,,,,,,,,,,,,,,,,,3.765705935953852e-05,0.37888281894977105,-0.0002853974163681298,-0.806611734730113,0.29400000000000004,-1.9355498163890474,,,,,,,,
20,240626_151016,FalseCHOICE,9.0,21,2.0,1472.0,,,,,,,,,,,22.0,21.0,,,A,,,,,,False,cue1.png,Easy,cue2.png,Hard,Left,Easy,Mid,0.0152234998531639,,,,,,,,,,,,,29,32,Male,1.1428571428571428,0.25,0.0,0.5,3.5,1.75,2.888888888888889,2.6666666666666665,1.75,3.111111111111111,2.25,2.25,1.25,1.75,0.8194444444444444,0.8333333333333334,0.6015927222195185,0.36356215051268853,,,,,,,,,,,,,,,,,,,0.00010046856265511417,0.8132917390809544,,,2.2479999999999998,1.466777043625725,,,,,,,,
21,240626_151035,FalseCHOICE,9.0,22,2.0,1472.0,,,,,,,,,,,23.0,22.0,,,A,,,,,,False,cue2.png,Hard,cue1.png,Easy,Left,Hard,Mid,0.015943800099194,,,,,,,,,,,,,29,32,Male,1.1428571428571428,0.25,0.0,0.5,3.5,1.75,2.888888888888889,2.6666666666666665,1.75,3.111111111111111,2.25,2.25,1.25,1.75,1.0,1.0,0.4310880222150849,-0.8173861203215463,,,,,,,,,,,,,,,,,,,1.515802896375363e-06,0.12892726354034093,-0.00016047509086571836,-0.38853045863887065,0.8669999999999998,-0.9378357474082573,,,,,,,,
22,240626_151053,FalseCHOICE,9.0,23,2.0,1472.0,,,,,,,,,,,24.0,23.0,,,A,,,,,,False,cue1.png,Easy,cue2.png,Hard,Left,Easy,Mid,0.0157155999913811,,,,,,,,,,,,,29,32,Male,1.1428571428571428,0.25,0.0,0.5,3.5,1.75,2.888888888888889,2.6666666666666665,1.75,3.111111111111111,2.25,2.25,1.25,1.75,0.8194444444444444,0.8333333333333334,0.4907113777784009,-0.40442331840463813,,,,,,,,,,,,,,,,,,,1.0099396747600443e-06,0.12542867674801572,-0.00010079099117616579,-0.18878390044592874,1.415,0.016348039330788988,,,,,,,,
23,240626_151111,FalseCHOICE,9.0,24,2.0,1472.0,,,,,,,,,,,25.0,24.0,,,A,,,,,,False,cue2.png,Hard,cue1.png,Easy,Right,Easy,Mid,0.0164143999572843,,,,,,,,,,,,,29,32,Male,1.1428571428571428,0.25,0.0,0.5,3.5,1.75,2.888888888888889,2.6666666666666665,1.75,3.111111111111111,2.25,2.25,1.25,1.75,1.0,1.0,0.4047060222106261,-1.0001129148650647,,,,,,,,,,,,,,,,,,,3.579700050198838e-05,0.3660185167552124,-0.0006516543174220823,-2.0323746394312785,1.8869999999999998,0.8381997680549302,,,,,,,,
24,240626_151129,FalseCHOICE,9.0,25,2.0,1472.0,,,,,,,,,,,26.0,25.0,,,A,,,,,,False,cue2.png,Hard,cue1.png,Easy,Right,Easy,Mid,0.015111300162971,,,,,,,,,,,,,29,32,Male,1.1428571428571428,0.25,0.0,0.5,3.5,1.75,2.888888888888889,2.6666666666666665,1.75,3.111111111111111,2.25,2.25,1.25,1.75,0.8194444444444444,0.8333333333333334,0.4881466555460874,-0.4221870767370596,,,,,,,,,,,,,,,,,,,1.622326648393832e-05,0.23064515022865334,-2.16785894857777e-05,0.0759839360503742,,,,,,,,,,
25,240626_151147,FalseCHOICE,9.0,26,2.0,1472.0,,,,,,,,,,,27.0,26.0,,,A,,,,,,False,cue1.png,Easy,cue2.png,Hard,Left,Easy,Mid,0.0162971999961882,,,,,,,,,,,,,29,32,Male,1.1428571428571428,0.25,0.0,0.5,3.5,1.75,2.888888888888889,2.6666666666666665,1.75,3.111111111111111,2.25,2.25,1.25,1.75,1.0,1.0,0.4819532555476244,-0.46508375359452686,,,,,,,,,,,,,,,,,,,,,-0.00020050264747750388,-0.5224918773025561,,,,,,,,,,
26,240626_151211,FalseCHOICE,9.0,27,2.0,1472.0,,,,,,,,,,,29.0,27.0,,,A,,,,,,False,cue1.png,Easy,cue2.png,Hard,Left,Easy,Mid,0.0174440001137554,,,,,,,,,,,,,29,32,Male,1.1428571428571428,0.25,0.0,0.5,3.5,1.75,2.888888888888889,2.6666666666666665,1.75,3.111111111111111,2.25,2.25,1.25,1.75,1.0,1.0,0.4399023444340046,-0.7563364332294115,,,,,,,,,,,,,,,,,,,-0.0002651162059041372,-1.7151190804929113,0.000251145930746786,0.9890539026001834,1.8750000000000002,0.8173052325788934,,,,,,,,
27,240626_151229,FalseCHOICE,9.0,28,2.0,1472.0,,,,,,,,,,,30.0,28.0,,,A,,,,,,False,cue2.png,Hard,cue1.png,Easy,Right,Easy,Mid,0.0175928999669849,,,,,,,,,,,,,29,32,Male,1.1428571428571428,0.25,0.0,0.5,3.5,1.75,2.888888888888889,2.6666666666666665,1.75,3.111111111111111,2.25,2.25,1.25,1.75,0.5,0.6666666666666667,0.5564672221533127,0.05101427780108444,,,,,,,,,,,,,,,,,,,0.0001364716805420823,1.062291918061469,-0.0004483244613788396,-1.351884540162621,1.656,0.43597996014120854,,,,,,,,
28,240626_151247,FalseCHOICE,9.0,29,2.0,1472.0,,,,,,,,,,,31.0,29.0,,,A,,,,,,False,cue1.png,Easy,cue2.png,Hard,Left,Easy,Mid,0.016240700148046,,,,,,,,,,,,,29,32,Male,1.1428571428571428,0.25,0.0,0.5,3.5,1.75,2.888888888888889,2.6666666666666665,1.75,3.111111111111111,2.25,2.25,1.25,1.75,1.0,1.0,0.3954497666563838,-1.0642235170414152,,,,,,,,,,,,,,,,,,,,,0.0001387414775025713,0.6128665632941078,1.074,-0.5774050104466099,,,,,,,,
29,240626_151304,FalseCHOICE,9.0,30,2.0,1472.0,,,,,,,,,,,32.0,30.0,,,A,,,,,,False,cue1.png,Easy,cue2.png,Hard,Left,Easy,Mid,0.0164173000957816,,,,,,,,,,,,,29,32,Male,1.1428571428571428,0.25,0.0,0.5,3.5,1.75,2.888888888888889,2.6666666666666665,1.75,3.111111111111111,2.25,2.25,1.25,1.75,0.8194444444444444,0.8333333333333334,0.3831622889006717,-1.149328945854492,,,,,,,,,,,,,,,,,,,3.040715495206993e-05,0.328741953352552,-0.0003752920794732645,-1.1074648873882544,1.8199999999999998,0.7215386116470542,,,,,,,,
30,240626_151322,FalseCHOICE,9.0,31,2.0,1472.0,,,,,,,,,,,33.0,31.0,,,A,,,,,,False,cue2.png,Hard,cue1.png,Easy,Left,Hard,Mid,0.0165017000399529,,,,,,,,,,,,,29,32,Male,1.1428571428571428,0.25,0.0,0.5,3.5,1.75,2.888888888888889,2.6666666666666665,1.75,3.111111111111111,2.25,2.25,1.25,1.75,1.0,1.0,0.4468108999749852,-0.7084864518513548,,,,,,,,,,,,,,,,,,,5.8956442630733914e-05,0.5261909010817891,-0.00020052807498180522,-0.5225769762902941,,,,,,,,,,
31,240626_151341,FalseCHOICE,9.0,32,2.0,1472.0,,,,,,,,,,,34.0,32.0,,,A,,,,,,False,cue1.png,Easy,cue2.png,Hard,Left,Easy,Mid,0.0160860999021679,,,,,,,,,,,,,29,32,Male,1.1428571428571428,0.25,0.0,0.5,3.5,1.75,2.888888888888889,2.6666666666666665,1.75,3.111111111111111,2.25,2.25,1.25,1.75,0.8194444444444444,0.8333333333333334,0.4545008000245111,-0.6552247284728229,,,,,,,,,,,,,,,,,,,-4.304392880179848e-05,-0.17925107820780908,3.778921119196874e-05,0.27500659988328485,0.488,-1.5977548261931078,,,,,,,,
32,240626_151402,FalseCHOICE,9.0,33,2.0,1472.0,,,,,,,,,,,35.0,33.0,,,A,,,,,,False,cue2.png,Hard,cue1.png,Easy,Right,Easy,Mid,0.0158869000151753,,,,,,,,,,,,,29,32,Male,1.1428571428571428,0.25,0.0,0.5,3.5,1.75,2.888888888888889,2.6666666666666665,1.75,3.111111111111111,2.25,2.25,1.25,1.75,1.0,1.0,0.608385288880931,0.41060877065343976,,,,,,,,,,,,,,,,,,,0.00014920273109882707,1.150340788639616,-0.000859750593540683,-2.7288166590590723,0.379,-1.787546856767115,,,,,,,,
33,240626_151420,FalseCHOICE,9.0,34,2.0,1472.0,,,,,,,,,,,36.0,34.0,,,A,,,,,,False,cue2.png,Hard,cue1.png,Easy,Right,Easy,Mid,0.0164970001205801,,,,,,,,,,,,,29,32,Male,1.1428571428571428,0.25,0.0,0.5,3.5,1.75,2.888888888888889,2.6666666666666665,1.75,3.111111111111111,2.25,2.25,1.25,1.75,0.8194444444444444,0.8333333333333334,0.443651088901485,-0.7303719096910264,,,,,,,,,,,,,,,,,,,-7.937600790843382e-05,-0.43052637688301076,-1.8111730233091785e-05,0.08792125039353375,0.8650000000000002,-0.9413181699875961,,,,,,,,
34,240626_151438,FalseCHOICE,9.0,35,2.0,1472.0,,,,,,,,,,,37.0,35.0,,,A,,,,,,False,cue2.png,Hard,cue1.png,Easy,Right,Easy,Mid,0.0166384000331163,,,,,,,,,,,,,29,32,Male,1.1428571428571428,0.25,0.0,0.5,3.5,1.75,2.888888888888889,2.6666666666666665,1.75,3.111111111111111,2.25,2.25,1.25,1.75,0.8194444444444444,0.8333333333333334,0.4896419778104043,-0.4118301877930065,,,,,,,,,,,,,,,,,,,0.0001049024519993039,0.8439568399133094,0.0003818506603783852,1.4264873232138988,1.5970000000000002,0.33324849405069135,,,,,,,,
35,240626_151457,FalseCHOICE,9.0,36,2.0,1472.0,,,,,,,,,,,38.0,36.0,,,A,,,,,,False,cue1.png,Easy,cue2.png,Hard,Right,Hard,Mid,0.0154566001147031,,,,,,,,,,,,,29,32,Male,1.1428571428571428,0.25,0.0,0.5,3.5,1.75,2.888888888888889,2.6666666666666665,1.75,3.111111111111111,2.25,2.25,1.25,1.75,1.0,1.0,0.4548724444531318,-0.6526506478443512,,,,,,,,,,,,,,,,,,,0.0001147624971961918,0.9121496288403407,2.1420023976016778e-05,0.22022335235488738,1.4529999999999998,0.08251406833824074,,,,,,,,
36,240626_151515,FalseCHOICE,9.0,37,2.0,1472.0,,,,,,,,,,,39.0,37.0,,,A,,,,,,False,cue2.png,Hard,cue1.png,Easy,Left,Hard,Mid,0.0169289000332355,,,,,,,,,,,,,29,32,Male,1.1428571428571428,0.25,0.0,0.5,3.5,1.75,2.888888888888889,2.6666666666666665,1.75,3.111111111111111,2.25,2.25,1.25,1.75,1.0,1.0,0.4032186110659192,-1.010415009876613,,,,,,,,,,,,,,,,,,,-9.215606372673128e-05,-0.5189141714103535,0.00023375904101426235,0.9308646796778893,,,,,,,,,,
37,240626_151536,FalseCHOICE,9.0,38,2.0,1472.0,,,,,,,,,,,40.0,38.0,,,A,,,,,,False,cue1.png,Easy,cue2.png,Hard,Right,Hard,Mid,0.0168167001102119,,,,,,,,,,,,,29,32,Male,1.1428571428571428,0.25,0.0,0.5,3.5,1.75,2.888888888888889,2.6666666666666665,1.75,3.111111111111111,2.25,2.25,1.25,1.75,0.125,0.5,0.7021748222565899,1.0602130763379987,,,,,,,,,,,,,,,,,,,-8.154214252256058e-05,-0.44550752124686277,-0.00025885603786834823,-0.7177849109595681,1.798,0.6832319632743192,,,,,,,,
38,240626_151554,FalseCHOICE,9.0,39,2.0,1472.0,,,,,,,,,,,41.0,39.0,,,A,,,,,,False,cue1.png,Easy,cue2.png,Hard,Left,Easy,Mid,0.015986300073564,,,,,,,,,,,,,29,32,Male,1.1428571428571428,0.25,0.0,0.5,3.5,1.75,2.888888888888889,2.6666666666666665,1.75,3.111111111111111,2.25,2.25,1.25,1.75,0.8194444444444444,0.8333333333333334,0.4822232111408893,-0.4632139893530726,,,,,,,,,,,,,,,,,,,,,0.00013948562270717658,0.6153570162654828,1.5059999999999998,0.17479826669073958,,,,,,,,
39,240626_151614,FalseCHOICE,9.0,40,2.0,1472.0,,,,,,,,,,,42.0,40.0,,,A,,,,,,False,cue2.png,Hard,cue1.png,Easy,Right,Easy,Mid,0.0167232998646795,,,,,,,,,,,,,29,32,Male,1.1428571428571428,0.25,0.0,0.5,3.5,1.75,2.888888888888889,2.6666666666666665,1.75,3.111111111111111,2.25,2.25,1.25,1.75,0.8194444444444444,0.8333333333333334,0.5932308333770683,0.3056461038046333,,,,,,,,,,,,,,,,,,,,,0.0003675349564621075,1.3785765295475878,1.654,0.432497537561869,,,,,,,,
40,240626_151633,FalseCHOICE,9.0,41,2.0,1472.0,,,,,,,,,,,43.0,41.0,,,A,,,,,,False,cue2.png,Hard,cue1.png,Easy,Right,Easy,Mid,0.0163439000025391,,,,,,,,,,,,,29,32,Male,1.1428571428571428,0.25,0.0,0.5,3.5,1.75,2.888888888888889,2.6666666666666665,1.75,3.111111111111111,2.25,2.25,1.25,1.75,0.8194444444444444,0.8333333333333334,0.5437644777767774,-0.03696736731443774,,,,,,,,,,,,,,,,,,,,,-0.0004863549709572604,-1.4791623819014816,1.9129999999999998,0.8834712615863448,,,,,,,,
41,240626_151654,FalseCHOICE,9.0,42,2.0,1472.0,,,,,,,,,,,44.0,42.0,,,A,,,,,,False,cue1.png,Easy,cue2.png,Hard,Left,Easy,Mid,0.0159350999165326,,,,,,,,,,,,,29,32,Male,1.1428571428571428,0.25,0.0,0.5,3.5,1.75,2.888888888888889,2.6666666666666665,1.75,3.111111111111111,2.25,2.25,1.25,1.75,1.0,1.0,0.8311686221924093,1.953648887659223,,,,,,,,,,,,,,,,,,,-7.46289163045962e-05,-0.3976951464683716,0.00045880241638071844,1.6840240622837805,,,,,,,,,,
42,240626_151716,FalseCHOICE,9.0,43,2.0,1472.0,,,,,,,,,,,45.0,43.0,,,A,,,,,,False,cue2.png,Hard,cue1.png,Easy,Right,Easy,Mid,0.0165897000115364,,,,,,,,,,,,,29,32,Male,1.1428571428571428,0.25,0.0,0.5,3.5,1.75,2.888888888888889,2.6666666666666665,1.75,3.111111111111111,2.25,2.25,1.25,1.75,1.0,1.0,0.8527106000110507,2.102852759778951,,,,,,,,,,,,,,,,,,,-0.0001284769970918997,-0.770112385327817,-0.00014181969542968135,-0.3260958898096622,1.577,0.2984242682572951,,,,,,,,
43,240626_151739,FalseCHOICE,9.0,44,2.0,1472.0,,,,,,,,,,,46.0,44.0,,,A,,,,,,False,cue1.png,Easy,cue2.png,Hard,Left,Easy,Mid,0.0160898999311029,,,,,,,,,,,,,29,32,Male,1.1428571428571428,0.25,0.0,0.5,3.5,1.75,2.888888888888889,2.6666666666666665,1.75,3.111111111111111,2.25,2.25,1.25,1.75,0.8194444444444444,0.8333333333333334,0.9654117666133162,2.8834426661949357,,,,,,,,,,,,,,,,,,,,,0.00018782454304398875,0.7771343240285954,1.806,0.6971616535916776,,,,,,,,
44,240626_151803,FalseCHOICE,9.0,45,2.0,1472.0,,,,,,,,,,,47.0,45.0,,,A,,,,,,False,cue2.png,Hard,cue1.png,Easy,Right,Easy,Mid,0.0164630999788641,,,,,,,,,,,,,29,32,Male,1.1428571428571428,0.25,0.0,0.5,3.5,1.75,2.888888888888889,2.6666666666666665,1.75,3.111111111111111,2.25,2.25,1.25,1.75,0.9166666666666666,0.8888888888888888,0.9687431125203148,2.9065162072076958,,,,,,,,,,,,,,,,,,,1.2734666048805875e-05,0.20651773616783095,,,1.48,0.12952677315932534,,,,,,,,
45,240626_151823,FalseCHOICE,9.0,46,2.0,1472.0,,,,,,,,,,,48.0,46.0,,,A,,,,,,False,cue2.png,Hard,cue1.png,Easy,Right,Easy,Mid,0.0164675000123679,,,,,,,,,,,,,29,32,Male,1.1428571428571428,0.25,0.0,0.5,3.5,1.75,2.888888888888889,2.6666666666666665,1.75,3.111111111111111,2.25,2.25,1.25,1.75,1.0,1.0,0.6412662332877517,0.6383485012275633,,,,,,,,,,,,,,,,,,,-0.0006300855501013966,-4.239273580467844,,,1.8860000000000001,0.836458556765261,,,,,,,,
46,240626_151843,FalseCHOICE,9.0,47,2.0,1472.0,,,,,,,,,,,49.0,47.0,,,A,,,,,,False,cue1.png,Easy,cue2.png,Hard,Left,Easy,Mid,0.0166655001230537,,,,,,,,,,,,,29,32,Male,1.1428571428571428,0.25,0.0,0.5,3.5,1.75,2.888888888888889,2.6666666666666665,1.75,3.111111111111111,2.25,2.25,1.25,1.75,1.0,1.0,0.7627197000094585,1.4795585177731094,,,,,,,,,,,,,,,,,,,,,,,2.157,1.3083268162657744,,,,,,,,
47,240626_151904,FalseCHOICE,9.0,48,2.0,1472.0,,,,,,,,,,,50.0,48.0,,,A,,,,,,False,cue1.png,Easy,cue2.png,Hard,Left,Easy,Mid,0.0161509998142719,,,,,,,,,,,,,29,32,Male,1.1428571428571428,0.25,0.0,0.5,3.5,1.75,2.888888888888889,2.6666666666666665,1.75,3.111111111111111,2.25,2.25,1.25,1.75,0.8194444444444444,0.8333333333333334,0.7200449555336187,1.1839850485624341,,,,,,,,,,,,,,,,,,,4.0388088573188857e-05,0.39777081540426956,,,2.4250000000000003,1.7749714418972788,,,,,,,,
48,240626_151925,FalseCHOICE,9.0,49,2.0,1472.0,,,,,,,,,,,51.0,49.0,,,A,,,,,,False,cue2.png,Hard,cue1.png,Easy,Right,Easy,Mid,0.0165686998516321,,,,,,,,,,,,,29,32,Male,1.1428571428571428,0.25,0.0,0.5,3.5,1.75,2.888888888888889,2.6666666666666665,1.75,3.111111111111111,2.25,2.25,1.25,1.75,1.0,1.0,0.7398760777949873,1.3213392067918355,,,,,,,,,,,,,,,,,,,-1.2771876732224977e-06,0.10961073784653463,,,2.007,1.0471451228153057,,,,,,,,
49,240626_151945,FalseCHOICE,9.0,50,2.0,1472.0,,,,,,,,,,,52.0,50.0,,,A,,,,,,False,cue1.png,Easy,cue2.png,Hard,Right,Hard,Mid,0.0165906997863203,,,,,,,,,,,,,29,32,Male,1.1428571428571428,0.25,0.0,0.5,3.5,1.75,2.888888888888889,2.6666666666666665,1.75,3.111111111111111,2.25,2.25,1.25,1.75,0.8194444444444444,0.8333333333333334,0.6987609222738279,1.0365677499549784,,,,,,,,,,,,,,,,,,,0.00015378356626722647,1.182022177468014,,,0.6619999999999999,-1.2947840617905644,,,,,,,,
0,240626_143930,OFFLINERATING,9.0,1,1.0,,,,,,,,,,,,,,,,,T0,cue1.png,Easy,36.0,2.6103962999768555,,,,,,,,,,,,,,,,,,,,,,29,32,Male,1.1428571428571428,0.25,0.0,0.5,3.5,1.75,2.888888888888889,2.6666666666666665,1.75,3.111111111111111,2.25,2.25,1.25,1.75,,,,,,,,,,,,,,,,,,,,,,,,,,,,,-1.8360990625470575,,,0.0002811682027890356,0.7478890302975991,,,
1,240626_143938,OFFLINERATING,9.0,2,3.0,,,,,,,,,,,,,,,,,T0,cue2.png,Hard,66.0,2.0357410998549312,,,,,,,,,,,,,,,,,,,,,,29,32,Male,1.1428571428571428,0.25,0.0,0.5,3.5,1.75,2.888888888888889,2.6666666666666665,1.75,3.111111111111111,2.25,2.25,1.25,1.75,,,,,,,,,,,,,,,,,,,,,,,,,,,,,1.4771624037032718,,,-0.0001479033079019457,-0.445597323428096,,,
2,240626_145754,OFFLINERATING,9.0,3,1.0,,,,,,,,,,,,,,,,,T1,cue1.png,Easy,42.0,1.0293586000334471,,,,,,,,,,,,,,,,,,,,,,29,32,Male,1.1428571428571428,0.25,0.0,0.5,3.5,1.75,2.888888888888889,2.6666666666666665,1.75,3.111111111111111,2.25,2.25,1.25,1.75,,,,,,,,,,,,,,,,,,,,,,,,,,,,,-1.1734467692969917,-0.0002268435418897809,-1.6330922849488743,,,,,
3,240626_145801,OFFLINERATING,9.0,4,3.0,,,,,,,,,,,,,,,,,T1,cue2.png,Hard,59.0,0.693017499987036,,,,,,,,,,,,,,,,,,,,,,29,32,Male,1.1428571428571428,0.25,0.0,0.5,3.5,1.75,2.888888888888889,2.6666666666666665,1.75,3.111111111111111,2.25,2.25,1.25,1.75,,,,,,,,,,,,,,,,,,,,,,,,,,,,,0.7040680615781949,-4.742366811869361e-06,0.24843247827703657,,,,,
4,240626_150225,OFFLINERATING,9.0,5,1.0,,,,,,,,,,,,,,,,,T2,cue1.png,Easy,54.0,1.20195519994013,,,,,,,,,,,,,,,,,,,,,,29,32,Male,1.1428571428571428,0.25,0.0,0.5,3.5,1.75,2.888888888888889,2.6666666666666665,1.75,3.111111111111111,2.25,2.25,1.25,1.75,,,,,,,,,,,,,,,,,,,,,,,,,,,,,0.1518578172031401,9.432852471326532e-05,1.0877091532159224,,,1.47,1.0,
5,240626_150232,OFFLINERATING,9.0,6,3.0,,,,,,,,,,,,,,,,,T2,cue2.png,Hard,54.0,0.8351966999471188,,,,,,,,,,,,,,,,,,,,,,29,32,Male,1.1428571428571428,0.25,0.0,0.5,3.5,1.75,2.888888888888889,2.6666666666666665,1.75,3.111111111111111,2.25,2.25,1.25,1.75,,,,,,,,,,,,,,,,,,,,,,,,,,,,,0.1518578172031401,,,,,1.4509999999999998,-1.0,
6,240626_152015,OFFLINERATING,9.0,7,1.0,,,,,,,,,,,,,,,,,T3,cue1.png,Easy,59.0,0.8776861999649554,,,,,,,,,,,,,,,,,,,,,,29,32,Male,1.1428571428571428,0.25,0.0,0.5,3.5,1.75,2.888888888888889,2.6666666666666665,1.75,3.111111111111111,2.25,2.25,1.25,1.75,,,,,,,,,,,,,,,,,,,,,,,,,,,,,0.7040680615781949,,,0.00041244991568531366,1.1130564416298467,,,
7,240626_152023,OFFLINERATING,9.0,8,3.0,,,,,,,,,,,,,,,,,T3,cue2.png,Hard,51.0,1.735862399917096,,,,,,,,,,,,,,,,,,,,,,29,32,Male,1.1428571428571428,0.25,0.0,0.5,3.5,1.75,2.888888888888889,2.6666666666666665,1.75,3.111111111111111,2.25,2.25,1.25,1.75,,,,,,,,,,,,,,,,,,,,,,,,,,,,,-0.17946832942189284,9.84873100396983e-07,0.29695065345591526,-0.000496539427794089,-1.41534814849935,,,
0,240626_150255,LEARNINGCHECK,9.0,1,,,,,,,,,,,,1.0,1.0,1.0,,,A,,,,,,,,,,,,,,,cue1.png,Easy,Left,Left,Easy,0.0156400999985635,1.0,,,,,,29,32,Male,1.1428571428571428,0.25,0.0,0.5,3.5,1.75,2.888888888888889,2.6666666666666665,1.75,3.111111111111111,2.25,2.25,1.25,1.75,,,,,,,,,,,,,,,,,,,,,,,,,,,,,,,,,,,,
1,240626_150301,LEARNINGCHECK,9.0,2,,,,,,,,,,,,2.0,2.0,2.0,,,A,,,,,,,,,,,,,,,cue2.png,Hard,Right,Right,Hard,0.0130769999232143,1.0,,,,,,29,32,Male,1.1428571428571428,0.25,0.0,0.5,3.5,1.75,2.888888888888889,2.6666666666666665,1.75,3.111111111111111,2.25,2.25,1.25,1.75,,,,,,,,,,,,,,,,,,,,,,,,,,,,,,,,,,,,
2,240626_152042,LEARNINGCHECK,9.0,1,,,,,,,,,,,,1.0,1.0,1.0,,,A,,,,,,,,,,,,,,,cue1.png,Easy,Middle,Middle,Mid,0.0150742998812347,1.0,,,,,,29,32,Male,1.1428571428571428,0.25,0.0,0.5,3.5,1.75,2.888888888888889,2.6666666666666665,1.75,3.111111111111111,2.25,2.25,1.25,1.75,,,,,,,,,,,,,,,,,,,,,,,,,,,,,,,,,,,,
3,240626_152054,LEARNINGCHECK,9.0,2,,,,,,,,,,,,2.0,2.0,2.0,,,A,,,,,,,,,,,,,,,cue2.png,Hard,Middle,Right,Hard,0.0132098000030964,0.0,,,,,,29,32,Male,1.1428571428571428,0.25,0.0,0.5,3.5,1.75,2.888888888888889,2.6666666666666665,1.75,3.111111111111111,2.25,2.25,1.25,1.75,,,,,,,,,,,,,,,,,,,,,,,,,,,,,,,,,,,,
0,240626_152113,DEMANDRATING,9.0,-1,,,,,,,,,,,,,,,,,,,,,,,,,,,,,,,,,,,,,,,1.0,MentalDemand,1.0,73.0,8.41039830003865,29,32,Male,1.1428571428571428,0.25,0.0,0.5,3.5,1.75,2.888888888888889,2.6666666666666665,1.75,3.111111111111111,2.25,2.25,1.25,1.75,,,,,,,,,,,,,,,,,,,,,,,,,,,,,,,,,,,,-0.5667200668065973
1,240626_152119,DEMANDRATING,9.0,-1,,,,,,,,,,,,,,,,,,,,,,,,,,,,,,,,,,,,,,,2.0,Effort,1.0,77.0,5.350014999974519,29,32,Male,1.1428571428571428,0.25,0.0,0.5,3.5,1.75,2.888888888888889,2.6666666666666665,1.75,3.111111111111111,2.25,2.25,1.25,1.75,,,,,,,,,,,,,,,,,,,,,,,,,,,,,,,,,,,,-0.2946944347394304
2,240626_152127,DEMANDRATING,9.0,-1,,,,,,,,,,,,,,,,,,,,,,,,,,,,,,,,,,,,,,,3.0,Frustration,1.0,52.0,6.35587660013698,29,32,Male,1.1428571428571428,0.25,0.0,0.5,3.5,1.75,2.888888888888889,2.6666666666666665,1.75,3.111111111111111,2.25,2.25,1.25,1.75,,,,,,,,,,,,,,,,,,,,,,,,,,,,,,,,,,,,-1.9948546351592231
3,240626_152132,DEMANDRATING,9.0,-1,,,,,,,,,,,,,,,,,,,,,,,,,,,,,,,,,,,,,,,4.0,MentalDemand,2.0,86.0,3.38908930006437,29,32,Male,1.1428571428571428,0.25,0.0,0.5,3.5,1.75,2.888888888888889,2.6666666666666665,1.75,3.111111111111111,2.25,2.25,1.25,1.75,,,,,,,,,,,,,,,,,,,,,,,,,,,,,,,,,,,,0.317363237411695
4,240626_152137,DEMANDRATING,9.0,-1,,,,,,,,,,,,,,,,,,,,,,,,,,,,,,,,,,,,,,,5.0,Effort,2.0,87.0,3.2663938999176025,29,32,Male,1.1428571428571428,0.25,0.0,0.5,3.5,1.75,2.888888888888889,2.6666666666666665,1.75,3.111111111111111,2.25,2.25,1.25,1.75,,,,,,,,,,,,,,,,,,,,,,,,,,,,,,,,,,,,0.3853696454284867
5,240626_152143,DEMANDRATING,9.0,-1,,,,,,,,,,,,,,,,,,,,,,,,,,,,,,,,,,,,,,,6.0,Frustration,2.0,67.0,4.013984099961817,29,32,Male,1.1428571428571428,0.25,0.0,0.5,3.5,1.75,2.888888888888889,2.6666666666666665,1.75,3.111111111111111,2.25,2.25,1.25,1.75,,,,,,,,,,,,,,,,,,,,,,,,,,,,,,,,,,,,-0.9747585149073474
6,240626_152147,DEMANDRATING,9.0,-1,,,,,,,,,,,,,,,,,,,,,,,,,,,,,,,,,,,,,,,7.0,MentalDemand,3.0,99.0,2.6135017999913543,29,32,Male,1.1428571428571428,0.25,0.0,0.5,3.5,1.75,2.888888888888889,2.6666666666666665,1.75,3.111111111111111,2.25,2.25,1.25,1.75,,,,,,,,,,,,,,,,,,,,,,,,,,,,,,,,,,,,1.201446541629987
7,240626_152150,DEMANDRATING,9.0,-1,,,,,,,,,,,,,,,,,,,,,,,,,,,,,,,,,,,,,,,8.0,Effort,3.0,99.0,1.6858821001369506,29,32,Male,1.1428571428571428,0.25,0.0,0.5,3.5,1.75,2.888888888888889,2.6666666666666665,1.75,3.111111111111111,2.25,2.25,1.25,1.75,,,,,,,,,,,,,,,,,,,,,,,,,,,,,,,,,,,,1.201446541629987
8,240626_152153,DEMANDRATING,9.0,-1,,,,,,,,,,,,,,,,,,,,,,,,,,,,,,,,,,,,,,,9.0,Frustration,3.0,92.0,1.4487498002126813,29,32,Male,1.1428571428571428,0.25,0.0,0.5,3.5,1.75,2.888888888888889,2.6666666666666665,1.75,3.111111111111111,2.25,2.25,1.25,1.75,,,,,,,,,,,,,,,,,,,,,,,,,,,,,,,,,,,,0.7254016855124452
