,END,Phase,Block,TrialN,NbackLevel,ISI,Letter_Resp,Letter_RT,Letter_Accuracy,Trial_A_measure,Trial_ACC,Trial_RT,TrialCountCali,CaliEnd_A_measure,ISI_calibrated,TrialIndex,TrialNumber_total,TrialNumber_valid,CueLearning,TrialDemandLearning,CueMapping,OfflineRatingTimePoint,CueFigure,TrialDemand,OfflineRating,OfflineRatingRT,PhaseType,CueLeft,CueDemandLeft,CueRight,CueDemandRight,Choice,ChoiceDemand,TaskDemand,ChoiceRT,CueCheck,CueDemandCheck,CorrectAnswer,Answer,AnswerDemand,AnswerRT,AnswerACC,DemandRatingQuesIndex,QuesTLX,DemandLevel,DemandRating,DemandRatingRT,PID,Age,Gender,BAI_bis,BAI_bas_d,BAI_bas_rr,BAI_bas_fs,NFC,BFI_ext,BFI_agr,BFI_con,BFI_neu,BFI_open,UPPS_lps,UPPS_lpm,UPPS_pu,UPPS_ss,Task_A_measure,Task_ACC,Task_RT,Task_RT_z,Task_RT_log,Task_RT_log_z,cue_i_on_zyg_values,cue_i_on_zyg_zvalues,cue_e_on_zyg_values,cue_e_on_zyg_zvalues,cue_i_on_cor_values,cue_i_on_cor_zvalues,cue_e_on_cor_values,cue_e_on_cor_zvalues,cue_i_on_scr_values,cue_i_on_scr_zvalues,cue_e_on_scr_values,cue_e_on_scr_zvalues,cue_e_true_zyg_values,cue_e_true_zyg_zvalues,cue_e_true_cor_values,cue_e_true_cor_zvalues,cue_e_true_scr_values,cue_e_true_scr_zvalues,cue_e_false_zyg_values,cue_e_false_zyg_zvalues,cue_e_false_cor_values,cue_e_false_cor_zvalues,cue_e_false_scr_values,cue_e_false_scr_zvalues,OfflineRating_z,cue_i_off_zyg_values,cue_i_off_zyg_zvalues,cue_i_off_cor_values,cue_i_off_cor_zvalues,cue_i_off_scr_values,cue_i_off_scr_zvalues,DemandRating_z
0,240627_091641,PRACTICE,0.0,1,3.0,1068.0,,,,,,,,,,7.0,1.0,1.0,cue1.png,Hard,B,,,,,,,,,,,,,,,,,,,,,,,,,,,30,28,Female,1.1428571428571428,0.5,0.4,0.5,3.2777777777777777,3.25,2.2222222222222223,2.6666666666666665,1.5,3.4444444444444446,2.0,1.75,2.0,0.75,,,,,,,,,,,,,,,,,,,,,,,,,,,,,,,,,,,,,,
0,240627_091931,LEARNING,1.0,1,1.0,1068.0,,,,,,,,,,1.0,1.0,1.0,cue2.png,Easy,B,,,,,,,,,,,,,,,,,,,,,,,,,,,30,28,Female,1.1428571428571428,0.5,0.4,0.5,3.2777777777777777,3.25,2.2222222222222223,2.6666666666666665,1.5,3.4444444444444446,2.0,1.75,2.0,0.75,0.1875,0.6590909090909091,0.4629948699846863,-0.5450772948637685,-0.7700393049039679,-0.5133490808880228,4.608846855058734e-05,0.5907981804164169,,,,,,,,,,,,,,,,,,,,,,,,,,,,,,
1,240627_091955,LEARNING,1.0,2,3.0,1068.0,,,,,,,,,,2.0,2.0,2.0,cue1.png,Hard,B,,,,,,,,,,,,,,,,,,,,,,,,,,,30,28,Female,1.1428571428571428,0.5,0.4,0.5,3.2777777777777777,3.25,2.2222222222222223,2.6666666666666665,1.5,3.4444444444444446,2.0,1.75,2.0,0.75,0.7083333333333334,0.7840909090909091,0.5113670500228181,0.22283463783064705,-0.6706676491299908,0.28698494687681664,7.155530780861546e-06,0.41525154876338755,,,,,,,1.594,-0.025009773315891413,1.4520000000000002,-0.042080942690522996,,,,,,,,,,,,,,,,,,,,
2,240627_092017,LEARNING,1.0,3,1.0,1068.0,,,,,,,,,,3.0,3.0,3.0,cue2.png,Easy,B,,,,,,,,,,,,,,,,,,,,,,,,,,,30,28,Female,1.1428571428571428,0.5,0.4,0.5,3.2777777777777777,3.25,2.2222222222222223,2.6666666666666665,1.5,3.4444444444444446,2.0,1.75,2.0,0.75,1.0,1.0,0.5097405182155357,0.19701332519320558,-0.6738534705528791,0.2613265106631829,-0.00026881607737574975,-0.8290903637401749,7.103839443126916e-05,0.7015368721378616,,,,,1.5859999999999999,-0.038175436636719864,1.465,-0.015376309999624097,,,,,,,,,,,,,,,,,,,,
3,240627_092040,LEARNING,1.0,4,3.0,1068.0,,,,,,,,,,4.0,4.0,4.0,cue1.png,Hard,B,,,,,,,,,,,,,,,,,,,,,,,,,,,30,28,Female,1.1428571428571428,0.5,0.4,0.5,3.2777777777777777,3.25,2.2222222222222223,2.6666666666666665,1.5,3.4444444444444446,2.0,1.75,2.0,0.75,0.84375,0.875,0.5443991453767839,0.7472215925681482,-0.60807257805032,0.7911223184968077,-6.0448685964927494e-05,0.11042758183189935,2.7906595149681992e-05,0.23878025354951307,7.961816941379641e-05,-0.18838657937277284,,,1.5290000000000001,-0.13198078779761943,1.128,-0.7076425574483167,,,,,,,,,,,,,,,,,,,,
4,240627_092103,LEARNING,1.0,5,3.0,1068.0,,,,,,,,,,5.0,5.0,5.0,cue1.png,Hard,B,,,,,,,,,,,,,,,,,,,,,,,,,,,30,28,Female,1.1428571428571428,0.5,0.4,0.5,3.2777777777777777,3.25,2.2222222222222223,2.6666666666666665,1.5,3.4444444444444446,2.0,1.75,2.0,0.75,0.5833333333333334,0.75,0.5695154818240553,1.145945289706117,-0.5629693115231305,1.1543816270380842,-0.00011372805499284579,-0.12980637700186434,8.675998467313172e-05,0.870212189660766,,,-6.173315983462602e-05,-0.09024881813756602,1.464,-0.2389518022793478,1.5830000000000002,0.22701958673315262,,,,,,,,,,,,,,,,,,,,
5,240627_092124,LEARNING,1.0,6,1.0,1068.0,,,,,,,,,,6.0,6.0,6.0,cue2.png,Easy,B,,,,,,,,,,,,,,,,,,,,,,,,,,,30,28,Female,1.1428571428571428,0.5,0.4,0.5,3.2777777777777777,3.25,2.2222222222222223,2.6666666666666665,1.5,3.4444444444444446,2.0,1.75,2.0,0.75,1.0,1.0,0.4263722454197705,-1.1264641661566719,-0.8524424987279418,-1.177020019046008,2.808754420575944e-05,0.5096329302093604,2.1155830951996146e-05,0.16635200188735724,,,0.0005031629953327526,0.6562597286443949,,,1.596,0.25372421942405154,,,,,,,,,,,,,,,,,,,,
6,240627_092146,LEARNING,1.0,7,3.0,1068.0,,,,,,,,,,7.0,7.0,7.0,cue1.png,Hard,B,,,,,,,,,,,,,,,,,,,,,,,,,,,30,28,Female,1.1428571428571428,0.5,0.4,0.5,3.2777777777777777,3.25,2.2222222222222223,2.6666666666666665,1.5,3.4444444444444446,2.0,1.75,2.0,0.75,0.5833333333333334,0.75,0.468424281803891,-0.4588849810132719,-0.7583808087134642,-0.41945217295031406,6.465879062166318e-05,0.6745308159439678,-5.0531711518747927e-05,-0.6027762353116872,0.00031578192104482483,0.13577505971149387,-4.8510388912336236e-05,-0.07277496667772634,,,,,,,,,,,,,,,,,,,,,,,,
7,240627_092209,LEARNING,1.0,8,3.0,1068.0,,,,,,,,,,8.0,8.0,8.0,cue1.png,Hard,B,,,,,,,,,,,,,,,,,,,,,,,,,,,30,28,Female,1.1428571428571428,0.5,0.4,0.5,3.2777777777777777,3.25,2.2222222222222223,2.6666666666666665,1.5,3.4444444444444446,2.0,1.75,2.0,0.75,0.84375,0.875,0.5583014272534373,0.9679213447055918,-0.5828562702416542,0.9942131197587957,0.0001744098077531048,1.169392557225152,0.00015616282675303328,1.6148281123966135,0.0006167612154113003,0.5489034111982847,8.236243531597846e-05,0.10017307153114129,,,,,,,,,,,,,,,,,,,,,,,,
8,240627_092230,LEARNING,1.0,9,1.0,1068.0,,,,,,,,,,9.0,9.0,9.0,cue2.png,Easy,B,,,,,,,,,,,,,,,,,,,,,,,,,,,30,28,Female,1.1428571428571428,0.5,0.4,0.5,3.2777777777777777,3.25,2.2222222222222223,2.6666666666666665,1.5,3.4444444444444446,2.0,1.75,2.0,0.75,1.0,1.0,0.4033851909493519,-1.4913853545632278,-0.9078633647225096,-1.62337672466974,8.918149723212247e-07,0.387008773498786,,,0.00014318319336795258,-0.10113634638357644,,,,,,,,,,,,,,,,,,,,,,,,,,
9,240627_092252,LEARNING,1.0,10,1.0,1068.0,,,,,,,,,,10.0,10.0,10.0,cue2.png,Easy,B,,,,,,,,,,,,,,,,,,,,,,,,,,,30,28,Female,1.1428571428571428,0.5,0.4,0.5,3.2777777777777777,3.25,2.2222222222222223,2.6666666666666665,1.5,3.4444444444444446,2.0,1.75,2.0,0.75,1.0,1.0,0.4141546636819839,-1.3204191790942703,-0.8815157911489575,-1.4111747691351164,0.00020291541708497953,1.2979228965235885,,,-0.00013905456647898655,-0.48853980780214457,-7.890086425290429e-05,-0.11293588718492718,1.419,-0.3130086584590056,,,,,,,,,,,,,,,,,,,,,,
10,240627_092314,LEARNING,1.0,11,3.0,1068.0,,,,,,,,,,11.0,11.0,11.0,cue1.png,Hard,B,,,,,,,,,,,,,,,,,,,,,,,,,,,30,28,Female,1.1428571428571428,0.5,0.4,0.5,3.2777777777777777,3.25,2.2222222222222223,2.6666666666666665,1.5,3.4444444444444446,2.0,1.75,2.0,0.75,0.84375,0.875,0.4615099818488075,-0.568650003750547,-0.7732515961316254,-0.5392207035007364,-0.0001055209360187534,-0.0928008959359609,,,-1.934884593739715e-05,-0.32423007647999647,0.00018598849039066882,0.23711458737423188,0.9539999999999997,-1.078262838982138,1.2160000000000002,-0.526872736156076,,,,,,,,,,,,,,,,,,,,
11,240627_092336,LEARNING,1.0,12,1.0,1068.0,,,,,,,,,,12.0,12.0,12.0,cue2.png,Easy,B,,,,,,,,,,,,,,,,,,,,,,,,,,,30,28,Female,1.1428571428571428,0.5,0.4,0.5,3.2777777777777777,3.25,2.2222222222222223,2.6666666666666665,1.5,3.4444444444444446,2.0,1.75,2.0,0.75,1.0,1.0,0.4626008545641195,-0.5513323187820695,-0.7708906818797179,-0.5202060257466057,,,-4.097193826353273e-05,-0.5002104156672644,0.0023283945840213488,2.898315098842984,0.00018498263074624797,0.2357853469208237,0.1825,-2.3479264954844954,0.6634999999999999,-1.6618196255192887,,,,,,,,,,,,,,,,,,,,
12,240627_092358,LEARNING,1.0,13,1.0,1068.0,,,,,,,,,,13.0,13.0,13.0,cue2.png,Easy,B,,,,,,,,,,,,,,,,,,,,,,,,,,,30,28,Female,1.1428571428571428,0.5,0.4,0.5,3.2777777777777777,3.25,2.2222222222222223,2.6666666666666665,1.5,3.4444444444444446,2.0,1.75,2.0,0.75,0.84375,0.875,0.4736499727534299,-0.3759267510232078,-0.7472866841852867,-0.3301006843492128,-0.0004539503210718981,-1.6638512306625173,-0.00017354691316872348,-1.9225936252346736,2.7062440371408182e-05,-0.26052530156019094,-0.00039101677676632064,-0.525396113983389,,,,,,,,,,,,,,,,,,,,,,,,
13,240627_092419,LEARNING,1.0,14,1.0,1068.0,,,,,,,,,,14.0,14.0,14.0,cue2.png,Easy,B,,,,,,,,,,,,,,,,,,,,,,,,,,,30,28,Female,1.1428571428571428,0.5,0.4,0.5,3.2777777777777777,3.25,2.2222222222222223,2.6666666666666665,1.5,3.4444444444444446,2.0,1.75,2.0,0.75,1.0,1.0,0.3946288999974389,-1.6303921204939251,-0.9298094493591791,-1.8001293225220276,0.0001201174156323097,0.9245909289082099,0.00010676279629111968,1.0848202890393464,-2.230945858222068e-05,-0.3282938544349598,0.00013209910690338555,0.16589993139529743,,,,,,,,,,,,,,,,,,,,,,,,
14,240627_092441,LEARNING,1.0,15,3.0,1068.0,,,,,,,,,,15.0,15.0,15.0,cue1.png,Hard,B,,,,,,,,,,,,,,,,,,,,,,,,,,,30,28,Female,1.1428571428571428,0.5,0.4,0.5,3.2777777777777777,3.25,2.2222222222222223,2.6666666666666665,1.5,3.4444444444444446,2.0,1.75,2.0,0.75,0.84375,0.875,0.4844070909206163,-0.20515670519367238,-0.7248296288458994,-0.14923275564739086,,,-0.0001026504201128548,-1.1619524754852895,0.00011070581459110291,-0.1457152466794716,0.0012224235549346454,1.6067603652559073,,,,,,,,,,,,,,,,,,,,,,,,
15,240627_092503,LEARNING,1.0,16,1.0,1068.0,,,,,,,,,,16.0,16.0,16.0,cue2.png,Easy,B,,,,,,,,,,,,,,,,,,,,,,,,,,,30,28,Female,1.1428571428571428,0.5,0.4,0.5,3.2777777777777777,3.25,2.2222222222222223,2.6666666666666665,1.5,3.4444444444444446,2.0,1.75,2.0,0.75,1.0,1.0,0.5017429454336789,0.07005126627961973,-0.6896673513274432,0.13396235640488013,-9.326558511225675e-05,-0.03754214346045929,-9.049544385011975e-05,-1.0315429908810587,-0.0001796124230617549,-0.5442100839423862,-0.00032973448411329105,-0.44441175108163605,,,,,,,,,,,,,,,,,,,,,,,,
16,240627_092524,LEARNING,1.0,17,1.0,1068.0,,,,,,,,,,17.0,17.0,17.0,cue2.png,Easy,B,,,,,,,,,,,,,,,,,,,,,,,,,,,30,28,Female,1.1428571428571428,0.5,0.4,0.5,3.2777777777777777,3.25,2.2222222222222223,2.6666666666666665,1.5,3.4444444444444446,2.0,1.75,2.0,0.75,1.0,1.0,0.3924482545646077,-1.665010027884632,-0.9353505859549222,-1.844757341805043,9.408142062522365e-05,0.8071959547025109,-3.366105704873416e-05,-0.4217727263936448,-0.00033552401183649556,-0.75821649187079,-0.0006403535930657161,-0.854893956537746,,,,,,,,,,,,,,,,,,,,,,,,
17,240627_092546,LEARNING,1.0,18,3.0,1068.0,,,,,,,,,,18.0,18.0,18.0,cue1.png,Hard,B,,,,,,,,,,,,,,,,,,,,,,,,,,,30,28,Female,1.1428571428571428,0.5,0.4,0.5,3.2777777777777777,3.25,2.2222222222222223,2.6666666666666665,1.5,3.4444444444444446,2.0,1.75,2.0,0.75,0.84375,0.875,0.4435404636262154,-0.8539174334388602,-0.8129662443566585,-0.8590803669796272,0.00016783306658204157,1.1397383665585616,8.880272429466832e-05,0.8921285320268092,-0.00042296095917790724,-0.8782336578031794,-0.0007069718411895163,-0.9429297683257071,,,,,,,,,,,,,,,,,,,,,,,,
18,240627_092610,LEARNING,1.0,19,3.0,1068.0,,,,,,,,,,19.0,19.0,19.0,cue1.png,Hard,B,,,,,,,,,,,,,,,,,,,,,,,,,,,30,28,Female,1.1428571428571428,0.5,0.4,0.5,3.2777777777777777,3.25,2.2222222222222223,2.6666666666666665,1.5,3.4444444444444446,2.0,1.75,2.0,0.75,1.0,1.0,0.614849854557013,1.865631806944158,-0.48637717991406576,1.771250579339774,4.447898551643249e-05,0.58354110346477,-1.584554945459381e-05,-0.23063198591869608,-0.0005383091753870285,-1.03656221827682,0.0005085365065333781,0.6633608073131052,2.932,2.1769474170926038,,,,,,,,,,,,,,,,,,,,,,
19,240627_092633,LEARNING,1.0,20,3.0,1068.0,,,,,,,,,,20.0,20.0,20.0,cue1.png,Hard,B,,,,,,,,,,,,,,,,,,,,,,,,,,,30,28,Female,1.1428571428571428,0.5,0.4,0.5,3.2777777777777777,3.25,2.2222222222222223,2.6666666666666665,1.5,3.4444444444444446,2.0,1.75,2.0,0.75,0.84375,0.875,0.6156071091113104,1.8776532789529403,-0.4851463288201065,1.781163788553554,-0.00011190656834695993,-0.12159338657259142,0.0001182599240229878,1.2081717847175912,0.00021884354760007968,0.0027161046051813937,0.001800186582629433,2.3702724448539465,1.9589999999999999,0.5756736156968891,2.046,1.178115351032097,,,,,,,,,,,,,,,,,,,,
20,240627_092655,LEARNING,1.0,21,1.0,1068.0,,,,,,,,,,21.0,21.0,21.0,cue2.png,Easy,B,,,,,,,,,,,,,,,,,,,,,,,,,,,30,28,Female,1.1428571428571428,0.5,0.4,0.5,3.2777777777777777,3.25,2.2222222222222223,2.6666666666666665,1.5,3.4444444444444446,2.0,1.75,2.0,0.75,1.0,1.0,0.4858831090810285,-0.1817248078228966,-0.7217872003045058,-0.12472919807098701,,,-1.6409455563569722e-06,-0.07823225815818359,0.0013031929541623046,1.4911091308153912,-0.0004762672969537314,-0.6380544164968017,2.1229999999999998,0.8455697137738646,1.625,0.3132960923499032,,,,,,,,,,,,,,,,,,,,
21,240627_092718,LEARNING,1.0,22,3.0,1068.0,,,,,,,,,,22.0,22.0,22.0,cue1.png,Hard,B,,,,,,,,,,,,,,,,,,,,,,,,,,,30,28,Female,1.1428571428571428,0.5,0.4,0.5,3.2777777777777777,3.25,2.2222222222222223,2.6666666666666665,1.5,3.4444444444444446,2.0,1.75,2.0,0.75,0.84375,0.875,0.5685917090370574,1.1312803284479125,-0.5645926612344427,1.1413072548460725,5.658502362838923e-05,0.6381266121614637,-4.629941311527644e-05,-0.5573683429754308,-0.0005077987166002568,-0.9946831396238646,-0.0005234100558926622,-0.7003534287043924,2.815,1.9843995910254932,1.244,-0.4693550657449091,,,,,,,,,,,,,,,,,,,,
22,240627_092742,LEARNING,1.0,23,3.0,1068.0,,,,,,,,,,23.0,23.0,23.0,cue1.png,Hard,B,,,,,,,,,,,,,,,,,,,,,,,,,,,30,28,Female,1.1428571428571428,0.5,0.4,0.5,3.2777777777777777,3.25,2.2222222222222223,2.6666666666666665,1.5,3.4444444444444446,2.0,1.75,2.0,0.75,0.84375,0.875,0.5898159090852872,1.468216072631473,-0.527944809269785,1.436467104436553,-3.135308707554298e-05,0.2416181539682451,-1.3401837761053362e-05,-0.20441365561615435,-0.0015371191261755613,-2.4075426017826653,0.00026239428884031364,0.33808461707723025,2.261,1.0726774060581494,,,,,,,,,,,,,,,,,,,,,,
23,240627_092805,LEARNING,1.0,24,3.0,1068.0,,,,,,,,,,24.0,24.0,24.0,cue1.png,Hard,B,,,,,,,,,,,,,,,,,,,,,,,,,,,30,28,Female,1.1428571428571428,0.5,0.4,0.5,3.2777777777777777,3.25,2.2222222222222223,2.6666666666666665,1.5,3.4444444444444446,2.0,1.75,2.0,0.75,0.84375,0.875,0.5570561545901,0.9481525491524238,-0.5850892279962431,0.9762289968251529,-8.393582872569423e-06,0.3451413879737113,,,-0.000254414328414854,-0.6468842161003587,-0.0009995459151917949,-1.3295655151114225,2.069,0.7567014863582753,1.2590000000000001,-0.43854202802464065,,,,,,,,,,,,,,,,,,,,
24,240627_092826,LEARNING,1.0,25,1.0,1068.0,,,,,,,,,,25.0,25.0,25.0,cue2.png,Easy,B,,,,,,,,,,,,,,,,,,,,,,,,,,,30,28,Female,1.1428571428571428,0.5,0.4,0.5,3.2777777777777777,3.25,2.2222222222222223,2.6666666666666665,1.5,3.4444444444444446,2.0,1.75,2.0,0.75,1.0,1.0,0.4194042181850157,-1.237082113429046,-0.868920102899145,-1.309729766222298,7.157240112798694e-05,0.7057039332700863,5.348113306608221e-05,0.5131668287741897,0.00011622984187663506,-0.1381328902557729,0.0005757574513201875,0.7521930809037138,1.178,-0.7096242659989516,1.9420000000000002,0.9644782895049049,,,,,,,,,,,,,,,,,,,,
25,240627_092848,LEARNING,1.0,26,1.0,1068.0,,,,,,,,,,26.0,26.0,26.0,cue2.png,Easy,B,,,,,,,,,,,,,,,,,,,,,,,,,,,30,28,Female,1.1428571428571428,0.5,0.4,0.5,3.2777777777777777,3.25,2.2222222222222223,2.6666666666666665,1.5,3.4444444444444446,2.0,1.75,2.0,0.75,1.0,1.0,0.4496339817997068,-0.7571823821381818,-0.7993214009641318,-0.7491855243758156,-0.00020019991665464094,-0.5197035930115611,-8.827205956434166e-05,-1.0076885305745913,,,-0.0016232050132068358,-2.15372911170841,1.2790000000000001,-0.5434077665734968,1.282,-0.39129537018689625,,,,,,,,,,,,,,,,,,,,
26,240627_092910,LEARNING,1.0,27,3.0,1068.0,,,,,,,,,,27.0,27.0,27.0,cue1.png,Hard,B,,,,,,,,,,,,,,,,,,,,,,,,,,,30,28,Female,1.1428571428571428,0.5,0.4,0.5,3.2777777777777777,3.25,2.2222222222222223,2.6666666666666665,1.5,3.4444444444444446,2.0,1.75,2.0,0.75,0.84375,0.875,0.5042705090970478,0.11017652621654546,-0.6846424304968863,0.1744328013843443,,,,,0.0011863071290360017,1.3306700270283849,-0.0003254827076534846,-0.43879304145294085,1.3850000000000002,-0.36896272757252463,1.033,-0.9027917963433486,,,,,,,,,,,,,,,,,,,,
27,240627_092932,LEARNING,1.0,28,1.0,1068.0,,,,,,,,,,28.0,28.0,28.0,cue2.png,Easy,B,,,,,,,,,,,,,,,,,,,,,,,,,,,30,28,Female,1.1428571428571428,0.5,0.4,0.5,3.2777777777777777,3.25,2.2222222222222223,2.6666666666666665,1.5,3.4444444444444446,2.0,1.75,2.0,0.75,1.0,1.0,0.4696310636460442,-0.439727230090782,-0.7558078634949275,-0.3987298090737016,-0.0001165675749919535,-0.14260962792279486,0.00017503720183252797,1.8173293327313695,-0.0005003899952624041,-0.9845138260191709,,,2.491,1.4511902265319565,2.042,1.1698985409733589,,,,,,,,,,,,,,,,,,,,
28,240627_092954,LEARNING,1.0,29,1.0,1068.0,,,,,,,,,,29.0,29.0,29.0,cue2.png,Easy,B,,,,,,,,,,,,,,,,,,,,,,,,,,,30,28,Female,1.1428571428571428,0.5,0.4,0.5,3.2777777777777777,3.25,2.2222222222222223,2.6666666666666665,1.5,3.4444444444444446,2.0,1.75,2.0,0.75,1.0,1.0,0.4679833363360641,-0.4658850228998457,-0.7593225898179244,-0.4270372278508769,5.9243748991866414e-05,0.6501146692870122,-8.240586876304568e-06,-0.14903912807744174,-0.0001241892470269599,-0.4681354642659324,,,0.6920000000000002,-1.5094383127392568,2.403,1.9114656487744806,,,,,,,,,,,,,,,,,,,,
29,240627_093017,LEARNING,1.0,30,3.0,1068.0,,,,,,,,,,30.0,30.0,30.0,cue1.png,Hard,B,,,,,,,,,,,,,,,,,,,,,,,,,,,30,28,Female,1.1428571428571428,0.5,0.4,0.5,3.2777777777777777,3.25,2.2222222222222223,2.6666666666666665,1.5,3.4444444444444446,2.0,1.75,2.0,0.75,1.0,1.0,0.5644240363458679,1.065118216494179,-0.571949472479631,1.0820558885534612,-0.0005034495965516692,-1.8870409403919508,-0.0002190923468729333,-2.41124587819314,0.0002748694605553964,0.079618049333611,-1.40464454390591e-05,-0.02723097045245788,,,1.292,-0.37075334504005075,,,,,,,,,,,,,,,,,,,,
30,240627_093041,LEARNING,1.0,31,3.0,1068.0,,,,,,,,,,31.0,31.0,31.0,cue1.png,Hard,B,,,,,,,,,,,,,,,,,,,,,,,,,,,30,28,Female,1.1428571428571428,0.5,0.4,0.5,3.2777777777777777,3.25,2.2222222222222223,2.6666666666666665,1.5,3.4444444444444446,2.0,1.75,2.0,0.75,0.84375,0.875,0.666340618182651,2.683051484546145,-0.40595430046926195,2.4189721708658913,-0.00010805891403964721,-0.10424450944934381,-4.976616497836357e-05,-0.5945627655677642,,,,,,,1.385,-0.17971251117438797,,,,,,,,,,,,,,,,,,,,
31,240627_093103,LEARNING,1.0,32,1.0,1068.0,,,,,,,,,,32.0,32.0,32.0,cue2.png,Easy,B,,,,,,,,,,,,,,,,,,,,,,,,,,,30,28,Female,1.1428571428571428,0.5,0.4,0.5,3.2777777777777777,3.25,2.2222222222222223,2.6666666666666665,1.5,3.4444444444444446,2.0,1.75,2.0,0.75,1.0,1.0,0.4573374272916805,-0.6348896156867974,-0.7823338076005173,-0.6123683513817709,-0.00010331517187334941,-0.08285521785132918,0.00023726162520187324,2.4849287427170417,,,,,0.859,-1.234605090916971,1.71,0.4879033060980896,,,,,,,,,,,,,,,,,,,,
32,240627_093125,LEARNING,1.0,33,1.0,1068.0,,,,,,,,,,33.0,33.0,33.0,cue2.png,Easy,B,,,,,,,,,,,,,,,,,,,,,,,,,,,30,28,Female,1.1428571428571428,0.5,0.4,0.5,3.2777777777777777,3.25,2.2222222222222223,2.6666666666666665,1.5,3.4444444444444446,2.0,1.75,2.0,0.75,1.0,1.0,0.4376943091311576,-0.9467255680648178,-0.826234536626362,-0.9659424868775401,-0.00020075779455275972,-0.5222190360142871,-0.00012167954694254505,-1.3661140113606425,-0.0008513377264195501,-1.4662295464847925,0.0005246209479846838,0.6846163476522955,1.2719999999999998,-0.5549277219792219,1.8909999999999998,0.8597139612559922,,,,,,,,,,,,,,,,,,,,
33,240627_093146,LEARNING,1.0,34,1.0,1068.0,,,,,,,,,,34.0,34.0,34.0,cue2.png,Easy,B,,,,,,,,,,,,,,,,,,,,,,,,,,,30,28,Female,1.1428571428571428,0.5,0.4,0.5,3.2777777777777777,3.25,2.2222222222222223,2.6666666666666665,1.5,3.4444444444444446,2.0,1.75,2.0,0.75,1.0,1.0,0.4341328727843409,-1.0032636332522098,-0.8344046332494143,-1.0317440103263187,-0.00079264520988491,-3.191009218094306,2.443337158714639e-05,0.20151639676238187,0.0011644910133626358,1.300724924249957,-0.000787692228915492,-1.049601514602932,2.504,1.472584429428302,1.524,0.10582163836676403,,,,,,,,,,,,,,,,,,,,
34,240627_093209,LEARNING,1.0,35,3.0,1068.0,,,,,,,,,,35.0,35.0,35.0,cue1.png,Hard,B,,,,,,,,,,,,,,,,,,,,,,,,,,,30,28,Female,1.1428571428571428,0.5,0.4,0.5,3.2777777777777777,3.25,2.2222222222222223,2.6666666666666665,1.5,3.4444444444444446,2.0,1.75,2.0,0.75,1.0,1.0,0.5651815908918665,1.0771444508933858,-0.5706081996649374,1.092858428430193,,,4.276269655303878e-05,0.39816983073689044,-4.801843561468358e-05,-0.36358235267597433,0.00010133403239179911,0.12524397922568462,1.2590000000000001,-0.576321924875567,0.7979999999999999,-1.385529387294217,,,,,,,,,,,,,,,,,,,,
35,240627_093231,LEARNING,1.0,36,3.0,1068.0,,,,,,,,,,36.0,36.0,36.0,cue1.png,Hard,B,,,,,,,,,,,,,,,,,,,,,,,,,,,30,28,Female,1.1428571428571428,0.5,0.4,0.5,3.2777777777777777,3.25,2.2222222222222223,2.6666666666666665,1.5,3.4444444444444446,2.0,1.75,2.0,0.75,0.84375,0.875,0.475518127289516,-0.3462696597106637,-0.7433502751376065,-0.2983970553463357,,,,,0.0007821556898496979,0.7759261594361122,,,1.5050000000000001,-0.1714777777601037,0.7429999999999999,-1.4985105256018671,,,,,,,,,,,,,,,,,,,,
36,240627_093253,LEARNING,1.0,37,1.0,1068.0,,,,,,,,,,37.0,37.0,37.0,cue2.png,Easy,B,,,,,,,,,,,,,,,,,,,,,,,,,,,30,28,Female,1.1428571428571428,0.5,0.4,0.5,3.2777777777777777,3.25,2.2222222222222223,2.6666666666666665,1.5,3.4444444444444446,2.0,1.75,2.0,0.75,1.0,1.0,0.4714473908640105,-0.41089290128330463,-0.7519477613650936,-0.3676407519266572,,,2.876439450920018e-05,0.24798349425937483,4.5295621030510755e-05,-0.23549818504737174,-0.000973520096895459,-1.2951724755810818,2.1430000000000002,0.8784838720759355,0.77,-1.4430470577053842,,,,,,,,,,,,,,,,,,,,
37,240627_093316,LEARNING,1.0,38,3.0,1068.0,,,,,,,,,,38.0,38.0,38.0,cue1.png,Hard,B,,,,,,,,,,,,,,,,,,,,,,,,,,,30,28,Female,1.1428571428571428,0.5,0.4,0.5,3.2777777777777777,3.25,2.2222222222222223,2.6666666666666665,1.5,3.4444444444444446,2.0,1.75,2.0,0.75,1.0,1.0,0.5112870636353777,0.22156484801922616,-0.6708240781445232,0.2857250759177904,1.8412812929097938e-06,0.39128986873575844,1.5036279352462125e-05,0.10069596498081909,0.0016306109427479988,1.9405276004687486,0.00017287832323955622,0.21978954145469323,1.1099999999999999,-0.8215324042259903,1.767,0.6049928494351087,,,,,,,,,,,,,,,,,,,,
38,240627_093339,LEARNING,1.0,39,3.0,1068.0,,,,,,,,,,39.0,39.0,39.0,cue1.png,Hard,B,,,,,,,,,,,,,,,,,,,,,,,,,,,30,28,Female,1.1428571428571428,0.5,0.4,0.5,3.2777777777777777,3.25,2.2222222222222223,2.6666666666666665,1.5,3.4444444444444446,2.0,1.75,2.0,0.75,0.5833333333333334,0.75,0.6207130727231164,1.958710828608928,-0.4768863445258709,1.8476892625228734,-1.0284499577674962e-05,0.3366153409468712,,,0.0008046985563809599,0.8068688105159814,0.0007231465684149618,0.9469673497802568,1.6460000000000001,0.06056703826949115,2.003,1.0897846429006621,,,,,,,,,,,,,,,,,,,,
39,240627_093402,LEARNING,1.0,40,3.0,1068.0,,,,,,,,,,40.0,40.0,40.0,cue1.png,Hard,B,,,,,,,,,,,,,,,,,,,,,,,,,,,30,28,Female,1.1428571428571428,0.5,0.4,0.5,3.2777777777777777,3.25,2.2222222222222223,2.6666666666666665,1.5,3.4444444444444446,2.0,1.75,2.0,0.75,1.0,1.0,0.5410338818222623,0.693797784955144,-0.6142733739594468,0.741181438206084,8.350052157954672e-05,0.7594872203060616,6.537796499848664e-05,0.6408067095269404,0.0009274992564784063,0.9754267536777107,-0.0007941139134385149,-1.0580877511214895,1.9609999999999999,0.5789650315270961,1.7140000000000002,0.4961201161568283,,,,,,,,,,,,,,,,,,,,
40,240627_093424,LEARNING,1.0,41,1.0,1068.0,,,,,,,,,,41.0,41.0,41.0,cue2.png,Easy,B,,,,,,,,,,,,,,,,,,,,,,,,,,,30,28,Female,1.1428571428571428,0.5,0.4,0.5,3.2777777777777777,3.25,2.2222222222222223,2.6666666666666665,1.5,3.4444444444444446,2.0,1.75,2.0,0.75,1.0,1.0,0.4521035545251586,-0.7179777326260831,-0.7938440224582081,-0.705071009355462,-3.0787066985509155e-05,0.24417030969923764,9.301912131133355e-05,0.9373658200267779,,,,,1.079,-0.8725493495941989,0.6419999999999999,-1.7059849795850064,,,,,,,,,,,,,,,,,,,,
41,240627_093447,LEARNING,1.0,42,3.0,1068.0,,,,,,,,,,42.0,42.0,42.0,cue1.png,Hard,B,,,,,,,,,,,,,,,,,,,,,,,,,,,30,28,Female,1.1428571428571428,0.5,0.4,0.5,3.2777777777777777,3.25,2.2222222222222223,2.6666666666666665,1.5,3.4444444444444446,2.0,1.75,2.0,0.75,0.5833333333333334,0.75,0.5489258272573352,0.819083001932926,-0.5997919517780289,0.8578140418589698,-4.911676667849552e-05,0.1615226282078755,-2.5935170166844525e-05,-0.33888248419163286,0.0006178635357068467,0.550416471315819,0.0010848015283673879,1.42489327673329,,,,,,,,,,,,,,,,,,,,,,,,
42,240627_093511,LEARNING,1.0,43,3.0,1068.0,,,,,,,,,,43.0,43.0,43.0,cue1.png,Hard,B,,,,,,,,,,,,,,,,,,,,,,,,,,,30,28,Female,1.1428571428571428,0.5,0.4,0.5,3.2777777777777777,3.25,2.2222222222222223,2.6666666666666665,1.5,3.4444444444444446,2.0,1.75,2.0,0.75,0.84375,0.7840909090909091,0.5504756599199027,0.8436867099801328,-0.5969725382929817,0.8805214480388037,-9.424428993782619e-05,-0.041955073625849444,-6.171211903506849e-05,-0.7227296725173764,-0.0005521214778949225,-1.0555211761590693,-6.767159260474657e-05,-0.09809643893801481,1.626,0.02765287996742057,1.241,-0.4755176732889625,,,,,,,,,,,,,,,,,,,,
43,240627_093532,LEARNING,1.0,44,1.0,1068.0,,,,,,,,,,44.0,44.0,44.0,cue2.png,Easy,B,,,,,,,,,,,,,,,,,,,,,,,,,,,30,28,Female,1.1428571428571428,0.5,0.4,0.5,3.2777777777777777,3.25,2.2222222222222223,2.6666666666666665,1.5,3.4444444444444446,2.0,1.75,2.0,0.75,1.0,1.0,0.4282644181935625,-1.0964257835456557,-0.8480144746422296,-1.1413569486870072,-0.0008023700279250383,-3.234857926878636,-1.7415771445920825e-06,-0.07931192407220759,-0.00031605179673706643,-0.7314886595102414,-0.0015816815448767719,-2.098855974908181,,,1.1529999999999998,-0.6562874945812033,,,,,,,,,,,,,,,,,,,,
44,240627_093554,LEARNING,1.0,45,1.0,1068.0,,,,,,,,,,45.0,45.0,45.0,cue2.png,Easy,B,,,,,,,,,,,,,,,,,,,,,,,,,,,30,28,Female,1.1428571428571428,0.5,0.4,0.5,3.2777777777777777,3.25,2.2222222222222223,2.6666666666666665,1.5,3.4444444444444446,2.0,1.75,2.0,0.75,1.0,1.0,0.4890747181859545,-0.13105777742987337,-0.7152400032533919,-0.07199842141565513,-2.056585027278464e-05,0.2902572547925433,-9.542068666078696e-05,-1.0843854121747123,,,-0.0003354603466914057,-0.45197846102143924,1.964,0.5839021552724069,,,,,,,,,,,,,,,,,,,,,,
45,240627_093616,LEARNING,1.0,46,1.0,1068.0,,,,,,,,,,46.0,46.0,46.0,cue2.png,Easy,B,,,,,,,,,,,,,,,,,,,,,,,,,,,30,28,Female,1.1428571428571428,0.5,0.4,0.5,3.2777777777777777,3.25,2.2222222222222223,2.6666666666666665,1.5,3.4444444444444446,2.0,1.75,2.0,0.75,1.0,1.0,0.4573228545486927,-0.6351209590586193,-0.782365672421322,-0.6126249889529177,,,,,,,0.0006356631196178103,0.831358238916889,,,0.9999999999999998,-0.9705804793279389,,,,,,,,,,,,,,,,,,,,
46,240627_093639,LEARNING,1.0,47,3.0,1068.0,,,,,,,,,,47.0,47.0,47.0,cue1.png,Hard,B,,,,,,,,,,,,,,,,,,,,,,,,,,,30,28,Female,1.1428571428571428,0.5,0.4,0.5,3.2777777777777777,3.25,2.2222222222222223,2.6666666666666665,1.5,3.4444444444444446,2.0,1.75,2.0,0.75,0.5833333333333334,0.75,0.5223925818519836,0.39786577037923115,-0.6493359012509384,0.45878970917380246,,,,,,,,,0.9389999999999998,-1.1029484577086905,1.662,0.3893015853932313,,,,,,,,,,,,,,,,,,,,
47,240627_093701,LEARNING,1.0,48,3.0,1068.0,,,,,,,,,,48.0,48.0,48.0,cue1.png,Hard,B,,,,,,,,,,,,,,,,,,,,,,,,,,,30,28,Female,1.1428571428571428,0.5,0.4,0.5,3.2777777777777777,3.25,2.2222222222222223,2.6666666666666665,1.5,3.4444444444444446,2.0,1.75,2.0,0.75,0.5833333333333334,0.75,0.5001860455059531,0.045335364875770626,-0.6927751587567322,0.10893224074435627,-0.00025635399659086665,-0.7728994767818498,3.796178647062255e-05,0.3466613624399497,0.0010385908916504573,1.1279126720170602,-8.606508091887205e-05,-0.12240337766653267,1.2539999999999998,-0.584550464451085,2.158,1.4081860326767663,,,,,,,,,,,,,,,,,,,,
48,240627_093723,LEARNING,1.0,49,1.0,1068.0,,,,,,,,,,49.0,49.0,49.0,cue2.png,Easy,B,,,,,,,,,,,,,,,,,,,,,,,,,,,30,28,Female,1.1428571428571428,0.5,0.4,0.5,3.2777777777777777,3.25,2.2222222222222223,2.6666666666666665,1.5,3.4444444444444446,2.0,1.75,2.0,0.75,1.0,1.0,0.4626468363726003,-0.5506023541744903,-0.7707912883681878,-0.519405515693744,,,,,0.0006422072876298979,0.5838310426475196,0.0007043093018746921,0.9220739594788931,,,,,,,,,,,,,,,,,,,,,,,,
49,240627_093745,LEARNING,1.0,50,1.0,1068.0,,,,,,,,,,50.0,50.0,50.0,cue2.png,Easy,B,,,,,,,,,,,,,,,,,,,,,,,,,,,30,28,Female,1.1428571428571428,0.5,0.4,0.5,3.2777777777777777,3.25,2.2222222222222223,2.6666666666666665,1.5,3.4444444444444446,2.0,1.75,2.0,0.75,1.0,1.0,0.4841012090910226,-0.21001260184241186,-0.7254612844336942,-0.15432007613936094,,,,,0.00021505828935414022,-0.002479593332739399,0.0016900044293207076,2.2246670651830005,2.07,0.7583471942733786,2.6319999999999997,2.381878024637241,,,,,,,,,,,,,,,,,,,,
0,240627_093907,TrueCHOICE,9.0,1,1.0,1068.0,,,,,,,,,,,1.0,1.0,,,B,,,,,,True,cue2.png,Easy,cue1.png,Hard,Left,Easy,Easy,0.0145320000592619,,,,,,,,,,,,,30,28,Female,1.1428571428571428,0.5,0.4,0.5,3.2777777777777777,3.25,2.2222222222222223,2.6666666666666665,1.5,3.4444444444444446,2.0,1.75,2.0,0.75,0.84375,0.875,0.5144950273150409,-0.22756455501909062,-0.6645693888372649,-0.18637044914523163,,,,,,,,,,,,,,,1.8901314972069247e-05,-0.42483799232163716,1.455,-0.7627085852453634,,,,,,,,,,,,,,
1,240627_093927,TrueCHOICE,9.0,2,1.0,1068.0,,,,,,,,,,,2.0,2.0,,,B,,,,,,True,cue2.png,Easy,cue1.png,Hard,Left,Easy,Easy,0.0160675998777151,,,,,,,,,,,,,30,28,Female,1.1428571428571428,0.5,0.4,0.5,3.2777777777777777,3.25,2.2222222222222223,2.6666666666666665,1.5,3.4444444444444446,2.0,1.75,2.0,0.75,,,,,,,,,,,,,,,,,,,-6.408193752791046e-05,0.0752840208467183,0.0007305073060762182,1.5242635876213904,1.467,-0.7421872780190308,,,,,,,,,,,,,,
2,240627_093949,TrueCHOICE,9.0,3,3.0,1068.0,,,,,,,,,,,3.0,3.0,,,B,,,,,,True,cue1.png,Hard,cue2.png,Easy,Left,Hard,Hard,0.0163671001791954,,,,,,,,,,,,,30,28,Female,1.1428571428571428,0.5,0.4,0.5,3.2777777777777777,3.25,2.2222222222222223,2.6666666666666665,1.5,3.4444444444444446,2.0,1.75,2.0,0.75,0.84375,0.7840909090909091,0.5377928199712187,0.21993227402079496,-0.6202818859779995,0.27157985214197844,,,,,,,,,,,,,,,0.00046554558427851916,0.7985286766786078,,,,,,,,,,,,,,,,
3,240627_094009,TrueCHOICE,9.0,4,1.0,1068.0,,,,,,,,,,,4.0,4.0,,,B,,,,,,True,cue2.png,Easy,cue1.png,Hard,Left,Easy,Easy,0.016039100009948,,,,,,,,,,,,,30,28,Female,1.1428571428571428,0.5,0.4,0.5,3.2777777777777777,3.25,2.2222222222222223,2.6666666666666665,1.5,3.4444444444444446,2.0,1.75,2.0,0.75,1.0,1.0,0.4574784454677931,-1.3227215064039606,-0.7820255091080476,-1.4009132025933064,,,,,,,,,,,,,-0.0001839635812351456,-1.6713459027564672,-0.00023429363808209758,-1.1183435125123031,,,,,,,,,,,,,,,,
4,240627_094030,TrueCHOICE,9.0,5,3.0,1068.0,,,,,,,,,,,5.0,5.0,,,B,,,,,,True,cue1.png,Hard,cue2.png,Easy,Left,Hard,Hard,0.0161323000211268,,,,,,,,,,,,,30,28,Female,1.1428571428571428,0.5,0.4,0.5,3.2777777777777777,3.25,2.2222222222222223,2.6666666666666665,1.5,3.4444444444444446,2.0,1.75,2.0,0.75,1.0,1.0,0.5603936090430414,0.6540412727871683,-0.5791158688615425,0.6972527558769849,,,,,,,,,,,,,,,,,1.5739999999999998,-0.5592056219175652,,,,,,,,,,,,,,
5,240627_094049,TrueCHOICE,9.0,6,1.0,1068.0,,,,,,,,,,,6.0,6.0,,,B,,,,,,True,cue1.png,Hard,cue2.png,Easy,Right,Easy,Easy,0.0162115001585334,,,,,,,,,,,,,30,28,Female,1.1428571428571428,0.5,0.4,0.5,3.2777777777777777,3.25,2.2222222222222223,2.6666666666666665,1.5,3.4444444444444446,2.0,1.75,2.0,0.75,0.84375,0.875,0.6331169727385383,2.050889254530183,-0.45710008285358233,1.9589442570145574,,,,,,,,,,,,,-6.074443406913627e-06,0.9204311333804629,,,,,,,,,,,,,,,,,,
6,240627_094110,TrueCHOICE,9.0,7,1.0,1068.0,,,,,,,,,,,7.0,7.0,,,B,,,,,,True,cue2.png,Easy,cue1.png,Hard,Left,Easy,Easy,0.0160698001272976,,,,,,,,,,,,,30,28,Female,1.1428571428571428,0.5,0.4,0.5,3.2777777777777777,3.25,2.2222222222222223,2.6666666666666665,1.5,3.4444444444444446,2.0,1.75,2.0,0.75,,,,,,,,,,,,,,,,,,,,,,,,,,,,,,,,,,,,,,
7,240627_094130,TrueCHOICE,9.0,8,3.0,1068.0,,,,,,,,,,,8.0,8.0,,,B,,,,,,True,cue1.png,Hard,cue2.png,Easy,Left,Hard,Hard,0.0160984001122415,,,,,,,,,,,,,30,28,Female,1.1428571428571428,0.5,0.4,0.5,3.2777777777777777,3.25,2.2222222222222223,2.6666666666666665,1.5,3.4444444444444446,2.0,1.75,2.0,0.75,0.5833333333333334,0.75,0.4705748272509398,-1.071170236876294,-0.7538002948740404,-1.1090533205079605,,,,,,,,,,,,,5.425649495297696e-06,1.087983110197466,,,2.998,1.875989502273909,,,,,,,,,,,,,,
8,240627_094151,TrueCHOICE,9.0,9,3.0,1068.0,,,,,,,,,,,9.0,9.0,,,B,,,,,,True,cue2.png,Easy,cue1.png,Hard,Right,Hard,Hard,0.0163606000132858,,,,,,,,,,,,,30,28,Female,1.1428571428571428,0.5,0.4,0.5,3.2777777777777777,3.25,2.2222222222222223,2.6666666666666665,1.5,3.4444444444444446,2.0,1.75,2.0,0.75,0.84375,0.875,0.5393637545533817,0.2501063018577458,-0.6173650663937578,0.301740920641339,,,,,,,,,,,,,-9.755133495283237e-05,-0.4123523616681795,,,,,,,,,,,,,,,,,,
9,240627_094210,TrueCHOICE,9.0,10,3.0,1068.0,,,,,,,,,,,10.0,10.0,,,B,,,,,,True,cue1.png,Hard,cue2.png,Easy,Left,Hard,Hard,0.0160836998838931,,,,,,,,,,,,,30,28,Female,1.1428571428571428,0.5,0.4,0.5,3.2777777777777777,3.25,2.2222222222222223,2.6666666666666665,1.5,3.4444444444444446,2.0,1.75,2.0,0.75,1.0,1.0,0.4975253545721484,-0.5535128048965454,-0.6981087597179909,-0.5331808134283605,,,,,,,,,,,,,,,-0.00011062422088427455,-0.7796107594660578,2.011,0.188111982908049,,,,,,,,,,,,,,
0,240627_094358,FalseCHOICE,9.0,1,2.0,1068.0,,,,,,,,,,,1.0,1.0,,,B,,,,,,False,cue2.png,Easy,cue1.png,Hard,Left,Easy,Mid,0.016071000136435,,,,,,,,,,,,,30,28,Female,1.1428571428571428,0.5,0.4,0.5,3.2777777777777777,3.25,2.2222222222222223,2.6666666666666665,1.5,3.4444444444444446,2.0,1.75,2.0,0.75,1.0,1.0,0.5669403091200035,-0.4418995397471688,-0.5675012557168072,-0.40284881524567207,,,,,,,,,,,,,,,,,,,4.778087771467338e-05,-0.09569361212158951,-2.1575573255378303e-05,-0.2861003487801488,1.3769999999999998,-0.17087421902829872,,,,,,,,
1,240627_094418,FalseCHOICE,9.0,2,2.0,1068.0,,,,,,,,,,,2.0,2.0,,,B,,,,,,False,cue1.png,Hard,cue2.png,Easy,Left,Hard,Mid,0.0166275999508798,,,,,,,,,,,,,30,28,Female,1.1428571428571428,0.5,0.4,0.5,3.2777777777777777,3.25,2.2222222222222223,2.6666666666666665,1.5,3.4444444444444446,2.0,1.75,2.0,0.75,,,,,,,,,,,,,,,,,,,,,,,,,,,0.0003276947322586859,0.06539708532159613,1.45,-0.058861884878543276,,,,,,,,
2,240627_094439,FalseCHOICE,9.0,3,2.0,1068.0,,,,,,,,,,,3.0,3.0,,,B,,,,,,False,cue1.png,Hard,cue2.png,Easy,Right,Easy,Mid,0.0167093002237379,,,,,,,,,,,,,30,28,Female,1.1428571428571428,0.5,0.4,0.5,3.2777777777777777,3.25,2.2222222222222223,2.6666666666666665,1.5,3.4444444444444446,2.0,1.75,2.0,0.75,,,,,,,,,,,,,,,,,,,,,,,,,6.502923954378702e-05,-0.0635013598552922,-0.0021715122506563034,-2.4497461373203553,1.178,-0.4762229107516037,,,,,,,,
3,240627_094459,FalseCHOICE,9.0,4,2.0,1068.0,,,,,,,,,,,4.0,4.0,,,B,,,,,,False,cue1.png,Hard,cue2.png,Easy,Right,Easy,Mid,0.0164415999315679,,,,,,,,,,,,,30,28,Female,1.1428571428571428,0.5,0.4,0.5,3.2777777777777777,3.25,2.2222222222222223,2.6666666666666665,1.5,3.4444444444444446,2.0,1.75,2.0,0.75,0.84375,0.875,0.5031552545683966,-1.3155700846176561,-0.6868564993135985,-1.401985426328649,,,,,,,,,,,,,,,,,,,-0.00012666114457958455,-0.42127128976869566,0.0008326098084363177,0.5735317618567537,1.592,0.1590251212757752,,,,,,,,
4,240627_094520,FalseCHOICE,9.0,5,2.0,1068.0,,,,,,,,,,,5.0,5.0,,,B,,,,,,False,cue2.png,Easy,cue1.png,Hard,Left,Easy,Mid,0.0160288999322801,,,,,,,,,,,,,30,28,Female,1.1428571428571428,0.5,0.4,0.5,3.2777777777777777,3.25,2.2222222222222223,2.6666666666666665,1.5,3.4444444444444446,2.0,1.75,2.0,0.75,,,,,,,,,,,,,,,,,,,,,,,,,2.6846294518175547e-05,-0.1347658086599247,0.00036752194090996365,0.10547825290827277,1.528,0.06082252695270209,,,,,,,,
5,240627_094541,FalseCHOICE,9.0,6,2.0,1068.0,,,,,,,,,,,6.0,6.0,,,B,,,,,,False,cue1.png,Hard,cue2.png,Easy,Left,Hard,Mid,0.0161931999027729,,,,,,,,,,,,,30,28,Female,1.1428571428571428,0.5,0.4,0.5,3.2777777777777777,3.25,2.2222222222222223,2.6666666666666665,1.5,3.4444444444444446,2.0,1.75,2.0,0.75,1.0,1.0,0.4934002454604276,-1.4491854618010427,-0.7064345773993117,-1.5658757926049682,,,,,,,,,,,,,,,,,,,-0.00013116826525566908,-0.4296833562151597,2.277357630115981e-05,-0.24146840604807485,,,,,,,,,,
6,240627_094601,FalseCHOICE,9.0,7,2.0,1068.0,,,,,,,,,,,7.0,7.0,,,B,,,,,,False,cue1.png,Hard,cue2.png,Easy,Right,Easy,Mid,0.0158323999494314,,,,,,,,,,,,,30,28,Female,1.1428571428571428,0.5,0.4,0.5,3.2777777777777777,3.25,2.2222222222222223,2.6666666666666665,1.5,3.4444444444444446,2.0,1.75,2.0,0.75,1.0,1.0,0.4791645454454489,-1.6441733296664927,-0.7357112218849945,-1.8109539850145442,,,,,,,,,,,,,,,,,,,2.9657054572002507e-05,-0.12951982080268373,0.0013567519206312984,1.101016075961395,1.4590000000000003,-0.04505214505186061,,,,,,,,
7,240627_094622,FalseCHOICE,9.0,8,2.0,1068.0,,,,,,,,,,,8.0,8.0,,,B,,,,,,False,cue2.png,Easy,cue1.png,Hard,Left,Easy,Mid,0.0173063001129776,,,,,,,,,,,,,30,28,Female,1.1428571428571428,0.5,0.4,0.5,3.2777777777777777,3.25,2.2222222222222223,2.6666666666666665,1.5,3.4444444444444446,2.0,1.75,2.0,0.75,,,,,,,,,,,,,,,,,,,,,,,,,-0.0005411657748144523,-1.19490056275542,0.0016875255621054894,1.4338989017016064,2.053,0.8663906835091605,,,,,,,,
8,240627_094642,FalseCHOICE,9.0,9,2.0,1068.0,,,,,,,,,,,9.0,9.0,,,B,,,,,,False,cue2.png,Easy,cue1.png,Hard,Left,Easy,Mid,0.0158069999888539,,,,,,,,,,,,,30,28,Female,1.1428571428571428,0.5,0.4,0.5,3.2777777777777777,3.25,2.2222222222222223,2.6666666666666665,1.5,3.4444444444444446,2.0,1.75,2.0,0.75,0.84375,0.875,0.6110201818148859,0.16186707401344427,-0.4926252895624524,0.22394659667401826,,,,,,,,,,,,,,,,,,,,,0.0005982789192384673,0.33770665739333394,0.32499999999999996,-1.7850793632138116,,,,,,,,
9,240627_094703,FalseCHOICE,9.0,10,2.0,1068.0,,,,,,,,,,,10.0,10.0,,,B,,,,,,False,cue1.png,Hard,cue2.png,Easy,Right,Easy,Mid,0.0155001000966876,,,,,,,,,,,,,30,28,Female,1.1428571428571428,0.5,0.4,0.5,3.2777777777777777,3.25,2.2222222222222223,2.6666666666666665,1.5,3.4444444444444446,2.0,1.75,2.0,0.75,,,,,,,,,,,,,,,,,,,,,,,,,-0.00016304731409240306,-0.4891822461578279,0.0005586645976972636,0.2978397343953412,0.7410000000000001,-1.1467625001138366,,,,,,,,
10,240627_094723,FalseCHOICE,9.0,11,2.0,1068.0,,,,,,,,,,,11.0,11.0,,,B,,,,,,False,cue2.png,Easy,cue1.png,Hard,Left,Easy,Mid,0.0162742999382317,,,,,,,,,,,,,30,28,Female,1.1428571428571428,0.5,0.4,0.5,3.2777777777777777,3.25,2.2222222222222223,2.6666666666666665,1.5,3.4444444444444446,2.0,1.75,2.0,0.75,0.84375,0.875,0.5428548090540889,-0.7718011462283636,-0.6109133814431033,-0.766256763409297,,,,,,,,,,,,,,,,,,,-4.941776167694759e-05,-0.2771046440930078,0.0018755013795893269,1.6230733504755983,,,,,,,,,,
11,240627_094745,FalseCHOICE,9.0,12,2.0,1068.0,,,,,,,,,,,12.0,12.0,,,B,,,,,,False,cue1.png,Hard,cue2.png,Easy,Right,Easy,Mid,0.0164824998937547,,,,,,,,,,,,,30,28,Female,1.1428571428571428,0.5,0.4,0.5,3.2777777777777777,3.25,2.2222222222222223,2.6666666666666665,1.5,3.4444444444444446,2.0,1.75,2.0,0.75,,,,,,,,,,,,,,,,,,,,,,,,,-6.133901332223014e-06,-0.19631987362717623,0.0011051856353372254,0.8478456735785518,,,,,,,,,,
12,240627_094808,FalseCHOICE,9.0,13,2.0,1068.0,,,,,,,,,,,13.0,13.0,,,B,,,,,,False,cue2.png,Easy,cue1.png,Hard,Left,Easy,Mid,0.0162774000782519,,,,,,,,,,,,,30,28,Female,1.1428571428571428,0.5,0.4,0.5,3.2777777777777777,3.25,2.2222222222222223,2.6666666666666665,1.5,3.4444444444444446,2.0,1.75,2.0,0.75,0.84375,0.875,0.6854515636170452,1.1813614736293108,-0.37767744094877725,1.1861883922932432,,,,,,,,,,,,,,,,,,,-0.00014262879717827793,-0.451073233028611,0.0010122458634397487,0.7543132695000463,1.911,0.6485036773548423,,,,,,,,
13,240627_094829,FalseCHOICE,9.0,14,2.0,1068.0,,,,,,,,,,,14.0,14.0,,,B,,,,,,False,cue1.png,Hard,cue2.png,Easy,Left,Hard,Mid,0.0162645999807864,,,,,,,,,,,,,30,28,Female,1.1428571428571428,0.5,0.4,0.5,3.2777777777777777,3.25,2.2222222222222223,2.6666666666666665,1.5,3.4444444444444446,2.0,1.75,2.0,0.75,1.0,1.0,0.6018045636698265,0.035639791106627315,-0.5078225314486672,0.0967287191981339,,,,,,,,,,,,,,,,,,,,,-0.0002600850352439295,-0.5261306707812488,2.9290000000000003,2.210538693306223,,,,,,,,
14,240627_094850,FalseCHOICE,9.0,15,2.0,1068.0,,,,,,,,,,,15.0,15.0,,,B,,,,,,False,cue2.png,Easy,cue1.png,Hard,Right,Hard,Mid,0.0164586999453604,,,,,,,,,,,,,30,28,Female,1.1428571428571428,0.5,0.4,0.5,3.2777777777777777,3.25,2.2222222222222223,2.6666666666666665,1.5,3.4444444444444446,2.0,1.75,2.0,0.75,,,,,,,,,,,,,,,,,,,,,,,,,-0.0001041461592356835,-0.3792494389318562,,,,,,,,,,,,
15,240627_094911,FalseCHOICE,9.0,16,2.0,1068.0,,,,,,,,,,,16.0,16.0,,,B,,,,,,False,cue2.png,Easy,cue1.png,Hard,Right,Hard,Mid,0.0165230999700725,,,,,,,,,,,,,30,28,Female,1.1428571428571428,0.5,0.4,0.5,3.2777777777777777,3.25,2.2222222222222223,2.6666666666666665,1.5,3.4444444444444446,2.0,1.75,2.0,0.75,1.0,1.0,0.5709918545643714,-0.3864050992260814,-0.5603803346391344,-0.34323875758142186,,,,,,,,,,,,,,,,,,,-7.357209763253231e-05,-0.32218617033363844,-9.911484056937536e-05,-0.36413404667177157,,,,,,,,,,
16,240627_094932,FalseCHOICE,9.0,17,2.0,1068.0,,,,,,,,,,,17.0,17.0,,,B,,,,,,False,cue1.png,Hard,cue2.png,Easy,Left,Hard,Mid,0.0163116999901831,,,,,,,,,,,,,30,28,Female,1.1428571428571428,0.5,0.4,0.5,3.2777777777777777,3.25,2.2222222222222223,2.6666666666666665,1.5,3.4444444444444446,2.0,1.75,2.0,0.75,0.84375,0.875,0.6207151818512515,0.29466050068423066,-0.47688294662006786,0.3557275784220455,,,,,,,,,,,,,,,,,,,0.00021136627004834105,0.209621308174077,1.0706645216480154e-05,-0.2536122821428512,,,,,,,,,,
17,240627_094953,FalseCHOICE,9.0,18,2.0,1068.0,,,,,,,,,,,18.0,18.0,,,B,,,,,,False,cue1.png,Hard,cue2.png,Easy,Right,Easy,Mid,0.0167730001267045,,,,,,,,,,,,,30,28,Female,1.1428571428571428,0.5,0.4,0.5,3.2777777777777777,3.25,2.2222222222222223,2.6666666666666665,1.5,3.4444444444444446,2.0,1.75,2.0,0.75,0.84375,0.875,0.5306796363597228,-0.9385657564737446,-0.6335967611682175,-0.9561419704892837,,,,,,,,,,,,,,,,,,,,,0.000913567122491972,0.6550053017285415,,,,,,,,,,
18,240627_095014,FalseCHOICE,9.0,19,2.0,1068.0,,,,,,,,,,,19.0,19.0,,,B,,,,,,False,cue2.png,Easy,cue1.png,Hard,Left,Easy,Mid,0.0160662999842315,,,,,,,,,,,,,30,28,Female,1.1428571428571428,0.5,0.4,0.5,3.2777777777777777,3.25,2.2222222222222223,2.6666666666666665,1.5,3.4444444444444446,2.0,1.75,2.0,0.75,1.0,1.0,0.6149349545594305,0.21548812459988148,-0.4862387817131408,0.2774087958780386,,,,,,,,,,,,,,,,,,,,,0.000524777794323035,0.26373685119025275,,,,,,,,,,
19,240627_095035,FalseCHOICE,9.0,20,2.0,1068.0,,,,,,,,,,,20.0,20.0,,,B,,,,,,False,cue2.png,Easy,cue1.png,Hard,Left,Easy,Mid,0.0161290999967604,,,,,,,,,,,,,30,28,Female,1.1428571428571428,0.5,0.4,0.5,3.2777777777777777,3.25,2.2222222222222223,2.6666666666666665,1.5,3.4444444444444446,2.0,1.75,2.0,0.75,0.5833333333333334,0.75,0.5256827818441459,-1.007008193937376,-0.6430573245100386,-1.035337445371102,,,,,,,,,,,,,,,,,,,,,0.0007640724924414637,0.5045574163939912,,,,,,,,,,
20,240627_095055,FalseCHOICE,9.0,21,2.0,1068.0,,,,,,,,,,,21.0,21.0,,,B,,,,,,False,cue2.png,Easy,cue1.png,Hard,Left,Easy,Mid,0.0159931001253426,,,,,,,,,,,,,30,28,Female,1.1428571428571428,0.5,0.4,0.5,3.2777777777777777,3.25,2.2222222222222223,2.6666666666666665,1.5,3.4444444444444446,2.0,1.75,2.0,0.75,1.0,1.0,0.5393788454292173,-0.8194117825355647,-0.6173370877530017,-0.8200303552486822,,,,,,,,,,,,,,,,,,,,,,,,,,,,,,,,
21,240627_095116,FalseCHOICE,9.0,22,2.0,1068.0,,,,,,,,,,,22.0,22.0,,,B,,,,,,False,cue1.png,Hard,cue2.png,Easy,Left,Hard,Mid,0.0160918999463319,,,,,,,,,,,,,30,28,Female,1.1428571428571428,0.5,0.4,0.5,3.2777777777777777,3.25,2.2222222222222223,2.6666666666666665,1.5,3.4444444444444446,2.0,1.75,2.0,0.75,0.84375,0.875,0.6020703727421775,0.03928060569407107,-0.5073809422625635,0.10042531357973516,,,,,,,,,,,,,,,,,,,0.003118946770905161,5.636314341141361,0.0013236912682820547,1.0677446117486404,1.3659999999999999,-0.18775278992757674,,,,,,,,
22,240627_095139,FalseCHOICE,9.0,23,2.0,1068.0,,,,,,,,,,,23.0,23.0,,,B,,,,,,False,cue2.png,Easy,cue1.png,Hard,Right,Hard,Mid,0.016495999880135,,,,,,,,,,,,,30,28,Female,1.1428571428571428,0.5,0.4,0.5,3.2777777777777777,3.25,2.2222222222222223,2.6666666666666665,1.5,3.4444444444444446,2.0,1.75,2.0,0.75,1.0,0.9090909090909092,0.6847589300014079,1.1718743987553701,-0.37868842966599714,1.1777252882826763,,,,,,,,,,,,,,,,,,,1.1682601607468542e-05,-0.16306724576487844,,,2.099,0.9369737981788696,,,,,,,,
23,240627_095202,FalseCHOICE,9.0,24,2.0,1068.0,,,,,,,,,,,24.0,24.0,,,B,,,,,,False,cue1.png,Hard,cue2.png,Easy,Left,Hard,Mid,0.0164357000030577,,,,,,,,,,,,,30,28,Female,1.1428571428571428,0.5,0.4,0.5,3.2777777777777777,3.25,2.2222222222222223,2.6666666666666665,1.5,3.4444444444444446,2.0,1.75,2.0,0.75,0.84375,0.875,0.6949722272640263,1.311766996591697,-0.36388339498698297,1.3016599536596556,,,,,,,,,,,,,,,,,,,0.00014419785703075972,0.08425853357486493,-0.0034554376317488082,-3.7418584924428204,,,,,,,,,,
24,240627_095223,FalseCHOICE,9.0,25,2.0,1068.0,,,,,,,,,,,25.0,25.0,,,B,,,,,,False,cue1.png,Hard,cue2.png,Easy,Left,Hard,Mid,0.0149540000129491,,,,,,,,,,,,,30,28,Female,1.1428571428571428,0.5,0.4,0.5,3.2777777777777777,3.25,2.2222222222222223,2.6666666666666665,1.5,3.4444444444444446,2.0,1.75,2.0,0.75,0.84375,0.875,0.5972235727716576,-0.02710651901546887,-0.5154637419399487,0.03276325840428605,,,,,,,,,,,,,,,,,,,-7.283479786379232e-05,-0.32081007790316207,0.00011091922449366423,-0.1527606954933543,1.0110000000000001,-0.7324703053133721,,,,,,,,
25,240627_095244,FalseCHOICE,9.0,26,2.0,1068.0,,,,,,,,,,,26.0,26.0,,,B,,,,,,False,cue2.png,Easy,cue1.png,Hard,Right,Hard,Mid,0.0168920001015067,,,,,,,,,,,,,30,28,Female,1.1428571428571428,0.5,0.4,0.5,3.2777777777777777,3.25,2.2222222222222223,2.6666666666666665,1.5,3.4444444444444446,2.0,1.75,2.0,0.75,1.0,1.0,0.6429058908992871,0.5986089569699243,-0.4417569248662303,0.6497715875358578,,,,,,,,,,,,,,,,,,,7.554653935981171e-05,-0.043871926510134475,,,1.6849999999999998,0.3017257661514903,,,,,,,,
26,240627_095306,FalseCHOICE,9.0,27,2.0,1068.0,,,,,,,,,,,27.0,27.0,,,B,,,,,,False,cue2.png,Easy,cue1.png,Hard,Left,Easy,Mid,0.0163840998429805,,,,,,,,,,,,,30,28,Female,1.1428571428571428,0.5,0.4,0.5,3.2777777777777777,3.25,2.2222222222222223,2.6666666666666665,1.5,3.4444444444444446,2.0,1.75,2.0,0.75,0.84375,0.875,0.6376707727216523,0.5269029972765756,-0.44993315904360726,0.5813273813055684,,,,,,,,,,,,,,,,,,,8.233300854502057e-05,-0.031205695932866748,,,0.6970000000000001,-1.2142767837109494,,,,,,,,
27,240627_095328,FalseCHOICE,9.0,28,2.0,1068.0,,,,,,,,,,,28.0,28.0,,,B,,,,,,False,cue1.png,Hard,cue2.png,Easy,Right,Easy,Mid,0.0165648001711815,,,,,,,,,,,,,30,28,Female,1.1428571428571428,0.5,0.4,0.5,3.2777777777777777,3.25,2.2222222222222223,2.6666666666666665,1.5,3.4444444444444446,2.0,1.75,2.0,0.75,1.0,1.0,0.5930823727129874,-0.08382896813948522,-0.5224219811776932,-0.02548497067721836,,,,,,,,,,,,,,,,,,,9.653357090876535e-05,-0.00470184064121026,-0.0008104788217214373,-1.0800340534568695,2.386,1.3773510570964,,,,,,,,
28,240627_095349,FalseCHOICE,9.0,29,2.0,1068.0,,,,,,,,,,,29.0,29.0,,,B,,,,,,False,cue2.png,Easy,cue1.png,Hard,Left,Easy,Mid,0.0160184998530894,,,,,,,,,,,,,30,28,Female,1.1428571428571428,0.5,0.4,0.5,3.2777777777777777,3.25,2.2222222222222223,2.6666666666666665,1.5,3.4444444444444446,2.0,1.75,2.0,0.75,1.0,1.0,0.6057528272609819,0.08971956931213414,-0.5012832519237455,0.15146978784800966,,,,,,,,,,,,,,,,,,,6.375566190617091e-05,-0.06587835849418032,0.0012211885070000962,0.9645882397062961,,,,,,,,,,
29,240627_095409,FalseCHOICE,9.0,30,2.0,1068.0,,,,,,,,,,,30.0,30.0,,,B,,,,,,False,cue2.png,Easy,cue1.png,Hard,Left,Easy,Mid,0.0165554000996053,,,,,,,,,,,,,30,28,Female,1.1428571428571428,0.5,0.4,0.5,3.2777777777777777,3.25,2.2222222222222223,2.6666666666666665,1.5,3.4444444444444446,2.0,1.75,2.0,0.75,1.0,1.0,0.5313311636405573,-0.9296417193549219,-0.6323697917954553,-0.9458708673181012,,,,,,,,,,,,,,,,,,,,,0.00024301740486608152,-0.019820188621250748,1.922,0.6653822482541203,,,,,,,,
30,240627_095430,FalseCHOICE,9.0,31,2.0,1068.0,,,,,,,,,,,31.0,31.0,,,B,,,,,,False,cue1.png,Hard,cue2.png,Easy,Right,Easy,Mid,0.0168135999701917,,,,,,,,,,,,,30,28,Female,1.1428571428571428,0.5,0.4,0.5,3.2777777777777777,3.25,2.2222222222222223,2.6666666666666665,1.5,3.4444444444444446,2.0,1.75,2.0,0.75,1.0,1.0,0.5189022545448758,-1.0998817835534132,-0.6560397477636214,-1.1440148187511037,,,,,,,,,,,,,,,,,,,0.00042098421872056304,0.6008511507559857,-0.00019260574153453624,-0.4582210941026936,0.248,-1.9032293595087586,,,,,,,,
31,240627_095450,FalseCHOICE,9.0,32,2.0,1068.0,,,,,,,,,,,32.0,32.0,,,B,,,,,,False,cue2.png,Easy,cue1.png,Hard,Right,Hard,Mid,0.0153598000761121,,,,,,,,,,,,,30,28,Female,1.1428571428571428,0.5,0.4,0.5,3.2777777777777777,3.25,2.2222222222222223,2.6666666666666665,1.5,3.4444444444444446,2.0,1.75,2.0,0.75,0.84375,0.875,0.5282305273100395,-0.9721114585653353,-0.6382224858061352,-0.9948644488593612,,,,,,,,,,,,,,,,,,,,,0.0010894383323361082,0.8319979576074827,,,,,,,,,,
32,240627_095511,FalseCHOICE,9.0,33,2.0,1068.0,,,,,,,,,,,33.0,33.0,,,B,,,,,,False,cue1.png,Hard,cue2.png,Easy,Right,Easy,Mid,0.0168842000421136,,,,,,,,,,,,,30,28,Female,1.1428571428571428,0.5,0.4,0.5,3.2777777777777777,3.25,2.2222222222222223,2.6666666666666665,1.5,3.4444444444444446,2.0,1.75,2.0,0.75,0.84375,0.875,0.5396004363428801,-0.8163766286795544,-0.616926346007499,-0.8165919883762701,,,,,,,,,,,,,,,,,,,-0.0002022298311253035,-0.5623122909266326,,,1.0150000000000001,-0.72633264316818,,,,,,,,
33,240627_095533,FalseCHOICE,9.0,34,2.0,1068.0,,,,,,,,,,,34.0,34.0,,,B,,,,,,False,cue1.png,Hard,cue2.png,Easy,Right,Easy,Mid,0.0171798001974821,,,,,,,,,,,,,30,28,Female,1.1428571428571428,0.5,0.4,0.5,3.2777777777777777,3.25,2.2222222222222223,2.6666666666666665,1.5,3.4444444444444446,2.0,1.75,2.0,0.75,0.84375,0.875,0.6984322181564163,1.3591588527161684,-0.3589171441398701,1.3432330164899318,,,,,,,,,,,,,,,,,,,-0.00013373326379106975,-0.43447065606034996,-0.00022327269372615383,-0.4890835946843253,1.1760000000000002,-0.4792917418241994,,,,,,,,
34,240627_095554,FalseCHOICE,9.0,35,2.0,1068.0,,,,,,,,,,,35.0,35.0,,,B,,,,,,False,cue1.png,Hard,cue2.png,Easy,Left,Hard,Mid,0.0168218000326305,,,,,,,,,,,,,30,28,Female,1.1428571428571428,0.5,0.4,0.5,3.2777777777777777,3.25,2.2222222222222223,2.6666666666666665,1.5,3.4444444444444446,2.0,1.75,2.0,0.75,0.84375,0.875,0.5651604454456405,-0.46627851813179627,-0.5706456139086773,-0.42917060298772763,,,,,,,,,,,,,,,,,,,-0.00027855711284417196,-0.7047691301464082,-0.000279308826458222,-0.5454770428571291,1.418,-0.10796318204007983,,,,,,,,
35,240627_095614,FalseCHOICE,9.0,36,2.0,1068.0,,,,,,,,,,,36.0,36.0,,,B,,,,,,False,cue2.png,Easy,cue1.png,Hard,Right,Hard,Mid,0.0166648000013083,,,,,,,,,,,,,30,28,Female,1.1428571428571428,0.5,0.4,0.5,3.2777777777777777,3.25,2.2222222222222223,2.6666666666666665,1.5,3.4444444444444446,2.0,1.75,2.0,0.75,0.84375,0.875,0.5217719637069174,-1.0605750778549463,-0.650524637682928,-1.0978471915089463,,,,,,,,,,,,,,,,,,,-4.528181481979615e-05,-0.2693853345200441,,,1.088,-0.6143203090184249,,,,,,,,
36,240627_095635,FalseCHOICE,9.0,37,2.0,1068.0,,,,,,,,,,,37.0,37.0,,,B,,,,,,False,cue1.png,Hard,cue2.png,Easy,Right,Easy,Mid,0.0159676999319344,,,,,,,,,,,,,30,28,Female,1.1428571428571428,0.5,0.4,0.5,3.2777777777777777,3.25,2.2222222222222223,2.6666666666666665,1.5,3.4444444444444446,2.0,1.75,2.0,0.75,0.84375,0.875,0.5684803727463904,-0.4208051276304234,-0.5647884910200939,-0.3801399467949812,,,,,,,,,,,,,,,,,,,9.783999471384315e-05,-0.002263538087238281,,,1.0190000000000001,-0.720194981022988,,,,,,,,
37,240627_095658,FalseCHOICE,9.0,38,2.0,1068.0,,,,,,,,,,,38.0,38.0,,,B,,,,,,False,cue2.png,Easy,cue1.png,Hard,Right,Hard,Mid,0.0162239000201225,,,,,,,,,,,,,30,28,Female,1.1428571428571428,0.5,0.4,0.5,3.2777777777777777,3.25,2.2222222222222223,2.6666666666666665,1.5,3.4444444444444446,2.0,1.75,2.0,0.75,0.84375,0.875,0.7266156181523745,1.7451898219434478,-0.31935766458380227,1.6743900159543315,,,,,,,,,,,,,,,,,,,-4.491886819058032e-05,-0.2687079328303835,-0.00029395317128045814,-0.5602147676160119,1.0699999999999998,-0.6419397886717896,,,,,,,,
38,240627_095721,FalseCHOICE,9.0,39,2.0,1068.0,,,,,,,,,,,39.0,39.0,,,B,,,,,,False,cue2.png,Easy,cue1.png,Hard,Right,Hard,Mid,0.0162720999214798,,,,,,,,,,,,,30,28,Female,1.1428571428571428,0.5,0.4,0.5,3.2777777777777777,3.25,2.2222222222222223,2.6666666666666665,1.5,3.4444444444444446,2.0,1.75,2.0,0.75,1.0,0.9090909090909092,0.790184749988839,2.6159028508642432,-0.23548850011686553,2.376468535796662,,,,,,,,,,,,,,,,,,,5.584414511724091e-05,-0.08064437203225375,0.0003134494261207632,0.05106094372460589,2.7560000000000002,1.9450848055266663,,,,,,,,
39,240627_095744,FalseCHOICE,9.0,40,2.0,1068.0,,,,,,,,,,,40.0,40.0,,,B,,,,,,False,cue1.png,Hard,cue2.png,Easy,Right,Easy,Mid,0.0164945998694747,,,,,,,,,,,,,30,28,Female,1.1428571428571428,0.5,0.4,0.5,3.2777777777777777,3.25,2.2222222222222223,2.6666666666666665,1.5,3.4444444444444446,2.0,1.75,2.0,0.75,0.84375,0.875,0.6842941181861203,1.1655078228422624,-0.3793674564338239,1.1720410763184916,,,,,,,,,,,,,,,,,,,0.00043840193523407393,0.6333594857190985,,,1.427,-0.09415344221339751,,,,,,,,
40,240627_095806,FalseCHOICE,9.0,41,2.0,1068.0,,,,,,,,,,,41.0,41.0,,,B,,,,,,False,cue1.png,Hard,cue2.png,Easy,Left,Hard,Mid,0.0151496001053601,,,,,,,,,,,,,30,28,Female,1.1428571428571428,0.5,0.4,0.5,3.2777777777777777,3.25,2.2222222222222223,2.6666666666666665,1.5,3.4444444444444446,2.0,1.75,2.0,0.75,1.0,1.0,0.721681245433336,1.6776032041637527,-0.32617172589345145,1.6173487170597973,,,,,,,,,,,,,,,,,,,-0.00032439672732710936,-0.7903239467628896,,,0.5370000000000001,-1.4597832695186317,,,,,,,,
41,240627_095828,FalseCHOICE,9.0,42,2.0,1068.0,,,,,,,,,,,42.0,42.0,,,B,,,,,,False,cue2.png,Easy,cue1.png,Hard,Left,Easy,Mid,0.0152120999991893,,,,,,,,,,,,,30,28,Female,1.1428571428571428,0.5,0.4,0.5,3.2777777777777777,3.25,2.2222222222222223,2.6666666666666665,1.5,3.4444444444444446,2.0,1.75,2.0,0.75,0.5833333333333334,0.75,0.6659505999731746,0.9142547406805225,-0.4065397854072435,0.9445783535457142,,,,,,,,,,,,,,,,,,,-7.167651398512455e-05,-0.3186482629327039,0.00010580751574557328,-0.1579049991471817,2.4210000000000003,1.431055600866831,,,,,,,,
42,240627_095850,FalseCHOICE,9.0,43,2.0,1068.0,,,,,,,,,,,43.0,43.0,,,B,,,,,,False,cue1.png,Hard,cue2.png,Easy,Right,Easy,Mid,0.0153651000000536,,,,,,,,,,,,,30,28,Female,1.1428571428571428,0.5,0.4,0.5,3.2777777777777777,3.25,2.2222222222222223,2.6666666666666665,1.5,3.4444444444444446,2.0,1.75,2.0,0.75,1.0,1.0,0.665525154506957,0.9084273697564721,-0.4071788439545212,0.9392287201993347,,,,,,,,,,,,,,,,,,,8.530409349225302e-05,-0.025660478533469172,5.9656438087643364e-05,-0.20435036000864068,2.618,1.7333354615175396,,,,,,,,
43,240627_095913,FalseCHOICE,9.0,44,2.0,1068.0,,,,,,,,,,,44.0,44.0,,,B,,,,,,False,cue2.png,Easy,cue1.png,Hard,Right,Hard,Mid,0.0167918999213725,,,,,,,,,,,,,30,28,Female,1.1428571428571428,0.5,0.4,0.5,3.2777777777777777,3.25,2.2222222222222223,2.6666666666666665,1.5,3.4444444444444446,2.0,1.75,2.0,0.75,0.84375,0.875,0.7147385636556216,1.5825085677440158,-0.3358384483895415,1.536427459945605,,,,,,,,,,,,,,,,,,,-0.0001048126001206547,-0.3804932807124335,7.546034576881751e-05,-0.18844567841672138,2.297,1.2407880743658768,,,,,,,,
44,240627_095934,FalseCHOICE,9.0,45,2.0,1068.0,,,,,,,,,,,45.0,45.0,,,B,,,,,,False,cue1.png,Hard,cue2.png,Easy,Right,Easy,Mid,0.0165906001348048,,,,,,,,,,,,,30,28,Female,1.1428571428571428,0.5,0.4,0.5,3.2777777777777777,3.25,2.2222222222222223,2.6666666666666665,1.5,3.4444444444444446,2.0,1.75,2.0,0.75,1.0,1.0,0.5855869636235927,-0.18649436819586288,-0.5351405781545614,-0.13195382364297015,,,,,,,,,,,,,,,,,,,,,0.0011573936541337503,0.9003865977762294,1.355,-0.20463136082685476,,,,,,,,
45,240627_095954,FalseCHOICE,9.0,46,2.0,1068.0,,,,,,,,,,,46.0,46.0,,,B,,,,,,False,cue1.png,Hard,cue2.png,Easy,Right,Easy,Mid,0.0166719001717865,,,,,,,,,,,,,30,28,Female,1.1428571428571428,0.5,0.4,0.5,3.2777777777777777,3.25,2.2222222222222223,2.6666666666666665,1.5,3.4444444444444446,2.0,1.75,2.0,0.75,0.84375,0.875,0.5617206909228116,-0.513393194591768,-0.5767505438700755,-0.48027568097773504,,,,,,,,,,,,,,,,,,,0.000552896228842558,0.8470510362218535,,,1.608,0.1835757698565435,,,,,,,,
46,240627_100016,FalseCHOICE,9.0,47,2.0,1068.0,,,,,,,,,,,47.0,47.0,,,B,,,,,,False,cue2.png,Easy,cue1.png,Hard,Left,Easy,Mid,0.015996899921447,,,,,,,,,,,,,30,28,Female,1.1428571428571428,0.5,0.4,0.5,3.2777777777777777,3.25,2.2222222222222223,2.6666666666666665,1.5,3.4444444444444446,2.0,1.75,2.0,0.75,0.5833333333333334,0.75,0.5997658817901869,0.007715752770009316,-0.5112158969290105,0.06832246251409733,,,,,,,,,,,,,,,,,,,-2.7830037406940348e-05,-0.23681342847261663,-0.0009290830930336665,-1.1993946071071342,1.7349999999999999,0.3784465429663912,,,,,,,,
47,240627_100036,FalseCHOICE,9.0,48,2.0,1068.0,,,,,,,,,,,48.0,48.0,,,B,,,,,,False,cue2.png,Easy,cue1.png,Hard,Left,Easy,Mid,0.0164878000505268,,,,,,,,,,,,,30,28,Female,1.1428571428571428,0.5,0.4,0.5,3.2777777777777777,3.25,2.2222222222222223,2.6666666666666665,1.5,3.4444444444444446,2.0,1.75,2.0,0.75,1.0,1.0,0.5657672727353532,-0.45796674145350474,-0.5695724642489863,-0.4201871425057509,,,,,,,,,,,,,,,,,,,-1.6007535409939214e-05,-0.2147479726063176,-0.00035452242594924063,-0.6211702432617218,1.342,-0.22457876279872882,,,,,,,,
48,240627_100057,FalseCHOICE,9.0,49,2.0,1068.0,,,,,,,,,,,49.0,49.0,,,B,,,,,,False,cue1.png,Hard,cue2.png,Easy,Right,Easy,Mid,0.0164763999637216,,,,,,,,,,,,,30,28,Female,1.1428571428571428,0.5,0.4,0.5,3.2777777777777777,3.25,2.2222222222222223,2.6666666666666665,1.5,3.4444444444444446,2.0,1.75,2.0,0.75,1.0,1.0,0.5074829636776651,-1.2562930015750058,-0.6782921377376988,-1.3302921605518976,,,,,,,,,,,,,,,,,,,0.00018596783138810158,0.16221779515521056,-1.1182483956528703e-05,-0.27564098775442647,,,,,,,,,,
49,240627_100117,FalseCHOICE,9.0,50,2.0,1068.0,,,,,,,,,,,50.0,50.0,,,B,,,,,,False,cue2.png,Easy,cue1.png,Hard,Left,Easy,Mid,0.0167006000410765,,,,,,,,,,,,,30,28,Female,1.1428571428571428,0.5,0.4,0.5,3.2777777777777777,3.25,2.2222222222222223,2.6666666666666665,1.5,3.4444444444444446,2.0,1.75,2.0,0.75,1.0,1.0,0.5598755727141079,-0.5386659711392016,-0.5800407115230989,-0.5078180566595436,,,,,,,,,,,,,,,,,,,0.000811417366841496,1.3295535354786043,0.0016900008901746888,1.4363900137461962,0.742,-1.1452280845775387,,,,,,,,
0,240627_091846,OFFLINERATING,9.0,1,1.0,,,,,,,,,,,,,,,,,T0,cue2.png,Easy,70.0,2.55874040001072,,,,,,,,,,,,,,,,,,,,,,30,28,Female,1.1428571428571428,0.5,0.4,0.5,3.2777777777777777,3.25,2.2222222222222223,2.6666666666666665,1.5,3.4444444444444446,2.0,1.75,2.0,0.75,,,,,,,,,,,,,,,,,,,,,,,,,,,,,,,0.018663083698528475,,,,,,,
1,240627_091855,OFFLINERATING,9.0,2,3.0,,,,,,,,,,,,,,,,,T0,cue1.png,Hard,70.0,2.1857289001345634,,,,,,,,,,,,,,,,,,,,,,30,28,Female,1.1428571428571428,0.5,0.4,0.5,3.2777777777777777,3.25,2.2222222222222223,2.6666666666666665,1.5,3.4444444444444446,2.0,1.75,2.0,0.75,,,,,,,,,,,,,,,,,,,,,,,,,,,,,,,0.018663083698528475,,,,,1.5779999999999998,0.8027006342826858,
2,240627_093808,OFFLINERATING,9.0,3,1.0,,,,,,,,,,,,,,,,,T1,cue2.png,Easy,96.0,1.9133084998466077,,,,,,,,,,,,,,,,,,,,,,30,28,Female,1.1428571428571428,0.5,0.4,0.5,3.2777777777777777,3.25,2.2222222222222223,2.6666666666666665,1.5,3.4444444444444446,2.0,1.75,2.0,0.75,,,,,,,,,,,,,,,,,,,,,,,,,,,,,,,1.95962378834549,,,,,,,
3,240627_093816,OFFLINERATING,9.0,4,3.0,,,,,,,,,,,,,,,,,T1,cue1.png,Hard,47.0,1.9520653998479247,,,,,,,,,,,,,,,,,,,,,,30,28,Female,1.1428571428571428,0.5,0.4,0.5,3.2777777777777777,3.25,2.2222222222222223,2.6666666666666665,1.5,3.4444444444444446,2.0,1.75,2.0,0.75,,,,,,,,,,,,,,,,,,,,,,,,,,,,,,,-1.6983406165660913,,,-0.00016394391185659343,-0.460528587706808,,,
4,240627_094234,OFFLINERATING,9.0,5,1.0,,,,,,,,,,,,,,,,,T2,cue2.png,Easy,80.0,2.1703665000386536,,,,,,,,,,,,,,,,,,,,,,30,28,Female,1.1428571428571428,0.5,0.4,0.5,3.2777777777777777,3.25,2.2222222222222223,2.6666666666666665,1.5,3.4444444444444446,2.0,1.75,2.0,0.75,,,,,,,,,,,,,,,,,,,,,,,,,,,,,,,0.7651864316396675,7.819199498481071e-05,1.5286109181548748,0.000210043826729343,1.3435013171014552,1.445,0.6069917720286124,
5,240627_094242,OFFLINERATING,9.0,6,3.0,,,,,,,,,,,,,,,,,T2,cue1.png,Hard,59.0,1.5188420999329535,,,,,,,,,,,,,,,,,,,,,,30,28,Female,1.1428571428571428,0.5,0.4,0.5,3.2777777777777777,3.25,2.2222222222222223,2.6666666666666665,1.5,3.4444444444444446,2.0,1.75,2.0,0.75,,,,,,,,,,,,,,,,,,,,,,,,,,,,,,,-0.8025125990367244,-6.353804464868723e-05,-1.083644261987863,,,,,
6,240627_100133,OFFLINERATING,9.0,7,1.0,,,,,,,,,,,,,,,,,T3,cue2.png,Easy,69.0,1.8933610999956727,,,,,,,,,,,,,,,,,,,,,,30,28,Female,1.1428571428571428,0.5,0.4,0.5,3.2777777777777777,3.25,2.2222222222222223,2.6666666666666665,1.5,3.4444444444444446,2.0,1.75,2.0,0.75,,,,,,,,,,,,,,,,,,,,,,,,,,,,,,,-0.055989251095585425,-4.077580520342851e-05,-0.6641087982549307,2.5024137943403454e-05,0.45100935249803425,,,
7,240627_100142,OFFLINERATING,9.0,8,3.0,,,,,,,,,,,,,,,,,T3,cue1.png,Hard,67.0,2.470541999908164,,,,,,,,,,,,,,,,,,,,,,30,28,Female,1.1428571428571428,0.5,0.4,0.5,3.2777777777777777,3.25,2.2222222222222223,2.6666666666666665,1.5,3.4444444444444446,2.0,1.75,2.0,0.75,,,,,,,,,,,,,,,,,,,,,,,,,,,,,,,-0.20529392068381322,7.145696391326183e-06,0.21914214208791905,-0.00034501679550442716,-1.3339820818926813,0.07450000000000001,-1.4096924063112983,
0,240627_094258,LEARNINGCHECK,9.0,1,,,,,,,,,,,,1.0,1.0,1.0,,,B,,,,,,,,,,,,,,,cue2.png,Easy,Left,Left,Easy,0.0138918999582529,1.0,,,,,,30,28,Female,1.1428571428571428,0.5,0.4,0.5,3.2777777777777777,3.25,2.2222222222222223,2.6666666666666665,1.5,3.4444444444444446,2.0,1.75,2.0,0.75,,,,,,,,,,,,,,,,,,,,,,,,,,,,,,,,,,,,,,
1,240627_100157,LEARNINGCHECK,9.0,1,,,,,,,,,,,,1.0,1.0,1.0,,,B,,,,,,,,,,,,,,,cue2.png,Easy,Middle,Middle,Mid,0.0146922999992966,1.0,,,,,,30,28,Female,1.1428571428571428,0.5,0.4,0.5,3.2777777777777777,3.25,2.2222222222222223,2.6666666666666665,1.5,3.4444444444444446,2.0,1.75,2.0,0.75,,,,,,,,,,,,,,,,,,,,,,,,,,,,,,,,,,,,,,
2,240627_094303,LEARNINGCHECK,9.0,2,,,,,,,,,,,,2.0,2.0,2.0,,,B,,,,,,,,,,,,,,,cue1.png,Hard,Right,Right,Hard,0.0141155999153852,1.0,,,,,,30,28,Female,1.1428571428571428,0.5,0.4,0.5,3.2777777777777777,3.25,2.2222222222222223,2.6666666666666665,1.5,3.4444444444444446,2.0,1.75,2.0,0.75,,,,,,,,,,,,,,,,,,,,,,,,,,,,,,,,,,,,,,
3,240627_100202,LEARNINGCHECK,9.0,2,,,,,,,,,,,,2.0,2.0,2.0,,,B,,,,,,,,,,,,,,,cue1.png,Hard,Middle,Middle,Mid,0.0142104998230934,1.0,,,,,,30,28,Female,1.1428571428571428,0.5,0.4,0.5,3.2777777777777777,3.25,2.2222222222222223,2.6666666666666665,1.5,3.4444444444444446,2.0,1.75,2.0,0.75,,,,,,,,,,,,,,,,,,,,,,,,,,,,,,,,,,,,,,
0,240627_100218,DEMANDRATING,9.0,-1,,,,,,,,,,,,,,,,,,,,,,,,,,,,,,,,,,,,,,,1.0,MentalDemand,1.0,10.0,5.353005199925974,30,28,Female,1.1428571428571428,0.5,0.4,0.5,3.2777777777777777,3.25,2.2222222222222223,2.6666666666666665,1.5,3.4444444444444446,2.0,1.75,2.0,0.75,,,,,,,,,,,,,,,,,,,,,,,,,,,,,,,,,,,,,,-1.4047424708709915
1,240627_100225,DEMANDRATING,9.0,-1,,,,,,,,,,,,,,,,,,,,,,,,,,,,,,,,,,,,,,,2.0,Effort,1.0,21.0,5.037068299949169,30,28,Female,1.1428571428571428,0.5,0.4,0.5,3.2777777777777777,3.25,2.2222222222222223,2.6666666666666665,1.5,3.4444444444444446,2.0,1.75,2.0,0.75,,,,,,,,,,,,,,,,,,,,,,,,,,,,,,,,,,,,,,-1.0720403067173356
2,240627_100231,DEMANDRATING,9.0,-1,,,,,,,,,,,,,,,,,,,,,,,,,,,,,,,,,,,,,,,3.0,Frustration,1.0,14.0,4.253764499910176,30,28,Female,1.1428571428571428,0.5,0.4,0.5,3.2777777777777777,3.25,2.2222222222222223,2.6666666666666665,1.5,3.4444444444444446,2.0,1.75,2.0,0.75,,,,,,,,,,,,,,,,,,,,,,,,,,,,,,,,,,,,,,-1.2837598657242075
3,240627_100236,DEMANDRATING,9.0,-1,,,,,,,,,,,,,,,,,,,,,,,,,,,,,,,,,,,,,,,4.0,MentalDemand,2.0,53.0,4.246068499982357,30,28,Female,1.1428571428571428,0.5,0.4,0.5,3.2777777777777777,3.25,2.2222222222222223,2.6666666666666665,1.5,3.4444444444444446,2.0,1.75,2.0,0.75,,,,,,,,,,,,,,,,,,,,,,,,,,,,,,,,,,,,,,-0.10417946554306391
4,240627_100241,DEMANDRATING,9.0,-1,,,,,,,,,,,,,,,,,,,,,,,,,,,,,,,,,,,,,,,5.0,Effort,2.0,58.0,3.0915835998021066,30,28,Female,1.1428571428571428,0.5,0.4,0.5,3.2777777777777777,3.25,2.2222222222222223,2.6666666666666665,1.5,3.4444444444444446,2.0,1.75,2.0,0.75,,,,,,,,,,,,,,,,,,,,,,,,,,,,,,,,,,,,,,0.04704879089041603
5,240627_100245,DEMANDRATING,9.0,-1,,,,,,,,,,,,,,,,,,,,,,,,,,,,,,,,,,,,,,,6.0,Frustration,2.0,67.0,2.508775500115007,30,28,Female,1.1428571428571428,0.5,0.4,0.5,3.2777777777777777,3.25,2.2222222222222223,2.6666666666666665,1.5,3.4444444444444446,2.0,1.75,2.0,0.75,,,,,,,,,,,,,,,,,,,,,,,,,,,,,,,,,,,,,,0.31925965247067994
6,240627_100250,DEMANDRATING,9.0,-1,,,,,,,,,,,,,,,,,,,,,,,,,,,,,,,,,,,,,,,7.0,MentalDemand,3.0,93.0,3.2261505001224577,30,28,Female,1.1428571428571428,0.5,0.4,0.5,3.2777777777777777,3.25,2.2222222222222223,2.6666666666666665,1.5,3.4444444444444446,2.0,1.75,2.0,0.75,,,,,,,,,,,,,,,,,,,,,,,,,,,,,,,,,,,,,,1.1056465859247757
7,240627_100254,DEMANDRATING,9.0,-1,,,,,,,,,,,,,,,,,,,,,,,,,,,,,,,,,,,,,,,8.0,Effort,3.0,92.0,2.9535112001467496,30,28,Female,1.1428571428571428,0.5,0.4,0.5,3.2777777777777777,3.25,2.2222222222222223,2.6666666666666665,1.5,3.4444444444444446,2.0,1.75,2.0,0.75,,,,,,,,,,,,,,,,,,,,,,,,,,,,,,,,,,,,,,1.0754009346380797
8,240627_100259,DEMANDRATING,9.0,-1,,,,,,,,,,,,,,,,,,,,,,,,,,,,,,,,,,,,,,,9.0,Frustration,3.0,100.0,2.7205087000038475,30,28,Female,1.1428571428571428,0.5,0.4,0.5,3.2777777777777777,3.25,2.2222222222222223,2.6666666666666665,1.5,3.4444444444444446,2.0,1.75,2.0,0.75,,,,,,,,,,,,,,,,,,,,,,,,,,,,,,,,,,,,,,1.3173661449316476
