,END,Phase,Block,TrialN,NbackLevel,ISI,Letter_Resp,Letter_RT,Letter_Accuracy,Trial_A_measure,Trial_ACC,Trial_RT,TrialCountCali,CaliEnd_A_measure,ISI_calibrated,TrialIndex,TrialNumber_total,TrialNumber_valid,CueLearning,TrialDemandLearning,CueMapping,OfflineRatingTimePoint,CueFigure,TrialDemand,OfflineRating,OfflineRatingRT,PhaseType,CueLeft,CueDemandLeft,CueRight,CueDemandRight,Choice,ChoiceDemand,TaskDemand,ChoiceRT,CueCheck,CueDemandCheck,CorrectAnswer,Answer,AnswerDemand,AnswerRT,AnswerACC,DemandRatingQuesIndex,QuesTLX,DemandLevel,DemandRating,DemandRatingRT,PID,Age,Gender,BAI_bis,BAI_bas_d,BAI_bas_rr,BAI_bas_fs,NFC,BFI_ext,BFI_agr,BFI_con,BFI_neu,BFI_open,UPPS_lps,UPPS_lpm,UPPS_pu,UPPS_ss,Task_A_measure,Task_ACC,Task_RT,Task_RT_z,cue_i_on_zyg_values,cue_i_on_zyg_zvalues,cue_e_on_zyg_values,cue_e_on_zyg_zvalues,cue_i_on_cor_values,cue_i_on_cor_zvalues,cue_e_on_cor_values,cue_e_on_cor_zvalues,cue_i_on_scr_values,cue_i_on_scr_zvalues,cue_e_on_scr_values,cue_e_on_scr_zvalues,cue_e_true_zyg_values,cue_e_true_zyg_zvalues,cue_e_true_cor_values,cue_e_true_cor_zvalues,cue_e_true_scr_values,cue_e_true_scr_zvalues,cue_e_false_zyg_values,cue_e_false_zyg_zvalues,cue_e_false_cor_values,cue_e_false_cor_zvalues,cue_e_false_scr_values,cue_e_false_scr_zvalues,OfflineRating_z,cue_i_off_zyg_values,cue_i_off_zyg_zvalues,cue_i_off_cor_values,cue_i_off_cor_zvalues,cue_i_off_scr_values,cue_i_off_scr_zvalues,DemandRating_z
0,240627_091641,PRACTICE,0.0,1,3.0,1068.0,,,,,,,,,,7.0,1.0,1.0,cue1.png,Hard,B,,,,,,,,,,,,,,,,,,,,,,,,,,,30,28,Female,1.1428571428571428,0.5,0.4,0.5,3.2777777777777777,3.25,2.2222222222222223,2.6666666666666665,1.5,3.4444444444444446,2.0,1.75,2.0,0.75,,,,,,,,,,,,,,,,,,,,,,,,,,,,,,,,,,,,
0,240627_091931,LEARNING,1.0,1,1.0,1068.0,,,,,,,,,,1.0,1.0,1.0,cue2.png,Easy,B,,,,,,,,,,,,,,,,,,,,,,,,,,,30,28,Female,1.1428571428571428,0.5,0.4,0.5,3.2777777777777777,3.25,2.2222222222222223,2.6666666666666665,1.5,3.4444444444444446,2.0,1.75,2.0,0.75,0.1875,0.6590909090909091,0.4629948699846863,-0.5450772948637685,0.008478426444352323,-0.24285927827393558,,,,,,,,,,,,,,,,,,,,,,,,,,,,,,
1,240627_091955,LEARNING,1.0,2,3.0,1068.0,,,,,,,,,,2.0,2.0,2.0,cue1.png,Hard,B,,,,,,,,,,,,,,,,,,,,,,,,,,,30,28,Female,1.1428571428571428,0.5,0.4,0.5,3.2777777777777777,3.25,2.2222222222222223,2.6666666666666665,1.5,3.4444444444444446,2.0,1.75,2.0,0.75,0.7083333333333334,0.7840909090909091,0.5113670500228181,0.22283463783064705,0.008824612276281073,-0.007410455548908248,,,,,,,9.332421392357883e+43,-0.17668582757411672,4.2806028822464676e+44,-0.17375057707129607,,,,,,,,,,,,,,,,,,,,
2,240627_092017,LEARNING,1.0,3,1.0,1068.0,,,,,,,,,,3.0,3.0,3.0,cue2.png,Easy,B,,,,,,,,,,,,,,,,,,,,,,,,,,,30,28,Female,1.1428571428571428,0.5,0.4,0.5,3.2777777777777777,3.25,2.2222222222222223,2.6666666666666665,1.5,3.4444444444444446,2.0,1.75,2.0,0.75,1.0,1.0,0.5097405182155357,0.19701332519320558,0.010390948158156665,1.0578900431019949,0.008118249428216356,-0.40769537111369003,,,,,-4.453587032514614e+44,-0.17716085177854551,-2.820854611480496e+44,-0.17429374780320445,,,,,,,,,,,,,,,,,,,,
3,240627_092040,LEARNING,1.0,4,3.0,1068.0,,,,,,,,,,4.0,4.0,4.0,cue1.png,Hard,B,,,,,,,,,,,,,,,,,,,,,,,,,,,30,28,Female,1.1428571428571428,0.5,0.4,0.5,3.2777777777777777,3.25,2.2222222222222223,2.6666666666666665,1.5,3.4444444444444446,2.0,1.75,2.0,0.75,0.84375,0.875,0.5443991453767839,0.7472215925681482,0.008754816202003978,-0.05488034600575649,0.007631115350406021,-0.6873602339334446,0.01619194382379663,-1.9930148984890825,,,-4.525433707395181e+44,-0.17716718739983364,-3.374533470482471e+44,-0.17433609715914328,,,,,,,,,,,,,,,,,,,,
4,240627_092103,LEARNING,1.0,5,3.0,1068.0,,,,,,,,,,5.0,5.0,5.0,cue1.png,Hard,B,,,,,,,,,,,,,,,,,,,,,,,,,,,30,28,Female,1.1428571428571428,0.5,0.4,0.5,3.2777777777777777,3.25,2.2222222222222223,2.6666666666666665,1.5,3.4444444444444446,2.0,1.75,2.0,0.75,0.5833333333333334,0.75,0.5695154818240553,1.145945289706117,0.011319732671345412,1.6895774203038891,0.011812896105787172,1.7134103024922616,,,0.01914453973810312,-1.4001255167836764,6.615394897230568e+48,5.656854213491802,7.738077969245353e+48,5.744562625551781,,,,,,,,,,,,,,,,,,,,
5,240627_092124,LEARNING,1.0,6,1.0,1068.0,,,,,,,,,,6.0,6.0,6.0,cue2.png,Easy,B,,,,,,,,,,,,,,,,,,,,,,,,,,,30,28,Female,1.1428571428571428,0.5,0.4,0.5,3.2777777777777777,3.25,2.2222222222222223,2.6666666666666665,1.5,3.4444444444444446,2.0,1.75,2.0,0.75,1.0,1.0,0.4263722454197705,-1.1264641661566719,0.009328863134382442,0.33554197042584205,0.008938525484928623,0.06322711475699233,,,0.02830331223695015,-0.7053362705153233,,,-4.973481813166104e+43,-0.17411602925889424,,,,,,,,,,,,,,,,,,,,
6,240627_092146,LEARNING,1.0,7,3.0,1068.0,,,,,,,,,,7.0,7.0,7.0,cue1.png,Hard,B,,,,,,,,,,,,,,,,,,,,,,,,,,,30,28,Female,1.1428571428571428,0.5,0.4,0.5,3.2777777777777777,3.25,2.2222222222222223,2.6666666666666665,1.5,3.4444444444444446,2.0,1.75,2.0,0.75,0.5833333333333334,0.75,0.468424281803891,-0.4588849810132719,0.00965062701128123,0.5543808685666887,0.012544121636448292,2.1332086640477947,0.017404872513298492,-1.8537406225824462,0.019773899507411208,-1.3523819572832916,,,,,,,,,,,,,,,,,,,,,,,,
7,240627_092209,LEARNING,1.0,8,3.0,1068.0,,,,,,,,,,8.0,8.0,8.0,cue1.png,Hard,B,,,,,,,,,,,,,,,,,,,,,,,,,,,30,28,Female,1.1428571428571428,0.5,0.4,0.5,3.2777777777777777,3.25,2.2222222222222223,2.6666666666666665,1.5,3.4444444444444446,2.0,1.75,2.0,0.75,0.84375,0.875,0.5583014272534373,0.9679213447055918,0.009360461856001517,0.35703297646550614,0.010258763488342969,0.8211789742819113,0.020914548098814403,-1.450742878303946,0.017105446003402275,-1.5548122282596595,,,,,,,,,,,,,,,,,,,,,,,,
8,240627_092230,LEARNING,1.0,9,1.0,1068.0,,,,,,,,,,9.0,9.0,9.0,cue2.png,Easy,B,,,,,,,,,,,,,,,,,,,,,,,,,,,30,28,Female,1.1428571428571428,0.5,0.4,0.5,3.2777777777777777,3.25,2.2222222222222223,2.6666666666666665,1.5,3.4444444444444446,2.0,1.75,2.0,0.75,1.0,1.0,0.4033851909493519,-1.4913853545632278,0.008651417799734709,-0.12520394056279424,,,0.020216270931094273,-1.5309224039084548,,,,,,,,,,,,,,,,,,,,,,,,,,
9,240627_092252,LEARNING,1.0,10,1.0,1068.0,,,,,,,,,,10.0,10.0,10.0,cue2.png,Easy,B,,,,,,,,,,,,,,,,,,,,,,,,,,,30,28,Female,1.1428571428571428,0.5,0.4,0.5,3.2777777777777777,3.25,2.2222222222222223,2.6666666666666665,1.5,3.4444444444444446,2.0,1.75,2.0,0.75,1.0,1.0,0.4141546636819839,-1.3204191790942703,0.010865259897831783,1.3804801967456903,,,0.015678566105784282,-2.051963384547348,0.01935086905301663,-1.3844732676192966,2.1083342681689482e+44,-0.17658220498170105,,,,,,,,,,,,,,,,,,,,,,
10,240627_092314,LEARNING,1.0,11,3.0,1068.0,,,,,,,,,,11.0,11.0,11.0,cue1.png,Hard,B,,,,,,,,,,,,,,,,,,,,,,,,,,,30,28,Female,1.1428571428571428,0.5,0.4,0.5,3.2777777777777777,3.25,2.2222222222222223,2.6666666666666665,1.5,3.4444444444444446,2.0,1.75,2.0,0.75,0.84375,0.875,0.4615099818488075,-0.568650003750547,0.010746833195356725,1.2999355149439857,,,0.02276679157821455,-1.2380594191451149,0.019359539109694995,-1.3838155526094058,1.7391245679563098e+44,-0.17661476282575347,1.3644312044466285e+44,-0.1739736269319761,,,,,,,,,,,,,,,,,,,,
11,240627_092336,LEARNING,1.0,12,1.0,1068.0,,,,,,,,,,12.0,12.0,12.0,cue2.png,Easy,B,,,,,,,,,,,,,,,,,,,,,,,,,,,30,28,Female,1.1428571428571428,0.5,0.4,0.5,3.2777777777777777,3.25,2.2222222222222223,2.6666666666666665,1.5,3.4444444444444446,2.0,1.75,2.0,0.75,1.0,1.0,0.4626008545641195,-0.5513323187820695,,,0.00767041200684733,-0.6647999275752173,0.04543927444023362,1.3653035492995982,0.020634087286634028,-1.2871276648712124,1.9814400576274162e+43,-0.17675065038451163,3.719891403131774e+43,-0.17404953606511225,,,,,,,,,,,,,,,,,,,,
12,240627_092358,LEARNING,1.0,13,1.0,1068.0,,,,,,,,,,13.0,13.0,13.0,cue2.png,Easy,B,,,,,,,,,,,,,,,,,,,,,,,,,,,30,28,Female,1.1428571428571428,0.5,0.4,0.5,3.2777777777777777,3.25,2.2222222222222223,2.6666666666666665,1.5,3.4444444444444446,2.0,1.75,2.0,0.75,0.84375,0.875,0.4736499727534299,-0.3759267510232078,0.008128319513345656,-0.4809749292644063,0.007884813023402559,-0.5417117807700178,0.020856982368287386,-1.4573528509310092,0.019762300418674623,-1.353261870188837,,,,,,,,,,,,,,,,,,,,,,,,
13,240627_092419,LEARNING,1.0,14,1.0,1068.0,,,,,,,,,,14.0,14.0,14.0,cue2.png,Easy,B,,,,,,,,,,,,,,,,,,,,,,,,,,,30,28,Female,1.1428571428571428,0.5,0.4,0.5,3.2777777777777777,3.25,2.2222222222222223,2.6666666666666665,1.5,3.4444444444444446,2.0,1.75,2.0,0.75,1.0,1.0,0.3946288999974389,-1.6303921204939251,0.008998599856804741,0.11092243743760959,0.010559883002643766,0.9940524222611997,0.017662652704659824,-1.8241410675503458,0.019698281457392698,-1.358118381895133,,,,,,,,,,,,,,,,,,,,,,,,
14,240627_092441,LEARNING,1.0,15,3.0,1068.0,,,,,,,,,,15.0,15.0,15.0,cue1.png,Hard,B,,,,,,,,,,,,,,,,,,,,,,,,,,,30,28,Female,1.1428571428571428,0.5,0.4,0.5,3.2777777777777777,3.25,2.2222222222222223,2.6666666666666665,1.5,3.4444444444444446,2.0,1.75,2.0,0.75,0.84375,0.875,0.4844070909206163,-0.20515670519367238,,,0.006838132707558716,-1.1426135043003838,0.03402776280057311,0.05497917955730939,0.08548625985091927,3.632591882751265,,,,,,,,,,,,,,,,,,,,,,,,
15,240627_092503,LEARNING,1.0,16,1.0,1068.0,,,,,,,,,,16.0,16.0,16.0,cue2.png,Easy,B,,,,,,,,,,,,,,,,,,,,,,,,,,,30,28,Female,1.1428571428571428,0.5,0.4,0.5,3.2777777777777777,3.25,2.2222222222222223,2.6666666666666665,1.5,3.4444444444444446,2.0,1.75,2.0,0.75,1.0,1.0,0.5017429454336789,0.07005126627961973,0.0075748807841500305,-0.8573811400950219,0.0086573796788525,-0.0981793785888526,0.03071264873000843,-0.3256780806113957,0.03021387738592017,-0.5603998044150276,,,,,,,,,,,,,,,,,,,,,,,,
16,240627_092524,LEARNING,1.0,17,1.0,1068.0,,,,,,,,,,17.0,17.0,17.0,cue2.png,Easy,B,,,,,,,,,,,,,,,,,,,,,,,,,,,30,28,Female,1.1428571428571428,0.5,0.4,0.5,3.2777777777777777,3.25,2.2222222222222223,2.6666666666666665,1.5,3.4444444444444446,2.0,1.75,2.0,0.75,1.0,1.0,0.3924482545646077,-1.665010027884632,0.006494542895161466,-1.592143399689604,0.009228706747555427,0.22982088575772588,0.033324471086460625,-0.025776140258219695,0.037463917144312166,-0.01040801678378233,,,,,,,,,,,,,,,,,,,,,,,,
17,240627_092546,LEARNING,1.0,18,3.0,1068.0,,,,,,,,,,18.0,18.0,18.0,cue1.png,Hard,B,,,,,,,,,,,,,,,,,,,,,,,,,,,30,28,Female,1.1428571428571428,0.5,0.4,0.5,3.2777777777777777,3.25,2.2222222222222223,2.6666666666666665,1.5,3.4444444444444446,2.0,1.75,2.0,0.75,0.84375,0.875,0.4435404636262154,-0.8539174334388602,0.008954878059812309,0.08118625334267678,0.00797074599155229,-0.4923774540538199,0.0356109065797746,0.236763323516289,0.039476411643750924,0.1422608628679705,,,,,,,,,,,,,,,,,,,,,,,,
18,240627_092610,LEARNING,1.0,19,3.0,1068.0,,,,,,,,,,19.0,19.0,19.0,cue1.png,Hard,B,,,,,,,,,,,,,,,,,,,,,,,,,,,30,28,Female,1.1428571428571428,0.5,0.4,0.5,3.2777777777777777,3.25,2.2222222222222223,2.6666666666666665,1.5,3.4444444444444446,2.0,1.75,2.0,0.75,1.0,1.0,0.614849854557013,1.865631806944158,0.009190440125769037,0.24139734805784635,0.010085652526425974,0.7217955486042653,0.03536545587604659,0.20857949924997374,0.03545830604712871,-0.16255471795961743,7.399919224307581e+43,-0.17670286886641812,,,,,,,,,,,,,,,,,,,,,,
19,240627_092633,LEARNING,1.0,20,3.0,1068.0,,,,,,,,,,20.0,20.0,20.0,cue1.png,Hard,B,,,,,,,,,,,,,,,,,,,,,,,,,,,30,28,Female,1.1428571428571428,0.5,0.4,0.5,3.2777777777777777,3.25,2.2222222222222223,2.6666666666666665,1.5,3.4444444444444446,2.0,1.75,2.0,0.75,0.84375,0.875,0.6156071091113104,1.8776532789529403,0.009964367430849365,0.7677628317077364,0.009727937786880565,0.5164306437032335,0.04899686463581181,1.7738030783734704,0.04196929286474092,0.3313721291196666,5.628281266270534e+43,-0.17671849161747855,4.355998392749673e+43,-0.1740446706596736,,,,,,,,,,,,,,,,,,,,
20,240627_092655,LEARNING,1.0,21,1.0,1068.0,,,,,,,,,,21.0,21.0,21.0,cue2.png,Easy,B,,,,,,,,,,,,,,,,,,,,,,,,,,,30,28,Female,1.1428571428571428,0.5,0.4,0.5,3.2777777777777777,3.25,2.2222222222222223,2.6666666666666665,1.5,3.4444444444444446,2.0,1.75,2.0,0.75,1.0,1.0,0.4858831090810285,-0.1817248078228966,,,0.010332226529924873,0.8633542857252718,0.04118118488133484,0.8763693314893227,0.03853027416639007,0.07048638164305297,2.38113130386682e+43,-0.17674712580613336,2.3295116855878736e+43,-0.1740601706928556,,,,,,,,,,,,,,,,,,,,
21,240627_092718,LEARNING,1.0,22,3.0,1068.0,,,,,,,,,,22.0,22.0,22.0,cue1.png,Hard,B,,,,,,,,,,,,,,,,,,,,,,,,,,,30,28,Female,1.1428571428571428,0.5,0.4,0.5,3.2777777777777777,3.25,2.2222222222222223,2.6666666666666665,1.5,3.4444444444444446,2.0,1.75,2.0,0.75,0.84375,0.875,0.5685917090370574,1.1312803284479125,0.008388609540591195,-0.3039457881797397,0.011584985978669419,1.5825665423469575,0.03555333766374502,0.23015298511457927,0.04323312048017268,0.4272467494849503,-8.419095697023836e+42,-0.17677554739475246,-4.365230276864371e+42,-0.1740813273230406,,,,,,,,,,,,,,,,,,,,
22,240627_092742,LEARNING,1.0,23,3.0,1068.0,,,,,,,,,,23.0,23.0,23.0,cue1.png,Hard,B,,,,,,,,,,,,,,,,,,,,,,,,,,,30,28,Female,1.1428571428571428,0.5,0.4,0.5,3.2777777777777777,3.25,2.2222222222222223,2.6666666666666665,1.5,3.4444444444444446,2.0,1.75,2.0,0.75,0.84375,0.875,0.5898159090852872,1.468216072631473,0.009720199194781589,0.6016984858368852,0.008778960840837725,-0.028379336799735876,0.039620318201494906,0.6971431506733824,0.034205213847635585,-0.25761494408710167,-3.9153802841874715e+43,-0.1768026500359247,,,,,,,,,,,,,,,,,,,,,,
23,240627_092805,LEARNING,1.0,24,3.0,1068.0,,,,,,,,,,24.0,24.0,24.0,cue1.png,Hard,B,,,,,,,,,,,,,,,,,,,,,,,,,,,30,28,Female,1.1428571428571428,0.5,0.4,0.5,3.2777777777777777,3.25,2.2222222222222223,2.6666666666666665,1.5,3.4444444444444446,2.0,1.75,2.0,0.75,0.84375,0.875,0.5570561545901,0.9481525491524238,0.008213585692091335,-0.42298347048031715,,,0.03133472538675842,-0.2542482622905368,0.03693959668054918,-0.05018323992278042,-5.457068448533641e+43,-0.17681624503161508,-3.783442197413906e+43,-0.1741069269768675,,,,,,,,,,,,,,,,,,,,
24,240627_092826,LEARNING,1.0,25,1.0,1068.0,,,,,,,,,,25.0,25.0,25.0,cue2.png,Easy,B,,,,,,,,,,,,,,,,,,,,,,,,,,,30,28,Female,1.1428571428571428,0.5,0.4,0.5,3.2777777777777777,3.25,2.2222222222222223,2.6666666666666665,1.5,3.4444444444444446,2.0,1.75,2.0,0.75,1.0,1.0,0.4194042181850157,-1.237082113429046,0.009645046941038779,0.550585736449386,0.009638447480965455,0.4650540406949925,0.03758629902961869,0.4635873367206115,0.04778454443755613,0.77252013859864,-5.40099242045021e+43,-0.17681575053903367,-3.8768960934849556e+43,-0.17410764177972554,,,,,,,,,,,,,,,,,,,,
25,240627_092848,LEARNING,1.0,26,1.0,1068.0,,,,,,,,,,26.0,26.0,26.0,cue2.png,Easy,B,,,,,,,,,,,,,,,,,,,,,,,,,,,30,28,Female,1.1428571428571428,0.5,0.4,0.5,3.2777777777777777,3.25,2.2222222222222223,2.6666666666666665,1.5,3.4444444444444446,2.0,1.75,2.0,0.75,1.0,1.0,0.4496339817997068,-0.7571823821381818,0.007805926187974774,-0.7002419295632618,0.008231370785592414,-0.34275212379507963,,,0.046120826982871205,0.6463096670000106,-3.8268295720080826e+43,-0.1768018691733753,-2.9602830914152417e+43,-0.17410063086181676,,,,,,,,,,,,,,,,,,,,
26,240627_092910,LEARNING,1.0,27,3.0,1068.0,,,,,,,,,,27.0,27.0,27.0,cue1.png,Hard,B,,,,,,,,,,,,,,,,,,,,,,,,,,,30,28,Female,1.1428571428571428,0.5,0.4,0.5,3.2777777777777777,3.25,2.2222222222222223,2.6666666666666665,1.5,3.4444444444444446,2.0,1.75,2.0,0.75,0.84375,0.875,0.5042705090970478,0.11017652621654546,,,,,0.03214257309212042,-0.1614873232667113,0.03208467665046197,-0.4184799989941578,1.5482182932868232e+44,-0.1766315974233162,9.445142657445842e+43,-0.1740057452106727,,,,,,,,,,,,,,,,,,,,
27,240627_092932,LEARNING,1.0,28,1.0,1068.0,,,,,,,,,,28.0,28.0,28.0,cue2.png,Easy,B,,,,,,,,,,,,,,,,,,,,,,,,,,,30,28,Female,1.1428571428571428,0.5,0.4,0.5,3.2777777777777777,3.25,2.2222222222222223,2.6666666666666665,1.5,3.4444444444444446,2.0,1.75,2.0,0.75,1.0,1.0,0.4696310636460442,-0.439727230090782,0.01127467562998764,1.6589331062831356,0.014690029277924453,3.365179477658079,0.03428876698180275,0.08494892853265211,,,1.3111606813389489e+43,-0.17675656107737592,7.997392123309811e+42,-0.17407187149701708,,,,,,,,,,,,,,,,,,,,
28,240627_092954,LEARNING,1.0,29,1.0,1068.0,,,,,,,,,,29.0,29.0,29.0,cue2.png,Easy,B,,,,,,,,,,,,,,,,,,,,,,,,,,,30,28,Female,1.1428571428571428,0.5,0.4,0.5,3.2777777777777777,3.25,2.2222222222222223,2.6666666666666665,1.5,3.4444444444444446,2.0,1.75,2.0,0.75,1.0,1.0,0.4679833363360641,-0.4658850228998457,0.00803416822599042,-0.5450093515928118,0.008621862654835234,-0.11856978874903444,0.04006840676930908,0.748594824101926,,,3.3815800853314224e+43,-0.17673830359604772,2.322317300216843e+43,-0.17406022572070826,,,,,,,,,,,,,,,,,,,,
29,240627_093017,LEARNING,1.0,30,3.0,1068.0,,,,,,,,,,30.0,30.0,30.0,cue1.png,Hard,B,,,,,,,,,,,,,,,,,,,,,,,,,,,30,28,Female,1.1428571428571428,0.5,0.4,0.5,3.2777777777777777,3.25,2.2222222222222223,2.6666666666666665,1.5,3.4444444444444446,2.0,1.75,2.0,0.75,1.0,1.0,0.5644240363458679,1.065118216494179,0.008696460757722058,-0.09456920496114482,0.007739796991107969,-0.6249658387916407,0.03961337339837015,0.696345715148206,0.04603261273519632,0.6396176882812601,,,3.2509464207794256e+43,-0.17405312289485128,,,,,,,,,,,,,,,,,,,,
30,240627_093041,LEARNING,1.0,31,3.0,1068.0,,,,,,,,,,31.0,31.0,31.0,cue1.png,Hard,B,,,,,,,,,,,,,,,,,,,,,,,,,,,30,28,Female,1.1428571428571428,0.5,0.4,0.5,3.2777777777777777,3.25,2.2222222222222223,2.6666666666666665,1.5,3.4444444444444446,2.0,1.75,2.0,0.75,0.84375,0.875,0.666340618182651,2.683051484546145,0.009051952993029896,0.14720911342002302,0.008882083392340274,0.03082357166689824,,,,,,,3.395711944454799e+43,-0.17405201562362535,,,,,,,,,,,,,,,,,,,,
31,240627_093103,LEARNING,1.0,32,1.0,1068.0,,,,,,,,,,32.0,32.0,32.0,cue2.png,Easy,B,,,,,,,,,,,,,,,,,,,,,,,,,,,30,28,Female,1.1428571428571428,0.5,0.4,0.5,3.2777777777777777,3.25,2.2222222222222223,2.6666666666666665,1.5,3.4444444444444446,2.0,1.75,2.0,0.75,1.0,1.0,0.4573374272916805,-0.6348896156867974,0.008227456186074476,-0.41354983346302454,0.008859028587668419,0.017587752044357006,,,,,3.6461656952300607e+43,-0.1767359704133007,2.7297395805477024e+43,-0.17405710946100525,,,,,,,,,,,,,,,,,,,,
32,240627_093125,LEARNING,1.0,33,1.0,1068.0,,,,,,,,,,33.0,33.0,33.0,cue2.png,Easy,B,,,,,,,,,,,,,,,,,,,,,,,,,,,30,28,Female,1.1428571428571428,0.5,0.4,0.5,3.2777777777777777,3.25,2.2222222222222223,2.6666666666666665,1.5,3.4444444444444446,2.0,1.75,2.0,0.75,1.0,1.0,0.4376943091311576,-0.9467255680648178,0.009130301212353455,0.2004955113628789,0.00886439818391603,0.020670450353487687,0.04167735918479992,0.9333424391721489,0.03834702117818238,0.056584714627164835,1.4167251833246508e+43,-0.17675563018293,1.2474040934254384e+43,-0.17406844743285377,,,,,,,,,,,,,,,,,,,,
33,240627_093146,LEARNING,1.0,34,1.0,1068.0,,,,,,,,,,34.0,34.0,34.0,cue2.png,Easy,B,,,,,,,,,,,,,,,,,,,,,,,,,,,30,28,Female,1.1428571428571428,0.5,0.4,0.5,3.2777777777777777,3.25,2.2222222222222223,2.6666666666666665,1.5,3.4444444444444446,2.0,1.75,2.0,0.75,1.0,1.0,0.4341328727843409,-1.0032636332522098,0.006690424829282317,-1.4589196610839525,0.007431714494713953,-0.801836751782348,0.030626331777221457,-0.33558940615091304,0.03377285579701857,-0.29041385072487097,-6.584215957514895e+42,-0.17677392935144592,-4.622792158228047e+42,-0.1740815243249599,,,,,,,,,,,,,,,,,,,,
34,240627_093209,LEARNING,1.0,35,3.0,1068.0,,,,,,,,,,35.0,35.0,35.0,cue1.png,Hard,B,,,,,,,,,,,,,,,,,,,,,,,,,,,30,28,Female,1.1428571428571428,0.5,0.4,0.5,3.2777777777777777,3.25,2.2222222222222223,2.6666666666666665,1.5,3.4444444444444446,2.0,1.75,2.0,0.75,1.0,1.0,0.5651815908918665,1.0771444508933858,,,0.007989510699938931,-0.4816045891777022,0.03662373785718234,0.35306145711430703,0.037756249834926196,0.011768493201250133,-3.039752098156443e+43,-0.17679492852538145,-1.9923840014953157e+43,-0.1740932276708866,,,,,,,,,,,,,,,,,,,,
35,240627_093231,LEARNING,1.0,36,3.0,1068.0,,,,,,,,,,36.0,36.0,36.0,cue1.png,Hard,B,,,,,,,,,,,,,,,,,,,,,,,,,,,30,28,Female,1.1428571428571428,0.5,0.4,0.5,3.2777777777777777,3.25,2.2222222222222223,2.6666666666666665,1.5,3.4444444444444446,2.0,1.75,2.0,0.75,0.84375,0.875,0.475518127289516,-0.3462696597106637,,,,,0.045249204258866624,1.3434787816026583,,,-4.1468026129183034e+43,-0.17680469077648076,-2.8937224833237826e+43,-0.17410012175823847,,,,,,,,,,,,,,,,,,,,
36,240627_093253,LEARNING,1.0,37,1.0,1068.0,,,,,,,,,,37.0,37.0,37.0,cue2.png,Easy,B,,,,,,,,,,,,,,,,,,,,,,,,,,,30,28,Female,1.1428571428571428,0.5,0.4,0.5,3.2777777777777777,3.25,2.2222222222222223,2.6666666666666665,1.5,3.4444444444444446,2.0,1.75,2.0,0.75,1.0,1.0,0.4714473908640105,-0.41089290128330463,,,0.008815308889464364,-0.007511833383371049,0.03551957921521433,0.22627667852249533,0.057646195696506676,1.5206301332546,-4.23129726859557e+43,-0.17680543587169936,-3.061130663290035e+43,-0.1741014022168446,,,,,,,,,,,,,,,,,,,,
37,240627_093316,LEARNING,1.0,38,3.0,1068.0,,,,,,,,,,38.0,38.0,38.0,cue1.png,Hard,B,,,,,,,,,,,,,,,,,,,,,,,,,,,30,28,Female,1.1428571428571428,0.5,0.4,0.5,3.2777777777777777,3.25,2.2222222222222223,2.6666666666666665,1.5,3.4444444444444446,2.0,1.75,2.0,0.75,1.0,1.0,0.5112870636353777,0.22156484801922616,0.006464574470435912,-1.612525603898375,0.006304263029034567,-1.4491093895383984,0.04168452962640139,0.9341657835868852,0.04336615319155197,0.4373386801754321,-3.022778987124928e+43,-0.17679477885220068,-2.126262271115693e+43,-0.17409425166853443,,,,,,,,,,,,,,,,,,,,
38,240627_093339,LEARNING,1.0,39,3.0,1068.0,,,,,,,,,,39.0,39.0,39.0,cue1.png,Hard,B,,,,,,,,,,,,,,,,,,,,,,,,,,,30,28,Female,1.1428571428571428,0.5,0.4,0.5,3.2777777777777777,3.25,2.2222222222222223,2.6666666666666665,1.5,3.4444444444444446,2.0,1.75,2.0,0.75,0.5833333333333334,0.75,0.6207130727231164,1.958710828608928,0.008102392244050623,-0.49860865216398065,,,0.03497809390044382,0.16410074371159408,0.04553492107101218,0.6018625397309416,-4.482755115518661e+42,-0.1767720762301889,-5.84120503769846e+42,-0.17408245625508284,,,,,,,,,,,,,,,,,,,,
39,240627_093402,LEARNING,1.0,40,3.0,1068.0,,,,,,,,,,40.0,40.0,40.0,cue1.png,Hard,B,,,,,,,,,,,,,,,,,,,,,,,,,,,30,28,Female,1.1428571428571428,0.5,0.4,0.5,3.2777777777777777,3.25,2.2222222222222223,2.6666666666666665,1.5,3.4444444444444446,2.0,1.75,2.0,0.75,1.0,1.0,0.5410338818222623,0.693797784955144,0.007307414920676986,-1.0392907298751783,0.0074598673399077315,-0.7856741346554686,0.03923637680231399,0.653057162086977,0.04364173522917168,0.45824447691042014,1.8532827056774116e+43,-0.17675178050841586,1.381857442917327e+43,-0.17406741903658,,,,,,,,,,,,,,,,,,,,
40,240627_093424,LEARNING,1.0,41,1.0,1068.0,,,,,,,,,,41.0,41.0,41.0,cue2.png,Easy,B,,,,,,,,,,,,,,,,,,,,,,,,,,,30,28,Female,1.1428571428571428,0.5,0.4,0.5,3.2777777777777777,3.25,2.2222222222222223,2.6666666666666665,1.5,3.4444444444444446,2.0,1.75,2.0,0.75,1.0,1.0,0.4521035545251586,-0.7179777326260831,0.0076136303087433995,-0.831026711042186,0.007510934463742359,-0.756356374243373,,,,,3.9477051992850325e+43,-0.17673331136177986,2.658843326585275e+43,-0.17405765172673296,,,,,,,,,,,,,,,,,,,,
41,240627_093447,LEARNING,1.0,42,3.0,1068.0,,,,,,,,,,42.0,42.0,42.0,cue1.png,Hard,B,,,,,,,,,,,,,,,,,,,,,,,,,,,30,28,Female,1.1428571428571428,0.5,0.4,0.5,3.2777777777777777,3.25,2.2222222222222223,2.6666666666666665,1.5,3.4444444444444446,2.0,1.75,2.0,0.75,0.5833333333333334,0.75,0.5489258272573352,0.819083001932926,0.007783679493596986,-0.7153724101250767,0.007036685283400035,-1.0286239859838449,0.04179420371719145,0.9467590874741709,0.046825734967634945,0.6997843534259697,,,,,,,,,,,,,,,,,,,,,,,,
42,240627_093511,LEARNING,1.0,43,3.0,1068.0,,,,,,,,,,43.0,43.0,43.0,cue1.png,Hard,B,,,,,,,,,,,,,,,,,,,,,,,,,,,30,28,Female,1.1428571428571428,0.5,0.4,0.5,3.2777777777777777,3.25,2.2222222222222223,2.6666666666666665,1.5,3.4444444444444446,2.0,1.75,2.0,0.75,0.84375,0.7840909090909091,0.5504756599199027,0.8436867099801328,0.0075013311558833114,-0.9074039076091658,0.006768693390305536,-1.182478785787566,0.03740219027915587,0.44244708904511426,0.05390116942303932,1.2365304919407532,3.2068648431247904e+43,-0.17673984427918957,2.4102560776608764e+43,-0.17405955310145863,,,,,,,,,,,,,,,,,,,,
43,240627_093532,LEARNING,1.0,44,1.0,1068.0,,,,,,,,,,44.0,44.0,44.0,cue2.png,Easy,B,,,,,,,,,,,,,,,,,,,,,,,,,,,30,28,Female,1.1428571428571428,0.5,0.4,0.5,3.2777777777777777,3.25,2.2222222222222223,2.6666666666666665,1.5,3.4444444444444446,2.0,1.75,2.0,0.75,1.0,1.0,0.4282644181935625,-1.0964257835456557,0.013107758688525203,2.905654399541289,0.007000400260669511,-1.0494553060794485,0.03776666064162072,0.48429732002824744,0.03446388078635655,-0.2379923355540142,,,7.439754361561297e+42,-0.17407229801863106,,,,,,,,,,,,,,,,,,,,
44,240627_093554,LEARNING,1.0,45,1.0,1068.0,,,,,,,,,,45.0,45.0,45.0,cue2.png,Easy,B,,,,,,,,,,,,,,,,,,,,,,,,,,,30,28,Female,1.1428571428571428,0.5,0.4,0.5,3.2777777777777777,3.25,2.2222222222222223,2.6666666666666665,1.5,3.4444444444444446,2.0,1.75,2.0,0.75,1.0,1.0,0.4890747181859545,-0.13105777742987337,0.010364836149412724,1.040130674720299,0.009106768194479873,0.15981566487151266,,,0.05034494518823979,0.9667534714973848,-2.6985614320611867e+43,-0.17679191981989714,,,,,,,,,,,,,,,,,,,,,,
45,240627_093616,LEARNING,1.0,46,1.0,1068.0,,,,,,,,,,46.0,46.0,46.0,cue2.png,Easy,B,,,,,,,,,,,,,,,,,,,,,,,,,,,30,28,Female,1.1428571428571428,0.5,0.4,0.5,3.2777777777777777,3.25,2.2222222222222223,2.6666666666666665,1.5,3.4444444444444446,2.0,1.75,2.0,0.75,1.0,1.0,0.4573228545486927,-0.6351209590586193,,,,,,,0.037657358649574466,0.004266556436059984,,,-3.3316386551911253e+43,-0.17410347125723638,,,,,,,,,,,,,,,,,,,,
46,240627_093639,LEARNING,1.0,47,3.0,1068.0,,,,,,,,,,47.0,47.0,47.0,cue1.png,Hard,B,,,,,,,,,,,,,,,,,,,,,,,,,,,30,28,Female,1.1428571428571428,0.5,0.4,0.5,3.2777777777777777,3.25,2.2222222222222223,2.6666666666666665,1.5,3.4444444444444446,2.0,1.75,2.0,0.75,0.5833333333333334,0.75,0.5223925818519836,0.39786577037923115,,,,,,,,,-3.4232911229772916e+43,-0.17679831066939092,-2.2067715813472896e+43,-0.17409486746185576,,,,,,,,,,,,,,,,,,,,
47,240627_093701,LEARNING,1.0,48,3.0,1068.0,,,,,,,,,,48.0,48.0,48.0,cue1.png,Hard,B,,,,,,,,,,,,,,,,,,,,,,,,,,,30,28,Female,1.1428571428571428,0.5,0.4,0.5,3.2777777777777777,3.25,2.2222222222222223,2.6666666666666665,1.5,3.4444444444444446,2.0,1.75,2.0,0.75,0.5833333333333334,0.75,0.5001860455059531,0.045335364875770626,0.005782361421634512,-2.076514145234753,0.00707588305062775,-1.0061204521644604,0.04193582471038181,0.9630206875587294,0.042080093554373046,0.3397775270750376,2.4096881551255917e+43,-0.17674687398460498,1.283944266878759e+43,-0.1740681679472302,,,,,,,,,,,,,,,,,,,,
48,240627_093723,LEARNING,1.0,49,1.0,1068.0,,,,,,,,,,49.0,49.0,49.0,cue2.png,Easy,B,,,,,,,,,,,,,,,,,,,,,,,,,,,30,28,Female,1.1428571428571428,0.5,0.4,0.5,3.2777777777777777,3.25,2.2222222222222223,2.6666666666666665,1.5,3.4444444444444446,2.0,1.75,2.0,0.75,1.0,1.0,0.4626468363726003,-0.5506023541744903,,,,,0.036023018249871405,0.2840839574020116,0.04411587012260651,0.4942125965771746,,,,,,,,,,,,,,,,,,,,,,,,
49,240627_093745,LEARNING,1.0,50,1.0,1068.0,,,,,,,,,,50.0,50.0,50.0,cue2.png,Easy,B,,,,,,,,,,,,,,,,,,,,,,,,,,,30,28,Female,1.1428571428571428,0.5,0.4,0.5,3.2777777777777777,3.25,2.2222222222222223,2.6666666666666665,1.5,3.4444444444444446,2.0,1.75,2.0,0.75,1.0,1.0,0.4841012090910226,-0.21001260184241186,,,,,0.027784123580644533,-0.6619453510471686,0.04125703772728173,0.2773400838681516,-2.0541411390671537e+43,-0.1767862371589618,-2.44540247233027e+43,-0.1740966926831688,,,,,,,,,,,,,,,,,,,,
0,240627_093907,TrueCHOICE,9.0,1,1.0,1068.0,,,,,,,,,,,1.0,1.0,,,B,,,,,,True,cue2.png,Easy,cue1.png,Hard,Left,Easy,Easy,0.0145320000592619,,,,,,,,,,,,,30,28,Female,1.1428571428571428,0.5,0.4,0.5,3.2777777777777777,3.25,2.2222222222222223,2.6666666666666665,1.5,3.4444444444444446,2.0,1.75,2.0,0.75,1.0,1.0,0.5669403091200035,1.0138526206752758,,,,,,,,,,,,,,,0.03033120304357676,-1.078627527441265,66717489.23174256,-0.5003112589518192,,,,,,,,,,,,,,
1,240627_093927,TrueCHOICE,9.0,2,1.0,1068.0,,,,,,,,,,,2.0,2.0,,,B,,,,,,True,cue2.png,Easy,cue1.png,Hard,Left,Easy,Easy,0.0160675998777151,,,,,,,,,,,,,30,28,Female,1.1428571428571428,0.5,0.4,0.5,3.2777777777777777,3.25,2.2222222222222223,2.6666666666666665,1.5,3.4444444444444446,2.0,1.75,2.0,0.75,1.0,1.0,0.4614428363698111,-0.7538630806975507,,,,,,,,,,,,,0.007120599013220527,-0.07949098712685006,0.03645600131644714,-0.02428624076535127,48470649.969888136,-0.500480325931514,,,,,,,,,,,,,,
2,240627_093949,TrueCHOICE,9.0,3,3.0,1068.0,,,,,,,,,,,3.0,3.0,,,B,,,,,,True,cue1.png,Hard,cue2.png,Easy,Left,Hard,Hard,0.0163671001791954,,,,,,,,,,,,,30,28,Female,1.1428571428571428,0.5,0.4,0.5,3.2777777777777777,3.25,2.2222222222222223,2.6666666666666665,1.5,3.4444444444444446,2.0,1.75,2.0,0.75,0.84375,0.7840909090909091,0.5377928199712187,0.5254572792446264,,,,,,,,,,,,,,,0.03382904774318571,-0.47649796873991673,,,,,,,,,,,,,,,,
3,240627_094009,TrueCHOICE,9.0,4,1.0,1068.0,,,,,,,,,,,4.0,4.0,,,B,,,,,,True,cue2.png,Easy,cue1.png,Hard,Left,Easy,Easy,0.016039100009948,,,,,,,,,,,,,30,28,Female,1.1428571428571428,0.5,0.4,0.5,3.2777777777777777,3.25,2.2222222222222223,2.6666666666666665,1.5,3.4444444444444446,2.0,1.75,2.0,0.75,1.0,1.0,0.4574784454677931,-0.8202904164544067,,,,,,,,,,,,,0.005632997054664917,-1.1171798063254574,0.03487205082180703,-0.2969522663464931,,,,,,,,,,,,,,,,
4,240627_094030,TrueCHOICE,9.0,5,3.0,1068.0,,,,,,,,,,,5.0,5.0,,,B,,,,,,True,cue1.png,Hard,cue2.png,Easy,Left,Hard,Hard,0.0161323000211268,,,,,,,,,,,,,30,28,Female,1.1428571428571428,0.5,0.4,0.5,3.2777777777777777,3.25,2.2222222222222223,2.6666666666666665,1.5,3.4444444444444446,2.0,1.75,2.0,0.75,0.84375,0.875,0.6331169727385383,2.12270882635854,,,,,,,,,,,,,,,,,269916948981.31226,1.9999992306396561,,,,,,,,,,,,,,
5,240627_094049,TrueCHOICE,9.0,6,1.0,1068.0,,,,,,,,,,,6.0,6.0,,,B,,,,,,True,cue1.png,Hard,cue2.png,Easy,Right,Easy,Easy,0.0162115001585334,,,,,,,,,,,,,30,28,Female,1.1428571428571428,0.5,0.4,0.5,3.2777777777777777,3.25,2.2222222222222223,2.6666666666666665,1.5,3.4444444444444446,2.0,1.75,2.0,0.75,1.0,1.0,0.4209348363801837,-1.4326151469430812,,,,,,,,,,,,,0.009883907581730949,1.84807733116384,,,,,,,,,,,,,,,,,,
6,240627_094110,TrueCHOICE,9.0,7,1.0,1068.0,,,,,,,,,,,7.0,7.0,,,B,,,,,,True,cue2.png,Easy,cue1.png,Hard,Left,Easy,Easy,0.0160698001272976,,,,,,,,,,,,,30,28,Female,1.1428571428571428,0.5,0.4,0.5,3.2777777777777777,3.25,2.2222222222222223,2.6666666666666665,1.5,3.4444444444444446,2.0,1.75,2.0,0.75,1.0,1.0,0.4791645454454489,-0.45691811536795096,,,,,,,,,,,,,,,,,,,,,,,,,,,,,,,,
7,240627_094130,TrueCHOICE,9.0,8,3.0,1068.0,,,,,,,,,,,8.0,8.0,,,B,,,,,,True,cue1.png,Hard,cue2.png,Easy,Left,Hard,Hard,0.0160984001122415,,,,,,,,,,,,,30,28,Female,1.1428571428571428,0.5,0.4,0.5,3.2777777777777777,3.25,2.2222222222222223,2.6666666666666665,1.5,3.4444444444444446,2.0,1.75,2.0,0.75,0.5833333333333334,0.75,0.4705748272509398,-0.6008474373409638,,,,,,,,,,,,,0.00711590163998268,-0.08276767795162544,,,279699250.0557816,-0.4983378660525968,,,,,,,,,,,,,,
8,240627_094151,TrueCHOICE,9.0,9,3.0,1068.0,,,,,,,,,,,9.0,9.0,,,B,,,,,,True,cue2.png,Easy,cue1.png,Hard,Right,Hard,Hard,0.0163606000132858,,,,,,,,,,,,,30,28,Female,1.1428571428571428,0.5,0.4,0.5,3.2777777777777777,3.25,2.2222222222222223,2.6666666666666665,1.5,3.4444444444444446,2.0,1.75,2.0,0.75,0.84375,0.875,0.5393637545533817,0.5517798598176662,,,,,,,,,,,,,0.006419370167067782,-0.5686388597599059,,,,,,,,,,,,,,,,,,
9,240627_094210,TrueCHOICE,9.0,10,3.0,1068.0,,,,,,,,,,,10.0,10.0,,,B,,,,,,True,cue1.png,Hard,cue2.png,Easy,Left,Hard,Hard,0.0160836998838931,,,,,,,,,,,,,30,28,Female,1.1428571428571428,0.5,0.4,0.5,3.2777777777777777,3.25,2.2222222222222223,2.6666666666666665,1.5,3.4444444444444446,2.0,1.75,2.0,0.75,1.0,1.0,0.4975253545721484,-0.14926438929215693,,,,,,,,,,,,,,,0.04749711246257426,1.8763640032930298,6438193.991138622,-0.5008697797037263,,,,,,,,,,,,,,
0,240627_094358,FalseCHOICE,9.0,1,2.0,1068.0,,,,,,,,,,,1.0,1.0,,,B,,,,,,False,cue2.png,Easy,cue1.png,Hard,Left,Easy,Mid,0.016071000136435,,,,,,,,,,,,,30,28,Female,1.1428571428571428,0.5,0.4,0.5,3.2777777777777777,3.25,2.2222222222222223,2.6666666666666665,1.5,3.4444444444444446,2.0,1.75,2.0,0.75,0.84375,0.875,0.5144950273150409,-1.0159902954021514,,,,,,,,,,,,,,,,,,,0.00805710092423238,-0.39413594638447885,0.01843293124293246,-1.037096685308776,5.040113703468971e+45,-0.1576425223462122,,,,,,,,
1,240627_094418,FalseCHOICE,9.0,2,2.0,1068.0,,,,,,,,,,,2.0,2.0,,,B,,,,,,False,cue1.png,Hard,cue2.png,Easy,Left,Hard,Mid,0.0166275999508798,,,,,,,,,,,,,30,28,Female,1.1428571428571428,0.5,0.4,0.5,3.2777777777777777,3.25,2.2222222222222223,2.6666666666666665,1.5,3.4444444444444446,2.0,1.75,2.0,0.75,0.84375,0.875,0.4914845817891711,-1.3230538472238278,,,,,,,,,,,,,,,,,,,,,0.037043671806009926,-0.3898460876166319,2.624153882240503e+44,-0.20013515479480534,,,,,,,,
2,240627_094439,FalseCHOICE,9.0,3,2.0,1068.0,,,,,,,,,,,3.0,3.0,,,B,,,,,,False,cue1.png,Hard,cue2.png,Easy,Right,Easy,Mid,0.0167093002237379,,,,,,,,,,,,,30,28,Female,1.1428571428571428,0.5,0.4,0.5,3.2777777777777777,3.25,2.2222222222222223,2.6666666666666665,1.5,3.4444444444444446,2.0,1.75,2.0,0.75,0.84375,0.875,0.4793846908829767,-1.4845211892678452,,,,,,,,,,,,,,,,,,,0.00721752354002313,-0.5055914332158753,0.05668545883006191,0.2932625908355058,-1.1164396776961361e+45,-0.21239862930701378,,,,,,,,
3,240627_094459,FalseCHOICE,9.0,4,2.0,1068.0,,,,,,,,,,,4.0,4.0,,,B,,,,,,False,cue1.png,Hard,cue2.png,Easy,Right,Easy,Mid,0.0164415999315679,,,,,,,,,,,,,30,28,Female,1.1428571428571428,0.5,0.4,0.5,3.2777777777777777,3.25,2.2222222222222223,2.6666666666666665,1.5,3.4444444444444446,2.0,1.75,2.0,0.75,0.84375,0.875,0.5031552545683966,-1.1673142188142613,,,,,,,,,,,,,,,,,,,0.008700704400485969,-0.3086963667562301,0.05351245421688628,0.18291076870370288,-1.0065015690374348e+45,-0.21142084474736053,,,,,,,,
4,240627_094520,FalseCHOICE,9.0,5,2.0,1068.0,,,,,,,,,,,5.0,5.0,,,B,,,,,,False,cue2.png,Easy,cue1.png,Hard,Left,Easy,Mid,0.0160288999322801,,,,,,,,,,,,,30,28,Female,1.1428571428571428,0.5,0.4,0.5,3.2777777777777777,3.25,2.2222222222222223,2.6666666666666665,1.5,3.4444444444444446,2.0,1.75,2.0,0.75,1.0,1.0,0.5603936090430414,-0.40349535204557163,,,,,,,,,,,,,,,,,,,0.007295710565326461,-0.49521195762139025,0.062034979700253595,0.4793100277369427,6.7348736772323156e+47,5.7874970829947046,,,,,,,,
5,240627_094541,FalseCHOICE,9.0,6,2.0,1068.0,,,,,,,,,,,6.0,6.0,,,B,,,,,,False,cue1.png,Hard,cue2.png,Easy,Left,Hard,Mid,0.0161931999027729,,,,,,,,,,,,,30,28,Female,1.1428571428571428,0.5,0.4,0.5,3.2777777777777777,3.25,2.2222222222222223,2.6666666666666665,1.5,3.4444444444444446,2.0,1.75,2.0,0.75,1.0,1.0,0.4934002454604276,-1.2974902182914612,,,,,,,,,,,,,,,,,,,0.006895163195408022,-0.5483853790986041,0.0683469729146849,0.6988306516918367,,,,,,,,,,
6,240627_094601,FalseCHOICE,9.0,7,2.0,1068.0,,,,,,,,,,,7.0,7.0,,,B,,,,,,False,cue1.png,Hard,cue2.png,Easy,Right,Easy,Mid,0.0158323999494314,,,,,,,,,,,,,30,28,Female,1.1428571428571428,0.5,0.4,0.5,3.2777777777777777,3.25,2.2222222222222223,2.6666666666666665,1.5,3.4444444444444446,2.0,1.75,2.0,0.75,0.84375,0.875,0.5348831000102853,-0.7439210732064369,,,,,,,,,,,,,,,,,,,0.006566899891780837,-0.5919629539627835,0.06321105802510563,0.5202120754611187,1.211049594954977e+44,-0.2013919633484044,,,,,,,,
7,240627_094622,FalseCHOICE,9.0,8,2.0,1068.0,,,,,,,,,,,8.0,8.0,,,B,,,,,,False,cue2.png,Easy,cue1.png,Hard,Left,Easy,Mid,0.0173063001129776,,,,,,,,,,,,,30,28,Female,1.1428571428571428,0.5,0.4,0.5,3.2777777777777777,3.25,2.2222222222222223,2.6666666666666665,1.5,3.4444444444444446,2.0,1.75,2.0,0.75,0.84375,0.875,0.6110201818148859,0.2720924037153424,,,,,,,,,,,,,,,,,,,0.00513772734540741,-0.7816883145049118,0.05294241118769147,0.16308562041870783,3.652922251699852e+44,-0.1992201728659823,,,,,,,,
8,240627_094642,FalseCHOICE,9.0,9,2.0,1068.0,,,,,,,,,,,9.0,9.0,,,B,,,,,,False,cue2.png,Easy,cue1.png,Hard,Left,Easy,Mid,0.0158069999888539,,,,,,,,,,,,,30,28,Female,1.1428571428571428,0.5,0.4,0.5,3.2777777777777777,3.25,2.2222222222222223,2.6666666666666665,1.5,3.4444444444444446,2.0,1.75,2.0,0.75,0.84375,0.875,0.4495427453763444,-1.882747888974001,,,,,,,,,,,,,,,,,,,,,0.10294642054711776,1.9021418839347655,1.4194736797182943e+47,1.0600043970100383,,,,,,,,
9,240627_094703,FalseCHOICE,9.0,10,2.0,1068.0,,,,,,,,,,,10.0,10.0,,,B,,,,,,False,cue1.png,Hard,cue2.png,Easy,Right,Easy,Mid,0.0155001000966876,,,,,,,,,,,,,30,28,Female,1.1428571428571428,0.5,0.4,0.5,3.2777777777777777,3.25,2.2222222222222223,2.6666666666666665,1.5,3.4444444444444446,2.0,1.75,2.0,0.75,1.0,1.0,0.5192252909341319,-0.9528671565521035,,,,,,,,,,,,,,,,,,,0.005215067887653063,-0.7714212111384816,0.0690967823453243,0.7249077763764606,4.809886782740365e+44,-0.19819117385160975,,,,,,,,
10,240627_094723,FalseCHOICE,9.0,11,2.0,1068.0,,,,,,,,,,,11.0,11.0,,,B,,,,,,False,cue2.png,Easy,cue1.png,Hard,Left,Easy,Mid,0.0162742999382317,,,,,,,,,,,,,30,28,Female,1.1428571428571428,0.5,0.4,0.5,3.2777777777777777,3.25,2.2222222222222223,2.6666666666666665,1.5,3.4444444444444446,2.0,1.75,2.0,0.75,0.84375,0.875,0.5428548090540889,-0.6375423727016022,,,,,,,,,,,,,,,,,,,0.006517217121585714,-0.5985584357413275,0.06637707353449829,0.6303208281897711,,,,,,,,,,
11,240627_094745,FalseCHOICE,9.0,12,2.0,1068.0,,,,,,,,,,,12.0,12.0,,,B,,,,,,False,cue1.png,Hard,cue2.png,Easy,Right,Easy,Mid,0.0164824998937547,,,,,,,,,,,,,30,28,Female,1.1428571428571428,0.5,0.4,0.5,3.2777777777777777,3.25,2.2222222222222223,2.6666666666666665,1.5,3.4444444444444446,2.0,1.75,2.0,0.75,0.84375,0.875,0.6854515636170452,1.26534411791927,,,,,,,,,,,,,,,,,,,0.007584916816574848,-0.45681928038422154,0.07335686652537463,0.8730664174800182,,,,,,,,,,
12,240627_094808,FalseCHOICE,9.0,13,2.0,1068.0,,,,,,,,,,,13.0,13.0,,,B,,,,,,False,cue2.png,Easy,cue1.png,Hard,Left,Easy,Mid,0.0162774000782519,,,,,,,,,,,,,30,28,Female,1.1428571428571428,0.5,0.4,0.5,3.2777777777777777,3.25,2.2222222222222223,2.6666666666666665,1.5,3.4444444444444446,2.0,1.75,2.0,0.75,1.0,1.0,0.6544640182136473,0.8518299274571481,,,,,,,,,,,,,,,,,,,0.005966102783996936,-0.6717199071565829,0.05988636331161159,0.40458472397774026,2.4912066399041114e+44,-0.20025339747006235,,,,,,,,
13,240627_094829,FalseCHOICE,9.0,14,2.0,1068.0,,,,,,,,,,,14.0,14.0,,,B,,,,,,False,cue1.png,Hard,cue2.png,Easy,Left,Hard,Mid,0.0162645999807864,,,,,,,,,,,,,30,28,Female,1.1428571428571428,0.5,0.4,0.5,3.2777777777777777,3.25,2.2222222222222223,2.6666666666666665,1.5,3.4444444444444446,2.0,1.75,2.0,0.75,1.0,1.0,0.6018045636698265,0.14911432244904008,,,,,,,,,,,,,,,,,,,,,0.0665074057138941,0.6348535645807034,-1.4061000174367394e+43,-0.20259412327245946,,,,,,,,
14,240627_094850,FalseCHOICE,9.0,15,2.0,1068.0,,,,,,,,,,,15.0,15.0,,,B,,,,,,False,cue2.png,Easy,cue1.png,Hard,Right,Hard,Mid,0.0164586999453604,,,,,,,,,,,,,30,28,Female,1.1428571428571428,0.5,0.4,0.5,3.2777777777777777,3.25,2.2222222222222223,2.6666666666666665,1.5,3.4444444444444446,2.0,1.75,2.0,0.75,1.0,1.0,0.6080399182286452,0.23232219061247006,,,,,,,,,,,,,,,,,,,0.006878645503019112,-0.5505781340264553,,,,,,,,,,,,
15,240627_094911,FalseCHOICE,9.0,16,2.0,1068.0,,,,,,,,,,,16.0,16.0,,,B,,,,,,False,cue2.png,Easy,cue1.png,Hard,Right,Hard,Mid,0.0165230999700725,,,,,,,,,,,,,30,28,Female,1.1428571428571428,0.5,0.4,0.5,3.2777777777777777,3.25,2.2222222222222223,2.6666666666666665,1.5,3.4444444444444446,2.0,1.75,2.0,0.75,1.0,1.0,0.5709918545643714,-0.2620667600090097,,,,,,,,,,,,,,,,,,,0.007630764241103657,-0.4507329480020828,0.04556105810538503,-0.0936255608535742,,,,,,,,,,
16,240627_094932,FalseCHOICE,9.0,17,2.0,1068.0,,,,,,,,,,,17.0,17.0,,,B,,,,,,False,cue1.png,Hard,cue2.png,Easy,Left,Hard,Mid,0.0163116999901831,,,,,,,,,,,,,30,28,Female,1.1428571428571428,0.5,0.4,0.5,3.2777777777777777,3.25,2.2222222222222223,2.6666666666666665,1.5,3.4444444444444446,2.0,1.75,2.0,0.75,0.84375,0.875,0.6207151818512515,0.4014676104113963,,,,,,,,,,,,,,,,,,,0.009549979360836057,-0.1959535083374251,0.06862077734723827,0.7083531143805338,,,,,,,,,,
17,240627_094953,FalseCHOICE,9.0,18,2.0,1068.0,,,,,,,,,,,18.0,18.0,,,B,,,,,,False,cue1.png,Hard,cue2.png,Easy,Right,Easy,Mid,0.0167730001267045,,,,,,,,,,,,,30,28,Female,1.1428571428571428,0.5,0.4,0.5,3.2777777777777777,3.25,2.2222222222222223,2.6666666666666665,1.5,3.4444444444444446,2.0,1.75,2.0,0.75,0.84375,0.875,0.5306796363597228,-0.800014314732069,,,,,,,,,,,,,,,,,,,,,0.04987807074593051,0.056512957405129426,,,,,,,,,,
18,240627_095014,FalseCHOICE,9.0,19,2.0,1068.0,,,,,,,,,,,19.0,19.0,,,B,,,,,,False,cue2.png,Easy,cue1.png,Hard,Left,Easy,Mid,0.0160662999842315,,,,,,,,,,,,,30,28,Female,1.1428571428571428,0.5,0.4,0.5,3.2777777777777777,3.25,2.2222222222222223,2.6666666666666665,1.5,3.4444444444444446,2.0,1.75,2.0,0.75,1.0,1.0,0.6149349545594305,0.3243332011463647,,,,,,,,,,,,,,,,,,,,,0.04690026068864021,-0.047050322780433924,,,,,,,,,,
19,240627_095035,FalseCHOICE,9.0,20,2.0,1068.0,,,,,,,,,,,20.0,20.0,,,B,,,,,,False,cue2.png,Easy,cue1.png,Hard,Left,Easy,Mid,0.0161290999967604,,,,,,,,,,,,,30,28,Female,1.1428571428571428,0.5,0.4,0.5,3.2777777777777777,3.25,2.2222222222222223,2.6666666666666665,1.5,3.4444444444444446,2.0,1.75,2.0,0.75,0.5833333333333334,0.75,0.5256827818441459,-0.8666949834641988,,,,,,,,,,,,,,,,,,,,,0.047616040735931224,-0.02215668344055973,,,,,,,,,,
20,240627_095055,FalseCHOICE,9.0,21,2.0,1068.0,,,,,,,,,,,21.0,21.0,,,B,,,,,,False,cue2.png,Easy,cue1.png,Hard,Left,Easy,Mid,0.0159931001253426,,,,,,,,,,,,,30,28,Female,1.1428571428571428,0.5,0.4,0.5,3.2777777777777777,3.25,2.2222222222222223,2.6666666666666665,1.5,3.4444444444444446,2.0,1.75,2.0,0.75,1.0,1.0,0.5393788454292173,-0.6839274692203132,,,,,,,,,,,,,,,,,,,,,,,,,,,,,,,,
21,240627_095116,FalseCHOICE,9.0,22,2.0,1068.0,,,,,,,,,,,22.0,22.0,,,B,,,,,,False,cue1.png,Hard,cue2.png,Easy,Left,Hard,Mid,0.0160918999463319,,,,,,,,,,,,,30,28,Female,1.1428571428571428,0.5,0.4,0.5,3.2777777777777777,3.25,2.2222222222222223,2.6666666666666665,1.5,3.4444444444444446,2.0,1.75,2.0,0.75,0.84375,0.875,0.6020703727421775,0.15266141925647692,,,,,,,,,,,,,,,,,,,0.033771427183137484,3.0194895342815555,0.056076992549675984,0.27210114579141986,9.671022245016718e+43,-0.20160892903492328,,,,,,,,
22,240627_095139,FalseCHOICE,9.0,23,2.0,1068.0,,,,,,,,,,,23.0,23.0,,,B,,,,,,False,cue2.png,Easy,cue1.png,Hard,Right,Hard,Mid,0.016495999880135,,,,,,,,,,,,,30,28,Female,1.1428571428571428,0.5,0.4,0.5,3.2777777777777777,3.25,2.2222222222222223,2.6666666666666665,1.5,3.4444444444444446,2.0,1.75,2.0,0.75,1.0,0.9090909090909092,0.6847589300014079,1.2561012487236443,,,,,,,,,,,,,,,,,,,0.009252782450699666,-0.23540696066598693,,,1.1143299783675486e+43,-0.2023699573700575,,,,,,,,
23,240627_095202,FalseCHOICE,9.0,24,2.0,1068.0,,,,,,,,,,,24.0,24.0,,,B,,,,,,False,cue1.png,Hard,cue2.png,Easy,Left,Hard,Mid,0.0164357000030577,,,,,,,,,,,,,30,28,Female,1.1428571428571428,0.5,0.4,0.5,3.2777777777777777,3.25,2.2222222222222223,2.6666666666666665,1.5,3.4444444444444446,2.0,1.75,2.0,0.75,0.84375,0.875,0.6949722272640263,1.3923928876553797,,,,,,,,,,,,,,,,,,,0.01481590134741875,0.5031076022515786,0.05240307131356288,0.1443282767920118,,,,,,,,,,
24,240627_095223,FalseCHOICE,9.0,25,2.0,1068.0,,,,,,,,,,,25.0,25.0,,,B,,,,,,False,cue1.png,Hard,cue2.png,Easy,Left,Hard,Mid,0.0149540000129491,,,,,,,,,,,,,30,28,Female,1.1428571428571428,0.5,0.4,0.5,3.2777777777777777,3.25,2.2222222222222223,2.6666666666666665,1.5,3.4444444444444446,2.0,1.75,2.0,0.75,0.84375,0.875,0.5972235727716576,0.08798315771461307,,,,,,,,,,,,,,,,,,,0.009657660419145855,-0.18165864403764145,0.06778124770608086,0.6791556700242652,-1.1969674383584896e+44,-0.20353364279266822,,,,,,,,
25,240627_095244,FalseCHOICE,9.0,26,2.0,1068.0,,,,,,,,,,,26.0,26.0,,,B,,,,,,False,cue2.png,Easy,cue1.png,Hard,Right,Hard,Mid,0.0168920001015067,,,,,,,,,,,,,30,28,Female,1.1428571428571428,0.5,0.4,0.5,3.2777777777777777,3.25,2.2222222222222223,2.6666666666666665,1.5,3.4444444444444446,2.0,1.75,2.0,0.75,1.0,1.0,0.6429058908992871,0.6975921652389208,,,,,,,,,,,,,,,,,,,0.0060990995838661475,-0.6540643302493965,,,-1.2791211672567696e+44,-0.2036067099471015,,,,,,,,
26,240627_095306,FalseCHOICE,9.0,27,2.0,1068.0,,,,,,,,,,,27.0,27.0,,,B,,,,,,False,cue2.png,Easy,cue1.png,Hard,Left,Easy,Mid,0.0163840998429805,,,,,,,,,,,,,30,28,Female,1.1428571428571428,0.5,0.4,0.5,3.2777777777777777,3.25,2.2222222222222223,2.6666666666666665,1.5,3.4444444444444446,2.0,1.75,2.0,0.75,0.84375,0.875,0.6376707727216523,0.6277319802188834,,,,,,,,,,,,,,,,,,,0.007969178304231057,-0.4058078406017925,,,-8.155237286783194e+43,-0.20319438848471938,,,,,,,,
27,240627_095328,FalseCHOICE,9.0,28,2.0,1068.0,,,,,,,,,,,28.0,28.0,,,B,,,,,,False,cue1.png,Hard,cue2.png,Easy,Right,Easy,Mid,0.0165648001711815,,,,,,,,,,,,,30,28,Female,1.1428571428571428,0.5,0.4,0.5,3.2777777777777777,3.25,2.2222222222222223,2.6666666666666665,1.5,3.4444444444444446,2.0,1.75,2.0,0.75,1.0,1.0,0.5930823727129874,0.03272079448093329,,,,,,,,,,,,,,,,,,,0.010534233744940873,-0.06529187593809677,0.055363314143868664,0.2472805980462537,-4.0776165719642217e+43,-0.20283172674497182,,,,,,,,
28,240627_095349,FalseCHOICE,9.0,29,2.0,1068.0,,,,,,,,,,,29.0,29.0,,,B,,,,,,False,cue2.png,Easy,cue1.png,Hard,Left,Easy,Mid,0.0160184998530894,,,,,,,,,,,,,30,28,Female,1.1428571428571428,0.5,0.4,0.5,3.2777777777777777,3.25,2.2222222222222223,2.6666666666666665,1.5,3.4444444444444446,2.0,1.75,2.0,0.75,1.0,1.0,0.6057528272609819,0.2018020394454522,,,,,,,,,,,,,,,,,,,0.00908630140511938,-0.2575076345673293,0.05586867203925604,0.26485610498157974,,,,,,,,,,
29,240627_095409,FalseCHOICE,9.0,30,2.0,1068.0,,,,,,,,,,,30.0,30.0,,,B,,,,,,False,cue2.png,Easy,cue1.png,Hard,Left,Easy,Mid,0.0165554000996053,,,,,,,,,,,,,30,28,Female,1.1428571428571428,0.5,0.4,0.5,3.2777777777777777,3.25,2.2222222222222223,2.6666666666666665,1.5,3.4444444444444446,2.0,1.75,2.0,0.75,1.0,1.0,0.5313311636405573,-0.7913199902029397,,,,,,,,,,,,,,,,,,,,,0.037624454198318516,-0.36964744214754225,8.027104634761958e+43,-0.20175513832269987,,,,,,,,
30,240627_095430,FalseCHOICE,9.0,31,2.0,1068.0,,,,,,,,,,,31.0,31.0,,,B,,,,,,False,cue1.png,Hard,cue2.png,Easy,Right,Easy,Mid,0.0168135999701917,,,,,,,,,,,,,30,28,Female,1.1428571428571428,0.5,0.4,0.5,3.2777777777777777,3.25,2.2222222222222223,2.6666666666666665,1.5,3.4444444444444446,2.0,1.75,2.0,0.75,1.0,1.0,0.5189022545448758,-0.9571779249351459,,,,,,,,,,,,,,,,,,,0.01697411588082638,0.7896146664385185,0.027183294875409197,-0.7327735944597987,1.0405018434918962e+44,-0.2015436477461976,,,,,,,,
31,240627_095450,FalseCHOICE,9.0,32,2.0,1068.0,,,,,,,,,,,32.0,32.0,,,B,,,,,,False,cue2.png,Easy,cue1.png,Hard,Right,Hard,Mid,0.0153598000761121,,,,,,,,,,,,,30,28,Female,1.1428571428571428,0.5,0.4,0.5,3.2777777777777777,3.25,2.2222222222222223,2.6666666666666665,1.5,3.4444444444444446,2.0,1.75,2.0,0.75,0.84375,0.875,0.5282305273100395,-0.8326965208522802,,,,,,,,,,,,,,,,,,,,,0.029302865512639446,-0.659058453616895,,,,,,,,,,
32,240627_095511,FalseCHOICE,9.0,33,2.0,1068.0,,,,,,,,,,,33.0,33.0,,,B,,,,,,False,cue1.png,Hard,cue2.png,Easy,Right,Easy,Mid,0.0168842000421136,,,,,,,,,,,,,30,28,Female,1.1428571428571428,0.5,0.4,0.5,3.2777777777777777,3.25,2.2222222222222223,2.6666666666666665,1.5,3.4444444444444446,2.0,1.75,2.0,0.75,0.84375,0.875,0.5396004363428801,-0.6809704429026692,,,,,,,,,,,,,,,,,,,0.007314321871926959,-0.49274127144434354,,,8.071442625644676e+43,-0.20175119492187005,,,,,,,,
33,240627_095533,FalseCHOICE,9.0,34,2.0,1068.0,,,,,,,,,,,34.0,34.0,,,B,,,,,,False,cue1.png,Hard,cue2.png,Easy,Right,Easy,Mid,0.0171798001974821,,,,,,,,,,,,,30,28,Female,1.1428571428571428,0.5,0.4,0.5,3.2777777777777777,3.25,2.2222222222222223,2.6666666666666665,1.5,3.4444444444444446,2.0,1.75,2.0,0.75,0.84375,0.875,0.6984322181564163,1.4385648355863083,,,,,,,,,,,,,,,,,,,0.00724655545064618,-0.5017373921316396,0.015997351468732903,-1.1218020982521544,3.020459896981732e+43,-0.2022004270383233,,,,,,,,
34,240627_095554,FalseCHOICE,9.0,35,2.0,1068.0,,,,,,,,,,,35.0,35.0,,,B,,,,,,False,cue1.png,Hard,cue2.png,Easy,Left,Hard,Mid,0.0168218000326305,,,,,,,,,,,,,30,28,Female,1.1428571428571428,0.5,0.4,0.5,3.2777777777777777,3.25,2.2222222222222223,2.6666666666666665,1.5,3.4444444444444446,2.0,1.75,2.0,0.75,0.84375,0.875,0.5651604454456405,-0.3398841666346096,,,,,,,,,,,,,,,,,,,0.012341723760365424,0.1746558446663243,0.014356317515606438,-1.1788745292709104,-2.874377793694289e+43,-0.20272471123294217,,,,,,,,
35,240627_095614,FalseCHOICE,9.0,36,2.0,1068.0,,,,,,,,,,,36.0,36.0,,,B,,,,,,False,cue2.png,Easy,cue1.png,Hard,Right,Hard,Mid,0.0166648000013083,,,,,,,,,,,,,30,28,Female,1.1428571428571428,0.5,0.4,0.5,3.2777777777777777,3.25,2.2222222222222223,2.6666666666666665,1.5,3.4444444444444446,2.0,1.75,2.0,0.75,0.84375,0.875,0.5217719637069174,-0.9188830085242053,,,,,,,,,,,,,,,,,,,0.007872808490039657,-0.41860111583593906,,,-7.660468230386792e+43,-0.20315038394890914,,,,,,,,
36,240627_095635,FalseCHOICE,9.0,37,2.0,1068.0,,,,,,,,,,,37.0,37.0,,,B,,,,,,False,cue1.png,Hard,cue2.png,Easy,Right,Easy,Mid,0.0159676999319344,,,,,,,,,,,,,30,28,Female,1.1428571428571428,0.5,0.4,0.5,3.2777777777777777,3.25,2.2222222222222223,2.6666666666666665,1.5,3.4444444444444446,2.0,1.75,2.0,0.75,0.84375,0.875,0.5684803727463904,-0.29558130132885463,,,,,,,,,,,,,,,,,,,0.010359661894167684,-0.08846661954235573,,,-9.888685206644164e+43,-0.20334856055768682,,,,,,,,
37,240627_095658,FalseCHOICE,9.0,38,2.0,1068.0,,,,,,,,,,,38.0,38.0,,,B,,,,,,False,cue2.png,Easy,cue1.png,Hard,Right,Hard,Mid,0.0162239000201225,,,,,,,,,,,,,30,28,Female,1.1428571428571428,0.5,0.4,0.5,3.2777777777777777,3.25,2.2222222222222223,2.6666666666666665,1.5,3.4444444444444446,2.0,1.75,2.0,0.75,0.84375,0.875,0.7266156181523745,1.8146590270455938,,,,,,,,,,,,,,,,,,,0.008798337870199673,-0.29573533885976266,0.016430728427728344,-1.1067299685437695,-9.020152319382063e+43,-0.20327131363602544,,,,,,,,
38,240627_095721,FalseCHOICE,9.0,39,2.0,1068.0,,,,,,,,,,,39.0,39.0,,,B,,,,,,False,cue2.png,Easy,cue1.png,Hard,Right,Hard,Mid,0.0162720999214798,,,,,,,,,,,,,30,28,Female,1.1428571428571428,0.5,0.4,0.5,3.2777777777777777,3.25,2.2222222222222223,2.6666666666666665,1.5,3.4444444444444446,2.0,1.75,2.0,0.75,1.0,0.9090909090909092,0.790184749988839,2.6629591343155643,,,,,,,,,,,,,,,,,,,0.00844770414887389,-0.3422826290141737,0.019969933775149565,-0.9836422940522811,-4.254948816117304e+43,-0.20284749859445853,,,,,,,,
39,240627_095744,FalseCHOICE,9.0,40,2.0,1068.0,,,,,,,,,,,40.0,40.0,,,B,,,,,,False,cue1.png,Hard,cue2.png,Easy,Right,Easy,Mid,0.0164945998694747,,,,,,,,,,,,,30,28,Female,1.1428571428571428,0.5,0.4,0.5,3.2777777777777777,3.25,2.2222222222222223,2.6666666666666665,1.5,3.4444444444444446,2.0,1.75,2.0,0.75,0.84375,0.875,0.6842941181861203,1.2498985540921812,,,,,,,,,,,,,,,,,,,0.03333903570334252,2.9620887469465256,,,1.8922580457864575e+43,-0.20230076880004086,,,,,,,,
40,240627_095806,FalseCHOICE,9.0,41,2.0,1068.0,,,,,,,,,,,41.0,41.0,,,B,,,,,,False,cue1.png,Hard,cue2.png,Easy,Left,Hard,Mid,0.0151496001053601,,,,,,,,,,,,,30,28,Female,1.1428571428571428,0.5,0.4,0.5,3.2777777777777777,3.25,2.2222222222222223,2.6666666666666665,1.5,3.4444444444444446,2.0,1.75,2.0,0.75,1.0,1.0,0.721681245433336,1.748812148443591,,,,,,,,,,,,,,,,,,,0.008279223501615654,-0.3646487538229326,,,6.555857183033272e+43,-0.2018859904047741,,,,,,,,
41,240627_095828,FalseCHOICE,9.0,42,2.0,1068.0,,,,,,,,,,,42.0,42.0,,,B,,,,,,False,cue2.png,Easy,cue1.png,Hard,Left,Easy,Mid,0.0152120999991893,,,,,,,,,,,,,30,28,Female,1.1428571428571428,0.5,0.4,0.5,3.2777777777777777,3.25,2.2222222222222223,2.6666666666666665,1.5,3.4444444444444446,2.0,1.75,2.0,0.75,0.5833333333333334,0.75,0.6659505999731746,1.0051129479621244,,,,,,,,,,,,,,,,,,,0.009355772237396184,-0.22173487155208907,0.025907137681526055,-0.7771562187670072,9.895015829328538e+43,-0.20158900714697436,,,,,,,,
42,240627_095850,FalseCHOICE,9.0,43,2.0,1068.0,,,,,,,,,,,43.0,43.0,,,B,,,,,,False,cue1.png,Hard,cue2.png,Easy,Right,Easy,Mid,0.0153651000000536,,,,,,,,,,,,,30,28,Female,1.1428571428571428,0.5,0.4,0.5,3.2777777777777777,3.25,2.2222222222222223,2.6666666666666665,1.5,3.4444444444444446,2.0,1.75,2.0,0.75,1.0,1.0,0.665525154506957,0.9994355787075252,,,,,,,,,,,,,,,,,,,0.010048535764446543,-0.12976920213478457,0.022639406768362957,-0.8908024640345392,8.679849793983273e+43,-0.20169708346384682,,,,,,,,
43,240627_095913,FalseCHOICE,9.0,44,2.0,1068.0,,,,,,,,,,,44.0,44.0,,,B,,,,,,False,cue2.png,Easy,cue1.png,Hard,Right,Hard,Mid,0.0167918999213725,,,,,,,,,,,,,30,28,Female,1.1428571428571428,0.5,0.4,0.5,3.2777777777777777,3.25,2.2222222222222223,2.6666666666666665,1.5,3.4444444444444446,2.0,1.75,2.0,0.75,0.84375,0.875,0.7147385636556216,1.6561653318734442,,,,,,,,,,,,,,,,,,,0.008127311198795699,-0.3848153995484168,0.019762984853382598,-0.9908396332904175,4.018696367452836e+43,-0.20211164433871007,,,,,,,,
44,240627_095934,FalseCHOICE,9.0,45,2.0,1068.0,,,,,,,,,,,45.0,45.0,,,B,,,,,,False,cue1.png,Hard,cue2.png,Easy,Right,Easy,Mid,0.0165906001348048,,,,,,,,,,,,,30,28,Female,1.1428571428571428,0.5,0.4,0.5,3.2777777777777777,3.25,2.2222222222222223,2.6666666666666665,1.5,3.4444444444444446,2.0,1.75,2.0,0.75,1.0,1.0,0.5855869636235927,-0.06730190758967267,,,,,,,,,,,,,,,,,,,,,0.03352793652917101,-0.5121175120958875,-4.0714868915875897e+43,-0.20283118157397506,,,,,,,,
45,240627_095954,FalseCHOICE,9.0,46,2.0,1068.0,,,,,,,,,,,46.0,46.0,,,B,,,,,,False,cue1.png,Hard,cue2.png,Easy,Right,Easy,Mid,0.0166719001717865,,,,,,,,,,,,,30,28,Female,1.1428571428571428,0.5,0.4,0.5,3.2777777777777777,3.25,2.2222222222222223,2.6666666666666665,1.5,3.4444444444444446,2.0,1.75,2.0,0.75,0.84375,0.875,0.5617206909228116,-0.3857860697501763,,,,,,,,,,,,,,,,,,,0.02594786279413868,1.9808965538930872,,,-9.872947064632258e+43,-0.2033471608144636,,,,,,,,
46,240627_100016,FalseCHOICE,9.0,47,2.0,1068.0,,,,,,,,,,,47.0,47.0,,,B,,,,,,False,cue2.png,Easy,cue1.png,Hard,Left,Easy,Mid,0.015996899921447,,,,,,,,,,,,,30,28,Female,1.1428571428571428,0.5,0.4,0.5,3.2777777777777777,3.25,2.2222222222222223,2.6666666666666665,1.5,3.4444444444444446,2.0,1.75,2.0,0.75,0.5833333333333334,0.75,0.5997658817901869,0.12190907349839114,,,,,,,,,,,,,,,,,,,0.01182968739276611,0.10668204773048642,0.01581028762906601,-1.1283078674138176,-8.178120806262257e+43,-0.20319642373457864,,,,,,,,
47,240627_100036,FalseCHOICE,9.0,48,2.0,1068.0,,,,,,,,,,,48.0,48.0,,,B,,,,,,False,cue2.png,Easy,cue1.png,Hard,Left,Easy,Mid,0.0164878000505268,,,,,,,,,,,,,30,28,Female,1.1428571428571428,0.5,0.4,0.5,3.2777777777777777,3.25,2.2222222222222223,2.6666666666666665,1.5,3.4444444444444446,2.0,1.75,2.0,0.75,1.0,1.0,0.5657672727353532,-0.3317863424220352,,,,,,,,,,,,,,,,,,,0.008858072047213875,-0.2878055138015743,0.019746755126245366,-0.9914040762019906,1.5642874438096134e+43,-0.20232993835685292,,,,,,,,
48,240627_100057,FalseCHOICE,9.0,49,2.0,1068.0,,,,,,,,,,,49.0,49.0,,,B,,,,,,False,cue1.png,Hard,cue2.png,Easy,Right,Easy,Mid,0.0164763999637216,,,,,,,,,,,,,30,28,Female,1.1428571428571428,0.5,0.4,0.5,3.2777777777777777,3.25,2.2222222222222223,2.6666666666666665,1.5,3.4444444444444446,2.0,1.75,2.0,0.75,1.0,1.0,0.5074829636776651,-1.109562980193132,,,,,,,,,,,,,,,,,,,0.009503281978409672,-0.20215267423919211,0.018195114051822524,-1.0453675716050876,,,,,,,,,,
49,240627_100117,FalseCHOICE,9.0,50,2.0,1068.0,,,,,,,,,,,50.0,50.0,,,B,,,,,,False,cue2.png,Easy,cue1.png,Hard,Left,Easy,Mid,0.0167006000410765,,,,,,,,,,,,,30,28,Female,1.1428571428571428,0.5,0.4,0.5,3.2777777777777777,3.25,2.2222222222222223,2.6666666666666665,1.5,3.4444444444444446,2.0,1.75,2.0,0.75,1.0,1.0,0.5598755727141079,-0.4104083027294741,,,,,,,,,,,,,,,,,,,0.035998584233708504,3.3151488481102183,0.1689668980777616,4.198224266943595,-8.51144000383825e+43,-0.20322606899306106,,,,,,,,
0,240627_091846,OFFLINERATING,9.0,1,1.0,,,,,,,,,,,,,,,,,T0,cue2.png,Easy,70.0,2.55874040001072,,,,,,,,,,,,,,,,,,,,,,30,28,Female,1.1428571428571428,0.5,0.4,0.5,3.2777777777777777,3.25,2.2222222222222223,2.6666666666666665,1.5,3.4444444444444446,2.0,1.75,2.0,0.75,,,,,,,,,,,,,,,,,,,,,,,,,,,,,0.018663083698528475,,,,,,,
1,240627_091855,OFFLINERATING,9.0,2,3.0,,,,,,,,,,,,,,,,,T0,cue1.png,Hard,70.0,2.1857289001345634,,,,,,,,,,,,,,,,,,,,,,30,28,Female,1.1428571428571428,0.5,0.4,0.5,3.2777777777777777,3.25,2.2222222222222223,2.6666666666666665,1.5,3.4444444444444446,2.0,1.75,2.0,0.75,,,,,,,,,,,,,,,,,,,,,,,,,,,,,0.018663083698528475,,,,,6723322.622751123,-0.7060461395534358,
2,240627_093808,OFFLINERATING,9.0,3,1.0,,,,,,,,,,,,,,,,,T1,cue2.png,Easy,96.0,1.9133084998466077,,,,,,,,,,,,,,,,,,,,,,30,28,Female,1.1428571428571428,0.5,0.4,0.5,3.2777777777777777,3.25,2.2222222222222223,2.6666666666666665,1.5,3.4444444444444446,2.0,1.75,2.0,0.75,,,,,,,,,,,,,,,,,,,,,,,,,,,,,1.95962378834549,,,,,,,
3,240627_093816,OFFLINERATING,9.0,4,3.0,,,,,,,,,,,,,,,,,T1,cue1.png,Hard,47.0,1.9520653998479247,,,,,,,,,,,,,,,,,,,,,,30,28,Female,1.1428571428571428,0.5,0.4,0.5,3.2777777777777777,3.25,2.2222222222222223,2.6666666666666665,1.5,3.4444444444444446,2.0,1.75,2.0,0.75,,,,,,,,,,,,,,,,,,,,,,,,,,,,,-1.6983406165660913,,,0.039390277772598827,1.3229851829706825,,,
4,240627_094234,OFFLINERATING,9.0,5,1.0,,,,,,,,,,,,,,,,,T2,cue2.png,Easy,80.0,2.1703665000386536,,,,,,,,,,,,,,,,,,,,,,30,28,Female,1.1428571428571428,0.5,0.4,0.5,3.2777777777777777,3.25,2.2222222222222223,2.6666666666666665,1.5,3.4444444444444446,2.0,1.75,2.0,0.75,,,,,,,,,,,,,,,,,,,,,,,,,,,,,0.7651864316396675,0.0083783685054597,0.162199095857608,0.032371525372005425,0.6034990420633884,6696426491.9753065,1.4142130323264337,
5,240627_094242,OFFLINERATING,9.0,6,3.0,,,,,,,,,,,,,,,,,T2,cue1.png,Hard,59.0,1.5188420999329535,,,,,,,,,,,,,,,,,,,,,,30,28,Female,1.1428571428571428,0.5,0.4,0.5,3.2777777777777777,3.25,2.2222222222222223,2.6666666666666665,1.5,3.4444444444444446,2.0,1.75,2.0,0.75,,,,,,,,,,,,,,,,,,,,,,,,,,,,,-0.8025125990367244,0.006339349257517812,-1.3669247966708908,,,,,
6,240627_100133,OFFLINERATING,9.0,7,1.0,,,,,,,,,,,,,,,,,T3,cue2.png,Easy,69.0,1.8933610999956727,,,,,,,,,,,,,,,,,,,,,,30,28,Female,1.1428571428571428,0.5,0.4,0.5,3.2777777777777777,3.25,2.2222222222222223,2.6666666666666665,1.5,3.4444444444444446,2.0,1.75,2.0,0.75,,,,,,,,,,,,,,,,,,,,,,,,,,,,,-0.055989251095585425,0.010072768872427623,1.4328825811924881,0.015896261561358864,-1.0853657736479507,,,
7,240627_100142,OFFLINERATING,9.0,8,3.0,,,,,,,,,,,,,,,,,T3,cue1.png,Hard,67.0,2.470541999908164,,,,,,,,,,,,,,,,,,,,,,30,28,Female,1.1428571428571428,0.5,0.4,0.5,3.2777777777777777,3.25,2.2222222222222223,2.6666666666666665,1.5,3.4444444444444446,2.0,1.75,2.0,0.75,,,,,,,,,,,,,,,,,,,,,,,,,,,,,-0.20529392068381322,0.00785784603309164,-0.22815688037920404,0.018278950235948093,-0.841118451386122,32060.66644019709,-0.7081668927729979,
0,240627_094258,LEARNINGCHECK,9.0,1,,,,,,,,,,,,1.0,1.0,1.0,,,B,,,,,,,,,,,,,,,cue2.png,Easy,Left,Left,Easy,0.0138918999582529,1.0,,,,,,30,28,Female,1.1428571428571428,0.5,0.4,0.5,3.2777777777777777,3.25,2.2222222222222223,2.6666666666666665,1.5,3.4444444444444446,2.0,1.75,2.0,0.75,,,,,,,,,,,,,,,,,,,,,,,,,,,,,,,,,,,,
1,240627_094303,LEARNINGCHECK,9.0,2,,,,,,,,,,,,2.0,2.0,2.0,,,B,,,,,,,,,,,,,,,cue1.png,Hard,Right,Right,Hard,0.0141155999153852,1.0,,,,,,30,28,Female,1.1428571428571428,0.5,0.4,0.5,3.2777777777777777,3.25,2.2222222222222223,2.6666666666666665,1.5,3.4444444444444446,2.0,1.75,2.0,0.75,,,,,,,,,,,,,,,,,,,,,,,,,,,,,,,,,,,,
2,240627_100157,LEARNINGCHECK,9.0,1,,,,,,,,,,,,1.0,1.0,1.0,,,B,,,,,,,,,,,,,,,cue2.png,Easy,Middle,Middle,Mid,0.0146922999992966,1.0,,,,,,30,28,Female,1.1428571428571428,0.5,0.4,0.5,3.2777777777777777,3.25,2.2222222222222223,2.6666666666666665,1.5,3.4444444444444446,2.0,1.75,2.0,0.75,,,,,,,,,,,,,,,,,,,,,,,,,,,,,,,,,,,,
3,240627_100202,LEARNINGCHECK,9.0,2,,,,,,,,,,,,2.0,2.0,2.0,,,B,,,,,,,,,,,,,,,cue1.png,Hard,Middle,Middle,Mid,0.0142104998230934,1.0,,,,,,30,28,Female,1.1428571428571428,0.5,0.4,0.5,3.2777777777777777,3.25,2.2222222222222223,2.6666666666666665,1.5,3.4444444444444446,2.0,1.75,2.0,0.75,,,,,,,,,,,,,,,,,,,,,,,,,,,,,,,,,,,,
0,240627_100218,DEMANDRATING,9.0,-1,,,,,,,,,,,,,,,,,,,,,,,,,,,,,,,,,,,,,,,1.0,MentalDemand,1.0,10.0,5.353005199925974,30,28,Female,1.1428571428571428,0.5,0.4,0.5,3.2777777777777777,3.25,2.2222222222222223,2.6666666666666665,1.5,3.4444444444444446,2.0,1.75,2.0,0.75,,,,,,,,,,,,,,,,,,,,,,,,,,,,,,,,,,,,-1.4047424708709915
1,240627_100225,DEMANDRATING,9.0,-1,,,,,,,,,,,,,,,,,,,,,,,,,,,,,,,,,,,,,,,2.0,Effort,1.0,21.0,5.037068299949169,30,28,Female,1.1428571428571428,0.5,0.4,0.5,3.2777777777777777,3.25,2.2222222222222223,2.6666666666666665,1.5,3.4444444444444446,2.0,1.75,2.0,0.75,,,,,,,,,,,,,,,,,,,,,,,,,,,,,,,,,,,,-1.0720403067173356
2,240627_100231,DEMANDRATING,9.0,-1,,,,,,,,,,,,,,,,,,,,,,,,,,,,,,,,,,,,,,,3.0,Frustration,1.0,14.0,4.253764499910176,30,28,Female,1.1428571428571428,0.5,0.4,0.5,3.2777777777777777,3.25,2.2222222222222223,2.6666666666666665,1.5,3.4444444444444446,2.0,1.75,2.0,0.75,,,,,,,,,,,,,,,,,,,,,,,,,,,,,,,,,,,,-1.2837598657242075
3,240627_100236,DEMANDRATING,9.0,-1,,,,,,,,,,,,,,,,,,,,,,,,,,,,,,,,,,,,,,,4.0,MentalDemand,2.0,53.0,4.246068499982357,30,28,Female,1.1428571428571428,0.5,0.4,0.5,3.2777777777777777,3.25,2.2222222222222223,2.6666666666666665,1.5,3.4444444444444446,2.0,1.75,2.0,0.75,,,,,,,,,,,,,,,,,,,,,,,,,,,,,,,,,,,,-0.10417946554306391
4,240627_100241,DEMANDRATING,9.0,-1,,,,,,,,,,,,,,,,,,,,,,,,,,,,,,,,,,,,,,,5.0,Effort,2.0,58.0,3.0915835998021066,30,28,Female,1.1428571428571428,0.5,0.4,0.5,3.2777777777777777,3.25,2.2222222222222223,2.6666666666666665,1.5,3.4444444444444446,2.0,1.75,2.0,0.75,,,,,,,,,,,,,,,,,,,,,,,,,,,,,,,,,,,,0.04704879089041603
5,240627_100245,DEMANDRATING,9.0,-1,,,,,,,,,,,,,,,,,,,,,,,,,,,,,,,,,,,,,,,6.0,Frustration,2.0,67.0,2.508775500115007,30,28,Female,1.1428571428571428,0.5,0.4,0.5,3.2777777777777777,3.25,2.2222222222222223,2.6666666666666665,1.5,3.4444444444444446,2.0,1.75,2.0,0.75,,,,,,,,,,,,,,,,,,,,,,,,,,,,,,,,,,,,0.31925965247067994
6,240627_100250,DEMANDRATING,9.0,-1,,,,,,,,,,,,,,,,,,,,,,,,,,,,,,,,,,,,,,,7.0,MentalDemand,3.0,93.0,3.2261505001224577,30,28,Female,1.1428571428571428,0.5,0.4,0.5,3.2777777777777777,3.25,2.2222222222222223,2.6666666666666665,1.5,3.4444444444444446,2.0,1.75,2.0,0.75,,,,,,,,,,,,,,,,,,,,,,,,,,,,,,,,,,,,1.1056465859247757
7,240627_100254,DEMANDRATING,9.0,-1,,,,,,,,,,,,,,,,,,,,,,,,,,,,,,,,,,,,,,,8.0,Effort,3.0,92.0,2.9535112001467496,30,28,Female,1.1428571428571428,0.5,0.4,0.5,3.2777777777777777,3.25,2.2222222222222223,2.6666666666666665,1.5,3.4444444444444446,2.0,1.75,2.0,0.75,,,,,,,,,,,,,,,,,,,,,,,,,,,,,,,,,,,,1.0754009346380797
8,240627_100259,DEMANDRATING,9.0,-1,,,,,,,,,,,,,,,,,,,,,,,,,,,,,,,,,,,,,,,9.0,Frustration,3.0,100.0,2.7205087000038475,30,28,Female,1.1428571428571428,0.5,0.4,0.5,3.2777777777777777,3.25,2.2222222222222223,2.6666666666666665,1.5,3.4444444444444446,2.0,1.75,2.0,0.75,,,,,,,,,,,,,,,,,,,,,,,,,,,,,,,,,,,,1.3173661449316476
