,END,Phase,Block,TrialN,NbackLevel,ISI,Letter_Resp,Letter_RT,Letter_Accuracy,Trial_A_measure,Trial_ACC,Trial_RT,TrialCountCali,CaliEnd_A_measure,ISI_calibrated,TrialIndex,TrialNumber_total,TrialNumber_valid,CueLearning,TrialDemandLearning,CueMapping,OfflineRatingTimePoint,CueFigure,TrialDemand,OfflineRating,OfflineRatingRT,PhaseType,CueLeft,CueDemandLeft,CueRight,CueDemandRight,Choice,ChoiceDemand,TaskDemand,ChoiceRT,CueCheck,CueDemandCheck,CorrectAnswer,Answer,AnswerDemand,AnswerRT,AnswerACC,DemandRatingQuesIndex,QuesTLX,DemandLevel,DemandRating,DemandRatingRT,PID,Age,Gender,BAI_bis,BAI_bas_d,BAI_bas_rr,BAI_bas_fs,NFC,BFI_ext,BFI_agr,BFI_con,BFI_neu,BFI_open,UPPS_lps,UPPS_lpm,UPPS_pu,UPPS_ss,Task_A_measure,Task_ACC,Task_RT,Task_RT_z,cue_i_on_zyg_values,cue_i_on_zyg_zvalues,cue_e_on_zyg_values,cue_e_on_zyg_zvalues,cue_i_on_cor_values,cue_i_on_cor_zvalues,cue_e_on_cor_values,cue_e_on_cor_zvalues,cue_i_on_scr_values,cue_i_on_scr_zvalues,cue_e_on_scr_values,cue_e_on_scr_zvalues,cue_e_true_zyg_values,cue_e_true_zyg_zvalues,cue_e_true_cor_values,cue_e_true_cor_zvalues,cue_e_true_scr_values,cue_e_true_scr_zvalues,cue_e_false_zyg_values,cue_e_false_zyg_zvalues,cue_e_false_cor_values,cue_e_false_cor_zvalues,cue_e_false_scr_values,cue_e_false_scr_zvalues,OfflineRating_z,cue_i_off_zyg_values,cue_i_off_zyg_zvalues,cue_i_off_cor_values,cue_i_off_cor_zvalues,cue_i_off_scr_values,cue_i_off_scr_zvalues,DemandRating_z
0,240627_143646,PRACTICE,0.0,1,3.0,1068.0,,,,,,,,,,11.0,1.0,1.0,cue2.png,Hard,A,,,,,,,,,,,,,,,,,,,,,,,,,,,31,21,Female,0.14285714285714285,2.25,0.4,1.0,1.0555555555555556,3.375,3.6666666666666665,0.7777777777777778,1.625,1.7777777777777777,1.25,2.25,3.0,1.0,,,,,,,,,,,,,,,,,,,,,,,,,,,,,,,,,,,,
0,240627_143922,LEARNING,1.0,1,1.0,1068.0,,,,,,,,,,1.0,1.0,1.0,cue1.png,Easy,A,,,,,,,,,,,,,,,,,,,,,,,,,,,31,21,Female,0.14285714285714285,2.25,0.4,1.0,1.0555555555555556,3.375,3.6666666666666665,0.7777777777777778,1.625,1.7777777777777777,1.25,2.25,3.0,1.0,1.0,1.0,0.4608397181780839,0.9542544481439932,,,0.007529855771446285,-0.24878937697530784,0.005714588701439355,0.3169574634060722,0.006250867940506674,0.1069805324973179,9.948163643466914e+44,-0.18400311176938178,,,,,,,,,,,,,,,,,,,,,,
1,240627_143944,LEARNING,1.0,2,3.0,1068.0,,,,,,,,,,2.0,2.0,2.0,cue2.png,Hard,A,,,,,,,,,,,,,,,,,,,,,,,,,,,31,21,Female,0.14285714285714285,2.25,0.4,1.0,1.0555555555555556,3.375,3.6666666666666665,0.7777777777777778,1.625,1.7777777777777777,1.25,2.25,3.0,1.0,0.5833333333333334,0.75,0.5307229636448689,2.21992910836584,0.008382763501159214,0.3248528406305262,0.006486012407820735,-0.971954752528055,0.0036817413348481515,-0.8178998918712908,0.004604657866837631,-0.3298586757944291,3.7169841231855433e+43,-0.18631634417299892,2.284634373035175e+44,-0.16417182749396467,,,,,,,,,,,,,,,,,,,,
2,240627_144006,LEARNING,1.0,3,1.0,1068.0,,,,,,,,,,3.0,3.0,3.0,cue1.png,Easy,A,,,,,,,,,,,,,,,,,,,,,,,,,,,31,21,Female,0.14285714285714285,2.25,0.4,1.0,1.0555555555555556,3.375,3.6666666666666665,0.7777777777777778,1.625,1.7777777777777777,1.25,2.25,3.0,1.0,1.0,1.0,0.4163587363013489,0.14864716349192444,0.006443875559930464,-1.0003808962713006,0.008874983921609923,0.6831034124763931,,,0.004842640853820973,-0.2667073798064248,-1.7206080149309937e+44,-0.1868217489240199,-4.893619676495657e+44,-0.1648307389846482,,,,,,,,,,,,,,,,,,,,
3,240627_144027,LEARNING,1.0,4,3.0,1068.0,,,,,,,,,,4.0,4.0,4.0,cue2.png,Hard,A,,,,,,,,,,,,,,,,,,,,,,,,,,,31,21,Female,0.14285714285714285,2.25,0.4,1.0,1.0555555555555556,3.375,3.6666666666666665,0.7777777777777778,1.625,1.7777777777777777,1.25,2.25,3.0,1.0,0.84375,0.875,0.4235238363670016,0.27841625951023646,,,,,,,,,,,-5.774557342625917e+44,-0.16491160265244037,,,,,,,,,,,,,,,,,,,,
4,240627_144049,LEARNING,1.0,5,3.0,1068.0,,,,,,,,,,5.0,5.0,5.0,cue2.png,Hard,A,,,,,,,,,,,,,,,,,,,,,,,,,,,31,21,Female,0.14285714285714285,2.25,0.4,1.0,1.0555555555555556,3.375,3.6666666666666665,0.7777777777777778,1.625,1.7777777777777777,1.25,2.25,3.0,1.0,0.5833333333333334,0.75,0.4708258363799276,1.135115778748065,,,0.00926632952177835,0.9542241550883437,,,0.003963861550395295,-0.49990073787891526,2.5425013170664253e+48,5.955104637826252,6.805707213027326e+48,6.082762478210187,,,,,,,,,,,,,,,,,,,,
5,240627_144109,LEARNING,1.0,6,1.0,1068.0,,,,,,,,,,6.0,6.0,6.0,cue1.png,Easy,A,,,,,,,,,,,,,,,,,,,,,,,,,,,31,21,Female,0.14285714285714285,2.25,0.4,1.0,1.0555555555555556,3.375,3.6666666666666665,0.7777777777777778,1.625,1.7777777777777777,1.25,2.25,3.0,1.0,1.0,1.0,0.3327271910172633,-1.3660267322929085,,,0.006420202704065142,-1.0175471285394624,,,0.003906619642638089,-0.5150904819253938,,,-7.904780751278294e+43,-0.16445410044129383,,,,,,,,,,,,,,,,,,,,
6,240627_144131,LEARNING,1.0,7,3.0,1068.0,,,,,,,,,,7.0,7.0,7.0,cue2.png,Hard,A,,,,,,,,,,,,,,,,,,,,,,,,,,,31,21,Female,0.14285714285714285,2.25,0.4,1.0,1.0555555555555556,3.375,3.6666666666666665,0.7777777777777778,1.625,1.7777777777777777,1.25,2.25,3.0,1.0,0.5833333333333334,0.75,0.4702593999999491,1.124856893832548,,,0.006374557817767818,-1.0491694988025813,0.008579400986428409,1.9162675476454505,0.006264949145651327,0.11071712881972659,,,,,,,,,,,,,,,,,,,,,,,,
7,240627_144153,LEARNING,1.0,8,3.0,1068.0,,,,,,,,,,8.0,8.0,8.0,cue2.png,Hard,A,,,,,,,,,,,,,,,,,,,,,,,,,,,31,21,Female,0.14285714285714285,2.25,0.4,1.0,1.0555555555555556,3.375,3.6666666666666665,0.7777777777777778,1.625,1.7777777777777777,1.25,2.25,3.0,1.0,0.5833333333333334,0.75,0.4747144636190073,1.205543775139431,0.007390785548862428,-0.353166048802236,0.00899910818045437,0.7690955923286289,0.0035927720863964687,-0.8675678638293621,,,,,1.7202080774288739e+44,-0.1642236377209715,,,,,,,,,,,,,,,,,,,,
8,240627_144214,LEARNING,1.0,9,1.0,1068.0,,,,,,,,,,9.0,9.0,9.0,cue1.png,Easy,A,,,,,,,,,,,,,,,,,,,,,,,,,,,31,21,Female,0.14285714285714285,2.25,0.4,1.0,1.0555555555555556,3.375,3.6666666666666665,0.7777777777777778,1.625,1.7777777777777777,1.25,2.25,3.0,1.0,1.0,1.0,0.3554498090789738,-0.9544911531636395,0.00955522015256769,1.1262292773299911,0.006912684404572979,-0.6763601973282362,,,0.004227886149596356,-0.4298390253858809,3.1186320027971028e+47,0.5669115541076789,,,,,,,,,,,,,,,,,,,,,,
9,240627_144236,LEARNING,1.0,10,1.0,1068.0,,,,,,,,,,10.0,10.0,10.0,cue1.png,Easy,A,,,,,,,,,,,,,,,,,,,,,,,,,,,31,21,Female,0.14285714285714285,2.25,0.4,1.0,1.0555555555555556,3.375,3.6666666666666665,0.7777777777777778,1.625,1.7777777777777777,1.25,2.25,3.0,1.0,0.5833333333333334,0.75,0.4350438363299789,0.48705814414948134,0.011031426382114053,2.135219150555818,0.0064103128279908335,-1.0243987465069384,0.0038108133690811174,-0.7458441390306255,0.004054670292439743,-0.4758036802705548,7.857356336871914e+43,-0.1862163318726714,2.4440856961338626e+44,-0.1641571910227184,,,,,,,,,,,,,,,,,,,,
10,240627_144258,LEARNING,1.0,11,3.0,1068.0,,,,,,,,,,11.0,11.0,11.0,cue2.png,Hard,A,,,,,,,,,,,,,,,,,,,,,,,,,,,31,21,Female,0.14285714285714285,2.25,0.4,1.0,1.0555555555555556,3.375,3.6666666666666665,0.7777777777777778,1.625,1.7777777777777777,1.25,2.25,3.0,1.0,0.84375,0.875,0.4749212182042273,1.2092883642415777,,,0.00680111700491112,-0.7536530970940425,0.012584715235769348,4.152274249754073,,,,,,,,,,,,,,,,,,,,,,,,,,
11,240627_144319,LEARNING,1.0,12,1.0,1068.0,,,,,,,,,,12.0,12.0,12.0,cue1.png,Easy,A,,,,,,,,,,,,,,,,,,,,,,,,,,,31,21,Female,0.14285714285714285,2.25,0.4,1.0,1.0555555555555556,3.375,3.6666666666666665,0.7777777777777778,1.625,1.7777777777777777,1.25,2.25,3.0,1.0,0.84375,0.875,0.444544918179004,0.6591348480959275,0.009147915635995445,0.847835835875116,,,0.003945405445486854,-0.6707067674889386,,,,,6.674393723583973e+43,-0.16432027422784581,,,,,,,,,,,,,,,,,,,,
12,240627_144341,LEARNING,1.0,13,1.0,1068.0,,,,,,,,,,13.0,13.0,13.0,cue1.png,Easy,A,,,,,,,,,,,,,,,,,,,,,,,,,,,31,21,Female,0.14285714285714285,2.25,0.4,1.0,1.0555555555555556,3.375,3.6666666666666665,0.7777777777777778,1.625,1.7777777777777777,1.25,2.25,3.0,1.0,1.0,1.0,0.4144511818674139,0.11409892100692354,0.0074120965879308776,-0.3385999115121955,0.007412627481855081,-0.33000409081243104,,,,,-3.0952275413804744e+43,-0.18648089579389882,-7.535877383310431e+43,-0.1644507141768007,,,,,,,,,,,,,,,,,,,,
13,240627_144402,LEARNING,1.0,14,1.0,1068.0,,,,,,,,,,14.0,14.0,14.0,cue1.png,Easy,A,,,,,,,,,,,,,,,,,,,,,,,,,,,31,21,Female,0.14285714285714285,2.25,0.4,1.0,1.0555555555555556,3.375,3.6666666666666665,0.7777777777777778,1.625,1.7777777777777777,1.25,2.25,3.0,1.0,1.0,1.0,0.3697084545538845,-0.6962489071697994,0.007772384066804532,-0.09234270817733846,0.00749505082609158,-0.2729019328008356,0.005191617475455593,0.025003550800570772,0.006163869499463206,0.08389457845298298,,,,,,,,,,,,,,,,,,,,,,,,
14,240627_144424,LEARNING,1.0,15,3.0,1068.0,,,,,,,,,,15.0,15.0,15.0,cue2.png,Hard,A,,,,,,,,,,,,,,,,,,,,,,,,,,,31,21,Female,0.14285714285714285,2.25,0.4,1.0,1.0555555555555556,3.375,3.6666666666666665,0.7777777777777778,1.625,1.7777777777777777,1.25,2.25,3.0,1.0,0.84375,0.875,0.4920128181957724,1.5188390278871051,0.008826483617373908,0.628136416357472,,,0.0036356522800302556,-0.8436295672603378,,,,,-9.527151423413607e+43,-0.16446899262357995,,,,,,,,,,,,,,,,,,,,
15,240627_144445,LEARNING,1.0,16,1.0,1068.0,,,,,,,,,,16.0,16.0,16.0,cue1.png,Easy,A,,,,,,,,,,,,,,,,,,,,,,,,,,,31,21,Female,0.14285714285714285,2.25,0.4,1.0,1.0555555555555556,3.375,3.6666666666666665,0.7777777777777778,1.625,1.7777777777777777,1.25,2.25,3.0,1.0,1.0,1.0,0.3966470636131072,-0.2083563566716093,0.00896797307258154,0.7248447384166536,0.006422654729611179,-1.015848387103098,0.004159102935959936,-0.5514080080969059,0.006186069342562464,0.08978554099706879,,,,,,,,,,,,,,,,,,,,,,,,
16,240627_144506,LEARNING,1.0,17,1.0,1068.0,,,,,,,,,,17.0,17.0,17.0,cue1.png,Easy,A,,,,,,,,,,,,,,,,,,,,,,,,,,,31,21,Female,0.14285714285714285,2.25,0.4,1.0,1.0555555555555556,3.375,3.6666666666666665,0.7777777777777778,1.625,1.7777777777777777,1.25,2.25,3.0,1.0,1.0,1.0,0.4147425000344149,0.11937506437394318,,,0.007443054527169842,-0.30892450510180824,0.0040674270288084315,-0.6025869993199745,0.0036072212477164306,-0.5945390042575995,,,,,,,,,,,,,,,,,,,,,,,,
17,240627_144528,LEARNING,1.0,18,3.0,1068.0,,,,,,,,,,18.0,18.0,18.0,cue2.png,Hard,A,,,,,,,,,,,,,,,,,,,,,,,,,,,31,21,Female,0.14285714285714285,2.25,0.4,1.0,1.0555555555555556,3.375,3.6666666666666665,0.7777777777777778,1.625,1.7777777777777777,1.25,2.25,3.0,1.0,1.0,1.0,0.4900226000357758,1.4827936399461814,,,,,0.0036049849621258004,-0.8607499039184017,0.0037376891627513135,-0.559917966746702,,,,,,,,,,,,,,,,,,,,,,,,
18,240627_144551,LEARNING,1.0,19,3.0,1068.0,,,,,,,,,,19.0,19.0,19.0,cue2.png,Hard,A,,,,,,,,,,,,,,,,,,,,,,,,,,,31,21,Female,0.14285714285714285,2.25,0.4,1.0,1.0555555555555556,3.375,3.6666666666666665,0.7777777777777778,1.625,1.7777777777777777,1.25,2.25,3.0,1.0,0.5833333333333334,0.75,0.5191245272924955,2.0098666407265515,0.007427114557980483,-0.3283350993245938,,,0.00852169447436259,1.8840523106623068,0.01208850017200439,1.6560578240863655,,,,,,,,,,,,,,,,,,,,,,,,
19,240627_144613,LEARNING,1.0,20,3.0,1068.0,,,,,,,,,,20.0,20.0,20.0,cue2.png,Hard,A,,,,,,,,,,,,,,,,,,,,,,,,,,,31,21,Female,0.14285714285714285,2.25,0.4,1.0,1.0555555555555556,3.375,3.6666666666666665,0.7777777777777778,1.625,1.7777777777777777,1.25,2.25,3.0,1.0,0.84375,0.875,0.462253690908917,0.9798632967844121,0.008168041097814601,0.17808965389339687,0.008005318127227112,0.08060670395123432,0.0033092862596839226,-1.0258266592750276,0.005836241018543688,-0.003045094987190119,1.9902495922035957e+43,-0.1863580541168362,7.252806434978418e+43,-0.1643149648200251,,,,,,,,,,,,,,,,,,,,
20,240627_144634,LEARNING,1.0,21,1.0,1068.0,,,,,,,,,,21.0,21.0,21.0,cue1.png,Easy,A,,,,,,,,,,,,,,,,,,,,,,,,,,,31,21,Female,0.14285714285714285,2.25,0.4,1.0,1.0555555555555556,3.375,3.6666666666666665,0.7777777777777778,1.625,1.7777777777777777,1.25,2.25,3.0,1.0,0.84375,0.875,0.3671209818090905,-0.7431113370015252,0.012356383649205065,3.040830059244787,0.006273633337971308,-1.1190890785765162,0.004533577873490834,-0.3423536323438486,0.003937572041310936,-0.5068769364324779,8.211829411742424e+42,-0.18638629337624849,2.971872912266439e+43,-0.16435426067483191,,,,,,,,,,,,,,,,,,,,
21,240627_144656,LEARNING,1.0,22,3.0,1068.0,,,,,,,,,,22.0,22.0,22.0,cue2.png,Hard,A,,,,,,,,,,,,,,,,,,,,,,,,,,,31,21,Female,0.14285714285714285,2.25,0.4,1.0,1.0555555555555556,3.375,3.6666666666666665,0.7777777777777778,1.625,1.7777777777777777,1.25,2.25,3.0,1.0,0.84375,0.875,0.4730278636667538,1.1749972999830467,0.006538544281384466,-0.9356746381980785,0.008107008273339572,0.15105673052228144,0.007147529763267962,1.1169111295891014,0.004731708694460318,-0.2961443984739129,-5.977831481788205e+42,-0.18642056905373802,-7.402087584710075e+42,-0.16438833488355073,,,,,,,,,,,,,,,,,,,,
22,240627_144716,LEARNING,1.0,23,3.0,1068.0,,,,,,,,,,23.0,23.0,23.0,cue2.png,Hard,A,,,,,,,,,,,,,,,,,,,,,,,,,,,31,21,Female,0.14285714285714285,2.25,0.4,1.0,1.0555555555555556,3.375,3.6666666666666665,0.7777777777777778,1.625,1.7777777777777777,1.25,2.25,3.0,1.0,0.84375,0.875,0.3535520818126811,-0.9888614131152945,0.006764852414047494,-0.780992582591382,0.006917011271842943,-0.6733625822613718,,,0.013921963353183806,2.142586619717769,-1.633852461631243e+43,-0.18644559571076044,-4.102159993233613e+43,-0.1644191951496324,,,,,,,,,,,,,,,,,,,,
23,240627_144737,LEARNING,1.0,24,3.0,1068.0,,,,,,,,,,24.0,24.0,24.0,cue2.png,Hard,A,,,,,,,,,,,,,,,,,,,,,,,,,,,31,21,Female,0.14285714285714285,2.25,0.4,1.0,1.0555555555555556,3.375,3.6666666666666665,0.7777777777777778,1.625,1.7777777777777777,1.25,2.25,3.0,1.0,0.84375,0.875,0.3937031545845622,-0.2616743019750898,0.007245639462915015,-0.45237368519346666,0.007975257032846931,0.05978064578531964,0.006476998268139958,0.7425802222632054,,,-2.1609665718209882e+43,-0.18645832835699958,-6.27493867585038e+43,-0.1644391396769619,,,,,,,,,,,,,,,,,,,,
24,240627_144758,LEARNING,1.0,25,1.0,1068.0,,,,,,,,,,25.0,25.0,25.0,cue1.png,Easy,A,,,,,,,,,,,,,,,,,,,,,,,,,,,31,21,Female,0.14285714285714285,2.25,0.4,1.0,1.0555555555555556,3.375,3.6666666666666665,0.7777777777777778,1.625,1.7777777777777777,1.25,2.25,3.0,1.0,1.0,1.0,0.3660589908884669,-0.7623453463644391,0.006899201761762458,-0.6891645381042983,0.008175882910929074,0.1987724653672833,0.004620501754637343,-0.29382750712187145,0.0051881434115537625,-0.17502463153701495,-1.956252309915435e+43,-0.18645338340442372,-6.517975163612291e+43,-0.16444137057507913,,,,,,,,,,,,,,,,,,,,
25,240627_144819,LEARNING,1.0,26,1.0,1068.0,,,,,,,,,,26.0,26.0,26.0,cue1.png,Easy,A,,,,,,,,,,,,,,,,,,,,,,,,,,,31,21,Female,0.14285714285714285,2.25,0.4,1.0,1.0555555555555556,3.375,3.6666666666666665,0.7777777777777778,1.625,1.7777777777777777,1.25,2.25,3.0,1.0,1.0,1.0,0.3517788090870123,-1.020977642685775,0.0068097113505769125,-0.7503314108824859,0.008087628074904341,0.1376303018375959,0.004819401158968574,-0.18278992718585899,,,-1.3333591941456376e+43,-0.18643833717907218,-4.784562158796147e+43,-0.1644254591049766,,,,,,,,,,,,,,,,,,,,
26,240627_144840,LEARNING,1.0,27,3.0,1068.0,,,,,,,,,,27.0,27.0,27.0,cue2.png,Hard,A,,,,,,,,,,,,,,,,,,,,,,,,,,,31,21,Female,0.14285714285714285,2.25,0.4,1.0,1.0555555555555556,3.375,3.6666666666666665,0.7777777777777778,1.625,1.7777777777777777,1.25,2.25,3.0,1.0,0.5833333333333334,0.75,0.3707753181753849,-0.6769266469824512,,,,,0.004455459569590984,-0.38596395607966144,0.0036414746393574173,-0.585449505459669,2.8223486136046616e+43,-0.18633795444150858,,,,,,,,,,,,,,,,,,,,,,
27,240627_144900,LEARNING,1.0,28,1.0,1068.0,,,,,,,,,,28.0,28.0,28.0,cue1.png,Easy,A,,,,,,,,,,,,,,,,,,,,,,,,,,,31,21,Female,0.14285714285714285,2.25,0.4,1.0,1.0555555555555556,3.375,3.6666666666666665,0.7777777777777778,1.625,1.7777777777777777,1.25,2.25,3.0,1.0,1.0,1.0,0.3624141091184521,-0.8283588015924861,0.007569985448141567,-0.23068256374655907,0.011478813737106493,2.4870134932559953,0.007232256903726944,1.1642109023717127,,,6.799177279605026e+42,-0.18638970569238833,1.1242504007093096e+43,-0.16437122050510417,,,,,,,,,,,,,,,,,,,,
28,240627_144921,LEARNING,1.0,29,1.0,1068.0,,,,,,,,,,29.0,29.0,29.0,cue1.png,Easy,A,,,,,,,,,,,,,,,,,,,,,,,,,,,31,21,Female,0.14285714285714285,2.25,0.4,1.0,1.0555555555555556,3.375,3.6666666666666665,0.7777777777777778,1.625,1.7777777777777777,1.25,2.25,3.0,1.0,1.0,1.0,0.3210346636743369,-1.5777933077151503,,,0.007531289176779326,-0.24779632654062628,0.005439611178978969,0.1634485138269428,0.00510411358220087,-0.19732283315450047,1.4219339263050533e+43,-0.18637178200266996,3.913567472167536e+43,-0.16434561660397637,,,,,,,,,,,,,,,,,,,,
29,240627_144942,LEARNING,1.0,30,3.0,1068.0,,,,,,,,,,30.0,30.0,30.0,cue2.png,Hard,A,,,,,,,,,,,,,,,,,,,,,,,,,,,31,21,Female,0.14285714285714285,2.25,0.4,1.0,1.0555555555555556,3.375,3.6666666666666665,0.7777777777777778,1.625,1.7777777777777777,1.25,2.25,3.0,1.0,0.84375,0.875,0.3859013363888318,-0.4029751749960343,0.007087470516419599,-0.5604824724878508,0.011014972718256287,2.1656685709407104,0.004347354576309035,-0.4463146487998696,,,1.8110003637358989e+43,-0.18636238395163024,5.364413272546056e+43,-0.16433229889520648,,,,,,,,,,,,,,,,,,,,
30,240627_145003,LEARNING,1.0,31,3.0,1068.0,,,,,,,,,,31.0,31.0,31.0,cue2.png,Hard,A,,,,,,,,,,,,,,,,,,,,,,,,,,,31,21,Female,0.14285714285714285,2.25,0.4,1.0,1.0555555555555556,3.375,3.6666666666666665,0.7777777777777778,1.625,1.7777777777777777,1.25,2.25,3.0,1.0,0.5833333333333334,0.75,0.431062390921976,0.41494909239742755,0.00874674216128655,0.5736329736419163,0.008460231362240046,0.39576653722297717,,,,,1.7951798818839466e+43,-0.18636276610151933,5.582251334660484e+43,-0.16433029930030157,,,,,,,,,,,,,,,,,,,,
31,240627_145023,LEARNING,1.0,32,1.0,1068.0,,,,,,,,,,32.0,32.0,32.0,cue1.png,Easy,A,,,,,,,,,,,,,,,,,,,,,,,,,,,31,21,Female,0.14285714285714285,2.25,0.4,1.0,1.0555555555555556,3.375,3.6666666666666665,0.7777777777777778,1.625,1.7777777777777777,1.25,2.25,3.0,1.0,1.0,1.0,0.3187406909101727,-1.6193400787537346,,,,,,,0.003565113132167057,-0.605712836901114,1.3177422980307247e+43,-0.1863742987919538,4.3274213733913344e+43,-0.16434181772629525,,,,,,,,,,,,,,,,,,,,
32,240627_145044,LEARNING,1.0,33,1.0,1068.0,,,,,,,,,,33.0,33.0,33.0,cue1.png,Easy,A,,,,,,,,,,,,,,,,,,,,,,,,,,,31,21,Female,0.14285714285714285,2.25,0.4,1.0,1.0555555555555556,3.375,3.6666666666666665,0.7777777777777778,1.625,1.7777777777777777,1.25,2.25,3.0,1.0,1.0,1.0,0.3579617363866418,-0.9089969475010563,0.008410471158982982,0.34379107947238446,,,0.006078765397737015,0.5202627430872694,0.00434964164692591,-0.39752991981707175,6.157908736675302e+42,-0.1863912547014821,2.1345161260333802e+43,-0.1643619470008444,,,,,,,,,,,,,,,,,,,,
33,240627_145105,LEARNING,1.0,34,1.0,1068.0,,,,,,,,,,34.0,34.0,34.0,cue1.png,Easy,A,,,,,,,,,,,,,,,,,,,,,,,,,,,31,21,Female,0.14285714285714285,2.25,0.4,1.0,1.0555555555555556,3.375,3.6666666666666665,0.7777777777777778,1.625,1.7777777777777777,1.25,2.25,3.0,1.0,0.84375,0.875,0.3716224181381138,-0.6615845868027985,0.008964622588354666,0.7225546758307787,0.007328992146904021,-0.3879459051851275,0.0037852967996132546,-0.7600890189059935,0.004913373606505543,-0.24793769774868052,-3.7665864478107525e+42,-0.1864152277053997,-7.193456732647769e+42,-0.16438814337560914,,,,,,,,,,,,,,,,,,,,
34,240627_145126,LEARNING,1.0,35,3.0,1068.0,,,,,,,,,,35.0,35.0,35.0,cue2.png,Hard,A,,,,,,,,,,,,,,,,,,,,,,,,,,,31,21,Female,0.14285714285714285,2.25,0.4,1.0,1.0555555555555556,3.375,3.6666666666666665,0.7777777777777778,1.625,1.7777777777777777,1.25,2.25,3.0,1.0,0.84375,0.875,0.3979599909348921,-0.18457756919835308,0.010299386148082764,1.6348682049034524,0.007347280919740808,-0.3752756064240404,0.004847519382241672,-0.16709264807713978,0.003939627112091717,-0.5063316017226379,-1.1762395108625072e+43,-0.18643454189204464,-3.482449560824275e+43,-0.1644135066587822,,,,,,,,,,,,,,,,,,,,
35,240627_145147,LEARNING,1.0,36,3.0,1068.0,,,,,,,,,,36.0,36.0,36.0,cue2.png,Hard,A,,,,,,,,,,,,,,,,,,,,,,,,,,,31,21,Female,0.14285714285714285,2.25,0.4,1.0,1.0555555555555556,3.375,3.6666666666666665,0.7777777777777778,1.625,1.7777777777777777,1.25,2.25,3.0,1.0,0.5833333333333334,0.75,0.3772444726941599,-0.5597620119861445,0.008819784902471721,0.6235578314926656,,,0.0066783384915363175,0.8549804138317912,0.00450752758266946,-0.3556332212888618,-1.616212495846313e+43,-0.18644516961052965,-4.715623037944946e+43,-0.16442482629400929,,,,,,,,,,,,,,,,,,,,
36,240627_145208,LEARNING,1.0,37,1.0,1068.0,,,,,,,,,,37.0,37.0,37.0,cue1.png,Easy,A,,,,,,,,,,,,,,,,,,,,,,,,,,,31,21,Female,0.14285714285714285,2.25,0.4,1.0,1.0555555555555556,3.375,3.6666666666666665,0.7777777777777778,1.625,1.7777777777777777,1.25,2.25,3.0,1.0,1.0,1.0,0.3687175727153027,-0.7141950404094629,,,0.006643989615240866,-0.8625095517309214,0.004476935918594875,-0.373974569649514,0.004916252766180667,-0.24717368235772658,-1.5837049752610645e+43,-0.1864443843787331,-5.009993624913834e+43,-0.16442752840180508,,,,,,,,,,,,,,,,,,,,
37,240627_145230,LEARNING,1.0,38,3.0,1068.0,,,,,,,,,,38.0,38.0,38.0,cue2.png,Hard,A,,,,,,,,,,,,,,,,,,,,,,,,,,,31,21,Female,0.14285714285714285,2.25,0.4,1.0,1.0555555555555556,3.375,3.6666666666666665,0.7777777777777778,1.625,1.7777777777777777,1.25,2.25,3.0,1.0,1.0,1.0,0.4808696454856545,1.3170219651638917,0.007832501083321477,-0.05125260866408319,0.008928875349747635,0.7204389134014746,0.004765675740784141,-0.2127826787293232,0.004412740227949092,-0.3807860457396489,-1.0550027574262695e+43,-0.18643161337113645,-3.227711206077879e+43,-0.16441116834604066,,,,,,,,,,,,,,,,,,,,
38,240627_145251,LEARNING,1.0,39,3.0,1068.0,,,,,,,,,,39.0,39.0,39.0,cue2.png,Hard,A,,,,,,,,,,,,,,,,,,,,,,,,,,,31,21,Female,0.14285714285714285,2.25,0.4,1.0,1.0555555555555556,3.375,3.6666666666666665,0.7777777777777778,1.625,1.7777777777777777,1.25,2.25,3.0,1.0,0.84375,0.875,0.4078958454457196,-0.004626578113052354,0.0062858682663730694,-1.1083791934633016,,,0.004390963877986747,-0.421969320379837,0.004014008004044847,-0.48659384742714834,-1.0099260915364106e+42,-0.18640856888514817,-8.1684340064328e+42,-0.1643890383338043,,,,,,,,,,,,,,,,,,,,
39,240627_145312,LEARNING,1.0,40,3.0,1068.0,,,,,,,,,,40.0,40.0,40.0,cue2.png,Hard,A,,,,,,,,,,,,,,,,,,,,,,,,,,,31,21,Female,0.14285714285714285,2.25,0.4,1.0,1.0555555555555556,3.375,3.6666666666666665,0.7777777777777778,1.625,1.7777777777777777,1.25,2.25,3.0,1.0,0.15625,0.625,0.4216201999436386,0.2439389771912426,0.006294285469251412,-1.1026260186729846,0.010892216230369522,2.0806239706130945,,,0.006429303926861203,0.15433040372981555,7.92339527177358e+42,-0.18638699010012602,2.1536412881899485e+43,-0.16436177144577183,,,,,,,,,,,,,,,,,,,,
40,240627_145333,LEARNING,1.0,41,1.0,1068.0,,,,,,,,,,41.0,41.0,41.0,cue1.png,Easy,A,,,,,,,,,,,,,,,,,,,,,,,,,,,31,21,Female,0.14285714285714285,2.25,0.4,1.0,1.0555555555555556,3.375,3.6666666666666665,0.7777777777777778,1.625,1.7777777777777777,1.25,2.25,3.0,1.0,1.0,1.0,0.3825582546097311,-0.46352264766411755,0.007672382107128306,-0.16069424510795804,,,0.0040325359358606965,-0.6220653006012954,0.0243306399057443,4.9046387401080365,1.5020041813941389e+43,-0.1863698478745322,4.601753964226155e+43,-0.16433929955272375,,,,,,,,,,,,,,,,,,,,
41,240627_145355,LEARNING,1.0,42,3.0,1068.0,,,,,,,,,,42.0,42.0,42.0,cue2.png,Hard,A,,,,,,,,,,,,,,,,,,,,,,,,,,,31,21,Female,0.14285714285714285,2.25,0.4,1.0,1.0555555555555556,3.375,3.6666666666666665,0.7777777777777778,1.625,1.7777777777777777,1.25,2.25,3.0,1.0,1.0,1.0,0.4400100181598894,0.5770020278112575,0.007760667944952655,-0.10035070060103678,0.008632240917982488,0.5149332238272775,0.004567571168818916,-0.32337653555478746,,,1.6797438132200234e+43,-0.1863655545046319,,,,,,,,,,,,,,,,,,,,,,
42,240627_145416,LEARNING,1.0,43,3.0,1068.0,,,,,,,,,,43.0,43.0,43.0,cue2.png,Hard,A,,,,,,,,,,,,,,,,,,,,,,,,,,,31,21,Female,0.14285714285714285,2.25,0.4,1.0,1.0555555555555556,3.375,3.6666666666666665,0.7777777777777778,1.625,1.7777777777777777,1.25,2.25,3.0,1.0,0.5833333333333334,0.75,0.3435299272902987,-1.170375407422216,,,,,,,0.007293731896561481,0.3837154840115125,1.1995710263575435e+43,-0.18637715326495832,3.657790329286759e+43,-0.16434796445203712,,,,,,,,,,,,,,,,,,,,
43,240627_145436,LEARNING,1.0,44,1.0,1068.0,,,,,,,,,,44.0,44.0,44.0,cue1.png,Easy,A,,,,,,,,,,,,,,,,,,,,,,,,,,,31,21,Female,0.14285714285714285,2.25,0.4,1.0,1.0555555555555556,3.375,3.6666666666666665,0.7777777777777778,1.625,1.7777777777777777,1.25,2.25,3.0,1.0,1.0,1.0,0.3710867818656631,-0.6712856425080433,0.008258912426121772,0.2402003862513618,,,,,0.005140184324762748,-0.1877510811191683,1.695391057433514e+42,-0.18640203408640982,8.215632791291554e+42,-0.1643739989526363,,,,,,,,,,,,,,,,,,,,
44,240627_145457,LEARNING,1.0,45,1.0,1068.0,,,,,,,,,,45.0,45.0,45.0,cue1.png,Easy,A,,,,,,,,,,,,,,,,,,,,,,,,,,,31,21,Female,0.14285714285714285,2.25,0.4,1.0,1.0555555555555556,3.375,3.6666666666666665,0.7777777777777778,1.625,1.7777777777777777,1.25,2.25,3.0,1.0,1.0,1.0,0.3302566545634446,-1.410771296828607,0.005207367850826114,-1.8455363573990797,,,0.004207007160416657,-0.5246649961192142,0.004521185874704526,-0.3520088494212315,-9.327373901282143e+42,-0.1864286600036606,-3.0368663383109933e+43,-0.16440941652901883,,,,,,,,,,,,,,,,,,,,
45,240627_145517,LEARNING,1.0,46,1.0,1068.0,,,,,,,,,,46.0,46.0,46.0,cue1.png,Easy,A,,,,,,,,,,,,,,,,,,,,,,,,,,,31,21,Female,0.14285714285714285,2.25,0.4,1.0,1.0555555555555556,3.375,3.6666666666666665,0.7777777777777778,1.625,1.7777777777777777,1.25,2.25,3.0,1.0,1.0,1.0,0.3351983909114179,-1.3212701520069943,0.009202436617003578,0.8851010340665969,0.006704450177668686,-0.8206230131391706,0.005671131834560058,0.29269723323543323,0.0047890615606009275,-0.2809252104499405,-1.791199865818174e+43,-0.18644939649847495,-5.524067234610521e+43,-0.1644322472234872,,,,,,,,,,,,,,,,,,,,
46,240627_145539,LEARNING,1.0,47,3.0,1068.0,,,,,,,,,,47.0,47.0,47.0,cue2.png,Hard,A,,,,,,,,,,,,,,,,,,,,,,,,,,,31,21,Female,0.14285714285714285,2.25,0.4,1.0,1.0555555555555556,3.375,3.6666666666666665,0.7777777777777778,1.625,1.7777777777777777,1.25,2.25,3.0,1.0,0.5833333333333334,0.75,0.4859200546052307,1.4084913124116394,0.007021176649039502,-0.6057944617646126,0.011340807826768317,2.3914042290158415,0.005836285181096998,0.38489573920610215,0.00904149943192585,0.8475040360551344,-1.256200666750575e+43,-0.18643647338484878,-4.096458796038821e+43,-0.16441914281679051,,,,,,,,,,,,,,,,,,,,
47,240627_145601,LEARNING,1.0,48,3.0,1068.0,,,,,,,,,,48.0,48.0,48.0,cue2.png,Hard,A,,,,,,,,,,,,,,,,,,,,,,,,,,,31,21,Female,0.14285714285714285,2.25,0.4,1.0,1.0555555555555556,3.375,3.6666666666666665,0.7777777777777778,1.625,1.7777777777777777,1.25,2.25,3.0,1.0,0.5833333333333334,0.75,0.4547668090936812,0.8442663230845644,0.006648714106949874,-0.8603733448518825,0.005962123985904934,-1.334899980312615,0.003590755846609876,-0.8686934498371569,0.0037565205301953557,-0.5549208647504958,4.997724830406722e+42,-0.18639405717080806,1.5692422067919742e+43,-0.16436713580411327,,,,,,,,,,,,,,,,,,,,
48,240627_145622,LEARNING,1.0,49,1.0,1068.0,,,,,,,,,,49.0,49.0,49.0,cue1.png,Easy,A,,,,,,,,,,,,,,,,,,,,,,,,,,,31,21,Female,0.14285714285714285,2.25,0.4,1.0,1.0555555555555556,3.375,3.6666666666666665,0.7777777777777778,1.625,1.7777777777777777,1.25,2.25,3.0,1.0,0.84375,0.875,0.3544617362997748,-0.9723864107569854,,,0.007167828811800004,-0.4995984268345712,0.0050805922137578344,-0.036977410943043125,,,,,,,,,,,,,,,,,,,,,,,,,,
49,240627_145643,LEARNING,1.0,50,1.0,1068.0,,,,,,,,,,50.0,50.0,50.0,cue1.png,Easy,A,,,,,,,,,,,,,,,,,,,,,,,,,,,31,21,Female,0.14285714285714285,2.25,0.4,1.0,1.0555555555555556,3.375,3.6666666666666665,0.7777777777777778,1.625,1.7777777777777777,1.25,2.25,3.0,1.0,1.0,1.0,0.3818192545493895,-0.47690688080940485,0.005446322076644466,-1.6822106721461962,0.008178424475963984,0.2005332389632166,0.004098237726862342,-0.5853866192607755,0.004184373079188846,-0.4413856776213362,-1.2937245273588498e+43,-0.1864373797882886,-2.2600328136675684e+43,-0.1644022857625093,,,,,,,,,,,,,,,,,,,,
0,240627_145815,TrueCHOICE,9.0,1,1.0,1068.0,,,,,,,,,,,1.0,1.0,,,A,,,,,,True,cue1.png,Easy,cue2.png,Hard,Left,Easy,Easy,0.0163278002291917,,,,,,,,,,,,,31,21,Female,0.14285714285714285,2.25,0.4,1.0,1.0555555555555556,3.375,3.6666666666666665,0.7777777777777778,1.625,1.7777777777777777,1.25,2.25,3.0,1.0,1.0,1.0,0.4214937090662054,1.023521432307851,,,,,,,,,,,,,,,,,6896151.540941727,0.10285835971729035,,,,,,,,,,,,,,
1,240627_145833,TrueCHOICE,9.0,2,1.0,1068.0,,,,,,,,,,,2.0,2.0,,,A,,,,,,True,cue1.png,Easy,cue2.png,Hard,Left,Easy,Easy,0.0173919999506324,,,,,,,,,,,,,31,21,Female,0.14285714285714285,2.25,0.4,1.0,1.0555555555555556,3.375,3.6666666666666665,0.7777777777777778,1.625,1.7777777777777777,1.25,2.25,3.0,1.0,1.0,1.0,0.3727425454523075,-0.16878192551416113,,,,,,,,,,,,,0.006774312221117,1.7056473318047451,0.004419968421922849,-0.5457788909391257,2085777.3411752535,-0.5530858742718314,,,,,,,,,,,,,,
2,240627_145853,TrueCHOICE,9.0,3,1.0,1068.0,,,,,,,,,,,3.0,3.0,,,A,,,,,,True,cue2.png,Hard,cue1.png,Easy,Right,Easy,Easy,0.0165014001540839,,,,,,,,,,,,,31,21,Female,0.14285714285714285,2.25,0.4,1.0,1.0555555555555556,3.375,3.6666666666666665,0.7777777777777778,1.625,1.7777777777777777,1.25,2.25,3.0,1.0,1.0,1.0,0.3413916545793075,-0.9355281872984281,,,,,,,,,,,,,,,0.005274617992165661,1.161632281415633,1994646.075352079,-0.5655125641446781,,,,,,,,,,,,,,
3,240627_145912,TrueCHOICE,9.0,4,1.0,1068.0,,,,,,,,,,,4.0,4.0,,,A,,,,,,True,cue1.png,Easy,cue2.png,Hard,Left,Easy,Easy,0.0142785001080483,,,,,,,,,,,,,31,21,Female,0.14285714285714285,2.25,0.4,1.0,1.0555555555555556,3.375,3.6666666666666665,0.7777777777777778,1.625,1.7777777777777777,1.25,2.25,3.0,1.0,0.84375,0.875,0.3472416818311268,-0.792454532873777,,,,,,,,,,,,,0.006301742153290804,-0.29413259026929844,0.004166852046935773,-1.0514524928530489,-305679.96628982236,-0.8791857921823797,,,,,,,,,,,,,,
4,240627_145931,TrueCHOICE,9.0,5,3.0,1068.0,,,,,,,,,,,5.0,5.0,,,A,,,,,,True,cue2.png,Hard,cue1.png,Easy,Left,Hard,Hard,0.0167719000019133,,,,,,,,,,,,,31,21,Female,0.14285714285714285,2.25,0.4,1.0,1.0555555555555556,3.375,3.6666666666666665,0.7777777777777778,1.625,1.7777777777777777,1.25,2.25,3.0,1.0,0.84375,0.875,0.3886851363773034,0.22112476148923277,,,,,,,,,,,,,,,,,,,,,,,,,,,,,,,,
5,240627_145951,TrueCHOICE,9.0,6,3.0,1068.0,,,,,,,,,,,6.0,6.0,,,A,,,,,,True,cue2.png,Hard,cue1.png,Easy,Left,Hard,Hard,0.0167926999274641,,,,,,,,,,,,,31,21,Female,0.14285714285714285,2.25,0.4,1.0,1.0555555555555556,3.375,3.6666666666666665,0.7777777777777778,1.625,1.7777777777777777,1.25,2.25,3.0,1.0,1.0,1.0,0.4756483272437684,2.347976651593532,,,,,,,,,,,,,,,,,,,,,,,,,,,,,,,,
6,240627_150010,TrueCHOICE,9.0,7,1.0,1068.0,,,,,,,,,,,7.0,7.0,,,A,,,,,,True,cue1.png,Easy,cue2.png,Hard,Left,Easy,Easy,0.0165864999871701,,,,,,,,,,,,,31,21,Female,0.14285714285714285,2.25,0.4,1.0,1.0555555555555556,3.375,3.6666666666666665,0.7777777777777778,1.625,1.7777777777777777,1.25,2.25,3.0,1.0,0.84375,0.875,0.3754444545431232,-0.10270154829438563,,,,,,,,,,,,,0.006219478068270873,-0.6422504181448327,,,,,,,,,,,,,,,,,,
7,240627_150028,TrueCHOICE,9.0,8,1.0,1068.0,,,,,,,,,,,8.0,8.0,,,A,,,,,,True,cue2.png,Hard,cue1.png,Easy,Right,Easy,Easy,0.0169774999376386,,,,,,,,,,,,,31,21,Female,0.14285714285714285,2.25,0.4,1.0,1.0555555555555556,3.375,3.6666666666666665,0.7777777777777778,1.625,1.7777777777777777,1.25,2.25,3.0,1.0,1.0,1.0,0.3405830363573676,-0.9553044992825005,,,,,,,,,,,,,,,0.0040583013000452025,-1.2683141920355077,20038298.19496273,1.8949258708815986,,,,,,,,,,,,,,
8,240627_150046,TrueCHOICE,9.0,9,1.0,1068.0,,,,,,,,,,,9.0,9.0,,,A,,,,,,True,cue1.png,Easy,cue2.png,Hard,Left,Easy,Easy,0.0161730998661369,,,,,,,,,,,,,31,21,Female,0.14285714285714285,2.25,0.4,1.0,1.0555555555555556,3.375,3.6666666666666665,0.7777777777777778,1.625,1.7777777777777777,1.25,2.25,3.0,1.0,0.84375,0.875,0.3418627182148736,-0.9240074211710493,,,,,,,,,,,,,,,0.0049665910249029775,0.5462587954833354,,,,,,,,,,,,,,,,
9,240627_150105,TrueCHOICE,9.0,10,1.0,1068.0,,,,,,,,,,,10.0,10.0,,,A,,,,,,True,cue2.png,Hard,cue1.png,Easy,Right,Easy,Easy,0.016330000013113,,,,,,,,,,,,,31,21,Female,0.14285714285714285,2.25,0.4,1.0,1.0555555555555556,3.375,3.6666666666666665,0.7777777777777778,1.625,1.7777777777777777,1.25,2.25,3.0,1.0,1.0,1.0,0.3913441181648522,0.286155269043687,,,,,,,,,,,,,0.006189463280566326,-0.7692643233906103,0.005272626901707774,1.157654498928714,,,,,,,,,,,,,,,,
0,240627_150242,FalseCHOICE,9.0,1,2.0,1068.0,,,,,,,,,,,1.0,1.0,,,A,,,,,,False,cue1.png,Easy,cue2.png,Hard,Left,Easy,Mid,0.0163155000191181,,,,,,,,,,,,,31,21,Female,0.14285714285714285,2.25,0.4,1.0,1.0555555555555556,3.375,3.6666666666666665,0.7777777777777778,1.625,1.7777777777777777,1.25,2.25,3.0,1.0,0.84375,0.875,0.4224033636379648,0.9183165731890943,,,,,,,,,,,,,,,,,,,0.007538846088264133,0.10958427879542446,0.004162766244227089,-0.5569060387197359,,,,,,,,,,
1,240627_150302,FalseCHOICE,9.0,2,2.0,1068.0,,,,,,,,,,,2.0,2.0,,,A,,,,,,False,cue2.png,Hard,cue1.png,Easy,Left,Hard,Mid,0.0161152000073343,,,,,,,,,,,,,31,21,Female,0.14285714285714285,2.25,0.4,1.0,1.0555555555555556,3.375,3.6666666666666665,0.7777777777777778,1.625,1.7777777777777777,1.25,2.25,3.0,1.0,0.84375,0.875,0.4206673090811819,0.8745535422531289,,,,,,,,,,,,,,,,,,,0.005389284048304908,-0.8103097620202734,0.0053344917141582284,0.011886039637968603,2.9840900544038673e+44,3.1375624431371087,,,,,,,,
2,240627_150321,FalseCHOICE,9.0,3,2.0,1068.0,,,,,,,,,,,3.0,3.0,,,A,,,,,,False,cue2.png,Hard,cue1.png,Easy,Right,Easy,Mid,0.0168530000373721,,,,,,,,,,,,,31,21,Female,0.14285714285714285,2.25,0.4,1.0,1.0555555555555556,3.375,3.6666666666666665,0.7777777777777778,1.625,1.7777777777777777,1.25,2.25,3.0,1.0,0.5833333333333334,0.75,0.4292198636315085,1.090149133938369,,,,,,,,,,,,,,,,,,,0.005066083459118642,-0.9486217951013042,0.004325213668304999,-0.47804899384337957,-2.9461190026154743e+44,-2.9736058886338173,,,,,,,,
3,240627_150340,FalseCHOICE,9.0,4,2.0,1068.0,,,,,,,,,,,4.0,4.0,,,A,,,,,,False,cue2.png,Hard,cue1.png,Easy,Left,Hard,Mid,0.0152183999307453,,,,,,,,,,,,,31,21,Female,0.14285714285714285,2.25,0.4,1.0,1.0555555555555556,3.375,3.6666666666666665,0.7777777777777778,1.625,1.7777777777777777,1.25,2.25,3.0,1.0,0.5833333333333334,0.75,0.4245081454600123,0.9713746015971488,,,,,,,,,,,,,,,,,,,0.008631394975814194,0.5771349669235909,0.007574661898919578,1.099334497458258,-3.113118852391035e+44,-3.1457017091261674,,,,,,,,
4,240627_150359,FalseCHOICE,9.0,5,2.0,1068.0,,,,,,,,,,,5.0,5.0,,,A,,,,,,False,cue1.png,Easy,cue2.png,Hard,Left,Easy,Mid,0.0159092999529093,,,,,,,,,,,,,31,21,Female,0.14285714285714285,2.25,0.4,1.0,1.0555555555555556,3.375,3.6666666666666665,0.7777777777777778,1.625,1.7777777777777777,1.25,2.25,3.0,1.0,0.5833333333333334,0.75,0.3777686272409152,-0.20685045691995665,,,,,,,,,,,,,,,,,,,0.007423465731224894,0.060207847273774984,,,,,,,,,,,,
5,240627_150419,FalseCHOICE,9.0,6,2.0,1068.0,,,,,,,,,,,6.0,6.0,,,A,,,,,,False,cue2.png,Hard,cue1.png,Easy,Right,Easy,Mid,0.0165735001210123,,,,,,,,,,,,,31,21,Female,0.14285714285714285,2.25,0.4,1.0,1.0555555555555556,3.375,3.6666666666666665,0.7777777777777778,1.625,1.7777777777777777,1.25,2.25,3.0,1.0,0.84375,0.875,0.4709328727542676,2.141664307548064,,,,,,,,,,,,,,,,,,,0.007219931526019501,-0.026893571057073292,0.00412778650565104,-0.5738862945182631,-5.947943303971702e+43,-0.5505309622003618,,,,,,,,
6,240627_150438,FalseCHOICE,9.0,7,2.0,1068.0,,,,,,,,,,,7.0,7.0,,,A,,,,,,False,cue2.png,Hard,cue1.png,Easy,Right,Easy,Mid,0.0167022999376058,,,,,,,,,,,,,31,21,Female,0.14285714285714285,2.25,0.4,1.0,1.0555555555555556,3.375,3.6666666666666665,0.7777777777777778,1.625,1.7777777777777777,1.25,2.25,3.0,1.0,1.0,1.0,0.4084657363974573,0.5669723082769476,,,,,,,,,,,,,,,,,,,0.005731545039800674,-0.6638409276122189,0.004168919088613848,-0.553919256204236,,,,,,,,,,
7,240627_150456,FalseCHOICE,9.0,8,2.0,1068.0,,,,,,,,,,,8.0,8.0,,,A,,,,,,False,cue1.png,Easy,cue2.png,Hard,Right,Hard,Mid,0.0166118999477475,,,,,,,,,,,,,31,21,Female,0.14285714285714285,2.25,0.4,1.0,1.0555555555555556,3.375,3.6666666666666665,0.7777777777777778,1.625,1.7777777777777777,1.25,2.25,3.0,1.0,0.84375,0.875,0.3810064272574064,-0.12523093538328955,,,,,,,,,,,,,,,,,,,0.007111245395135974,-0.07340524285835252,0.0045920481596489135,-0.3485192116513566,,,,,,,,,,
8,240627_150516,FalseCHOICE,9.0,9,2.0,1068.0,,,,,,,,,,,9.0,9.0,,,A,,,,,,False,cue1.png,Easy,cue2.png,Hard,Left,Easy,Mid,0.0160161000676453,,,,,,,,,,,,,31,21,Female,0.14285714285714285,2.25,0.4,1.0,1.0555555555555556,3.375,3.6666666666666665,0.7777777777777778,1.625,1.7777777777777777,1.25,2.25,3.0,1.0,0.5833333333333334,0.75,0.4171965636566959,0.7870618567014332,,,,,,,,,,,,,,,,,,,0.007667821363383098,0.16477858572352386,0.005196759837671787,-0.054973307788722926,,,,,,,,,,
9,240627_150535,FalseCHOICE,9.0,10,2.0,1068.0,,,,,,,,,,,10.0,10.0,,,A,,,,,,False,cue2.png,Hard,cue1.png,Easy,Right,Easy,Mid,0.0164010000880807,,,,,,,,,,,,,31,21,Female,0.14285714285714285,2.25,0.4,1.0,1.0555555555555556,3.375,3.6666666666666665,0.7777777777777778,1.625,1.7777777777777777,1.25,2.25,3.0,1.0,0.5833333333333334,0.75,0.4035612908403643,0.4433394409801073,,,,,,,,,,,,,,,,,,,0.00798736654132872,0.3015263043281685,0.0036395822913705867,-0.8108758426927927,,,,,,,,,,
10,240627_150554,FalseCHOICE,9.0,11,2.0,1068.0,,,,,,,,,,,11.0,11.0,,,A,,,,,,False,cue1.png,Easy,cue2.png,Hard,Left,Easy,Mid,0.0159793999046087,,,,,,,,,,,,,31,21,Female,0.14285714285714285,2.25,0.4,1.0,1.0555555555555556,3.375,3.6666666666666665,0.7777777777777778,1.625,1.7777777777777777,1.25,2.25,3.0,1.0,0.84375,0.875,0.3691075999628413,-0.42518046459550385,,,,,,,,,,,,,,,,,,,0.007576043009498712,0.12550251029760945,0.0037802900802342844,-0.7425718946070665,1.2694090569771715e+44,1.3705582600113548,,,,,,,,
11,240627_150613,FalseCHOICE,9.0,12,2.0,1068.0,,,,,,,,,,,12.0,12.0,,,A,,,,,,False,cue2.png,Hard,cue1.png,Easy,Left,Hard,Mid,0.0160521999932825,,,,,,,,,,,,,31,21,Female,0.14285714285714285,2.25,0.4,1.0,1.0555555555555556,3.375,3.6666666666666665,0.7777777777777778,1.625,1.7777777777777777,1.25,2.25,3.0,1.0,0.5833333333333334,0.75,0.4013553000139919,0.38773010289692506,,,,,,,,,,,,,,,,,,,0.006067030406716332,-0.5202716869624188,0.004688716237633657,-0.3015935124165196,,,,,,,,,,
12,240627_150632,FalseCHOICE,9.0,13,2.0,1068.0,,,,,,,,,,,13.0,13.0,,,A,,,,,,False,cue1.png,Easy,cue2.png,Hard,Left,Easy,Mid,0.0163092999719083,,,,,,,,,,,,,31,21,Female,0.14285714285714285,2.25,0.4,1.0,1.0555555555555556,3.375,3.6666666666666665,0.7777777777777778,1.625,1.7777777777777777,1.25,2.25,3.0,1.0,0.84375,0.875,0.3726023273034529,-0.337084235060322,,,,,,,,,,,,,,,,,,,0.013904736384843321,2.8338343536714916,0.006385606648614117,0.5221300033516897,,,,,,,,,,
13,240627_150651,FalseCHOICE,9.0,14,2.0,1068.0,,,,,,,,,,,14.0,14.0,,,A,,,,,,False,cue2.png,Hard,cue1.png,Easy,Left,Hard,Mid,0.0160993000026792,,,,,,,,,,,,,31,21,Female,0.14285714285714285,2.25,0.4,1.0,1.0555555555555556,3.375,3.6666666666666665,0.7777777777777778,1.625,1.7777777777777777,1.25,2.25,3.0,1.0,1.0,1.0,0.3663359545382925,-0.4950490087516442,,,,,,,,,,,,,,,,,,,,,,,,,,,,,,,,
14,240627_150709,FalseCHOICE,9.0,15,2.0,1068.0,,,,,,,,,,,15.0,15.0,,,A,,,,,,False,cue1.png,Easy,cue2.png,Hard,Right,Hard,Mid,0.0156090999953448,,,,,,,,,,,,,31,21,Female,0.14285714285714285,2.25,0.4,1.0,1.0555555555555556,3.375,3.6666666666666665,0.7777777777777778,1.625,1.7777777777777777,1.25,2.25,3.0,1.0,0.5833333333333334,0.75,0.3294453182342378,-1.4250002314905796,,,,,,,,,,,,,,,,,,,,,0.0040175513182922375,-0.6273978916756152,,,,,,,,,,
15,240627_150730,FalseCHOICE,9.0,16,2.0,1068.0,,,,,,,,,,,16.0,16.0,,,A,,,,,,False,cue1.png,Easy,cue2.png,Hard,Left,Easy,Mid,0.0164519001264125,,,,,,,,,,,,,31,21,Female,0.14285714285714285,2.25,0.4,1.0,1.0555555555555556,3.375,3.6666666666666665,0.7777777777777778,1.625,1.7777777777777777,1.25,2.25,3.0,1.0,0.84375,0.875,0.5195628999393772,3.367545934253694,,,,,,,,,,,,,,,,,,,,,0.005877439300089668,0.27544972735006656,,,,,,,,,,
16,240627_150749,FalseCHOICE,9.0,17,2.0,1068.0,,,,,,,,,,,17.0,17.0,,,A,,,,,,False,cue2.png,Hard,cue1.png,Easy,Left,Hard,Mid,0.015951600158587,,,,,,,,,,,,,31,21,Female,0.14285714285714285,2.25,0.4,1.0,1.0555555555555556,3.375,3.6666666666666665,0.7777777777777778,1.625,1.7777777777777777,1.25,2.25,3.0,1.0,1.0,1.0,0.374243672746657,-0.2957086624281723,,,,,,,,,,,,,,,,,,,0.0058279329661210045,-0.622592209324313,0.005178219159681719,-0.06397353099693898,,,,,,,,,,
17,240627_150808,FalseCHOICE,9.0,18,2.0,1068.0,,,,,,,,,,,18.0,18.0,,,A,,,,,,False,cue2.png,Hard,cue1.png,Easy,Left,Hard,Mid,0.0159974000416696,,,,,,,,,,,,,31,21,Female,0.14285714285714285,2.25,0.4,1.0,1.0555555555555556,3.375,3.6666666666666665,0.7777777777777778,1.625,1.7777777777777777,1.25,2.25,3.0,1.0,0.84375,0.875,0.3525421727787364,-0.8427671697442568,,,,,,,,,,,,,,,,,,,0.007824064402769672,0.23164199239838695,,,,,,,,,,,,
18,240627_150827,FalseCHOICE,9.0,19,2.0,1068.0,,,,,,,,,,,19.0,19.0,,,A,,,,,,False,cue1.png,Easy,cue2.png,Hard,Left,Easy,Mid,0.0160698997788131,,,,,,,,,,,,,31,21,Female,0.14285714285714285,2.25,0.4,1.0,1.0555555555555556,3.375,3.6666666666666665,0.7777777777777778,1.625,1.7777777777777777,1.25,2.25,3.0,1.0,0.84375,0.875,0.382875654507767,-0.07811084364177857,,,,,,,,,,,,,,,,,,,,,0.0042367434998677525,-0.520995172167074,,,,,,,,,,
19,240627_150846,FalseCHOICE,9.0,20,2.0,1068.0,,,,,,,,,,,20.0,20.0,,,A,,,,,,False,cue1.png,Easy,cue2.png,Hard,Right,Hard,Mid,0.0168224000371992,,,,,,,,,,,,,31,21,Female,0.14285714285714285,2.25,0.4,1.0,1.0555555555555556,3.375,3.6666666666666665,0.7777777777777778,1.625,1.7777777777777777,1.25,2.25,3.0,1.0,0.5833333333333334,0.75,0.3780678999610245,-0.19930629233292615,,,,,,,,,,,,,,,,,,,0.007867448789013631,0.2502081177896883,0.004699845764261836,-0.29619089316445896,4.617025961245534e+43,0.5382047801476527,,,,,,,,
20,240627_150907,FalseCHOICE,9.0,21,2.0,1068.0,,,,,,,,,,,21.0,21.0,,,A,,,,,,False,cue1.png,Easy,cue2.png,Hard,Right,Hard,Mid,0.0155480001121759,,,,,,,,,,,,,31,21,Female,0.14285714285714285,2.25,0.4,1.0,1.0555555555555556,3.375,3.6666666666666665,0.7777777777777778,1.625,1.7777777777777777,1.25,2.25,3.0,1.0,1.0,1.0,0.4067621454384855,0.5240276303298036,,,,,,,,,,,,,,,,,,,0.0058643959031976,-0.6069880825748316,0.007855029224309676,1.235433539259915,2.500463483099805e+43,0.3200898795717862,,,,,,,,
21,240627_150926,FalseCHOICE,9.0,22,2.0,1068.0,,,,,,,,,,,22.0,22.0,,,A,,,,,,False,cue2.png,Hard,cue1.png,Easy,Left,Hard,Mid,0.0160928000696003,,,,,,,,,,,,,31,21,Female,0.14285714285714285,2.25,0.4,1.0,1.0555555555555556,3.375,3.6666666666666665,0.7777777777777778,1.625,1.7777777777777777,1.25,2.25,3.0,1.0,0.84375,0.875,0.3683769181582399,-0.44359973044989837,,,,,,,,,,,,,,,,,,,,,0.0038801798404310035,-0.6940822903721396,1.4057088691307633e+42,0.07689944966397974,,,,,,,,
22,240627_150946,FalseCHOICE,9.0,23,2.0,1068.0,,,,,,,,,,,23.0,23.0,,,A,,,,,,False,cue1.png,Easy,cue2.png,Hard,Right,Hard,Mid,0.0170986000448465,,,,,,,,,,,,,31,21,Female,0.14285714285714285,2.25,0.4,1.0,1.0555555555555556,3.375,3.6666666666666665,0.7777777777777778,1.625,1.7777777777777777,1.25,2.25,3.0,1.0,0.84375,0.875,0.3859573181887919,-0.0004272579042155363,,,,,,,,,,,,,,,,,,,0.005329862447480825,-0.8357389310685135,0.004917324945681105,-0.19061971734435157,-2.316320045098714e+43,-0.1762868025230928,,,,,,,,
23,240627_151005,FalseCHOICE,9.0,24,2.0,1068.0,,,,,,,,,,,24.0,24.0,,,A,,,,,,False,cue2.png,Hard,cue1.png,Easy,Right,Easy,Mid,0.0162768999580293,,,,,,,,,,,,,31,21,Female,0.14285714285714285,2.25,0.4,1.0,1.0555555555555556,3.375,3.6666666666666665,0.7777777777777778,1.625,1.7777777777777777,1.25,2.25,3.0,1.0,0.84375,0.875,0.3825202636336061,-0.08706965300609096,,,,,,,,,,,,,,,,,,,0.00508697598291466,-0.9396809467888166,0.005593191971891049,0.13746721120384114,-3.73328154966816e+43,-0.3223067858121076,,,,,,,,
24,240627_151025,FalseCHOICE,9.0,25,2.0,1068.0,,,,,,,,,,,25.0,25.0,,,A,,,,,,False,cue2.png,Hard,cue1.png,Easy,Left,Hard,Mid,0.0160562000237405,,,,,,,,,,,,,31,21,Female,0.14285714285714285,2.25,0.4,1.0,1.0555555555555556,3.375,3.6666666666666665,0.7777777777777778,1.625,1.7777777777777777,1.25,2.25,3.0,1.0,0.84375,0.875,0.3838029545520178,-0.05473516091054552,,,,,,,,,,,,,,,,,,,0.009881752683151534,1.1122191294115997,0.0053589999451217115,0.023783099132125892,-4.1212352092810975e+43,-0.36228598546637514,,,,,,,,
25,240627_151044,FalseCHOICE,9.0,26,2.0,1068.0,,,,,,,,,,,26.0,26.0,,,A,,,,,,False,cue1.png,Easy,cue2.png,Hard,Left,Easy,Mid,0.0160246999002993,,,,,,,,,,,,,31,21,Female,0.14285714285714285,2.25,0.4,1.0,1.0555555555555556,3.375,3.6666666666666665,0.7777777777777778,1.625,1.7777777777777777,1.25,2.25,3.0,1.0,0.84375,0.875,0.3998825454618782,0.3506044245745389,,,,,,,,,,,,,,,,,,,0.005499750388720936,-0.763036258687776,0.004517825306101845,-0.38454929908570906,-3.140606286106951e+43,-0.26123072142931636,,,,,,,,
26,240627_151104,FalseCHOICE,9.0,27,2.0,1068.0,,,,,,,,,,,27.0,27.0,,,A,,,,,,False,cue1.png,Easy,cue2.png,Hard,Left,Easy,Mid,0.0161659000441432,,,,,,,,,,,,,31,21,Female,0.14285714285714285,2.25,0.4,1.0,1.0555555555555556,3.375,3.6666666666666665,0.7777777777777778,1.625,1.7777777777777777,1.25,2.25,3.0,1.0,0.15625,0.625,0.4204795272512869,0.8698198764827773,,,,,,,,,,,,,,,,,,,0.006552770581859031,-0.3124016724235418,0.011967617569899768,3.231812155707788,5.288418687631121e+43,0.6073927957507856,,,,,,,,
27,240627_151123,FalseCHOICE,9.0,28,2.0,1068.0,,,,,,,,,,,28.0,28.0,,,A,,,,,,False,cue2.png,Hard,cue1.png,Easy,Left,Hard,Mid,0.0160141999367624,,,,,,,,,,,,,31,21,Female,0.14285714285714285,2.25,0.4,1.0,1.0555555555555556,3.375,3.6666666666666665,0.7777777777777778,1.625,1.7777777777777777,1.25,2.25,3.0,1.0,0.84375,0.875,0.4078422909052195,0.5512562904495754,,,,,,,,,,,,,,,,,,,,,0.00611306219244419,0.3898284261922605,5.153335564512514e+42,0.11551929823914539,,,,,,,,
28,240627_151142,FalseCHOICE,9.0,29,2.0,1068.0,,,,,,,,,,,29.0,29.0,,,A,,,,,,False,cue1.png,Easy,cue2.png,Hard,Left,Easy,Mid,0.0151246001478284,,,,,,,,,,,,,31,21,Female,0.14285714285714285,2.25,0.4,1.0,1.0555555555555556,3.375,3.6666666666666665,0.7777777777777778,1.625,1.7777777777777777,1.25,2.25,3.0,1.0,0.84375,0.875,0.3431281818457963,-1.0800781314415662,,,,,,,,,,,,,,,,,,,0.005621657656710325,-0.71086666912911,0.004382191672499794,-0.4503900939915769,2.137036216526072e+43,0.2826381610736229,,,,,,,,
29,240627_151200,FalseCHOICE,9.0,30,2.0,1068.0,,,,,,,,,,,30.0,30.0,,,A,,,,,,False,cue1.png,Easy,cue2.png,Hard,Right,Hard,Mid,0.0168272000737488,,,,,,,,,,,,,31,21,Female,0.14285714285714285,2.25,0.4,1.0,1.0555555555555556,3.375,3.6666666666666665,0.7777777777777778,1.625,1.7777777777777777,1.25,2.25,3.0,1.0,1.0,1.0,0.3544488545210862,-0.7947029129215213,,,,,,,,,,,,,,,,,,,0.007630060947006629,0.14861920936791398,0.004470478931627481,-0.40753270554998805,3.2467499753295265e+43,0.3969958087539015,,,,,,,,
30,240627_151220,FalseCHOICE,9.0,31,2.0,1068.0,,,,,,,,,,,31.0,31.0,,,A,,,,,,False,cue2.png,Hard,cue1.png,Easy,Right,Easy,Mid,0.0164006000850349,,,,,,,,,,,,,31,21,Female,0.14285714285714285,2.25,0.4,1.0,1.0555555555555556,3.375,3.6666666666666665,0.7777777777777778,1.625,1.7777777777777777,1.25,2.25,3.0,1.0,0.84375,0.875,0.390964336396957,0.12579129432084984,,,,,,,,,,,,,,,,,,,0.007935340766900155,0.27926214122145177,0.013865375868201598,4.153043207188742,,,,,,,,,,
31,240627_151240,FalseCHOICE,9.0,32,2.0,1068.0,,,,,,,,,,,32.0,32.0,,,A,,,,,,False,cue1.png,Easy,cue2.png,Hard,Left,Easy,Mid,0.0165399000979959,,,,,,,,,,,,,31,21,Female,0.14285714285714285,2.25,0.4,1.0,1.0555555555555556,3.375,3.6666666666666665,0.7777777777777778,1.625,1.7777777777777777,1.25,2.25,3.0,1.0,0.84375,0.875,0.4004542726854032,0.365016711372958,,,,,,,,,,,,,,,,,,,,,,,2.856141278121864e+43,0.3567430035401581,,,,,,,,
32,240627_151259,FalseCHOICE,9.0,33,2.0,1068.0,,,,,,,,,,,33.0,33.0,,,A,,,,,,False,cue2.png,Hard,cue1.png,Easy,Left,Hard,Mid,0.0160576999187469,,,,,,,,,,,,,31,21,Female,0.14285714285714285,2.25,0.4,1.0,1.0555555555555556,3.375,3.6666666666666665,0.7777777777777778,1.625,1.7777777777777777,1.25,2.25,3.0,1.0,0.84375,0.875,0.3853234908628193,-0.016404984391107193,,,,,,,,,,,,,,,,,,,0.00625235669496246,-0.44096225322895966,0.004869003420746719,-0.21407649224782663,1.3619425741042268e+43,0.20276361236578788,,,,,,,,
33,240627_151319,FalseCHOICE,9.0,34,2.0,1068.0,,,,,,,,,,,34.0,34.0,,,A,,,,,,False,cue2.png,Hard,cue1.png,Easy,Right,Easy,Mid,0.0165403001010417,,,,,,,,,,,,,31,21,Female,0.14285714285714285,2.25,0.4,1.0,1.0555555555555556,3.375,3.6666666666666665,0.7777777777777778,1.625,1.7777777777777777,1.25,2.25,3.0,1.0,0.84375,0.875,0.4165772635659033,0.7714503375091878,,,,,,,,,,,,,,,,,,,0.006118167276371953,-0.4983879260903356,0.004219756971358044,-0.529240962758011,-1.7947036282031078e+42,0.04391872450866611,,,,,,,,
34,240627_151338,FalseCHOICE,9.0,35,2.0,1068.0,,,,,,,,,,,35.0,35.0,,,A,,,,,,False,cue2.png,Hard,cue1.png,Easy,Left,Hard,Mid,0.0168126998469233,,,,,,,,,,,,,31,21,Female,0.14285714285714285,2.25,0.4,1.0,1.0555555555555556,3.375,3.6666666666666665,0.7777777777777778,1.625,1.7777777777777777,1.25,2.25,3.0,1.0,0.5833333333333334,0.75,0.3283389908981255,-1.4528888927347892,,,,,,,,,,,,,,,,,,,,,,,-1.9964664227784462e+43,-0.1433254126508055,,,,,,,,
35,240627_151357,FalseCHOICE,9.0,36,2.0,1068.0,,,,,,,,,,,36.0,36.0,,,A,,,,,,False,cue1.png,Easy,cue2.png,Hard,Right,Hard,Mid,0.016819299897179,,,,,,,,,,,,,31,21,Female,0.14285714285714285,2.25,0.4,1.0,1.0555555555555556,3.375,3.6666666666666665,0.7777777777777778,1.625,1.7777777777777777,1.25,2.25,3.0,1.0,0.84375,0.875,0.4213226000058718,0.8910723301548201,,,,,,,,,,,,,,,,,,,0.007913351825884334,0.26985208678790507,,,-2.9486924748468196e+43,-0.24145371872122193,,,,,,,,
36,240627_151416,FalseCHOICE,9.0,37,2.0,1068.0,,,,,,,,,,,37.0,37.0,,,A,,,,,,False,cue2.png,Hard,cue1.png,Easy,Right,Easy,Mid,0.0164516000077128,,,,,,,,,,,,,31,21,Female,0.14285714285714285,2.25,0.4,1.0,1.0555555555555556,3.375,3.6666666666666665,0.7777777777777778,1.625,1.7777777777777777,1.25,2.25,3.0,1.0,0.5833333333333334,0.75,0.404870627257465,0.47634562151935606,,,,,,,,,,,,,,,,,,,0.006445404524788329,-0.3583484254128577,0.004760354879891885,-0.26681788171935955,-3.1303992197804607e+43,-0.26017886811529367,,,,,,,,
37,240627_151436,FalseCHOICE,9.0,38,2.0,1068.0,,,,,,,,,,,38.0,38.0,,,A,,,,,,False,cue1.png,Easy,cue2.png,Hard,Right,Hard,Mid,0.0165357000660151,,,,,,,,,,,,,31,21,Female,0.14285714285714285,2.25,0.4,1.0,1.0555555555555556,3.375,3.6666666666666665,0.7777777777777778,1.625,1.7777777777777777,1.25,2.25,3.0,1.0,0.84375,0.875,0.4525589454411106,1.67848833978877,,,,,,,,,,,,,,,,,,,0.014143413596595666,2.935975041257161,,,-2.3564451014441054e+43,-0.18042174905348932,,,,,,,,
38,240627_151456,FalseCHOICE,9.0,39,2.0,1068.0,,,,,,,,,,,39.0,39.0,,,A,,,,,,False,cue1.png,Easy,cue2.png,Hard,Left,Easy,Mid,0.0160749999340623,,,,,,,,,,,,,31,21,Female,0.14285714285714285,2.25,0.4,1.0,1.0555555555555556,3.375,3.6666666666666665,0.7777777777777778,1.625,1.7777777777777777,1.25,2.25,3.0,1.0,0.5833333333333334,0.75,0.371756063668396,-0.3584171254906822,,,,,,,,,,,,,,,,,,,0.0054486410250405,-0.7849082485189731,0.0047625759660515216,-0.26573969724238844,-5.407049411621605e+42,0.006692965782836159,,,,,,,,
39,240627_151515,FalseCHOICE,9.0,40,2.0,1068.0,,,,,,,,,,,40.0,40.0,,,A,,,,,,False,cue2.png,Hard,cue1.png,Easy,Right,Easy,Mid,0.0165727999992668,,,,,,,,,,,,,31,21,Female,0.14285714285714285,2.25,0.4,1.0,1.0555555555555556,3.375,3.6666666666666665,0.7777777777777778,1.625,1.7777777777777777,1.25,2.25,3.0,1.0,0.5833333333333334,0.75,0.387721945468167,0.0440560435657834,,,,,,,,,,,,,,,,,,,,,,,1.1512763856595164e+43,0.18105414939374745,,,,,,,,
40,240627_151534,FalseCHOICE,9.0,41,2.0,1068.0,,,,,,,,,,,41.0,41.0,,,A,,,,,,False,cue2.png,Hard,cue1.png,Easy,Left,Hard,Mid,0.0166062999051064,,,,,,,,,,,,,31,21,Female,0.14285714285714285,2.25,0.4,1.0,1.0555555555555556,3.375,3.6666666666666665,0.7777777777777778,1.625,1.7777777777777777,1.25,2.25,3.0,1.0,0.84375,0.875,0.3951111908536404,0.2303265574355515,,,,,,,,,,,,,,,,,,,0.004435203400866887,-1.218603677581076,0.004511373494198704,-0.38768120975568565,2.7727645750752225e+43,0.34815091070891135,,,,,,,,
41,240627_151552,FalseCHOICE,9.0,42,2.0,1068.0,,,,,,,,,,,42.0,42.0,,,A,,,,,,False,cue1.png,Easy,cue2.png,Hard,Right,Hard,Mid,0.0162447998300194,,,,,,,,,,,,,31,21,Female,0.14285714285714285,2.25,0.4,1.0,1.0555555555555556,3.375,3.6666666666666665,0.7777777777777778,1.625,1.7777777777777777,1.25,2.25,3.0,1.0,0.84375,0.875,0.2988040636039593,-2.1974149975256845,,,,,,,,,,,,,,,,,,,0.007688604039818801,0.17367242542203595,0.005662300850969516,0.1710148159736873,3.1891032655365555e+43,0.39105522986485536,,,,,,,,
42,240627_151611,FalseCHOICE,9.0,43,2.0,1068.0,,,,,,,,,,,43.0,43.0,,,A,,,,,,False,cue2.png,Hard,cue1.png,Easy,Left,Hard,Mid,0.0161238999571651,,,,,,,,,,,,,31,21,Female,0.14285714285714285,2.25,0.4,1.0,1.0555555555555556,3.375,3.6666666666666665,0.7777777777777778,1.625,1.7777777777777777,1.25,2.25,3.0,1.0,0.5833333333333334,0.75,0.3451590363613583,-1.0288836867487214,,,,,,,,,,,,,,,,,,,,,0.004245147637097176,-0.5169155419087953,2.4340459561943933e+43,0.3132454549790568,,,,,,,,
43,240627_151630,FalseCHOICE,9.0,44,2.0,1068.0,,,,,,,,,,,44.0,44.0,,,A,,,,,,False,cue1.png,Easy,cue2.png,Hard,Left,Easy,Mid,0.016168100060895,,,,,,,,,,,,,31,21,Female,0.14285714285714285,2.25,0.4,1.0,1.0555555555555556,3.375,3.6666666666666665,0.7777777777777778,1.625,1.7777777777777777,1.25,2.25,3.0,1.0,0.84375,0.875,0.3792402091097425,-0.16975433998130765,,,,,,,,,,,,,,,,,,,,,0.0075595512385000395,1.0919993117292217,4.480692747618092e+42,0.10858761431084814,,,,,,,,
44,240627_151648,FalseCHOICE,9.0,45,2.0,1068.0,,,,,,,,,,,45.0,45.0,,,A,,,,,,False,cue2.png,Hard,cue1.png,Easy,Left,Hard,Mid,0.0160749999340623,,,,,,,,,,,,,31,21,Female,0.14285714285714285,2.25,0.4,1.0,1.0555555555555556,3.375,3.6666666666666665,0.7777777777777778,1.625,1.7777777777777777,1.25,2.25,3.0,1.0,0.84375,0.875,0.3189456636424769,-1.6896789576981655,,,,,,,,,,,,,,,,,,,0.006244671902475194,-0.4442509207261189,,,-1.8376188253587956e+43,-0.12695593229024663,,,,,,,,
45,240627_151707,FalseCHOICE,9.0,46,2.0,1068.0,,,,,,,,,,,46.0,46.0,,,A,,,,,,False,cue2.png,Hard,cue1.png,Easy,Left,Hard,Mid,0.0160898000467568,,,,,,,,,,,,,31,21,Female,0.14285714285714285,2.25,0.4,1.0,1.0555555555555556,3.375,3.6666666666666665,0.7777777777777778,1.625,1.7777777777777777,1.25,2.25,3.0,1.0,0.84375,0.875,0.3729759909170256,-0.32766480050595503,,,,,,,,,,,,,,,,,,,0.014373120636592126,3.0342769898858055,,,,,,,,,,,,
46,240627_151726,FalseCHOICE,9.0,47,2.0,1068.0,,,,,,,,,,,47.0,47.0,,,A,,,,,,False,cue1.png,Easy,cue2.png,Hard,Left,Easy,Mid,0.0161727000959217,,,,,,,,,,,,,31,21,Female,0.14285714285714285,2.25,0.4,1.0,1.0555555555555556,3.375,3.6666666666666665,0.7777777777777778,1.625,1.7777777777777777,1.25,2.25,3.0,1.0,0.84375,0.875,0.3650463909249414,-0.5275567499885085,,,,,,,,,,,,,,,,,,,,,0.0034451500208499022,-0.905259329343268,-2.561930312362657e+43,-0.20159730461213082,,,,,,,,
47,240627_151745,FalseCHOICE,9.0,48,2.0,1068.0,,,,,,,,,,,48.0,48.0,,,A,,,,,,False,cue1.png,Easy,cue2.png,Hard,Left,Easy,Mid,0.0159789000172168,,,,,,,,,,,,,31,21,Female,0.14285714285714285,2.25,0.4,1.0,1.0555555555555556,3.375,3.6666666666666665,0.7777777777777778,1.625,1.7777777777777777,1.25,2.25,3.0,1.0,0.84375,0.875,0.3612457363739271,-0.6233648926779741,,,,,,,,,,,,,,,,,,,0.005425407801185679,-0.7948507874062863,0.0038965154375715486,-0.6861524821643085,1.6491790638253013e+43,0.23236375837808976,,,,,,,,
48,240627_151804,FalseCHOICE,9.0,49,2.0,1068.0,,,,,,,,,,,49.0,49.0,,,A,,,,,,False,cue2.png,Hard,cue1.png,Easy,Left,Hard,Mid,0.0172377000562846,,,,,,,,,,,,,31,21,Female,0.14285714285714285,2.25,0.4,1.0,1.0555555555555556,3.375,3.6666666666666665,0.7777777777777778,1.625,1.7777777777777777,1.25,2.25,3.0,1.0,0.84375,0.875,0.3478170999706807,-0.9618783501306712,,,,,,,,,,,,,,,,,,,0.005552368742561525,-0.7405185042635272,0.004250592387574103,-0.5142724902560113,,,,,,,,,,
49,240627_151823,FalseCHOICE,9.0,50,2.0,1068.0,,,,,,,,,,,50.0,50.0,,,A,,,,,,False,cue1.png,Easy,cue2.png,Hard,Left,Easy,Mid,0.0167553999926894,,,,,,,,,,,,,31,21,Female,0.14285714285714285,2.25,0.4,1.0,1.0555555555555556,3.375,3.6666666666666665,0.7777777777777778,1.625,1.7777777777777777,1.25,2.25,3.0,1.0,0.84375,0.875,0.2994094454387033,-2.1821543342830108,,,,,,,,,,,,,,,,,,,0.008467933618818478,0.5071825182811415,,,-1.426159699972628e+43,-0.08455445954786824,,,,,,,,
0,240627_143839,OFFLINERATING,9.0,1,1.0,,,,,,,,,,,,,,,,,T0,cue1.png,Easy,2.0,0.8016577002126724,,,,,,,,,,,,,,,,,,,,,,31,21,Female,0.14285714285714285,2.25,0.4,1.0,1.0555555555555556,3.375,3.6666666666666665,0.7777777777777778,1.625,1.7777777777777777,1.25,2.25,3.0,1.0,,,,,,,,,,,,,,,,,,,,,,,,,,,,,-0.5138792234440163,,,,,,,
1,240627_143846,OFFLINERATING,9.0,2,3.0,,,,,,,,,,,,,,,,,T0,cue2.png,Hard,4.0,0.7183858999051154,,,,,,,,,,,,,,,,,,,,,,31,21,Female,0.14285714285714285,2.25,0.4,1.0,1.0555555555555556,3.375,3.6666666666666665,0.7777777777777778,1.625,1.7777777777777777,1.25,2.25,3.0,1.0,,,,,,,,,,,,,,,,,,,,,,,,,,,,,-0.41599746659753695,,,,,1810569.2623096397,-0.7183339652304913,
2,240627_145708,OFFLINERATING,9.0,3,1.0,,,,,,,,,,,,,,,,,T1,cue1.png,Easy,29.0,1.1994874000083655,,,,,,,,,,,,,,,,,,,,,,31,21,Female,0.14285714285714285,2.25,0.4,1.0,1.0555555555555556,3.375,3.6666666666666665,0.7777777777777778,1.625,1.7777777777777777,1.25,2.25,3.0,1.0,,,,,,,,,,,,,,,,,,,,,,,,,,,,,0.807524493983454,0.006681438503963566,-0.7457492326579468,0.004287819446092497,1.3653185244342338,,,
3,240627_145715,OFFLINERATING,9.0,4,3.0,,,,,,,,,,,,,,,,,T1,cue2.png,Hard,2.0,0.9849386001005768,,,,,,,,,,,,,,,,,,,,,,31,21,Female,0.14285714285714285,2.25,0.4,1.0,1.0555555555555556,3.375,3.6666666666666665,0.7777777777777778,1.625,1.7777777777777777,1.25,2.25,3.0,1.0,,,,,,,,,,,,,,,,,,,,,,,,,,,,,-0.5138792234440163,0.007193199243936163,0.0401918455558956,0.003888742617598193,-1.0019224688782462,,,
4,240627_150124,OFFLINERATING,9.0,5,1.0,,,,,,,,,,,,,,,,,T2,cue1.png,Easy,61.0,0.9184439000673592,,,,,,,,,,,,,,,,,,,,,,31,21,Female,0.14285714285714285,2.25,0.4,1.0,1.0555555555555556,3.375,3.6666666666666665,0.7777777777777778,1.625,1.7777777777777777,1.25,2.25,3.0,1.0,,,,,,,,,,,,,,,,,,,,,,,,,,,,,2.3736326035271227,,,,,1350995968.1188948,1.4141538241432237,
5,240627_150131,OFFLINERATING,9.0,6,3.0,,,,,,,,,,,,,,,,,T2,cue2.png,Hard,2.0,0.9181826999410988,,,,,,,,,,,,,,,,,,,,,,31,21,Female,0.14285714285714285,2.25,0.4,1.0,1.0555555555555556,3.375,3.6666666666666665,0.7777777777777778,1.625,1.7777777777777777,1.25,2.25,3.0,1.0,,,,,,,,,,,,,,,,,,,,,,,,,,,,,-0.5138792234440163,,,,,16054825.97673887,-0.6958198589127325,
6,240627_151838,OFFLINERATING,9.0,7,1.0,,,,,,,,,,,,,,,,,T3,cue1.png,Easy,0.0,0.841384100029245,,,,,,,,,,,,,,,,,,,,,,31,21,Female,0.14285714285714285,2.25,0.4,1.0,1.0555555555555556,3.375,3.6666666666666665,0.7777777777777778,1.625,1.7777777777777777,1.25,2.25,3.0,1.0,,,,,,,,,,,,,,,,,,,,,,,,,,,,,-0.6117609802904955,0.008219519467402061,1.61637219707456,0.003996387380703584,-0.3633960555559824,,,
7,240627_151845,OFFLINERATING,9.0,8,3.0,,,,,,,,,,,,,,,,,T3,cue2.png,Hard,0.0,0.7517790999263525,,,,,,,,,,,,,,,,,,,,,,31,21,Female,0.14285714285714285,2.25,0.4,1.0,1.0555555555555556,3.375,3.6666666666666665,0.7777777777777778,1.625,1.7777777777777777,1.25,2.25,3.0,1.0,,,,,,,,,,,,,,,,,,,,,,,,,,,,,-0.6117609802904955,0.006573957059956997,-0.9108148099725074,,,,,
0,240627_150149,LEARNINGCHECK,9.0,1,,,,,,,,,,,,1.0,1.0,1.0,,,A,,,,,,,,,,,,,,,cue1.png,Easy,Left,Left,Easy,0.0157689000479877,1.0,,,,,,31,21,Female,0.14285714285714285,2.25,0.4,1.0,1.0555555555555556,3.375,3.6666666666666665,0.7777777777777778,1.625,1.7777777777777777,1.25,2.25,3.0,1.0,,,,,,,,,,,,,,,,,,,,,,,,,,,,,,,,,,,,
1,240627_150154,LEARNINGCHECK,9.0,2,,,,,,,,,,,,2.0,2.0,2.0,,,A,,,,,,,,,,,,,,,cue2.png,Hard,Right,Right,Hard,0.015926299849525,1.0,,,,,,31,21,Female,0.14285714285714285,2.25,0.4,1.0,1.0555555555555556,3.375,3.6666666666666665,0.7777777777777778,1.625,1.7777777777777777,1.25,2.25,3.0,1.0,,,,,,,,,,,,,,,,,,,,,,,,,,,,,,,,,,,,
2,240627_151900,LEARNINGCHECK,9.0,1,,,,,,,,,,,,1.0,1.0,1.0,,,A,,,,,,,,,,,,,,,cue1.png,Easy,Middle,Middle,Mid,0.0151957999914884,1.0,,,,,,31,21,Female,0.14285714285714285,2.25,0.4,1.0,1.0555555555555556,3.375,3.6666666666666665,0.7777777777777778,1.625,1.7777777777777777,1.25,2.25,3.0,1.0,,,,,,,,,,,,,,,,,,,,,,,,,,,,,,,,,,,,
3,240627_151905,LEARNINGCHECK,9.0,2,,,,,,,,,,,,2.0,2.0,2.0,,,A,,,,,,,,,,,,,,,cue2.png,Hard,Middle,Middle,Mid,0.0144550998229533,1.0,,,,,,31,21,Female,0.14285714285714285,2.25,0.4,1.0,1.0555555555555556,3.375,3.6666666666666665,0.7777777777777778,1.625,1.7777777777777777,1.25,2.25,3.0,1.0,,,,,,,,,,,,,,,,,,,,,,,,,,,,,,,,,,,,
0,240627_151921,DEMANDRATING,9.0,-1,,,,,,,,,,,,,,,,,,,,,,,,,,,,,,,,,,,,,,,1.0,MentalDemand,1.0,100.0,2.783048499841243,31,21,Female,0.14285714285714285,2.25,0.4,1.0,1.0555555555555556,3.375,3.6666666666666665,0.7777777777777778,1.625,1.7777777777777777,1.25,2.25,3.0,1.0,,,,,,,,,,,,,,,,,,,,,,,,,,,,,,,,,,,,0.5345224838248489
1,240627_151926,DEMANDRATING,9.0,-1,,,,,,,,,,,,,,,,,,,,,,,,,,,,,,,,,,,,,,,2.0,Effort,1.0,0.0,3.300524700200185,31,21,Female,0.14285714285714285,2.25,0.4,1.0,1.0555555555555556,3.375,3.6666666666666665,0.7777777777777778,1.625,1.7777777777777777,1.25,2.25,3.0,1.0,,,,,,,,,,,,,,,,,,,,,,,,,,,,,,,,,,,,-1.8708286933869707
2,240627_151931,DEMANDRATING,9.0,-1,,,,,,,,,,,,,,,,,,,,,,,,,,,,,,,,,,,,,,,3.0,Frustration,1.0,0.0,3.189567100023851,31,21,Female,0.14285714285714285,2.25,0.4,1.0,1.0555555555555556,3.375,3.6666666666666665,0.7777777777777778,1.625,1.7777777777777777,1.25,2.25,3.0,1.0,,,,,,,,,,,,,,,,,,,,,,,,,,,,,,,,,,,,-1.8708286933869707
3,240627_151936,DEMANDRATING,9.0,-1,,,,,,,,,,,,,,,,,,,,,,,,,,,,,,,,,,,,,,,4.0,MentalDemand,2.0,100.0,3.675841900054365,31,21,Female,0.14285714285714285,2.25,0.4,1.0,1.0555555555555556,3.375,3.6666666666666665,0.7777777777777778,1.625,1.7777777777777777,1.25,2.25,3.0,1.0,,,,,,,,,,,,,,,,,,,,,,,,,,,,,,,,,,,,0.5345224838248489
4,240627_151940,DEMANDRATING,9.0,-1,,,,,,,,,,,,,,,,,,,,,,,,,,,,,,,,,,,,,,,5.0,Effort,2.0,100.0,2.230176999932155,31,21,Female,0.14285714285714285,2.25,0.4,1.0,1.0555555555555556,3.375,3.6666666666666665,0.7777777777777778,1.625,1.7777777777777777,1.25,2.25,3.0,1.0,,,,,,,,,,,,,,,,,,,,,,,,,,,,,,,,,,,,0.5345224838248489
5,240627_151943,DEMANDRATING,9.0,-1,,,,,,,,,,,,,,,,,,,,,,,,,,,,,,,,,,,,,,,6.0,Frustration,2.0,100.0,1.773124200059101,31,21,Female,0.14285714285714285,2.25,0.4,1.0,1.0555555555555556,3.375,3.6666666666666665,0.7777777777777778,1.625,1.7777777777777777,1.25,2.25,3.0,1.0,,,,,,,,,,,,,,,,,,,,,,,,,,,,,,,,,,,,0.5345224838248489
6,240627_151947,DEMANDRATING,9.0,-1,,,,,,,,,,,,,,,,,,,,,,,,,,,,,,,,,,,,,,,7.0,MentalDemand,3.0,100.0,2.323110300116241,31,21,Female,0.14285714285714285,2.25,0.4,1.0,1.0555555555555556,3.375,3.6666666666666665,0.7777777777777778,1.625,1.7777777777777777,1.25,2.25,3.0,1.0,,,,,,,,,,,,,,,,,,,,,,,,,,,,,,,,,,,,0.5345224838248489
7,240627_151951,DEMANDRATING,9.0,-1,,,,,,,,,,,,,,,,,,,,,,,,,,,,,,,,,,,,,,,8.0,Effort,3.0,100.0,1.8757911000866443,31,21,Female,0.14285714285714285,2.25,0.4,1.0,1.0555555555555556,3.375,3.6666666666666665,0.7777777777777778,1.625,1.7777777777777777,1.25,2.25,3.0,1.0,,,,,,,,,,,,,,,,,,,,,,,,,,,,,,,,,,,,0.5345224838248489
8,240627_151954,DEMANDRATING,9.0,-1,,,,,,,,,,,,,,,,,,,,,,,,,,,,,,,,,,,,,,,9.0,Frustration,3.0,100.0,2.163319500163197,31,21,Female,0.14285714285714285,2.25,0.4,1.0,1.0555555555555556,3.375,3.6666666666666665,0.7777777777777778,1.625,1.7777777777777777,1.25,2.25,3.0,1.0,,,,,,,,,,,,,,,,,,,,,,,,,,,,,,,,,,,,0.5345224838248489
