,END,Phase,Block,TrialN,NbackLevel,ISI,Letter_Resp,Letter_RT,Letter_Accuracy,Trial_A_measure,Trial_ACC,Trial_RT,TrialCountCali,CaliEnd_A_measure,ISI_calibrated,TrialIndex,TrialNumber_total,TrialNumber_valid,CueLearning,TrialDemandLearning,CueMapping,OfflineRatingTimePoint,CueFigure,TrialDemand,OfflineRating,OfflineRatingRT,PhaseType,CueLeft,CueDemandLeft,CueRight,CueDemandRight,Choice,ChoiceDemand,TaskDemand,ChoiceRT,CueCheck,CueDemandCheck,CorrectAnswer,Answer,AnswerDemand,AnswerRT,AnswerACC,DemandRatingQuesIndex,QuesTLX,DemandLevel,DemandRating,DemandRatingRT,PID,Age,Gender,BAI_bis,BAI_bas_d,BAI_bas_rr,BAI_bas_fs,NFC,BFI_ext,BFI_agr,BFI_con,BFI_neu,BFI_open,UPPS_lps,UPPS_lpm,UPPS_pu,UPPS_ss,Task_A_measure,Task_ACC,Task_RT,Task_RT_z,Task_RT_log,Task_RT_log_z,cue_i_on_zyg_values,cue_i_on_zyg_zvalues,cue_e_on_zyg_values,cue_e_on_zyg_zvalues,cue_i_on_cor_values,cue_i_on_cor_zvalues,cue_e_on_cor_values,cue_e_on_cor_zvalues,cue_i_on_scr_values,cue_i_on_scr_zvalues,cue_e_on_scr_values,cue_e_on_scr_zvalues,cue_e_true_zyg_values,cue_e_true_zyg_zvalues,cue_e_true_cor_values,cue_e_true_cor_zvalues,cue_e_true_scr_values,cue_e_true_scr_zvalues,cue_e_false_zyg_values,cue_e_false_zyg_zvalues,cue_e_false_cor_values,cue_e_false_cor_zvalues,cue_e_false_scr_values,cue_e_false_scr_zvalues,OfflineRating_z,cue_i_off_zyg_values,cue_i_off_zyg_zvalues,cue_i_off_cor_values,cue_i_off_cor_zvalues,cue_i_off_scr_values,cue_i_off_scr_zvalues,DemandRating_z
0,240627_143646,PRACTICE,0.0,1,3.0,1068.0,,,,,,,,,,11.0,1.0,1.0,cue2.png,Hard,A,,,,,,,,,,,,,,,,,,,,,,,,,,,31,21,Female,0.14285714285714285,2.25,0.4,1.0,1.0555555555555556,3.375,3.6666666666666665,0.7777777777777778,1.625,1.7777777777777777,1.25,2.25,3.0,1.0,,,,,,,,,,,,,,,,,,,,,,,,,,,,,,,,,,,,,,
0,240627_143922,LEARNING,1.0,1,1.0,1068.0,,,,,,,,,,1.0,1.0,1.0,cue1.png,Easy,A,,,,,,,,,,,,,,,,,,,,,,,,,,,31,21,Female,0.14285714285714285,2.25,0.4,1.0,1.0555555555555556,3.375,3.6666666666666665,0.7777777777777778,1.625,1.7777777777777777,1.25,2.25,3.0,1.0,1.0,1.0,0.4608397181780839,0.9542544481439932,-0.774704979352086,0.9725843593420772,,,-8.568327334927813e-05,-1.4374473701585102,3.111573023344746e-05,0.36984081546733083,-2.686012721213847e-07,-0.12822856019029083,0.8219999999999998,-1.235094308586401,,,,,,,,,,,,,,,,,,,,,,
1,240627_143944,LEARNING,1.0,2,3.0,1068.0,,,,,,,,,,2.0,2.0,2.0,cue2.png,Hard,A,,,,,,,,,,,,,,,,,,,,,,,,,,,31,21,Female,0.14285714285714285,2.25,0.4,1.0,1.0555555555555556,3.375,3.6666666666666665,0.7777777777777778,1.625,1.7777777777777777,1.25,2.25,3.0,1.0,0.5833333333333334,0.75,0.5307229636448689,2.21992910836584,-0.6335151196022933,2.0252293894471616,0.000186445526709014,2.35365139396536,0.00011755058568943197,1.3413906658002372,1.575539926852677e-05,0.1818199929927024,4.137822653430944e-05,0.23113878927764522,1.6099999999999999,0.17392903770405174,1.96,0.804519497119017,,,,,,,,,,,,,,,,,,,,
2,240627_144006,LEARNING,1.0,3,1.0,1068.0,,,,,,,,,,3.0,3.0,3.0,cue1.png,Easy,A,,,,,,,,,,,,,,,,,,,,,,,,,,,31,21,Female,0.14285714285714285,2.25,0.4,1.0,1.0555555555555556,3.375,3.6666666666666665,0.7777777777777778,1.625,1.7777777777777777,1.25,2.25,3.0,1.0,1.0,1.0,0.4163587363013489,0.14864716349192444,-0.8762080434500794,0.21582536721235102,-0.0001227148413284855,-1.6838700171458718,-1.1864698182951876e-06,-0.2821136443736461,,,0.00014755731420882778,1.1473501627792604,1.578,0.1167098155196682,1.5819999999999999,0.2123839131562397,,,,,,,,,,,,,,,,,,,,
3,240627_144027,LEARNING,1.0,4,3.0,1068.0,,,,,,,,,,4.0,4.0,4.0,cue2.png,Hard,A,,,,,,,,,,,,,,,,,,,,,,,,,,,31,21,Female,0.14285714285714285,2.25,0.4,1.0,1.0555555555555556,3.375,3.6666666666666665,0.7777777777777778,1.625,1.7777777777777777,1.25,2.25,3.0,1.0,0.84375,0.875,0.4235238363670016,0.27841625951023646,-0.8591454822543229,0.3430357793156421,,,,,,,,,,,1.5910000000000002,0.22648237944106828,,,,,,,,,,,,,,,,,,,,
4,240627_144049,LEARNING,1.0,5,3.0,1068.0,,,,,,,,,,5.0,5.0,5.0,cue2.png,Hard,A,,,,,,,,,,,,,,,,,,,,,,,,,,,31,21,Female,0.14285714285714285,2.25,0.4,1.0,1.0555555555555556,3.375,3.6666666666666665,0.7777777777777778,1.625,1.7777777777777777,1.25,2.25,3.0,1.0,0.5833333333333334,0.75,0.4708258363799276,1.135115778748065,-0.753267027489316,1.1324156214735641,,,2.0998595092535516e-05,0.02122509305931205,,,-0.00011926731492028489,-1.155059523465507,1.4419999999999997,-0.12647187876396385,1.46,0.021271370184126625,,,,,,,,,,,,,,,,,,,,
5,240627_144109,LEARNING,1.0,6,1.0,1068.0,,,,,,,,,,6.0,6.0,6.0,cue1.png,Easy,A,,,,,,,,,,,,,,,,,,,,,,,,,,,31,21,Female,0.14285714285714285,2.25,0.4,1.0,1.0555555555555556,3.375,3.6666666666666665,0.7777777777777778,1.625,1.7777777777777777,1.25,2.25,3.0,1.0,1.0,1.0,0.3327271910172633,-1.3660267322929085,-1.100432370961657,-1.4558855077895163,,,6.482109531845198e-05,0.6204147705794971,,,1.046063396536491e-05,-0.035646795090811784,,,0.12199999999999989,-2.07470061749364,,,,,,,,,,,,,,,,,,,,
6,240627_144131,LEARNING,1.0,7,3.0,1068.0,,,,,,,,,,7.0,7.0,7.0,cue2.png,Hard,A,,,,,,,,,,,,,,,,,,,,,,,,,,,31,21,Female,0.14285714285714285,2.25,0.4,1.0,1.0555555555555556,3.375,3.6666666666666665,0.7777777777777778,1.625,1.7777777777777777,1.25,2.25,3.0,1.0,0.5833333333333334,0.75,0.4702593999999491,1.124856893832548,-0.7544708216335325,1.1234406998649955,,,1.7945800096858238e-05,-0.020516095589557398,-2.969417500649739e-06,-0.047384407463747044,-0.00018205058842965397,-1.696811675558554,,,,,,,,,,,,,,,,,,,,,,,,
7,240627_144153,LEARNING,1.0,8,3.0,1068.0,,,,,,,,,,8.0,8.0,8.0,cue2.png,Hard,A,,,,,,,,,,,,,,,,,,,,,,,,,,,31,21,Female,0.14285714285714285,2.25,0.4,1.0,1.0555555555555556,3.375,3.6666666666666665,0.7777777777777778,1.625,1.7777777777777777,1.25,2.25,3.0,1.0,0.5833333333333334,0.75,0.4747144636190073,1.205543775139431,-0.7450417849212497,1.1937391522570586,-9.052054433323145e-06,-0.19947556306718114,-0.00014981281747325015,-2.314297405301745,-3.016794568997186e-06,-0.04796433476983616,,,,,2.995,2.4258431198742403,,,,,,,,,,,,,,,,,,,,
8,240627_144214,LEARNING,1.0,9,1.0,1068.0,,,,,,,,,,9.0,9.0,9.0,cue1.png,Easy,A,,,,,,,,,,,,,,,,,,,,,,,,,,,31,21,Female,0.14285714285714285,2.25,0.4,1.0,1.0555555555555556,3.375,3.6666666666666665,0.7777777777777778,1.625,1.7777777777777777,1.25,2.25,3.0,1.0,1.0,1.0,0.3554498090789738,-0.9544911531636395,-1.0343712237316345,-0.9633647386779401,-1.5193518124815772e-05,-0.2796808342258571,7.59087944497013e-05,0.7720180527437835,,,-1.965896752524187e-05,-0.29554657437336457,2.895,2.4716384285457167,,,,,,,,,,,,,,,,,,,,,,
9,240627_144236,LEARNING,1.0,10,1.0,1068.0,,,,,,,,,,10.0,10.0,10.0,cue1.png,Easy,A,,,,,,,,,,,,,,,,,,,,,,,,,,,31,21,Female,0.14285714285714285,2.25,0.4,1.0,1.0555555555555556,3.375,3.6666666666666665,0.7777777777777778,1.625,1.7777777777777777,1.25,2.25,3.0,1.0,0.5833333333333334,0.75,0.4350438363299789,0.48705814414948134,-0.8323084797983628,0.5431198172787567,1.7335161434719592e-05,0.1451318318687506,6.657226685395905e-05,0.6443587240790392,-3.0128672689759724e-05,-0.379832029205545,2.2222405509851953e-05,0.06584464825837476,0.804,-1.2672801210651166,3.001,2.4352420973974587,,,,,,,,,,,,,,,,,,,,
10,240627_144258,LEARNING,1.0,11,3.0,1068.0,,,,,,,,,,11.0,11.0,11.0,cue2.png,Hard,A,,,,,,,,,,,,,,,,,,,,,,,,,,,31,21,Female,0.14285714285714285,2.25,0.4,1.0,1.0555555555555556,3.375,3.6666666666666665,0.7777777777777778,1.625,1.7777777777777777,1.25,2.25,3.0,1.0,0.84375,0.875,0.4749212182042273,1.2092883642415777,-0.7446063451153446,1.1969855861610812,,,-6.25614772078063e-05,-1.1213006075987928,0.0001648628674254778,2.006996082232272,,,,,,,,,,,,,,,,,,,,,,,,,,
11,240627_144319,LEARNING,1.0,12,1.0,1068.0,,,,,,,,,,12.0,12.0,12.0,cue1.png,Easy,A,,,,,,,,,,,,,,,,,,,,,,,,,,,31,21,Female,0.14285714285714285,2.25,0.4,1.0,1.0555555555555556,3.375,3.6666666666666665,0.7777777777777778,1.625,1.7777777777777777,1.25,2.25,3.0,1.0,0.84375,0.875,0.444544918179004,0.6591348480959275,-0.8107041758626156,0.7041913220394049,6.09653215363549e-05,0.7149257763474185,,,-8.755227848622482e-05,-1.0827357372029565,,,,,1.0100000000000002,-0.6836519440572744,,,,,,,,,,,,,,,,,,,,
12,240627_144341,LEARNING,1.0,13,1.0,1068.0,,,,,,,,,,13.0,13.0,13.0,cue1.png,Easy,A,,,,,,,,,,,,,,,,,,,,,,,,,,,31,21,Female,0.14285714285714285,2.25,0.4,1.0,1.0555555555555556,3.375,3.6666666666666665,0.7777777777777778,1.625,1.7777777777777777,1.25,2.25,3.0,1.0,1.0,1.0,0.4144511818674139,0.11409892100692354,-0.8808000872960826,0.18158925322310254,-0.00012611089746588072,-1.7282212690709107,4.2059000586844916e-05,0.3091862434164213,,,,,2.002,0.874864509462754,0.06499999999999995,-2.163990903964218,,,,,,,,,,,,,,,,,,,,
13,240627_144402,LEARNING,1.0,14,1.0,1068.0,,,,,,,,,,14.0,14.0,14.0,cue1.png,Easy,A,,,,,,,,,,,,,,,,,,,,,,,,,,,31,21,Female,0.14285714285714285,2.25,0.4,1.0,1.0555555555555556,3.375,3.6666666666666665,0.7777777777777778,1.625,1.7777777777777777,1.25,2.25,3.0,1.0,1.0,1.0,0.3697084545538845,-0.6962489071697994,-0.9950405446132221,-0.6701337376837956,7.498607758180294e-05,0.8980317258350881,2.046832396694013e-06,-0.2379043614359526,5.006481468972611e-05,0.6017904038419135,2.2634001918420826e-06,-0.10638010971087686,,,,,,,,,,,,,,,,,,,,,,,,
14,240627_144424,LEARNING,1.0,15,3.0,1068.0,,,,,,,,,,15.0,15.0,15.0,cue2.png,Hard,A,,,,,,,,,,,,,,,,,,,,,,,,,,,31,21,Female,0.14285714285714285,2.25,0.4,1.0,1.0555555555555556,3.375,3.6666666666666665,0.7777777777777778,1.625,1.7777777777777777,1.25,2.25,3.0,1.0,0.84375,0.875,0.4920128181957724,1.5188390278871051,-0.709250509585769,1.460582027303344,0.00011868397436985223,1.4687102866811457,,,-6.099486468969222e-05,-0.7576550604762173,,,,,0.777,-1.0486455712089335,,,,,,,,,,,,,,,,,,,,
15,240627_144445,LEARNING,1.0,16,1.0,1068.0,,,,,,,,,,16.0,16.0,16.0,cue1.png,Easy,A,,,,,,,,,,,,,,,,,,,,,,,,,,,31,21,Female,0.14285714285714285,2.25,0.4,1.0,1.0555555555555556,3.375,3.6666666666666665,0.7777777777777778,1.625,1.7777777777777777,1.25,2.25,3.0,1.0,1.0,1.0,0.3966470636131072,-0.2083563566716093,-0.9247084022286085,-0.14577044226721117,4.607120002203492e-05,0.5204139930438572,-3.6446488394834865e-05,-0.7642276052685076,1.561952106748964e-05,0.18015675206555576,-2.8963852926895683e-05,-0.37583773170801477,,,,,,,,,,,,,,,,,,,,,,,,
16,240627_144506,LEARNING,1.0,17,1.0,1068.0,,,,,,,,,,17.0,17.0,17.0,cue1.png,Easy,A,,,,,,,,,,,,,,,,,,,,,,,,,,,31,21,Female,0.14285714285714285,2.25,0.4,1.0,1.0555555555555556,3.375,3.6666666666666665,0.7777777777777778,1.625,1.7777777777777777,1.25,2.25,3.0,1.0,1.0,1.0,0.4147425000344149,0.11937506437394318,-0.8800974331747472,0.18682791108434926,,,4.535637064261369e-05,0.35427153271290823,-2.6572474240513927e-06,-0.04356323494552248,8.489297073296931e-07,-0.11858546929510319,,,,,,,,,,,,,,,,,,,,,,,,
17,240627_144528,LEARNING,1.0,18,3.0,1068.0,,,,,,,,,,18.0,18.0,18.0,cue2.png,Hard,A,,,,,,,,,,,,,,,,,,,,,,,,,,,31,21,Female,0.14285714285714285,2.25,0.4,1.0,1.0555555555555556,3.375,3.6666666666666665,0.7777777777777778,1.625,1.7777777777777777,1.25,2.25,3.0,1.0,1.0,1.0,0.4900226000357758,1.4827936399461814,-0.7133037664190841,1.430362855268683,,,,,-1.755132645798801e-05,-0.22587681896648645,-5.741769742391607e-05,-0.6213638189911402,,,,,,,,,,,,,,,,,,,,,,,,
18,240627_144551,LEARNING,1.0,19,3.0,1068.0,,,,,,,,,,19.0,19.0,19.0,cue2.png,Hard,A,,,,,,,,,,,,,,,,,,,,,,,,,,,31,21,Female,0.14285714285714285,2.25,0.4,1.0,1.0555555555555556,3.375,3.6666666666666665,0.7777777777777778,1.625,1.7777777777777777,1.25,2.25,3.0,1.0,0.5833333333333334,0.75,0.5191245272924955,2.0098666407265515,-0.6556114876167619,1.860489286899978,-4.233748104617895e-05,-0.6341710690936071,,,-6.821686794475628e-06,-0.09453878471466975,0.00018486469419290788,1.4692727428803496,,,,,,,,,,,,,,,,,,,,,,,,
19,240627_144613,LEARNING,1.0,20,3.0,1068.0,,,,,,,,,,20.0,20.0,20.0,cue2.png,Hard,A,,,,,,,,,,,,,,,,,,,,,,,,,,,31,21,Female,0.14285714285714285,2.25,0.4,1.0,1.0555555555555556,3.375,3.6666666666666665,0.7777777777777778,1.625,1.7777777777777777,1.25,2.25,3.0,1.0,0.84375,0.875,0.462253690908917,0.9798632967844121,-0.7716414240871435,0.9954247830793685,2.1900966512384493e-05,0.20475957742052328,-1.1608552707296355e-05,-0.4246158853036626,1.3361025084999978e-05,0.152511236278615,-7.820795441411789e-05,-0.8007613852127958,0.9059999999999999,-1.0848938503523933,1.804,0.5601460815153313,,,,,,,,,,,,,,,,,,,,
20,240627_144634,LEARNING,1.0,21,1.0,1068.0,,,,,,,,,,21.0,21.0,21.0,cue1.png,Easy,A,,,,,,,,,,,,,,,,,,,,,,,,,,,31,21,Female,0.14285714285714285,2.25,0.4,1.0,1.0555555555555556,3.375,3.6666666666666665,0.7777777777777778,1.625,1.7777777777777777,1.25,2.25,3.0,1.0,0.84375,0.875,0.3671209818090905,-0.7431113370015252,-1.0020638345444541,-0.7224960762695828,0.00012098377730742488,1.4987448724876284,2.4905032458364534e-06,-0.231838003020703,6.71169313664179e-05,0.8105198257408948,-9.27048767522011e-06,-0.20590516192161204,1.5739999999999998,0.10955741274661983,0.4029999999999998,-1.634515170156232,,,,,,,,,,,,,,,,,,,,
21,240627_144656,LEARNING,1.0,22,3.0,1068.0,,,,,,,,,,22.0,22.0,22.0,cue2.png,Hard,A,,,,,,,,,,,,,,,,,,,,,,,,,,,31,21,Female,0.14285714285714285,2.25,0.4,1.0,1.0555555555555556,3.375,3.6666666666666665,0.7777777777777778,1.625,1.7777777777777777,1.25,2.25,3.0,1.0,0.84375,0.875,0.4730278636667538,1.1749972999830467,-0.7486009838388632,1.16720344311746,-6.929340032056858e-05,-0.9862055226602199,0.0001100567166230867,1.2389262019724432,0.0002578923756854511,3.1457400778790303,2.712027506658393e-05,0.10810799683376557,1.0840000000000003,-0.7666119269517574,1.6709999999999998,0.35180207975065014,,,,,,,,,,,,,,,,,,,,
22,240627_144716,LEARNING,1.0,23,3.0,1068.0,,,,,,,,,,23.0,23.0,23.0,cue2.png,Hard,A,,,,,,,,,,,,,,,,,,,,,,,,,,,31,21,Female,0.14285714285714285,2.25,0.4,1.0,1.0555555555555556,3.375,3.6666666666666665,0.7777777777777778,1.625,1.7777777777777777,1.25,2.25,3.0,1.0,0.84375,0.875,0.3535520818126811,-0.9888614131152945,-1.0397244726372983,-1.0032760387206527,-5.2945862239859795e-05,-0.7727126502108895,0.00011053206739098645,1.2454257232653514,,,0.00026021727622908527,2.1194845142970644,1.173,-0.6074709652514402,2.005,0.8750118285431571,,,,,,,,,,,,,,,,,,,,
23,240627_144737,LEARNING,1.0,24,3.0,1068.0,,,,,,,,,,24.0,24.0,24.0,cue2.png,Hard,A,,,,,,,,,,,,,,,,,,,,,,,,,,,31,21,Female,0.14285714285714285,2.25,0.4,1.0,1.0555555555555556,3.375,3.6666666666666665,0.7777777777777778,1.625,1.7777777777777777,1.25,2.25,3.0,1.0,0.84375,0.875,0.3937031545845622,-0.2616743019750898,-0.9321580684037332,-0.20131164111168726,-4.1967810949404376e-05,-0.6293433127409757,1.4502403040096094e-05,-0.06759802750532397,-1.2578341199142359e-05,-0.1650041215840059,,,1.7440000000000002,0.4135345306011598,1.525,0.12309362668566229,,,,,,,,,,,,,,,,,,,,
24,240627_144758,LEARNING,1.0,25,1.0,1068.0,,,,,,,,,,25.0,25.0,25.0,cue1.png,Easy,A,,,,,,,,,,,,,,,,,,,,,,,,,,,31,21,Female,0.14285714285714285,2.25,0.4,1.0,1.0555555555555556,3.375,3.6666666666666665,0.7777777777777778,1.625,1.7777777777777777,1.25,2.25,3.0,1.0,1.0,1.0,0.3660589908884669,-0.7623453463644391,-1.0049607812775416,-0.7440943453412269,-0.0001323229136373158,-1.8093479298313098,9.40935883183185e-05,1.0206606613976785,-0.00012555511154544157,-1.5479160737776134,0.00010788073686477436,0.8049839565855119,1.604,0.16320043354448013,0.929,-0.8105381406207268,,,,,,,,,,,,,,,,,,,,
25,240627_144819,LEARNING,1.0,26,1.0,1068.0,,,,,,,,,,26.0,26.0,26.0,cue1.png,Easy,A,,,,,,,,,,,,,,,,,,,,,,,,,,,31,21,Female,0.14285714285714285,2.25,0.4,1.0,1.0555555555555556,3.375,3.6666666666666665,0.7777777777777778,1.625,1.7777777777777777,1.25,2.25,3.0,1.0,1.0,1.0,0.3517788090870123,-1.020977642685775,-1.0447526841750916,-1.0407640133879195,3.87614021179236e-05,0.42495070408449864,-6.21086112512952e-05,-1.1151085235085911,-9.658079601479507e-05,-1.1932508879067514,,,1.1710000000000003,-0.6110471666379638,1.641,0.30480719213455704,,,,,,,,,,,,,,,,,,,,
26,240627_144840,LEARNING,1.0,27,3.0,1068.0,,,,,,,,,,27.0,27.0,27.0,cue2.png,Hard,A,,,,,,,,,,,,,,,,,,,,,,,,,,,31,21,Female,0.14285714285714285,2.25,0.4,1.0,1.0555555555555556,3.375,3.6666666666666665,0.7777777777777778,1.625,1.7777777777777777,1.25,2.25,3.0,1.0,0.5833333333333334,0.75,0.3707753181753849,-0.6769266469824512,-0.9921590112184534,-0.6486503831960129,,,,,5.178933540104548e-05,0.6228997017637682,2.9208055482132095e-06,-0.1007074082618451,2.0970000000000004,1.0447340753226446,,,,,,,,,,,,,,,,,,,,,,
27,240627_144900,LEARNING,1.0,28,1.0,1068.0,,,,,,,,,,28.0,28.0,28.0,cue1.png,Easy,A,,,,,,,,,,,,,,,,,,,,,,,,,,,31,21,Female,0.14285714285714285,2.25,0.4,1.0,1.0555555555555556,3.375,3.6666666666666665,0.7777777777777778,1.625,1.7777777777777777,1.25,2.25,3.0,1.0,1.0,1.0,0.3624141091184521,-0.8283588015924861,-1.0149677731251008,-0.8187017587440205,4.680034353492105e-05,0.5299363408264602,0.00014044126463057987,1.6543773384514018,8.836121544417239e-05,1.0705642072263089,,,0.5119999999999998,-1.7894055234976198,1.508,0.09646319036987618,,,,,,,,,,,,,,,,,,,,
28,240627_144921,LEARNING,1.0,29,1.0,1068.0,,,,,,,,,,29.0,29.0,29.0,cue1.png,Easy,A,,,,,,,,,,,,,,,,,,,,,,,,,,,31,21,Female,0.14285714285714285,2.25,0.4,1.0,1.0555555555555556,3.375,3.6666666666666665,0.7777777777777778,1.625,1.7777777777777777,1.25,2.25,3.0,1.0,1.0,1.0,0.3210346636743369,-1.5777933077151503,-1.136206175157832,-1.7225981262579355,,,-0.00011274270910411124,-1.8074338953506046,-6.474777138040528e-05,-0.8035931723743192,-2.551033829185749e-05,-0.34603761328096944,1.44,-0.13004808015048744,1.2920000000000003,-0.24190000046599608,,,,,,,,,,,,,,,,,,,,
29,240627_144942,LEARNING,1.0,30,3.0,1068.0,,,,,,,,,,30.0,30.0,30.0,cue2.png,Hard,A,,,,,,,,,,,,,,,,,,,,,,,,,,,31,21,Female,0.14285714285714285,2.25,0.4,1.0,1.0555555555555556,3.375,3.6666666666666665,0.7777777777777778,1.625,1.7777777777777777,1.25,2.25,3.0,1.0,0.84375,0.875,0.3859013363888318,-0.4029751749960343,-0.9521735474001659,-0.3505376161789127,-8.768647386872943e-05,-1.226412340688834,0.00016995727855728887,2.057952916641868,3.087293700497484e-05,0.36686886241417427,,,1.9339999999999997,0.7532736623209382,1.173,-0.4283130546765003,,,,,,,,,,,,,,,,,,,,
30,240627_145003,LEARNING,1.0,31,3.0,1068.0,,,,,,,,,,31.0,31.0,31.0,cue2.png,Hard,A,,,,,,,,,,,,,,,,,,,,,,,,,,,31,21,Female,0.14285714285714285,2.25,0.4,1.0,1.0555555555555556,3.375,3.6666666666666665,0.7777777777777778,1.625,1.7777777777777777,1.25,2.25,3.0,1.0,0.5833333333333334,0.75,0.431062390921976,0.41494909239742755,-0.8415024408352269,0.4745739782958053,3.7313848280096096e-05,0.4060461800309632,2.1832299873539036e-05,0.03262442665053205,,,,,1.22,-0.5234302326681265,1.0479999999999998,-0.6241250864102232,,,,,,,,,,,,,,,,,,,,
31,240627_145023,LEARNING,1.0,32,1.0,1068.0,,,,,,,,,,32.0,32.0,32.0,cue1.png,Easy,A,,,,,,,,,,,,,,,,,,,,,,,,,,,31,21,Female,0.14285714285714285,2.25,0.4,1.0,1.0555555555555556,3.375,3.6666666666666665,0.7777777777777778,1.625,1.7777777777777777,1.25,2.25,3.0,1.0,1.0,1.0,0.3187406909101727,-1.6193400787537346,-1.1433773879236686,-1.7760633077600727,,,,,,,-7.335432118313594e-05,-0.758879748570157,1.371,-0.25342702798556505,1.276,-0.26696394052791295,,,,,,,,,,,,,,,,,,,,
32,240627_145044,LEARNING,1.0,33,1.0,1068.0,,,,,,,,,,33.0,33.0,33.0,cue1.png,Easy,A,,,,,,,,,,,,,,,,,,,,,,,,,,,31,21,Female,0.14285714285714285,2.25,0.4,1.0,1.0555555555555556,3.375,3.6666666666666665,0.7777777777777778,1.625,1.7777777777777777,1.25,2.25,3.0,1.0,1.0,1.0,0.3579617363866418,-0.9089969475010563,-1.0273291798952413,-0.9108625798168304,5.961566036289268e-05,0.6972996947115658,,,-1.7205310601941474e-05,-0.22164135125477438,2.2913839830445478e-05,0.07181098308410883,2.0860000000000003,1.0250649676967625,0.7549999999999999,-1.083108488794069,,,,,,,,,,,,,,,,,,,,
33,240627_145105,LEARNING,1.0,34,1.0,1068.0,,,,,,,,,,34.0,34.0,34.0,cue1.png,Easy,A,,,,,,,,,,,,,,,,,,,,,,,,,,,31,21,Female,0.14285714285714285,2.25,0.4,1.0,1.0555555555555556,3.375,3.6666666666666665,0.7777777777777778,1.625,1.7777777777777777,1.25,2.25,3.0,1.0,0.84375,0.875,0.3716224181381138,-0.6615845868027985,-0.9898769451804712,-0.6316363747005685,6.077612325619411e-05,0.7124549159588646,-3.291149761948083e-05,-0.7158933027572018,3.5562782571675264e-05,0.4242757387857705,-9.802896647423528e-05,-0.9717954097229768,1.3619999999999999,-0.26951993422492326,1.4780000000000002,0.049468302753783056,,,,,,,,,,,,,,,,,,,,
34,240627_145126,LEARNING,1.0,35,3.0,1068.0,,,,,,,,,,35.0,35.0,35.0,cue2.png,Hard,A,,,,,,,,,,,,,,,,,,,,,,,,,,,31,21,Female,0.14285714285714285,2.25,0.4,1.0,1.0555555555555556,3.375,3.6666666666666665,0.7777777777777778,1.625,1.7777777777777777,1.25,2.25,3.0,1.0,0.84375,0.875,0.3979599909348921,-0.18457756919835308,-0.9214038040399207,-0.12113291613055417,-0.00011196354007810428,-1.543461952324135,5.042907491876591e-06,-0.1969387099817021,4.1113258033648875e-05,0.4922173061822586,1.6438229862610846e-05,0.015933430989503925,1.9240000000000002,0.735392655388319,0.5290000000000001,-1.4371366421686391,,,,,,,,,,,,,,,,,,,,
35,240627_145147,LEARNING,1.0,36,3.0,1068.0,,,,,,,,,,36.0,36.0,36.0,cue2.png,Hard,A,,,,,,,,,,,,,,,,,,,,,,,,,,,31,21,Female,0.14285714285714285,2.25,0.4,1.0,1.0555555555555556,3.375,3.6666666666666665,0.7777777777777778,1.625,1.7777777777777777,1.25,2.25,3.0,1.0,0.5833333333333334,0.75,0.3772444726941599,-0.5597620119861445,-0.9748618330143176,-0.519690777288817,1.8554946736706445e-05,0.16106178209165023,,,0.0001023749050620506,1.2421012303461247,-0.00014384455260610298,-1.3671346617076592,1.6,0.15604803077143214,2.178,1.1460156804626291,,,,,,,,,,,,,,,,,,,,
36,240627_145208,LEARNING,1.0,37,1.0,1068.0,,,,,,,,,,37.0,37.0,37.0,cue1.png,Easy,A,,,,,,,,,,,,,,,,,,,,,,,,,,,31,21,Female,0.14285714285714285,2.25,0.4,1.0,1.0555555555555556,3.375,3.6666666666666665,0.7777777777777778,1.625,1.7777777777777777,1.25,2.25,3.0,1.0,1.0,1.0,0.3687175727153027,-0.7141950404094629,-0.9977243135940943,-0.6901426539379208,,,-9.853286546811484e-05,-1.613141201369864,-2.39289092554139e-05,-0.30394273862085824,-6.576600000993225e-06,-0.1826598074914777,1.2400000000000002,-0.48766821880288613,1.327,-0.18707263158055423,,,,,,,,,,,,,,,,,,,,
37,240627_145230,LEARNING,1.0,38,3.0,1068.0,,,,,,,,,,38.0,38.0,38.0,cue2.png,Hard,A,,,,,,,,,,,,,,,,,,,,,,,,,,,31,21,Female,0.14285714285714285,2.25,0.4,1.0,1.0555555555555556,3.375,3.6666666666666665,0.7777777777777778,1.625,1.7777777777777777,1.25,2.25,3.0,1.0,1.0,1.0,0.4808696454856545,1.3170219651638917,-0.7321590529118236,1.2897867285343487,4.103134850658944e-06,-0.027673599127041742,9.730366714814573e-05,1.0645524085353975,-1.922340260770896e-05,-0.24634416004323298,5.404692954077452e-06,-0.07927413037640706,1.809,0.5297610756631891,1.569,0.19201946185593272,,,,,,,,,,,,,,,,,,,,
38,240627_145251,LEARNING,1.0,39,3.0,1068.0,,,,,,,,,,39.0,39.0,39.0,cue2.png,Hard,A,,,,,,,,,,,,,,,,,,,,,,,,,,,31,21,Female,0.14285714285714285,2.25,0.4,1.0,1.0555555555555556,3.375,3.6666666666666665,0.7777777777777778,1.625,1.7777777777777777,1.25,2.25,3.0,1.0,0.84375,0.875,0.4078958454457196,-0.004626578113052354,-0.8967434179379528,0.06272329646652072,7.787904837601401e-05,0.9358128670515131,,,-0.00010853588342584668,-1.339589230024213,-2.1927241897833072e-05,-0.3151193435872127,1.9169999999999998,0.7228759505354844,1.1779999999999997,-0.42048057340715195,,,,,,,,,,,,,,,,,,,,
39,240627_145312,LEARNING,1.0,40,3.0,1068.0,,,,,,,,,,40.0,40.0,40.0,cue2.png,Hard,A,,,,,,,,,,,,,,,,,,,,,,,,,,,31,21,Female,0.14285714285714285,2.25,0.4,1.0,1.0555555555555556,3.375,3.6666666666666665,0.7777777777777778,1.625,1.7777777777777777,1.25,2.25,3.0,1.0,0.15625,0.625,0.4216201999436386,0.2439389771912426,-0.8636503703229675,0.30944945771264554,-5.035660839052556e-05,-0.738897941288622,9.860542105393118e-06,-0.13106668269887994,,,0.00011966775215449966,0.9066932263165559,1.974,0.8247976900514185,2.02,0.8985092723512039,,,,,,,,,,,,,,,,,,,,
40,240627_145333,LEARNING,1.0,41,1.0,1068.0,,,,,,,,,,41.0,41.0,41.0,cue1.png,Easy,A,,,,,,,,,,,,,,,,,,,,,,,,,,,31,21,Female,0.14285714285714285,2.25,0.4,1.0,1.0555555555555556,3.375,3.6666666666666665,0.7777777777777778,1.625,1.7777777777777777,1.25,2.25,3.0,1.0,1.0,1.0,0.3825582546097311,-0.46352264766411755,-0.9608743376786744,-0.4154066064937218,4.711738903301387e-05,0.5340768391541466,,,-0.00023075540753721103,-2.8356387291109706,0.00023353299405750065,1.8892278474261213,0.871,-1.147477374616563,1.414,-0.05078745749388335,,,,,,,,,,,,,,,,,,,,
41,240627_145355,LEARNING,1.0,42,3.0,1068.0,,,,,,,,,,42.0,42.0,42.0,cue2.png,Hard,A,,,,,,,,,,,,,,,,,,,,,,,,,,,31,21,Female,0.14285714285714285,2.25,0.4,1.0,1.0555555555555556,3.375,3.6666666666666665,0.7777777777777778,1.625,1.7777777777777777,1.25,2.25,3.0,1.0,1.0,1.0,0.4400100181598894,0.5770020278112575,-0.8209577837838264,0.6277452554590136,4.8231933405631575e-05,0.5486323813041407,-2.224536600254701e-05,-0.5700541577748077,-1.721628865769976e-05,-0.22177573006975948,,,2.411,1.6061976930069106,,,,,,,,,,,,,,,,,,,,,,
42,240627_145416,LEARNING,1.0,43,3.0,1068.0,,,,,,,,,,43.0,43.0,43.0,cue2.png,Hard,A,,,,,,,,,,,,,,,,,,,,,,,,,,,31,21,Female,0.14285714285714285,2.25,0.4,1.0,1.0555555555555556,3.375,3.6666666666666665,0.7777777777777778,1.625,1.7777777777777777,1.25,2.25,3.0,1.0,0.5833333333333334,0.75,0.3435299272902987,-1.170375407422216,-1.0684810465433918,-1.217671496430875,,,,,,,8.009258897782997e-05,0.565202115356965,1.9869999999999999,0.8480429990638242,1.344,-0.16044219526476777,,,,,,,,,,,,,,,,,,,,
43,240627_145436,LEARNING,1.0,44,1.0,1068.0,,,,,,,,,,44.0,44.0,44.0,cue1.png,Easy,A,,,,,,,,,,,,,,,,,,,,,,,,,,,31,21,Female,0.14285714285714285,2.25,0.4,1.0,1.0555555555555556,3.375,3.6666666666666665,0.7777777777777778,1.625,1.7777777777777777,1.25,2.25,3.0,1.0,1.0,1.0,0.3710867818656631,-0.6712856425080433,-0.9913193303436356,-0.6423901184622877,-0.00012538629136944106,-1.718758178288712,,,,,-0.00025978502639989595,-2.3675763029531036,2.278,1.3683803008030653,1.4550000000000003,0.013438888914778237,,,,,,,,,,,,,,,,,,,,
44,240627_145457,LEARNING,1.0,45,1.0,1068.0,,,,,,,,,,45.0,45.0,45.0,cue1.png,Easy,A,,,,,,,,,,,,,,,,,,,,,,,,,,,31,21,Female,0.14285714285714285,2.25,0.4,1.0,1.0555555555555556,3.375,3.6666666666666665,0.7777777777777778,1.625,1.7777777777777777,1.25,2.25,3.0,1.0,1.0,1.0,0.3302566545634446,-1.410771296828607,-1.1078851857041518,-1.511450180867907,2.159648418675799e-06,-0.05305482160114727,,,-3.6207250527740386e-05,-0.4542379262648779,3.448668611856281e-05,0.17167220458435423,1.899,0.6906901380567688,1.523,0.11996063417792273,,,,,,,,,,,,,,,,,,,,
45,240627_145517,LEARNING,1.0,46,1.0,1068.0,,,,,,,,,,46.0,46.0,46.0,cue1.png,Easy,A,,,,,,,,,,,,,,,,,,,,,,,,,,,31,21,Female,0.14285714285714285,2.25,0.4,1.0,1.0555555555555556,3.375,3.6666666666666665,0.7777777777777778,1.625,1.7777777777777777,1.25,2.25,3.0,1.0,1.0,1.0,0.3351983909114179,-1.3212701520069943,-1.0930327107693292,-1.4007171299773713,0.00011626949118081391,1.437178018705168,-2.605978215926546e-05,-0.6222090730600894,5.165107911641502e-05,0.6212073514877311,-1.2888610162059295e-05,-0.23712566913981034,0.5430000000000001,-1.7339744020064973,1.268,-0.2794959105588712,,,,,,,,,,,,,,,,,,,,
46,240627_145539,LEARNING,1.0,47,3.0,1068.0,,,,,,,,,,47.0,47.0,47.0,cue2.png,Hard,A,,,,,,,,,,,,,,,,,,,,,,,,,,,31,21,Female,0.14285714285714285,2.25,0.4,1.0,1.0555555555555556,3.375,3.6666666666666665,0.7777777777777778,1.625,1.7777777777777777,1.25,2.25,3.0,1.0,0.5833333333333334,0.75,0.4859200546052307,1.4084913124116394,-0.7217111653097651,1.3676812528216677,2.366463942167496e-05,0.2277925010085602,6.570103243546668e-05,0.632446243787643,9.465834417135815e-05,1.1476453147374706,0.00033798986746077543,2.7905783633193435,0.22399999999999998,-2.3043785231570744,2.484,1.6253635341467823,,,,,,,,,,,,,,,,,,,,
47,240627_145601,LEARNING,1.0,48,3.0,1068.0,,,,,,,,,,48.0,48.0,48.0,cue2.png,Hard,A,,,,,,,,,,,,,,,,,,,,,,,,,,,31,21,Female,0.14285714285714285,2.25,0.4,1.0,1.0555555555555556,3.375,3.6666666666666665,0.7777777777777778,1.625,1.7777777777777777,1.25,2.25,3.0,1.0,0.5833333333333334,0.75,0.4547668090936812,0.8442663230845644,-0.787970498894453,0.8736828996849861,-2.8382851474410917e-05,-0.4519287071835404,-2.0141678973232668e-05,-0.5412902226684124,-4.619028476659029e-05,-0.5764370060026515,-6.856705870658935e-05,-0.7175708201831023,1.227,-0.5109135278152923,1.4699999999999998,0.0369363327228241,,,,,,,,,,,,,,,,,,,,
48,240627_145622,LEARNING,1.0,49,1.0,1068.0,,,,,,,,,,49.0,49.0,49.0,cue1.png,Easy,A,,,,,,,,,,,,,,,,,,,,,,,,,,,31,21,Female,0.14285714285714285,2.25,0.4,1.0,1.0555555555555556,3.375,3.6666666666666665,0.7777777777777778,1.625,1.7777777777777777,1.25,2.25,3.0,1.0,0.84375,0.875,0.3544617362997748,-0.9723864107569854,-1.037154875930717,-0.9841183371169355,,,1.4519273225245977e-05,-0.06736735968063225,-1.961505009043154e-05,-0.2511381896764348,,,,,,,,,,,,,,,,,,,,,,,,,,
49,240627_145643,LEARNING,1.0,50,1.0,1068.0,,,,,,,,,,50.0,50.0,50.0,cue1.png,Easy,A,,,,,,,,,,,,,,,,,,,,,,,,,,,31,21,Female,0.14285714285714285,2.25,0.4,1.0,1.0555555555555556,3.375,3.6666666666666665,0.7777777777777778,1.625,1.7777777777777777,1.25,2.25,3.0,1.0,1.0,1.0,0.3818192545493895,-0.47690688080940485,-0.9628079379788793,-0.4298226187330387,1.1092428849549061e-05,0.06360402597155182,0.00011251445593151842,1.2725311313136716,-4.787795057160319e-05,-0.5970951749864778,8.722031626241756e-05,0.6267067388038677,1.6360000000000001,0.22041965572886407,2.134,1.0770898452923587,,,,,,,,,,,,,,,,,,,,
0,240627_145815,TrueCHOICE,9.0,1,1.0,1068.0,,,,,,,,,,,1.0,1.0,,,A,,,,,,True,cue1.png,Easy,cue2.png,Hard,Left,Easy,Easy,0.0163278002291917,,,,,,,,,,,,,31,21,Female,0.14285714285714285,2.25,0.4,1.0,1.0555555555555556,3.375,3.6666666666666665,0.7777777777777778,1.625,1.7777777777777777,1.25,2.25,3.0,1.0,0.84375,0.875,0.4224033636379648,1.8630889251584335,-0.8617945834637305,1.807293019861359,,,,,,,,,,,,,,,,,1.458,0.5094881475302725,,,,,,,,,,,,,,
1,240627_145833,TrueCHOICE,9.0,2,1.0,1068.0,,,,,,,,,,,2.0,2.0,,,A,,,,,,True,cue1.png,Easy,cue2.png,Hard,Left,Easy,Easy,0.0173919999506324,,,,,,,,,,,,,31,21,Female,0.14285714285714285,2.25,0.4,1.0,1.0555555555555556,3.375,3.6666666666666665,0.7777777777777778,1.625,1.7777777777777777,1.25,2.25,3.0,1.0,,,,,,,,,,,,,,,,,,,-7.116765698110192e-05,-0.46355679758522683,-4.581904920193452e-05,-0.5788075629361705,1.459,0.5157166089915235,,,,,,,,,,,,,,
2,240627_145853,TrueCHOICE,9.0,3,1.0,1068.0,,,,,,,,,,,3.0,3.0,,,A,,,,,,True,cue2.png,Hard,cue1.png,Easy,Right,Easy,Easy,0.0165014001540839,,,,,,,,,,,,,31,21,Female,0.14285714285714285,2.25,0.4,1.0,1.0555555555555556,3.375,3.6666666666666665,0.7777777777777778,1.625,1.7777777777777777,1.25,2.25,3.0,1.0,1.0,1.0,0.3413916545793075,-0.9584224986266234,-1.074724913620903,-0.9738390470592394,,,,,,,,,,,,,,,3.067689443105601e-05,1.5880040605316699,1.0879999999999999,-1.7950425931323337,,,,,,,,,,,,,,
3,240627_145912,TrueCHOICE,9.0,4,1.0,1068.0,,,,,,,,,,,4.0,4.0,,,A,,,,,,True,cue1.png,Easy,cue2.png,Hard,Left,Easy,Easy,0.0142785001080483,,,,,,,,,,,,,31,21,Female,0.14285714285714285,2.25,0.4,1.0,1.0555555555555556,3.375,3.6666666666666665,0.7777777777777778,1.625,1.7777777777777777,1.25,2.25,3.0,1.0,0.84375,0.875,0.3472416818311268,-0.7546751772547111,-1.0577342520445974,-0.7519201043084365,,,,,,,,,,,,,6.606353856714606e-05,1.6901372778682024,-5.1836084216471887e-05,-0.7492451154273816,1.3269999999999997,-0.30644030389351623,,,,,,,,,,,,,,
4,240627_145931,TrueCHOICE,9.0,5,3.0,1068.0,,,,,,,,,,,5.0,5.0,,,A,,,,,,True,cue2.png,Hard,cue1.png,Easy,Left,Hard,Hard,0.0167719000019133,,,,,,,,,,,,,31,21,Female,0.14285714285714285,2.25,0.4,1.0,1.0555555555555556,3.375,3.6666666666666665,0.7777777777777778,1.625,1.7777777777777777,1.25,2.25,3.0,1.0,0.5833333333333334,0.75,0.3777686272409152,0.3085307001156322,-0.9734733680168034,0.3486307020694019,,,,,,,,,,,,,,,,,,,,,,,,,,,,,,,,
5,240627_145951,TrueCHOICE,9.0,6,3.0,1068.0,,,,,,,,,,,6.0,6.0,,,A,,,,,,True,cue2.png,Hard,cue1.png,Easy,Left,Hard,Hard,0.0167926999274641,,,,,,,,,,,,,31,21,Female,0.14285714285714285,2.25,0.4,1.0,1.0555555555555556,3.375,3.6666666666666665,0.7777777777777778,1.625,1.7777777777777777,1.25,2.25,3.0,1.0,0.84375,0.875,0.3886851363773034,0.6887356802854918,-0.9449856811725607,0.7207149389013937,,,,,,,,,,,,,,,,,,,,,,,,,,,,,,,,
6,240627_150010,TrueCHOICE,9.0,7,1.0,1068.0,,,,,,,,,,,7.0,7.0,,,A,,,,,,True,cue1.png,Easy,cue2.png,Hard,Left,Easy,Easy,0.0165864999871701,,,,,,,,,,,,,31,21,Female,0.14285714285714285,2.25,0.4,1.0,1.0555555555555556,3.375,3.6666666666666665,0.7777777777777778,1.625,1.7777777777777777,1.25,2.25,3.0,1.0,,,,,,,,,,,,,,,,,,,-6.179024526890365e-05,-0.3163885391803918,,,,,,,,,,,,,,,,,,
7,240627_150028,TrueCHOICE,9.0,8,1.0,1068.0,,,,,,,,,,,8.0,8.0,,,A,,,,,,True,cue2.png,Hard,cue1.png,Easy,Right,Easy,Easy,0.0169774999376386,,,,,,,,,,,,,31,21,Female,0.14285714285714285,2.25,0.4,1.0,1.0555555555555556,3.375,3.6666666666666665,0.7777777777777778,1.625,1.7777777777777777,1.25,2.25,3.0,1.0,1.0,1.0,0.3405830363573676,-0.9865854096081978,-1.0770963171689485,-1.0048124947884125,,,,,,,,,,,,,,,-7.436142660657667e-05,-1.3872942902652265,1.549,1.0762781405040482,,,,,,,,,,,,,,
8,240627_150046,TrueCHOICE,9.0,9,1.0,1068.0,,,,,,,,,,,9.0,9.0,,,A,,,,,,True,cue1.png,Easy,cue2.png,Hard,Left,Easy,Easy,0.0161730998661369,,,,,,,,,,,,,31,21,Female,0.14285714285714285,2.25,0.4,1.0,1.0555555555555556,3.375,3.6666666666666665,0.7777777777777778,1.625,1.7777777777777777,1.25,2.25,3.0,1.0,0.84375,0.875,0.3418627182148736,-0.9420160872013676,-1.0733460312340215,-0.9558291467325113,,,,,,,,,,,,,,,-1.798092310672031e-06,0.6681228824976367,,,,,,,,,,,,,,,,
9,240627_150105,TrueCHOICE,9.0,10,1.0,1068.0,,,,,,,,,,,10.0,10.0,,,A,,,,,,True,cue2.png,Hard,cue1.png,Easy,Right,Easy,Easy,0.016330000013113,,,,,,,,,,,,,31,21,Female,0.14285714285714285,2.25,0.4,1.0,1.0555555555555556,3.375,3.6666666666666665,0.7777777777777778,1.625,1.7777777777777777,1.25,2.25,3.0,1.0,1.0,1.0,0.3913441181648522,0.7813438671313367,-0.9381680084472707,0.8097621320564421,,,,,,,,,,,,,-9.962679396686254e-05,-0.9101919411025838,-9.173085592495672e-06,0.459220025599472,,,,,,,,,,,,,,,,
0,240627_150242,FalseCHOICE,9.0,1,2.0,1068.0,,,,,,,,,,,1.0,1.0,,,A,,,,,,False,cue1.png,Easy,cue2.png,Hard,Left,Easy,Mid,0.0163155000191181,,,,,,,,,,,,,31,21,Female,0.14285714285714285,2.25,0.4,1.0,1.0555555555555556,3.375,3.6666666666666665,0.7777777777777778,1.625,1.7777777777777777,1.25,2.25,3.0,1.0,1.0,1.0,0.4214937090662054,0.9261868977001798,-0.8639504267614404,0.94757125472231,,,,,,,,,,,,,,,,,,,-0.00032433386470467765,-0.35537603692111425,0.00011877996084600677,0.5420053455007685,,,,,,,,,,
1,240627_150302,FalseCHOICE,9.0,2,2.0,1068.0,,,,,,,,,,,2.0,2.0,,,A,,,,,,False,cue2.png,Hard,cue1.png,Easy,Left,Hard,Mid,0.0161152000073343,,,,,,,,,,,,,31,21,Female,0.14285714285714285,2.25,0.4,1.0,1.0555555555555556,3.375,3.6666666666666665,0.7777777777777778,1.625,1.7777777777777777,1.25,2.25,3.0,1.0,,,,,,,,,,,,,,,,,,,,,,,,,-6.578206070971884e-05,0.10123880967454656,-3.598583890438009e-05,0.13841936967049012,1.127,-0.6512798084346065,,,,,,,,
2,240627_150321,FalseCHOICE,9.0,3,2.0,1068.0,,,,,,,,,,,3.0,3.0,,,A,,,,,,False,cue2.png,Hard,cue1.png,Easy,Right,Easy,Mid,0.0168530000373721,,,,,,,,,,,,,31,21,Female,0.14285714285714285,2.25,0.4,1.0,1.0555555555555556,3.375,3.6666666666666665,0.7777777777777778,1.625,1.7777777777777777,1.25,2.25,3.0,1.0,,,,,,,,,,,,,,,,,,,,,,,,,-0.003495977446276173,-5.9566502306359554,-0.00047862282528293807,-1.0158542513380646,1.574,0.07558925823853282,,,,,,,,
3,240627_150340,FalseCHOICE,9.0,4,2.0,1068.0,,,,,,,,,,,4.0,4.0,,,A,,,,,,False,cue2.png,Hard,cue1.png,Easy,Left,Hard,Mid,0.0152183999307453,,,,,,,,,,,,,31,21,Female,0.14285714285714285,2.25,0.4,1.0,1.0555555555555556,3.375,3.6666666666666665,0.7777777777777778,1.625,1.7777777777777777,1.25,2.25,3.0,1.0,0.5833333333333334,0.75,0.4245081454600123,1.0007582564911608,-0.8568240850520206,1.0161633322810064,,,,,,,,,,,,,,,,,,,-4.0477124734746104e-05,0.1459285363745408,3.936129686922703e-05,0.3349036534479963,1.5829999999999997,0.09022420588966933,,,,,,,,
4,240627_150359,FalseCHOICE,9.0,5,2.0,1068.0,,,,,,,,,,,5.0,5.0,,,A,,,,,,False,cue1.png,Easy,cue2.png,Hard,Left,Easy,Mid,0.0159092999529093,,,,,,,,,,,,,31,21,Female,0.14285714285714285,2.25,0.4,1.0,1.0555555555555556,3.375,3.6666666666666665,0.7777777777777778,1.625,1.7777777777777777,1.25,2.25,3.0,1.0,,,,,,,,,,,,,,,,,,,,,,,,,0.00011184623100141686,0.4149388648182768,,,,,,,,,,,,
5,240627_150419,FalseCHOICE,9.0,6,2.0,1068.0,,,,,,,,,,,6.0,6.0,,,A,,,,,,False,cue2.png,Hard,cue1.png,Easy,Right,Easy,Mid,0.0165735001210123,,,,,,,,,,,,,31,21,Female,0.14285714285714285,2.25,0.4,1.0,1.0555555555555556,3.375,3.6666666666666665,0.7777777777777778,1.625,1.7777777777777777,1.25,2.25,3.0,1.0,0.84375,0.875,0.4709328727542676,2.1492167222082976,-0.7530397158143344,2.015103011909604,,,,,,,,,,,,,,,,,,,7.034121193472305e-06,0.2298356680822939,-1.3772265182857447e-05,0.1963461651352364,0.07299999999999995,-2.36519478891221,,,,,,,,
6,240627_150438,FalseCHOICE,9.0,7,2.0,1068.0,,,,,,,,,,,7.0,7.0,,,A,,,,,,False,cue2.png,Hard,cue1.png,Easy,Right,Easy,Mid,0.0167022999376058,,,,,,,,,,,,,31,21,Female,0.14285714285714285,2.25,0.4,1.0,1.0555555555555556,3.375,3.6666666666666665,0.7777777777777778,1.625,1.7777777777777777,1.25,2.25,3.0,1.0,0.84375,0.875,0.3754444545431232,-0.2129830937957348,-0.9796447427061359,-0.16600339773775877,,,,,,,,,,,,,,,,,,,-6.20834462043275e-05,0.10777073971294104,-1.1747045363502337e-05,0.20162737273008946,,,,,,,,,,
7,240627_150456,FalseCHOICE,9.0,8,2.0,1068.0,,,,,,,,,,,8.0,8.0,,,A,,,,,,False,cue1.png,Easy,cue2.png,Hard,Right,Hard,Mid,0.0166118999477475,,,,,,,,,,,,,31,21,Female,0.14285714285714285,2.25,0.4,1.0,1.0555555555555556,3.375,3.6666666666666665,0.7777777777777778,1.625,1.7777777777777777,1.25,2.25,3.0,1.0,,,,,,,,,,,,,,,,,,,,,,,,,-0.00015099667232960651,-0.04925426835202364,6.200606083138103e-05,0.3939548726182019,,,,,,,,,,
8,240627_150516,FalseCHOICE,9.0,9,2.0,1068.0,,,,,,,,,,,9.0,9.0,,,A,,,,,,False,cue1.png,Easy,cue2.png,Hard,Left,Easy,Mid,0.0160161000676453,,,,,,,,,,,,,31,21,Female,0.14285714285714285,2.25,0.4,1.0,1.0555555555555556,3.375,3.6666666666666665,0.7777777777777778,1.625,1.7777777777777777,1.25,2.25,3.0,1.0,0.84375,0.875,0.3810064272574064,-0.07539058605047744,-0.964939034555712,-0.02445881355424894,,,,,,,,,,,,,,,,,,,-4.468308732575189e-06,0.20952182692935448,8.104360489767605e-05,0.4435994698858123,,,,,,,,,,
9,240627_150535,FalseCHOICE,9.0,10,2.0,1068.0,,,,,,,,,,,10.0,10.0,,,A,,,,,,False,cue2.png,Hard,cue1.png,Easy,Right,Easy,Mid,0.0164010000880807,,,,,,,,,,,,,31,21,Female,0.14285714285714285,2.25,0.4,1.0,1.0555555555555556,3.375,3.6666666666666665,0.7777777777777778,1.625,1.7777777777777777,1.25,2.25,3.0,1.0,,,,,,,,,,,,,,,,,,,,,,,,,3.2038851276718246e-05,0.2739952168253762,-6.217961942235834e-05,0.07011330665086642,,,,,,,,,,
10,240627_150554,FalseCHOICE,9.0,11,2.0,1068.0,,,,,,,,,,,11.0,11.0,,,A,,,,,,False,cue1.png,Easy,cue2.png,Hard,Left,Easy,Mid,0.0159793999046087,,,,,,,,,,,,,31,21,Female,0.14285714285714285,2.25,0.4,1.0,1.0555555555555556,3.375,3.6666666666666665,0.7777777777777778,1.625,1.7777777777777777,1.25,2.25,3.0,1.0,0.84375,0.875,0.3691075999628413,-0.36974468859445514,-0.9966670786329932,-0.3298458618988322,,,,,,,,,,,,,,,,,,,-3.5630123761656775e-05,0.1544885718164879,6.686276213954028e-05,0.4066197930329897,1.453,-0.12116948240453171,,,,,,,,
11,240627_150613,FalseCHOICE,9.0,12,2.0,1068.0,,,,,,,,,,,12.0,12.0,,,A,,,,,,False,cue2.png,Hard,cue1.png,Easy,Left,Hard,Mid,0.0160521999932825,,,,,,,,,,,,,31,21,Female,0.14285714285714285,2.25,0.4,1.0,1.0555555555555556,3.375,3.6666666666666665,0.7777777777777778,1.625,1.7777777777777777,1.25,2.25,3.0,1.0,,,,,,,,,,,,,,,,,,,,,,,,,-2.3324911910547422e-05,0.17622016422816164,1.5101818853184481e-05,0.271641711054853,,,,,,,,,,
12,240627_150632,FalseCHOICE,9.0,13,2.0,1068.0,,,,,,,,,,,13.0,13.0,,,A,,,,,,False,cue1.png,Easy,cue2.png,Hard,Left,Easy,Mid,0.0163092999719083,,,,,,,,,,,,,31,21,Female,0.14285714285714285,2.25,0.4,1.0,1.0555555555555556,3.375,3.6666666666666665,0.7777777777777778,1.625,1.7777777777777777,1.25,2.25,3.0,1.0,0.5833333333333334,0.75,0.4013553000139919,0.42800138945808414,-0.9129082090252124,0.4763454652405125,,,,,,,,,,,,,,,,,,,0.00022310227853139476,0.6114223636405512,1.4843876035941332e-06,0.23613125404153662,,,,,,,,,,
13,240627_150651,FalseCHOICE,9.0,14,2.0,1068.0,,,,,,,,,,,14.0,14.0,,,A,,,,,,False,cue2.png,Hard,cue1.png,Easy,Left,Hard,Mid,0.0160993000026792,,,,,,,,,,,,,31,21,Female,0.14285714285714285,2.25,0.4,1.0,1.0555555555555556,3.375,3.6666666666666665,0.7777777777777778,1.625,1.7777777777777777,1.25,2.25,3.0,1.0,1.0,1.0,0.3663359545382925,-0.43830986575992575,-1.0042044580266576,-0.402394237073735,,,,,,,,,,,,,,,,,,,,,,,,,,,,,,,,
14,240627_150709,FalseCHOICE,9.0,15,2.0,1068.0,,,,,,,,,,,15.0,15.0,,,A,,,,,,False,cue1.png,Easy,cue2.png,Hard,Right,Hard,Mid,0.0156090999953448,,,,,,,,,,,,,31,21,Female,0.14285714285714285,2.25,0.4,1.0,1.0555555555555556,3.375,3.6666666666666665,0.7777777777777778,1.625,1.7777777777777777,1.25,2.25,3.0,1.0,,,,,,,,,,,,,,,,,,,,,,,,,,,3.871761097264288e-05,0.3332251004271087,,,,,,,,,,
15,240627_150730,FalseCHOICE,9.0,16,2.0,1068.0,,,,,,,,,,,16.0,16.0,,,A,,,,,,False,cue1.png,Easy,cue2.png,Hard,Left,Easy,Mid,0.0164519001264125,,,,,,,,,,,,,31,21,Female,0.14285714285714285,2.25,0.4,1.0,1.0555555555555556,3.375,3.6666666666666665,0.7777777777777778,1.625,1.7777777777777777,1.25,2.25,3.0,1.0,0.84375,0.875,0.5195628999393772,3.352230065825819,-0.6547673979293034,2.9609883939328703,,,,,,,,,,,,,,,,,,,,,5.498627431283019e-05,0.37564923017795404,,,,,,,,,,
16,240627_150749,FalseCHOICE,9.0,17,2.0,1068.0,,,,,,,,,,,17.0,17.0,,,A,,,,,,False,cue2.png,Hard,cue1.png,Easy,Left,Hard,Mid,0.015951600158587,,,,,,,,,,,,,31,21,Female,0.14285714285714285,2.25,0.4,1.0,1.0555555555555556,3.375,3.6666666666666665,0.7777777777777778,1.625,1.7777777777777777,1.25,2.25,3.0,1.0,1.0,1.0,0.374243672746657,-0.2426881260060435,-0.9828481623138741,-0.19683677833422678,,,,,,,,,,,,,,,,,,,-1.4597623170603102e-05,0.19163297337361015,8.12227113500168e-05,0.4440665294846515,,,,,,,,,,
17,240627_150808,FalseCHOICE,9.0,18,2.0,1068.0,,,,,,,,,,,18.0,18.0,,,A,,,,,,False,cue2.png,Hard,cue1.png,Easy,Left,Hard,Mid,0.0159974000416696,,,,,,,,,,,,,31,21,Female,0.14285714285714285,2.25,0.4,1.0,1.0555555555555556,3.375,3.6666666666666665,0.7777777777777778,1.625,1.7777777777777777,1.25,2.25,3.0,1.0,0.84375,0.875,0.3525421727787364,-0.7795414972481972,-1.042585024797385,-0.7718127858930534,,,,,,,,,,,,,,,,,,,1.3779272196383276e-05,0.24174792722289848,,,,,,,,,,,,
18,240627_150827,FalseCHOICE,9.0,19,2.0,1068.0,,,,,,,,,,,19.0,19.0,,,A,,,,,,False,cue1.png,Easy,cue2.png,Hard,Left,Easy,Mid,0.0160698997788131,,,,,,,,,,,,,31,21,Female,0.14285714285714285,2.25,0.4,1.0,1.0555555555555556,3.375,3.6666666666666665,0.7777777777777778,1.625,1.7777777777777777,1.25,2.25,3.0,1.0,0.84375,0.875,0.382875654507767,-0.02914949891561703,-0.9600450043751786,0.022646940197920563,,,,,,,,,,,,,,,,,,,,,-0.0019749311036487624,-4.917808285376425,,,,,,,,,,
19,240627_150846,FalseCHOICE,9.0,20,2.0,1068.0,,,,,,,,,,,20.0,20.0,,,A,,,,,,False,cue1.png,Easy,cue2.png,Hard,Right,Hard,Mid,0.0168224000371992,,,,,,,,,,,,,31,21,Female,0.14285714285714285,2.25,0.4,1.0,1.0555555555555556,3.375,3.6666666666666665,0.7777777777777778,1.625,1.7777777777777777,1.25,2.25,3.0,1.0,0.5833333333333334,0.75,0.3780678999610245,-0.1480840997652747,-0.9726814699674811,-0.09898088278863314,,,,,,,,,,,,,,,,,,,-5.73745320331079e-05,0.11608690726118794,-8.153593104475755e-05,0.019637452636605,1.954,0.6935092701754295,,,,,,,,
20,240627_150907,FalseCHOICE,9.0,21,2.0,1068.0,,,,,,,,,,,21.0,21.0,,,A,,,,,,False,cue1.png,Easy,cue2.png,Hard,Right,Hard,Mid,0.0155480001121759,,,,,,,,,,,,,31,21,Female,0.14285714285714285,2.25,0.4,1.0,1.0555555555555556,3.375,3.6666666666666665,0.7777777777777778,1.625,1.7777777777777777,1.25,2.25,3.0,1.0,1.0,1.0,0.4067621454384855,0.5617563464064694,-0.8995266736152346,0.605144693809972,,,,,,,,,,,,,,,,,,,-2.2128741234392173e-05,0.178332658828298,-4.268381109268169e-05,0.12095292911282414,2.1319999999999997,0.9829560126090282,,,,,,,,
21,240627_150926,FalseCHOICE,9.0,22,2.0,1068.0,,,,,,,,,,,22.0,22.0,,,A,,,,,,False,cue2.png,Hard,cue1.png,Easy,Left,Hard,Mid,0.0160928000696003,,,,,,,,,,,,,31,21,Female,0.14285714285714285,2.25,0.4,1.0,1.0555555555555556,3.375,3.6666666666666665,0.7777777777777778,1.625,1.7777777777777777,1.25,2.25,3.0,1.0,0.84375,0.875,0.3683769181582399,-0.38782035113784696,-0.9986486308574416,-0.34891859085404214,,,,,,,,,,,,,,,,,,,,,3.7967831631141417e-06,0.24216133575144716,2.803,2.074072665266023,,,,,,,,
22,240627_150946,FalseCHOICE,9.0,23,2.0,1068.0,,,,,,,,,,,23.0,23.0,,,A,,,,,,False,cue1.png,Easy,cue2.png,Hard,Right,Hard,Mid,0.0170986000448465,,,,,,,,,,,,,31,21,Female,0.14285714285714285,2.25,0.4,1.0,1.0555555555555556,3.375,3.6666666666666665,0.7777777777777778,1.625,1.7777777777777777,1.25,2.25,3.0,1.0,0.84375,0.875,0.3859573181887919,0.047084933664540404,-0.9520284902715679,0.09980705678598903,,,,,,,,,,,,,,,,,,,-2.1334278194050718e-05,0.1797357185389102,-0.00016311425055173887,-0.19309601779368615,2.271,1.2089846485543672,,,,,,,,
23,240627_151005,FalseCHOICE,9.0,24,2.0,1068.0,,,,,,,,,,,24.0,24.0,,,A,,,,,,False,cue2.png,Hard,cue1.png,Easy,Right,Easy,Mid,0.0162768999580293,,,,,,,,,,,,,31,21,Female,0.14285714285714285,2.25,0.4,1.0,1.0555555555555556,3.375,3.6666666666666665,0.7777777777777778,1.625,1.7777777777777777,1.25,2.25,3.0,1.0,0.84375,0.875,0.3825202636336061,-0.03794118562778065,-0.9609736502988835,0.01370858783977645,,,,,,,,,,,,,,,,,,,-0.00016041798309030528,-0.0658927535656499,6.993672815487021e-05,0.41463583776617335,2.0869999999999997,0.9097812743533431,,,,,,,,
24,240627_151025,FalseCHOICE,9.0,25,2.0,1068.0,,,,,,,,,,,25.0,25.0,,,A,,,,,,False,cue2.png,Hard,cue1.png,Easy,Left,Hard,Mid,0.0160562000237405,,,,,,,,,,,,,31,21,Female,0.14285714285714285,2.25,0.4,1.0,1.0555555555555556,3.375,3.6666666666666665,0.7777777777777778,1.625,1.7777777777777777,1.25,2.25,3.0,1.0,0.84375,0.875,0.3838029545520178,-0.006209879274351489,-0.9576259972828326,0.045930236012084,,,,,,,,,,,,,,,,,,,-0.00016117343646857973,-0.06722692034809356,-6.224938885049987e-05,0.06993136747060155,1.2530000000000001,-0.4463905413186879,,,,,,,,
25,240627_151044,FalseCHOICE,9.0,26,2.0,1068.0,,,,,,,,,,,26.0,26.0,,,A,,,,,,False,cue1.png,Easy,cue2.png,Hard,Left,Easy,Mid,0.0160246999002993,,,,,,,,,,,,,31,21,Female,0.14285714285714285,2.25,0.4,1.0,1.0555555555555556,3.375,3.6666666666666665,0.7777777777777778,1.625,1.7777777777777777,1.25,2.25,3.0,1.0,0.84375,0.875,0.3998825454618782,0.39156827435160646,-0.9165844113390524,0.440961482193634,,,,,,,,,,,,,,,,,,,-2.0378149057122263e-06,0.21381419522366493,1.6453886833033265e-05,0.27516752668024463,1.304,-0.36345917129557814,,,,,,,,
26,240627_151104,FalseCHOICE,9.0,27,2.0,1068.0,,,,,,,,,,,27.0,27.0,,,A,,,,,,False,cue1.png,Easy,cue2.png,Hard,Left,Easy,Mid,0.0161659000441432,,,,,,,,,,,,,31,21,Female,0.14285714285714285,2.25,0.4,1.0,1.0555555555555556,3.375,3.6666666666666665,0.7777777777777778,1.625,1.7777777777777777,1.25,2.25,3.0,1.0,0.15625,0.625,0.4204795272512869,0.9010979901501794,-0.8663594874338295,0.9243836946498402,,,,,,,,,,,,,,,,,,,-6.910389185813513e-06,0.20520899609893636,0.00027437211072584185,0.9477462116486022,1.3859999999999997,-0.23011853714077468,,,,,,,,
27,240627_151123,FalseCHOICE,9.0,28,2.0,1068.0,,,,,,,,,,,28.0,28.0,,,A,,,,,,False,cue2.png,Hard,cue1.png,Easy,Left,Hard,Mid,0.0160141999367624,,,,,,,,,,,,,31,21,Female,0.14285714285714285,2.25,0.4,1.0,1.0555555555555556,3.375,3.6666666666666665,0.7777777777777778,1.625,1.7777777777777777,1.25,2.25,3.0,1.0,0.84375,0.875,0.4078422909052195,0.5884770678361066,-0.8968747212035242,0.6306701222728776,,,,,,,,,,,,,,,,,,,,,1.0644904865300935e-05,0.2600193243008499,2.48,1.5488406551196605,,,,,,,,
28,240627_151142,FalseCHOICE,9.0,29,2.0,1068.0,,,,,,,,,,,29.0,29.0,,,A,,,,,,False,cue1.png,Easy,cue2.png,Hard,Left,Easy,Mid,0.0151246001478284,,,,,,,,,,,,,31,21,Female,0.14285714285714285,2.25,0.4,1.0,1.0555555555555556,3.375,3.6666666666666665,0.7777777777777778,1.625,1.7777777777777777,1.25,2.25,3.0,1.0,0.84375,0.875,0.3431281818457963,-1.0124255272305829,-1.0696511936224045,-1.032328605504748,,,,,,,,,,,,,,,,,,,-3.371655840137726e-05,0.15786801972570394,-0.00010362801929748216,-0.03797254265941453,0.6990000000000001,-1.347252874510901,,,,,,,,
29,240627_151200,FalseCHOICE,9.0,30,2.0,1068.0,,,,,,,,,,,30.0,30.0,,,A,,,,,,False,cue1.png,Easy,cue2.png,Hard,Right,Hard,Mid,0.0168272000737488,,,,,,,,,,,,,31,21,Female,0.14285714285714285,2.25,0.4,1.0,1.0555555555555556,3.375,3.6666666666666665,0.7777777777777778,1.625,1.7777777777777777,1.25,2.25,3.0,1.0,1.0,1.0,0.3544488545210862,-0.7323738580168321,-1.0371912183943697,-0.7198966131612333,,,,,,,,,,,,,,,,,,,0.00012096590112140948,0.4310446382397017,8.932833640011312e-06,0.255554720769166,0.6100000000000001,-1.4919762457277004,,,,,,,,
30,240627_151220,FalseCHOICE,9.0,31,2.0,1068.0,,,,,,,,,,,31.0,31.0,,,A,,,,,,False,cue2.png,Hard,cue1.png,Easy,Right,Easy,Mid,0.0164006000850349,,,,,,,,,,,,,31,21,Female,0.14285714285714285,2.25,0.4,1.0,1.0555555555555556,3.375,3.6666666666666665,0.7777777777777778,1.625,1.7777777777777777,1.25,2.25,3.0,1.0,0.84375,0.875,0.390964336396957,0.17094893425886568,-0.9391389344177509,0.2238709104254385,,,,,,,,,,,,,,,,,,,-4.569835389495874e-05,0.13670759606318345,-1.1460241788966048e-05,0.2023752763411426,,,,,,,,,,
31,240627_151240,FalseCHOICE,9.0,32,2.0,1068.0,,,,,,,,,,,32.0,32.0,,,A,,,,,,False,cue1.png,Easy,cue2.png,Hard,Left,Easy,Mid,0.0165399000979959,,,,,,,,,,,,,31,21,Female,0.14285714285714285,2.25,0.4,1.0,1.0555555555555556,3.375,3.6666666666666665,0.7777777777777778,1.625,1.7777777777777777,1.25,2.25,3.0,1.0,0.84375,0.875,0.4004542726854032,0.40571170627262687,-0.9151556945592826,0.4547130894226064,,,,,,,,,,,,,,,,,,,,,,,0.8650000000000002,-1.077319395612151,,,,,,,,
32,240627_151259,FalseCHOICE,9.0,33,2.0,1068.0,,,,,,,,,,,33.0,33.0,,,A,,,,,,False,cue2.png,Hard,cue1.png,Easy,Left,Hard,Mid,0.0160576999187469,,,,,,,,,,,,,31,21,Female,0.14285714285714285,2.25,0.4,1.0,1.0555555555555556,3.375,3.6666666666666665,0.7777777777777778,1.625,1.7777777777777777,1.25,2.25,3.0,1.0,0.84375,0.875,0.3853234908628193,0.03140526464457443,-0.9536720614876939,0.08398744429382651,,,,,,,,,,,,,,,,,,,1.9424650240908083e-05,0.2517179347414903,5.850160464773409e-05,0.3848162297726072,1.2839999999999998,-0.39598127718699416,,,,,,,,
33,240627_151319,FalseCHOICE,9.0,34,2.0,1068.0,,,,,,,,,,,34.0,34.0,,,A,,,,,,False,cue2.png,Hard,cue1.png,Easy,Right,Easy,Mid,0.0165403001010417,,,,,,,,,,,,,31,21,Female,0.14285714285714285,2.25,0.4,1.0,1.0555555555555556,3.375,3.6666666666666665,0.7777777777777778,1.625,1.7777777777777777,1.25,2.25,3.0,1.0,0.84375,0.875,0.4165772635659033,0.8045634917021096,-0.8756833278186189,0.8346403720734034,,,,,,,,,,,,,,,,,,,-0.00010877837629958602,0.02530526079229387,-3.248308533251431e-05,0.14755357258014107,2.5020000000000002,1.5846149716002182,,,,,,,,
34,240627_151338,FalseCHOICE,9.0,35,2.0,1068.0,,,,,,,,,,,35.0,35.0,,,A,,,,,,False,cue2.png,Hard,cue1.png,Easy,Left,Hard,Mid,0.0168126998469233,,,,,,,,,,,,,31,21,Female,0.14285714285714285,2.25,0.4,1.0,1.0555555555555556,3.375,3.6666666666666665,0.7777777777777778,1.625,1.7777777777777777,1.25,2.25,3.0,1.0,0.5833333333333334,0.75,0.3283389908981255,-1.378281667586662,-1.113708695464809,-1.4563884817554265,,,,,,,,,,,,,,,,,,,,,,,1.2530000000000001,-0.4463905413186879,,,,,,,,
35,240627_151357,FalseCHOICE,9.0,36,2.0,1068.0,,,,,,,,,,,36.0,36.0,,,A,,,,,,False,cue1.png,Easy,cue2.png,Hard,Right,Hard,Mid,0.016819299897179,,,,,,,,,,,,,31,21,Female,0.14285714285714285,2.25,0.4,1.0,1.0555555555555556,3.375,3.6666666666666665,0.7777777777777778,1.625,1.7777777777777777,1.25,2.25,3.0,1.0,0.84375,0.875,0.4213226000058718,0.9219539886373973,-0.864356467937537,0.943663049225228,,,,,,,,,,,,,,,,,,,-7.318992652072167e-06,0.20448738284317355,,,1.5179999999999998,-0.015472638257431368,,,,,,,,
36,240627_151416,FalseCHOICE,9.0,37,2.0,1068.0,,,,,,,,,,,37.0,37.0,,,A,,,,,,False,cue2.png,Hard,cue1.png,Easy,Right,Easy,Mid,0.0164516000077128,,,,,,,,,,,,,31,21,Female,0.14285714285714285,2.25,0.4,1.0,1.0555555555555556,3.375,3.6666666666666665,0.7777777777777778,1.625,1.7777777777777777,1.25,2.25,3.0,1.0,0.5833333333333334,0.75,0.404870627257465,0.5149638245186845,-0.9041877017775186,0.5602816184415754,,,,,,,,,,,,,,,,,,,-0.00010031626206059895,0.04024975909169609,3.822507093416069e-05,0.33194069358537154,1.5029999999999997,-0.03986421767599329,,,,,,,,
37,240627_151436,FalseCHOICE,9.0,38,2.0,1068.0,,,,,,,,,,,38.0,38.0,,,A,,,,,,False,cue1.png,Easy,cue2.png,Hard,Right,Hard,Mid,0.0165357000660151,,,,,,,,,,,,,31,21,Female,0.14285714285714285,2.25,0.4,1.0,1.0555555555555556,3.375,3.6666666666666665,0.7777777777777778,1.625,1.7777777777777777,1.25,2.25,3.0,1.0,0.84375,0.875,0.4525589454411106,1.6946810986058802,-0.7928372581578566,1.6320458666896316,,,,,,,,,,,,,,,,,,,0.0004012940989643449,0.92611763744796,,,1.109,-0.6805497037368806,,,,,,,,
38,240627_151456,FalseCHOICE,9.0,39,2.0,1068.0,,,,,,,,,,,39.0,39.0,,,A,,,,,,False,cue1.png,Easy,cue2.png,Hard,Left,Easy,Mid,0.0160749999340623,,,,,,,,,,,,,31,21,Female,0.14285714285714285,2.25,0.4,1.0,1.0555555555555556,3.375,3.6666666666666665,0.7777777777777778,1.625,1.7777777777777777,1.25,2.25,3.0,1.0,0.5833333333333334,0.75,0.371756063668396,-0.30422679024451244,-0.9895173826292463,-0.26102899585354167,,,,,,,,,,,,,,,,,,,-6.455468220829732e-05,0.10340641878607428,-0.00017171828215077015,-0.21553292888496173,1.642,0.18616441826934568,,,,,,,,
39,240627_151515,FalseCHOICE,9.0,40,2.0,1068.0,,,,,,,,,,,40.0,40.0,,,A,,,,,,False,cue2.png,Hard,cue1.png,Easy,Right,Easy,Mid,0.0165727999992668,,,,,,,,,,,,,31,21,Female,0.14285714285714285,2.25,0.4,1.0,1.0555555555555556,3.375,3.6666666666666665,0.7777777777777778,1.625,1.7777777777777777,1.25,2.25,3.0,1.0,0.5833333333333334,0.75,0.387721945468167,0.09073841869178594,-0.9474668316560737,0.143713685784242,,,,,,,,,,,,,,,,,,,,,,,1.9649999999999999,0.7113964284157079,,,,,,,,
40,240627_151534,FalseCHOICE,9.0,41,2.0,1068.0,,,,,,,,,,,41.0,41.0,,,A,,,,,,False,cue2.png,Hard,cue1.png,Easy,Left,Hard,Mid,0.0166062999051064,,,,,,,,,,,,,31,21,Female,0.14285714285714285,2.25,0.4,1.0,1.0555555555555556,3.375,3.6666666666666665,0.7777777777777778,1.625,1.7777777777777777,1.25,2.25,3.0,1.0,0.84375,0.875,0.3951111908536404,0.27353413797344306,-0.9285880578615323,0.3254246349822832,,,,,,,,,,,,,,,,,,,-6.086866129250508e-05,0.10991610794316749,-1.720795522575395e-05,0.18738684517663365,1.0869999999999997,-0.7163240202174382,,,,,,,,
41,240627_151552,FalseCHOICE,9.0,42,2.0,1068.0,,,,,,,,,,,42.0,42.0,,,A,,,,,,False,cue1.png,Easy,cue2.png,Hard,Right,Hard,Mid,0.0162447998300194,,,,,,,,,,,,,31,21,Female,0.14285714285714285,2.25,0.4,1.0,1.0555555555555556,3.375,3.6666666666666665,0.7777777777777778,1.625,1.7777777777777777,1.25,2.25,3.0,1.0,0.84375,0.875,0.2988040636039593,-2.1089189650409144,-1.2079672260704375,-2.3636405762380512,,,,,,,,,,,,,,,,,,,-6.057535023277919e-05,0.11043410929714047,-6.316592874784904e-05,0.06754128743059504,2.3880000000000003,1.3992389680191493,,,,,,,,
42,240627_151611,FalseCHOICE,9.0,43,2.0,1068.0,,,,,,,,,,,43.0,43.0,,,A,,,,,,False,cue2.png,Hard,cue1.png,Easy,Left,Hard,Mid,0.0161238999571651,,,,,,,,,,,,,31,21,Female,0.14285714285714285,2.25,0.4,1.0,1.0555555555555556,3.375,3.6666666666666665,0.7777777777777778,1.625,1.7777777777777777,1.25,2.25,3.0,1.0,0.5833333333333334,0.75,0.3451590363613583,-0.9621860924084061,-1.0637499932066348,-0.9755286914516735,,,,,,,,,,,,,,,,,,,,,5.8603166774100126e-05,0.38508107542935405,1.633,0.17152947061820883,,,,,,,,
43,240627_151630,FalseCHOICE,9.0,44,2.0,1068.0,,,,,,,,,,,44.0,44.0,,,A,,,,,,False,cue1.png,Easy,cue2.png,Hard,Left,Easy,Mid,0.016168100060895,,,,,,,,,,,,,31,21,Female,0.14285714285714285,2.25,0.4,1.0,1.0555555555555556,3.375,3.6666666666666665,0.7777777777777778,1.625,1.7777777777777777,1.25,2.25,3.0,1.0,0.84375,0.875,0.3792402091097425,-0.11908342609951043,-0.9695854775409515,-0.06918150446792357,,,,,,,,,,,,,,,,,,,,,-0.0013007175115372248,-3.1596475616943693,0.639,-1.4448191921851479,,,,,,,,
44,240627_151648,FalseCHOICE,9.0,45,2.0,1068.0,,,,,,,,,,,45.0,45.0,,,A,,,,,,False,cue2.png,Hard,cue1.png,Easy,Left,Hard,Mid,0.0160749999340623,,,,,,,,,,,,,31,21,Female,0.14285714285714285,2.25,0.4,1.0,1.0555555555555556,3.375,3.6666666666666665,0.7777777777777778,1.625,1.7777777777777777,1.25,2.25,3.0,1.0,0.84375,0.875,0.3189456636424769,-1.6106545179348015,-1.1427345241148386,-1.7357663127871,,,,,,,,,,,,,,,,,,,-2.681693948695116e-05,0.170053076582784,,,1.9699999999999998,0.7195269548885617,,,,,,,,
45,240627_151707,FalseCHOICE,9.0,46,2.0,1068.0,,,,,,,,,,,46.0,46.0,,,A,,,,,,False,cue2.png,Hard,cue1.png,Easy,Left,Hard,Mid,0.0160898000467568,,,,,,,,,,,,,31,21,Female,0.14285714285714285,2.25,0.4,1.0,1.0555555555555556,3.375,3.6666666666666665,0.7777777777777778,1.625,1.7777777777777777,1.25,2.25,3.0,1.0,0.84375,0.875,0.3729759909170256,-0.2740481363696608,-0.9862412289246756,-0.22949553897466604,,,,,,,,,,,,,,,,,,,-0.000146808339754838,-0.041857472790864735,,,,,,,,,,,,
46,240627_151726,FalseCHOICE,9.0,47,2.0,1068.0,,,,,,,,,,,47.0,47.0,,,A,,,,,,False,cue1.png,Easy,cue2.png,Hard,Left,Easy,Mid,0.0161727000959217,,,,,,,,,,,,,31,21,Female,0.14285714285714285,2.25,0.4,1.0,1.0555555555555556,3.375,3.6666666666666665,0.7777777777777778,1.625,1.7777777777777777,1.25,2.25,3.0,1.0,0.84375,0.875,0.3650463909249414,-0.47021118936806894,-1.007730835051469,-0.4363361298779138,,,,,,,,,,,,,,,,,,,,,-5.67548179627184e-06,0.21746031457543513,0.9259999999999999,-0.9781269726433337,,,,,,,,
47,240627_151745,FalseCHOICE,9.0,48,2.0,1068.0,,,,,,,,,,,48.0,48.0,,,A,,,,,,False,cue1.png,Easy,cue2.png,Hard,Left,Easy,Mid,0.0159789000172168,,,,,,,,,,,,,31,21,Female,0.14285714285714285,2.25,0.4,1.0,1.0555555555555556,3.375,3.6666666666666665,0.7777777777777778,1.625,1.7777777777777777,1.25,2.25,3.0,1.0,0.84375,0.875,0.3612457363739271,-0.5642320732542058,-1.0181968420502596,-0.5370729725754756,,,,,,,,,,,,,,,,,,,-0.00019199098204222484,-0.1216521791439638,1.678246998294353e-05,0.2760243797538035,1.2570000000000001,-0.4398861201404048,,,,,,,,
48,240627_151804,FalseCHOICE,9.0,49,2.0,1068.0,,,,,,,,,,,49.0,49.0,,,A,,,,,,False,cue2.png,Hard,cue1.png,Easy,Left,Hard,Mid,0.0172377000562846,,,,,,,,,,,,,31,21,Female,0.14285714285714285,2.25,0.4,1.0,1.0555555555555556,3.375,3.6666666666666665,0.7777777777777778,1.625,1.7777777777777777,1.25,2.25,3.0,1.0,0.84375,0.875,0.3478170999706807,-0.8964307109025094,-1.0560785121674028,-0.9016895683939739,,,,,,,,,,,,,,,,,,,-4.414770539010963e-05,0.1394461154555265,4.3471545240730824e-05,0.3456220331067686,,,,,,,,,,
49,240627_151823,FalseCHOICE,9.0,50,2.0,1068.0,,,,,,,,,,,50.0,50.0,,,A,,,,,,False,cue1.png,Easy,cue2.png,Hard,Left,Easy,Mid,0.0167553999926894,,,,,,,,,,,,,31,21,Female,0.14285714285714285,2.25,0.4,1.0,1.0555555555555556,3.375,3.6666666666666665,0.7777777777777778,1.625,1.7777777777777777,1.25,2.25,3.0,1.0,0.84375,0.875,0.2994094454387033,-2.093942982765426,-1.2059432596027728,-2.3441596040103585,,,,,,,,,,,,,,,,,,,-6.691631289032149e-05,0.09923566609773063,,,2.078,0.8951463267022063,,,,,,,,
0,240627_143839,OFFLINERATING,9.0,1,1.0,,,,,,,,,,,,,,,,,T0,cue1.png,Easy,2.0,0.8016577002126724,,,,,,,,,,,,,,,,,,,,,,31,21,Female,0.14285714285714285,2.25,0.4,1.0,1.0555555555555556,3.375,3.6666666666666665,0.7777777777777778,1.625,1.7777777777777777,1.25,2.25,3.0,1.0,,,,,,,,,,,,,,,,,,,,,,,,,,,,,,,-0.5138792234440163,,,,,,,
1,240627_143846,OFFLINERATING,9.0,2,3.0,,,,,,,,,,,,,,,,,T0,cue2.png,Hard,4.0,0.7183858999051154,,,,,,,,,,,,,,,,,,,,,,31,21,Female,0.14285714285714285,2.25,0.4,1.0,1.0555555555555556,3.375,3.6666666666666665,0.7777777777777778,1.625,1.7777777777777777,1.25,2.25,3.0,1.0,,,,,,,,,,,,,,,,,,,,,,,,,,,,,,,-0.41599746659753695,,,,,1.5959999999999999,0.34323619273234696,
2,240627_145708,OFFLINERATING,9.0,3,1.0,,,,,,,,,,,,,,,,,T1,cue1.png,Easy,29.0,1.1994874000083655,,,,,,,,,,,,,,,,,,,,,,31,21,Female,0.14285714285714285,2.25,0.4,1.0,1.0555555555555556,3.375,3.6666666666666665,0.7777777777777778,1.625,1.7777777777777777,1.25,2.25,3.0,1.0,,,,,,,,,,,,,,,,,,,,,,,,,,,,,,,0.807524493983454,2.9753342023206616e-05,-1.452383285813304,8.288320844927408e-06,-1.2943011714293,,,
3,240627_145715,OFFLINERATING,9.0,4,3.0,,,,,,,,,,,,,,,,,T1,cue2.png,Hard,2.0,0.9849386001005768,,,,,,,,,,,,,,,,,,,,,,31,21,Female,0.14285714285714285,2.25,0.4,1.0,1.0555555555555556,3.375,3.6666666666666665,0.7777777777777778,1.625,1.7777777777777777,1.25,2.25,3.0,1.0,,,,,,,,,,,,,,,,,,,,,,,,,,,,,,,-0.5138792234440163,0.00017063717486700582,1.3029101795145774,4.546599250322475e-05,1.1406972990332138,,,
4,240627_150124,OFFLINERATING,9.0,5,1.0,,,,,,,,,,,,,,,,,T2,cue1.png,Easy,61.0,0.9184439000673592,,,,,,,,,,,,,,,,,,,,,,31,21,Female,0.14285714285714285,2.25,0.4,1.0,1.0555555555555556,3.375,3.6666666666666665,0.7777777777777778,1.625,1.7777777777777777,1.25,2.25,3.0,1.0,,,,,,,,,,,,,,,,,,,,,,,,,,,,,,,2.3736326035271227,,,,,1.467,-1.3597433789012017,
5,240627_150131,OFFLINERATING,9.0,6,3.0,,,,,,,,,,,,,,,,,T2,cue2.png,Hard,2.0,0.9181826999410988,,,,,,,,,,,,,,,,,,,,,,31,21,Female,0.14285714285714285,2.25,0.4,1.0,1.0555555555555556,3.375,3.6666666666666665,0.7777777777777778,1.625,1.7777777777777777,1.25,2.25,3.0,1.0,,,,,,,,,,,,,,,,,,,,,,,,,,,,,,,-0.5138792234440163,,,,,1.6469999999999998,1.0165071861688664,
6,240627_151838,OFFLINERATING,9.0,7,1.0,,,,,,,,,,,,,,,,,T3,cue1.png,Easy,0.0,0.841384100029245,,,,,,,,,,,,,,,,,,,,,,31,21,Female,0.14285714285714285,2.25,0.4,1.0,1.0555555555555556,3.375,3.6666666666666665,0.7777777777777778,1.625,1.7777777777777777,1.25,2.25,3.0,1.0,,,,,,,,,,,,,,,,,,,,,,,,,,,,,,,-0.6117609802904955,0.00012325581000751295,0.37626329363364186,3.0395003442353508e-05,0.1536038723960862,,,
7,240627_151845,OFFLINERATING,9.0,8,3.0,,,,,,,,,,,,,,,,,T3,cue2.png,Hard,0.0,0.7517790999263525,,,,,,,,,,,,,,,,,,,,,,31,21,Female,0.14285714285714285,2.25,0.4,1.0,1.0555555555555556,3.375,3.6666666666666665,0.7777777777777778,1.625,1.7777777777777777,1.25,2.25,3.0,1.0,,,,,,,,,,,,,,,,,,,,,,,,,,,,,,,-0.6117609802904955,9.242044278519237e-05,-0.2267901873349153,,,,,
0,240627_150149,LEARNINGCHECK,9.0,1,,,,,,,,,,,,1.0,1.0,1.0,,,A,,,,,,,,,,,,,,,cue1.png,Easy,Left,Left,Easy,0.0157689000479877,1.0,,,,,,31,21,Female,0.14285714285714285,2.25,0.4,1.0,1.0555555555555556,3.375,3.6666666666666665,0.7777777777777778,1.625,1.7777777777777777,1.25,2.25,3.0,1.0,,,,,,,,,,,,,,,,,,,,,,,,,,,,,,,,,,,,,,
1,240627_151900,LEARNINGCHECK,9.0,1,,,,,,,,,,,,1.0,1.0,1.0,,,A,,,,,,,,,,,,,,,cue1.png,Easy,Middle,Middle,Mid,0.0151957999914884,1.0,,,,,,31,21,Female,0.14285714285714285,2.25,0.4,1.0,1.0555555555555556,3.375,3.6666666666666665,0.7777777777777778,1.625,1.7777777777777777,1.25,2.25,3.0,1.0,,,,,,,,,,,,,,,,,,,,,,,,,,,,,,,,,,,,,,
2,240627_150154,LEARNINGCHECK,9.0,2,,,,,,,,,,,,2.0,2.0,2.0,,,A,,,,,,,,,,,,,,,cue2.png,Hard,Right,Right,Hard,0.015926299849525,1.0,,,,,,31,21,Female,0.14285714285714285,2.25,0.4,1.0,1.0555555555555556,3.375,3.6666666666666665,0.7777777777777778,1.625,1.7777777777777777,1.25,2.25,3.0,1.0,,,,,,,,,,,,,,,,,,,,,,,,,,,,,,,,,,,,,,
3,240627_151905,LEARNINGCHECK,9.0,2,,,,,,,,,,,,2.0,2.0,2.0,,,A,,,,,,,,,,,,,,,cue2.png,Hard,Middle,Middle,Mid,0.0144550998229533,1.0,,,,,,31,21,Female,0.14285714285714285,2.25,0.4,1.0,1.0555555555555556,3.375,3.6666666666666665,0.7777777777777778,1.625,1.7777777777777777,1.25,2.25,3.0,1.0,,,,,,,,,,,,,,,,,,,,,,,,,,,,,,,,,,,,,,
0,240627_151921,DEMANDRATING,9.0,-1,,,,,,,,,,,,,,,,,,,,,,,,,,,,,,,,,,,,,,,1.0,MentalDemand,1.0,100.0,2.783048499841243,31,21,Female,0.14285714285714285,2.25,0.4,1.0,1.0555555555555556,3.375,3.6666666666666665,0.7777777777777778,1.625,1.7777777777777777,1.25,2.25,3.0,1.0,,,,,,,,,,,,,,,,,,,,,,,,,,,,,,,,,,,,,,0.5345224838248489
1,240627_151926,DEMANDRATING,9.0,-1,,,,,,,,,,,,,,,,,,,,,,,,,,,,,,,,,,,,,,,2.0,Effort,1.0,0.0,3.300524700200185,31,21,Female,0.14285714285714285,2.25,0.4,1.0,1.0555555555555556,3.375,3.6666666666666665,0.7777777777777778,1.625,1.7777777777777777,1.25,2.25,3.0,1.0,,,,,,,,,,,,,,,,,,,,,,,,,,,,,,,,,,,,,,-1.8708286933869707
2,240627_151931,DEMANDRATING,9.0,-1,,,,,,,,,,,,,,,,,,,,,,,,,,,,,,,,,,,,,,,3.0,Frustration,1.0,0.0,3.189567100023851,31,21,Female,0.14285714285714285,2.25,0.4,1.0,1.0555555555555556,3.375,3.6666666666666665,0.7777777777777778,1.625,1.7777777777777777,1.25,2.25,3.0,1.0,,,,,,,,,,,,,,,,,,,,,,,,,,,,,,,,,,,,,,-1.8708286933869707
3,240627_151936,DEMANDRATING,9.0,-1,,,,,,,,,,,,,,,,,,,,,,,,,,,,,,,,,,,,,,,4.0,MentalDemand,2.0,100.0,3.675841900054365,31,21,Female,0.14285714285714285,2.25,0.4,1.0,1.0555555555555556,3.375,3.6666666666666665,0.7777777777777778,1.625,1.7777777777777777,1.25,2.25,3.0,1.0,,,,,,,,,,,,,,,,,,,,,,,,,,,,,,,,,,,,,,0.5345224838248489
4,240627_151940,DEMANDRATING,9.0,-1,,,,,,,,,,,,,,,,,,,,,,,,,,,,,,,,,,,,,,,5.0,Effort,2.0,100.0,2.230176999932155,31,21,Female,0.14285714285714285,2.25,0.4,1.0,1.0555555555555556,3.375,3.6666666666666665,0.7777777777777778,1.625,1.7777777777777777,1.25,2.25,3.0,1.0,,,,,,,,,,,,,,,,,,,,,,,,,,,,,,,,,,,,,,0.5345224838248489
5,240627_151943,DEMANDRATING,9.0,-1,,,,,,,,,,,,,,,,,,,,,,,,,,,,,,,,,,,,,,,6.0,Frustration,2.0,100.0,1.773124200059101,31,21,Female,0.14285714285714285,2.25,0.4,1.0,1.0555555555555556,3.375,3.6666666666666665,0.7777777777777778,1.625,1.7777777777777777,1.25,2.25,3.0,1.0,,,,,,,,,,,,,,,,,,,,,,,,,,,,,,,,,,,,,,0.5345224838248489
6,240627_151947,DEMANDRATING,9.0,-1,,,,,,,,,,,,,,,,,,,,,,,,,,,,,,,,,,,,,,,7.0,MentalDemand,3.0,100.0,2.323110300116241,31,21,Female,0.14285714285714285,2.25,0.4,1.0,1.0555555555555556,3.375,3.6666666666666665,0.7777777777777778,1.625,1.7777777777777777,1.25,2.25,3.0,1.0,,,,,,,,,,,,,,,,,,,,,,,,,,,,,,,,,,,,,,0.5345224838248489
7,240627_151951,DEMANDRATING,9.0,-1,,,,,,,,,,,,,,,,,,,,,,,,,,,,,,,,,,,,,,,8.0,Effort,3.0,100.0,1.8757911000866443,31,21,Female,0.14285714285714285,2.25,0.4,1.0,1.0555555555555556,3.375,3.6666666666666665,0.7777777777777778,1.625,1.7777777777777777,1.25,2.25,3.0,1.0,,,,,,,,,,,,,,,,,,,,,,,,,,,,,,,,,,,,,,0.5345224838248489
8,240627_151954,DEMANDRATING,9.0,-1,,,,,,,,,,,,,,,,,,,,,,,,,,,,,,,,,,,,,,,9.0,Frustration,3.0,100.0,2.163319500163197,31,21,Female,0.14285714285714285,2.25,0.4,1.0,1.0555555555555556,3.375,3.6666666666666665,0.7777777777777778,1.625,1.7777777777777777,1.25,2.25,3.0,1.0,,,,,,,,,,,,,,,,,,,,,,,,,,,,,,,,,,,,,,0.5345224838248489
