,END,Phase,Block,TrialN,NbackLevel,ISI,Letter_Resp,Letter_RT,Letter_Accuracy,Trial_A_measure,Trial_ACC,Trial_RT,TrialCountCali,CaliEnd_A_measure,ISI_calibrated,TrialIndex,TrialNumber_total,TrialNumber_valid,CueLearning,TrialDemandLearning,CueMapping,OfflineRatingTimePoint,CueFigure,TrialDemand,OfflineRating,OfflineRatingRT,PhaseType,CueLeft,CueDemandLeft,CueRight,CueDemandRight,Choice,ChoiceDemand,TaskDemand,ChoiceRT,CueCheck,CueDemandCheck,CorrectAnswer,Answer,AnswerDemand,AnswerRT,AnswerACC,DemandRatingQuesIndex,QuesTLX,DemandLevel,DemandRating,DemandRatingRT,PID,Age,Gender,Task_A_measure,Task_ACC,Task_RT,cue_i_on_zyg_values,cue_i_on_zyg_zvalues,cue_e_on_zyg_values,cue_e_on_zyg_zvalues,cue_i_on_cor_values,cue_i_on_cor_zvalues,cue_e_on_cor_values,cue_e_on_cor_zvalues,cue_i_on_scr_values,cue_i_on_scr_zvalues,cue_e_on_scr_values,cue_e_on_scr_zvalues,BAI_bis,BAI_bas_d,BAI_bas_rr,BAI_bas_fs,NFC,BFI_ext,BFI_agr,BFI_con,BFI_neu,BFI_open,UPPS_lps,UPPS_lpm,UPPS_pu,UPPS_ss,cue_e_true_zyg_values,cue_e_true_zyg_zvalues,cue_e_true_cor_values,cue_e_true_cor_zvalues,cue_e_true_scr_values,cue_e_true_scr_zvalues,cue_i_off_zyg_values,cue_i_off_zyg_zvalues,cue_i_off_cor_values,cue_i_off_cor_zvalues,cue_i_off_scr_values,cue_i_off_scr_zvalues
0,240627_143922,LEARNING,1.0,1,1.0,1068.0,,,,,,,,,,1.0,1.0,1.0,cue1.png,Easy,A,,,,,,,,,,,,,,,,,,,,,,,,,,,31,21,Female,1.0,1.0,0.4608397181780839,,,-8.568327334927813e-05,-1.4374473701585102,3.111573023344746e-05,0.36984081546733083,-2.686012721213847e-07,-0.12822856019029083,0.8219999999999998,-1.235094308586401,,,0.14285714285714285,2.25,0.4,1.0,1.0555555555555556,3.375,3.6666666666666665,0.7777777777777778,1.625,1.7777777777777777,1.25,2.25,3.0,1.0,,,,,,,,,,,,
1,240627_143944,LEARNING,1.0,2,3.0,1068.0,,,,,,,,,,2.0,2.0,2.0,cue2.png,Hard,A,,,,,,,,,,,,,,,,,,,,,,,,,,,31,21,Female,0.5833333333333334,0.75,0.5307229636448689,0.000186445526709014,2.35365139396536,0.00011755058568943197,1.3413906658002372,1.575539926852677e-05,0.1818199929927024,4.137822653430944e-05,0.23113878927764522,1.6099999999999999,0.17392903770405174,1.96,0.804519497119017,0.14285714285714285,2.25,0.4,1.0,1.0555555555555556,3.375,3.6666666666666665,0.7777777777777778,1.625,1.7777777777777777,1.25,2.25,3.0,1.0,,,,,,,,,,,,
2,240627_144006,LEARNING,1.0,3,1.0,1068.0,,,,,,,,,,3.0,3.0,3.0,cue1.png,Easy,A,,,,,,,,,,,,,,,,,,,,,,,,,,,31,21,Female,1.0,1.0,0.4163587363013489,-0.0001227148413284855,-1.6838700171458718,-1.1864698182951876e-06,-0.2821136443736461,,,0.00014755731420882778,1.1473501627792604,1.578,0.1167098155196682,1.5819999999999999,0.2123839131562397,0.14285714285714285,2.25,0.4,1.0,1.0555555555555556,3.375,3.6666666666666665,0.7777777777777778,1.625,1.7777777777777777,1.25,2.25,3.0,1.0,,,,,,,,,,,,
3,240627_144027,LEARNING,1.0,4,3.0,1068.0,,,,,,,,,,4.0,4.0,4.0,cue2.png,Hard,A,,,,,,,,,,,,,,,,,,,,,,,,,,,31,21,Female,0.84375,0.875,0.4235238363670016,,,,,,,,,,,1.5910000000000002,0.22648237944106828,0.14285714285714285,2.25,0.4,1.0,1.0555555555555556,3.375,3.6666666666666665,0.7777777777777778,1.625,1.7777777777777777,1.25,2.25,3.0,1.0,,,,,,,,,,,,
4,240627_144049,LEARNING,1.0,5,3.0,1068.0,,,,,,,,,,5.0,5.0,5.0,cue2.png,Hard,A,,,,,,,,,,,,,,,,,,,,,,,,,,,31,21,Female,0.5833333333333334,0.75,0.4708258363799276,,,2.0998595092535516e-05,0.02122509305931205,,,-0.00011926731492028489,-1.155059523465507,1.4419999999999997,-0.12647187876396385,1.46,0.021271370184126625,0.14285714285714285,2.25,0.4,1.0,1.0555555555555556,3.375,3.6666666666666665,0.7777777777777778,1.625,1.7777777777777777,1.25,2.25,3.0,1.0,,,,,,,,,,,,
5,240627_144109,LEARNING,1.0,6,1.0,1068.0,,,,,,,,,,6.0,6.0,6.0,cue1.png,Easy,A,,,,,,,,,,,,,,,,,,,,,,,,,,,31,21,Female,1.0,1.0,0.3327271910172633,,,6.482109531845198e-05,0.6204147705794971,,,1.046063396536491e-05,-0.035646795090811784,,,0.12199999999999989,-2.07470061749364,0.14285714285714285,2.25,0.4,1.0,1.0555555555555556,3.375,3.6666666666666665,0.7777777777777778,1.625,1.7777777777777777,1.25,2.25,3.0,1.0,,,,,,,,,,,,
6,240627_144131,LEARNING,1.0,7,3.0,1068.0,,,,,,,,,,7.0,7.0,7.0,cue2.png,Hard,A,,,,,,,,,,,,,,,,,,,,,,,,,,,31,21,Female,0.5833333333333334,0.75,0.4702593999999491,,,1.7945800096858238e-05,-0.020516095589557398,-2.969417500649739e-06,-0.047384407463747044,-0.00018205058842965397,-1.696811675558554,,,,,0.14285714285714285,2.25,0.4,1.0,1.0555555555555556,3.375,3.6666666666666665,0.7777777777777778,1.625,1.7777777777777777,1.25,2.25,3.0,1.0,,,,,,,,,,,,
7,240627_144153,LEARNING,1.0,8,3.0,1068.0,,,,,,,,,,8.0,8.0,8.0,cue2.png,Hard,A,,,,,,,,,,,,,,,,,,,,,,,,,,,31,21,Female,0.5833333333333334,0.75,0.4747144636190073,-9.052054433323145e-06,-0.19947556306718114,-0.00014981281747325015,-2.314297405301745,-3.016794568997186e-06,-0.04796433476983616,,,,,2.995,2.4258431198742403,0.14285714285714285,2.25,0.4,1.0,1.0555555555555556,3.375,3.6666666666666665,0.7777777777777778,1.625,1.7777777777777777,1.25,2.25,3.0,1.0,,,,,,,,,,,,
8,240627_144214,LEARNING,1.0,9,1.0,1068.0,,,,,,,,,,9.0,9.0,9.0,cue1.png,Easy,A,,,,,,,,,,,,,,,,,,,,,,,,,,,31,21,Female,1.0,1.0,0.3554498090789738,-1.5193518124815772e-05,-0.2796808342258571,7.59087944497013e-05,0.7720180527437835,,,-1.965896752524187e-05,-0.29554657437336457,2.895,2.4716384285457167,,,0.14285714285714285,2.25,0.4,1.0,1.0555555555555556,3.375,3.6666666666666665,0.7777777777777778,1.625,1.7777777777777777,1.25,2.25,3.0,1.0,,,,,,,,,,,,
9,240627_144236,LEARNING,1.0,10,1.0,1068.0,,,,,,,,,,10.0,10.0,10.0,cue1.png,Easy,A,,,,,,,,,,,,,,,,,,,,,,,,,,,31,21,Female,0.5833333333333334,0.75,0.4350438363299789,1.7335161434719592e-05,0.1451318318687506,6.657226685395905e-05,0.6443587240790392,-3.0128672689759724e-05,-0.379832029205545,2.2222405509851953e-05,0.06584464825837476,0.804,-1.2672801210651166,3.001,2.4352420973974587,0.14285714285714285,2.25,0.4,1.0,1.0555555555555556,3.375,3.6666666666666665,0.7777777777777778,1.625,1.7777777777777777,1.25,2.25,3.0,1.0,,,,,,,,,,,,
10,240627_144258,LEARNING,1.0,11,3.0,1068.0,,,,,,,,,,11.0,11.0,11.0,cue2.png,Hard,A,,,,,,,,,,,,,,,,,,,,,,,,,,,31,21,Female,0.84375,0.875,0.4749212182042273,,,-6.25614772078063e-05,-1.1213006075987928,0.0001648628674254778,2.006996082232272,,,,,,,0.14285714285714285,2.25,0.4,1.0,1.0555555555555556,3.375,3.6666666666666665,0.7777777777777778,1.625,1.7777777777777777,1.25,2.25,3.0,1.0,,,,,,,,,,,,
11,240627_144319,LEARNING,1.0,12,1.0,1068.0,,,,,,,,,,12.0,12.0,12.0,cue1.png,Easy,A,,,,,,,,,,,,,,,,,,,,,,,,,,,31,21,Female,0.84375,0.875,0.444544918179004,6.09653215363549e-05,0.7149257763474185,,,-8.755227848622482e-05,-1.0827357372029565,,,,,1.0100000000000002,-0.6836519440572744,0.14285714285714285,2.25,0.4,1.0,1.0555555555555556,3.375,3.6666666666666665,0.7777777777777778,1.625,1.7777777777777777,1.25,2.25,3.0,1.0,,,,,,,,,,,,
12,240627_144341,LEARNING,1.0,13,1.0,1068.0,,,,,,,,,,13.0,13.0,13.0,cue1.png,Easy,A,,,,,,,,,,,,,,,,,,,,,,,,,,,31,21,Female,1.0,1.0,0.4144511818674139,-0.00012611089746588072,-1.7282212690709107,4.2059000586844916e-05,0.3091862434164213,,,,,2.002,0.874864509462754,0.06499999999999995,-2.163990903964218,0.14285714285714285,2.25,0.4,1.0,1.0555555555555556,3.375,3.6666666666666665,0.7777777777777778,1.625,1.7777777777777777,1.25,2.25,3.0,1.0,,,,,,,,,,,,
13,240627_144402,LEARNING,1.0,14,1.0,1068.0,,,,,,,,,,14.0,14.0,14.0,cue1.png,Easy,A,,,,,,,,,,,,,,,,,,,,,,,,,,,31,21,Female,1.0,1.0,0.3697084545538845,7.498607758180294e-05,0.8980317258350881,2.046832396694013e-06,-0.2379043614359526,5.006481468972611e-05,0.6017904038419135,2.2634001918420826e-06,-0.10638010971087686,,,,,0.14285714285714285,2.25,0.4,1.0,1.0555555555555556,3.375,3.6666666666666665,0.7777777777777778,1.625,1.7777777777777777,1.25,2.25,3.0,1.0,,,,,,,,,,,,
14,240627_144424,LEARNING,1.0,15,3.0,1068.0,,,,,,,,,,15.0,15.0,15.0,cue2.png,Hard,A,,,,,,,,,,,,,,,,,,,,,,,,,,,31,21,Female,0.84375,0.875,0.4920128181957724,0.00011868397436985223,1.4687102866811457,,,-6.099486468969222e-05,-0.7576550604762173,,,,,0.777,-1.0486455712089335,0.14285714285714285,2.25,0.4,1.0,1.0555555555555556,3.375,3.6666666666666665,0.7777777777777778,1.625,1.7777777777777777,1.25,2.25,3.0,1.0,,,,,,,,,,,,
15,240627_144445,LEARNING,1.0,16,1.0,1068.0,,,,,,,,,,16.0,16.0,16.0,cue1.png,Easy,A,,,,,,,,,,,,,,,,,,,,,,,,,,,31,21,Female,1.0,1.0,0.3966470636131072,4.607120002203492e-05,0.5204139930438572,-3.6446488394834865e-05,-0.7642276052685076,1.561952106748964e-05,0.18015675206555576,-2.8963852926895683e-05,-0.37583773170801477,,,,,0.14285714285714285,2.25,0.4,1.0,1.0555555555555556,3.375,3.6666666666666665,0.7777777777777778,1.625,1.7777777777777777,1.25,2.25,3.0,1.0,,,,,,,,,,,,
16,240627_144506,LEARNING,1.0,17,1.0,1068.0,,,,,,,,,,17.0,17.0,17.0,cue1.png,Easy,A,,,,,,,,,,,,,,,,,,,,,,,,,,,31,21,Female,1.0,1.0,0.4147425000344149,,,4.535637064261369e-05,0.35427153271290823,-2.6572474240513927e-06,-0.04356323494552248,8.489297073296931e-07,-0.11858546929510319,,,,,0.14285714285714285,2.25,0.4,1.0,1.0555555555555556,3.375,3.6666666666666665,0.7777777777777778,1.625,1.7777777777777777,1.25,2.25,3.0,1.0,,,,,,,,,,,,
17,240627_144528,LEARNING,1.0,18,3.0,1068.0,,,,,,,,,,18.0,18.0,18.0,cue2.png,Hard,A,,,,,,,,,,,,,,,,,,,,,,,,,,,31,21,Female,1.0,1.0,0.4900226000357758,,,,,-1.755132645798801e-05,-0.22587681896648645,-5.741769742391607e-05,-0.6213638189911402,,,,,0.14285714285714285,2.25,0.4,1.0,1.0555555555555556,3.375,3.6666666666666665,0.7777777777777778,1.625,1.7777777777777777,1.25,2.25,3.0,1.0,,,,,,,,,,,,
18,240627_144551,LEARNING,1.0,19,3.0,1068.0,,,,,,,,,,19.0,19.0,19.0,cue2.png,Hard,A,,,,,,,,,,,,,,,,,,,,,,,,,,,31,21,Female,0.5833333333333334,0.75,0.5191245272924955,-4.233748104617895e-05,-0.6341710690936071,,,-6.821686794475628e-06,-0.09453878471466975,0.00018486469419290788,1.4692727428803496,,,,,0.14285714285714285,2.25,0.4,1.0,1.0555555555555556,3.375,3.6666666666666665,0.7777777777777778,1.625,1.7777777777777777,1.25,2.25,3.0,1.0,,,,,,,,,,,,
19,240627_144613,LEARNING,1.0,20,3.0,1068.0,,,,,,,,,,20.0,20.0,20.0,cue2.png,Hard,A,,,,,,,,,,,,,,,,,,,,,,,,,,,31,21,Female,0.84375,0.875,0.462253690908917,2.1900966512384493e-05,0.20475957742052328,-1.1608552707296355e-05,-0.4246158853036626,1.3361025084999978e-05,0.152511236278615,-7.820795441411789e-05,-0.8007613852127958,0.9059999999999999,-1.0848938503523933,1.804,0.5601460815153313,0.14285714285714285,2.25,0.4,1.0,1.0555555555555556,3.375,3.6666666666666665,0.7777777777777778,1.625,1.7777777777777777,1.25,2.25,3.0,1.0,,,,,,,,,,,,
20,240627_144634,LEARNING,1.0,21,1.0,1068.0,,,,,,,,,,21.0,21.0,21.0,cue1.png,Easy,A,,,,,,,,,,,,,,,,,,,,,,,,,,,31,21,Female,0.84375,0.875,0.3671209818090905,0.00012098377730742488,1.4987448724876284,2.4905032458364534e-06,-0.231838003020703,6.71169313664179e-05,0.8105198257408948,-9.27048767522011e-06,-0.20590516192161204,1.5739999999999998,0.10955741274661983,0.4029999999999998,-1.634515170156232,0.14285714285714285,2.25,0.4,1.0,1.0555555555555556,3.375,3.6666666666666665,0.7777777777777778,1.625,1.7777777777777777,1.25,2.25,3.0,1.0,,,,,,,,,,,,
21,240627_144656,LEARNING,1.0,22,3.0,1068.0,,,,,,,,,,22.0,22.0,22.0,cue2.png,Hard,A,,,,,,,,,,,,,,,,,,,,,,,,,,,31,21,Female,0.84375,0.875,0.4730278636667538,-6.929340032056858e-05,-0.9862055226602199,0.0001100567166230867,1.2389262019724432,0.0002578923756854511,3.1457400778790303,2.712027506658393e-05,0.10810799683376557,1.0840000000000003,-0.7666119269517574,1.6709999999999998,0.35180207975065014,0.14285714285714285,2.25,0.4,1.0,1.0555555555555556,3.375,3.6666666666666665,0.7777777777777778,1.625,1.7777777777777777,1.25,2.25,3.0,1.0,,,,,,,,,,,,
22,240627_144716,LEARNING,1.0,23,3.0,1068.0,,,,,,,,,,23.0,23.0,23.0,cue2.png,Hard,A,,,,,,,,,,,,,,,,,,,,,,,,,,,31,21,Female,0.84375,0.875,0.3535520818126811,-5.2945862239859795e-05,-0.7727126502108895,0.00011053206739098645,1.2454257232653514,,,0.00026021727622908527,2.1194845142970644,1.173,-0.6074709652514402,2.005,0.8750118285431571,0.14285714285714285,2.25,0.4,1.0,1.0555555555555556,3.375,3.6666666666666665,0.7777777777777778,1.625,1.7777777777777777,1.25,2.25,3.0,1.0,,,,,,,,,,,,
23,240627_144737,LEARNING,1.0,24,3.0,1068.0,,,,,,,,,,24.0,24.0,24.0,cue2.png,Hard,A,,,,,,,,,,,,,,,,,,,,,,,,,,,31,21,Female,0.84375,0.875,0.3937031545845622,-4.1967810949404376e-05,-0.6293433127409757,1.4502403040096094e-05,-0.06759802750532397,-1.2578341199142359e-05,-0.1650041215840059,,,1.7440000000000002,0.4135345306011598,1.525,0.12309362668566229,0.14285714285714285,2.25,0.4,1.0,1.0555555555555556,3.375,3.6666666666666665,0.7777777777777778,1.625,1.7777777777777777,1.25,2.25,3.0,1.0,,,,,,,,,,,,
24,240627_144758,LEARNING,1.0,25,1.0,1068.0,,,,,,,,,,25.0,25.0,25.0,cue1.png,Easy,A,,,,,,,,,,,,,,,,,,,,,,,,,,,31,21,Female,1.0,1.0,0.3660589908884669,-0.0001323229136373158,-1.8093479298313098,9.40935883183185e-05,1.0206606613976785,-0.00012555511154544157,-1.5479160737776134,0.00010788073686477436,0.8049839565855119,1.604,0.16320043354448013,0.929,-0.8105381406207268,0.14285714285714285,2.25,0.4,1.0,1.0555555555555556,3.375,3.6666666666666665,0.7777777777777778,1.625,1.7777777777777777,1.25,2.25,3.0,1.0,,,,,,,,,,,,
25,240627_144819,LEARNING,1.0,26,1.0,1068.0,,,,,,,,,,26.0,26.0,26.0,cue1.png,Easy,A,,,,,,,,,,,,,,,,,,,,,,,,,,,31,21,Female,1.0,1.0,0.3517788090870123,3.87614021179236e-05,0.42495070408449864,-6.21086112512952e-05,-1.1151085235085911,-9.658079601479507e-05,-1.1932508879067514,,,1.1710000000000003,-0.6110471666379638,1.641,0.30480719213455704,0.14285714285714285,2.25,0.4,1.0,1.0555555555555556,3.375,3.6666666666666665,0.7777777777777778,1.625,1.7777777777777777,1.25,2.25,3.0,1.0,,,,,,,,,,,,
26,240627_144840,LEARNING,1.0,27,3.0,1068.0,,,,,,,,,,27.0,27.0,27.0,cue2.png,Hard,A,,,,,,,,,,,,,,,,,,,,,,,,,,,31,21,Female,0.5833333333333334,0.75,0.3707753181753849,,,,,5.178933540104548e-05,0.6228997017637682,2.9208055482132095e-06,-0.1007074082618451,2.0970000000000004,1.0447340753226446,,,0.14285714285714285,2.25,0.4,1.0,1.0555555555555556,3.375,3.6666666666666665,0.7777777777777778,1.625,1.7777777777777777,1.25,2.25,3.0,1.0,,,,,,,,,,,,
27,240627_144900,LEARNING,1.0,28,1.0,1068.0,,,,,,,,,,28.0,28.0,28.0,cue1.png,Easy,A,,,,,,,,,,,,,,,,,,,,,,,,,,,31,21,Female,1.0,1.0,0.3624141091184521,4.680034353492105e-05,0.5299363408264602,0.00014044126463057987,1.6543773384514018,8.836121544417239e-05,1.0705642072263089,,,0.5119999999999998,-1.7894055234976198,1.508,0.09646319036987618,0.14285714285714285,2.25,0.4,1.0,1.0555555555555556,3.375,3.6666666666666665,0.7777777777777778,1.625,1.7777777777777777,1.25,2.25,3.0,1.0,,,,,,,,,,,,
28,240627_144921,LEARNING,1.0,29,1.0,1068.0,,,,,,,,,,29.0,29.0,29.0,cue1.png,Easy,A,,,,,,,,,,,,,,,,,,,,,,,,,,,31,21,Female,1.0,1.0,0.3210346636743369,,,-0.00011274270910411124,-1.8074338953506046,-6.474777138040528e-05,-0.8035931723743192,-2.551033829185749e-05,-0.34603761328096944,1.44,-0.13004808015048744,1.2920000000000003,-0.24190000046599608,0.14285714285714285,2.25,0.4,1.0,1.0555555555555556,3.375,3.6666666666666665,0.7777777777777778,1.625,1.7777777777777777,1.25,2.25,3.0,1.0,,,,,,,,,,,,
29,240627_144942,LEARNING,1.0,30,3.0,1068.0,,,,,,,,,,30.0,30.0,30.0,cue2.png,Hard,A,,,,,,,,,,,,,,,,,,,,,,,,,,,31,21,Female,0.84375,0.875,0.3859013363888318,-8.768647386872943e-05,-1.226412340688834,0.00016995727855728887,2.057952916641868,3.087293700497484e-05,0.36686886241417427,,,1.9339999999999997,0.7532736623209382,1.173,-0.4283130546765003,0.14285714285714285,2.25,0.4,1.0,1.0555555555555556,3.375,3.6666666666666665,0.7777777777777778,1.625,1.7777777777777777,1.25,2.25,3.0,1.0,,,,,,,,,,,,
30,240627_145003,LEARNING,1.0,31,3.0,1068.0,,,,,,,,,,31.0,31.0,31.0,cue2.png,Hard,A,,,,,,,,,,,,,,,,,,,,,,,,,,,31,21,Female,0.5833333333333334,0.75,0.431062390921976,3.7313848280096096e-05,0.4060461800309632,2.1832299873539036e-05,0.03262442665053205,,,,,1.22,-0.5234302326681265,1.0479999999999998,-0.6241250864102232,0.14285714285714285,2.25,0.4,1.0,1.0555555555555556,3.375,3.6666666666666665,0.7777777777777778,1.625,1.7777777777777777,1.25,2.25,3.0,1.0,,,,,,,,,,,,
31,240627_145023,LEARNING,1.0,32,1.0,1068.0,,,,,,,,,,32.0,32.0,32.0,cue1.png,Easy,A,,,,,,,,,,,,,,,,,,,,,,,,,,,31,21,Female,1.0,1.0,0.3187406909101727,,,,,,,-7.335432118313594e-05,-0.758879748570157,1.371,-0.25342702798556505,1.276,-0.26696394052791295,0.14285714285714285,2.25,0.4,1.0,1.0555555555555556,3.375,3.6666666666666665,0.7777777777777778,1.625,1.7777777777777777,1.25,2.25,3.0,1.0,,,,,,,,,,,,
32,240627_145044,LEARNING,1.0,33,1.0,1068.0,,,,,,,,,,33.0,33.0,33.0,cue1.png,Easy,A,,,,,,,,,,,,,,,,,,,,,,,,,,,31,21,Female,1.0,1.0,0.3579617363866418,5.961566036289268e-05,0.6972996947115658,,,-1.7205310601941474e-05,-0.22164135125477438,2.2913839830445478e-05,0.07181098308410883,2.0860000000000003,1.0250649676967625,0.7549999999999999,-1.083108488794069,0.14285714285714285,2.25,0.4,1.0,1.0555555555555556,3.375,3.6666666666666665,0.7777777777777778,1.625,1.7777777777777777,1.25,2.25,3.0,1.0,,,,,,,,,,,,
33,240627_145105,LEARNING,1.0,34,1.0,1068.0,,,,,,,,,,34.0,34.0,34.0,cue1.png,Easy,A,,,,,,,,,,,,,,,,,,,,,,,,,,,31,21,Female,0.84375,0.875,0.3716224181381138,6.077612325619411e-05,0.7124549159588646,-3.291149761948083e-05,-0.7158933027572018,3.5562782571675264e-05,0.4242757387857705,-9.802896647423528e-05,-0.9717954097229768,1.3619999999999999,-0.26951993422492326,1.4780000000000002,0.049468302753783056,0.14285714285714285,2.25,0.4,1.0,1.0555555555555556,3.375,3.6666666666666665,0.7777777777777778,1.625,1.7777777777777777,1.25,2.25,3.0,1.0,,,,,,,,,,,,
34,240627_145126,LEARNING,1.0,35,3.0,1068.0,,,,,,,,,,35.0,35.0,35.0,cue2.png,Hard,A,,,,,,,,,,,,,,,,,,,,,,,,,,,31,21,Female,0.84375,0.875,0.3979599909348921,-0.00011196354007810428,-1.543461952324135,5.042907491876591e-06,-0.1969387099817021,4.1113258033648875e-05,0.4922173061822586,1.6438229862610846e-05,0.015933430989503925,1.9240000000000002,0.735392655388319,0.5290000000000001,-1.4371366421686391,0.14285714285714285,2.25,0.4,1.0,1.0555555555555556,3.375,3.6666666666666665,0.7777777777777778,1.625,1.7777777777777777,1.25,2.25,3.0,1.0,,,,,,,,,,,,
35,240627_145147,LEARNING,1.0,36,3.0,1068.0,,,,,,,,,,36.0,36.0,36.0,cue2.png,Hard,A,,,,,,,,,,,,,,,,,,,,,,,,,,,31,21,Female,0.5833333333333334,0.75,0.3772444726941599,1.8554946736706445e-05,0.16106178209165023,,,0.0001023749050620506,1.2421012303461247,-0.00014384455260610298,-1.3671346617076592,1.6,0.15604803077143214,2.178,1.1460156804626291,0.14285714285714285,2.25,0.4,1.0,1.0555555555555556,3.375,3.6666666666666665,0.7777777777777778,1.625,1.7777777777777777,1.25,2.25,3.0,1.0,,,,,,,,,,,,
36,240627_145208,LEARNING,1.0,37,1.0,1068.0,,,,,,,,,,37.0,37.0,37.0,cue1.png,Easy,A,,,,,,,,,,,,,,,,,,,,,,,,,,,31,21,Female,1.0,1.0,0.3687175727153027,,,-9.853286546811484e-05,-1.613141201369864,-2.39289092554139e-05,-0.30394273862085824,-6.576600000993225e-06,-0.1826598074914777,1.2400000000000002,-0.48766821880288613,1.327,-0.18707263158055423,0.14285714285714285,2.25,0.4,1.0,1.0555555555555556,3.375,3.6666666666666665,0.7777777777777778,1.625,1.7777777777777777,1.25,2.25,3.0,1.0,,,,,,,,,,,,
37,240627_145230,LEARNING,1.0,38,3.0,1068.0,,,,,,,,,,38.0,38.0,38.0,cue2.png,Hard,A,,,,,,,,,,,,,,,,,,,,,,,,,,,31,21,Female,1.0,1.0,0.4808696454856545,4.103134850658944e-06,-0.027673599127041742,9.730366714814573e-05,1.0645524085353975,-1.922340260770896e-05,-0.24634416004323298,5.404692954077452e-06,-0.07927413037640706,1.809,0.5297610756631891,1.569,0.19201946185593272,0.14285714285714285,2.25,0.4,1.0,1.0555555555555556,3.375,3.6666666666666665,0.7777777777777778,1.625,1.7777777777777777,1.25,2.25,3.0,1.0,,,,,,,,,,,,
38,240627_145251,LEARNING,1.0,39,3.0,1068.0,,,,,,,,,,39.0,39.0,39.0,cue2.png,Hard,A,,,,,,,,,,,,,,,,,,,,,,,,,,,31,21,Female,0.84375,0.875,0.4078958454457196,7.787904837601401e-05,0.9358128670515131,,,-0.00010853588342584668,-1.339589230024213,-2.1927241897833072e-05,-0.3151193435872127,1.9169999999999998,0.7228759505354844,1.1779999999999997,-0.42048057340715195,0.14285714285714285,2.25,0.4,1.0,1.0555555555555556,3.375,3.6666666666666665,0.7777777777777778,1.625,1.7777777777777777,1.25,2.25,3.0,1.0,,,,,,,,,,,,
39,240627_145312,LEARNING,1.0,40,3.0,1068.0,,,,,,,,,,40.0,40.0,40.0,cue2.png,Hard,A,,,,,,,,,,,,,,,,,,,,,,,,,,,31,21,Female,0.15625,0.625,0.4216201999436386,-5.035660839052556e-05,-0.738897941288622,9.860542105393118e-06,-0.13106668269887994,,,0.00011966775215449966,0.9066932263165559,1.974,0.8247976900514185,2.02,0.8985092723512039,0.14285714285714285,2.25,0.4,1.0,1.0555555555555556,3.375,3.6666666666666665,0.7777777777777778,1.625,1.7777777777777777,1.25,2.25,3.0,1.0,,,,,,,,,,,,
40,240627_145333,LEARNING,1.0,41,1.0,1068.0,,,,,,,,,,41.0,41.0,41.0,cue1.png,Easy,A,,,,,,,,,,,,,,,,,,,,,,,,,,,31,21,Female,1.0,1.0,0.3825582546097311,4.711738903301387e-05,0.5340768391541466,,,-0.00023075540753721103,-2.8356387291109706,0.00023353299405750065,1.8892278474261213,0.871,-1.147477374616563,1.414,-0.05078745749388335,0.14285714285714285,2.25,0.4,1.0,1.0555555555555556,3.375,3.6666666666666665,0.7777777777777778,1.625,1.7777777777777777,1.25,2.25,3.0,1.0,,,,,,,,,,,,
41,240627_145355,LEARNING,1.0,42,3.0,1068.0,,,,,,,,,,42.0,42.0,42.0,cue2.png,Hard,A,,,,,,,,,,,,,,,,,,,,,,,,,,,31,21,Female,1.0,1.0,0.4400100181598894,4.8231933405631575e-05,0.5486323813041407,-2.224536600254701e-05,-0.5700541577748077,-1.721628865769976e-05,-0.22177573006975948,,,2.411,1.6061976930069106,,,0.14285714285714285,2.25,0.4,1.0,1.0555555555555556,3.375,3.6666666666666665,0.7777777777777778,1.625,1.7777777777777777,1.25,2.25,3.0,1.0,,,,,,,,,,,,
42,240627_145416,LEARNING,1.0,43,3.0,1068.0,,,,,,,,,,43.0,43.0,43.0,cue2.png,Hard,A,,,,,,,,,,,,,,,,,,,,,,,,,,,31,21,Female,0.5833333333333334,0.75,0.3435299272902987,,,,,,,8.009258897782997e-05,0.565202115356965,1.9869999999999999,0.8480429990638242,1.344,-0.16044219526476777,0.14285714285714285,2.25,0.4,1.0,1.0555555555555556,3.375,3.6666666666666665,0.7777777777777778,1.625,1.7777777777777777,1.25,2.25,3.0,1.0,,,,,,,,,,,,
43,240627_145436,LEARNING,1.0,44,1.0,1068.0,,,,,,,,,,44.0,44.0,44.0,cue1.png,Easy,A,,,,,,,,,,,,,,,,,,,,,,,,,,,31,21,Female,1.0,1.0,0.3710867818656631,-0.00012538629136944106,-1.718758178288712,,,,,-0.00025978502639989595,-2.3675763029531036,2.278,1.3683803008030653,1.4550000000000003,0.013438888914778237,0.14285714285714285,2.25,0.4,1.0,1.0555555555555556,3.375,3.6666666666666665,0.7777777777777778,1.625,1.7777777777777777,1.25,2.25,3.0,1.0,,,,,,,,,,,,
44,240627_145457,LEARNING,1.0,45,1.0,1068.0,,,,,,,,,,45.0,45.0,45.0,cue1.png,Easy,A,,,,,,,,,,,,,,,,,,,,,,,,,,,31,21,Female,1.0,1.0,0.3302566545634446,2.159648418675799e-06,-0.05305482160114727,,,-3.6207250527740386e-05,-0.4542379262648779,3.448668611856281e-05,0.17167220458435423,1.899,0.6906901380567688,1.523,0.11996063417792273,0.14285714285714285,2.25,0.4,1.0,1.0555555555555556,3.375,3.6666666666666665,0.7777777777777778,1.625,1.7777777777777777,1.25,2.25,3.0,1.0,,,,,,,,,,,,
45,240627_145517,LEARNING,1.0,46,1.0,1068.0,,,,,,,,,,46.0,46.0,46.0,cue1.png,Easy,A,,,,,,,,,,,,,,,,,,,,,,,,,,,31,21,Female,1.0,1.0,0.3351983909114179,0.00011626949118081391,1.437178018705168,-2.605978215926546e-05,-0.6222090730600894,5.165107911641502e-05,0.6212073514877311,-1.2888610162059295e-05,-0.23712566913981034,0.5430000000000001,-1.7339744020064973,1.268,-0.2794959105588712,0.14285714285714285,2.25,0.4,1.0,1.0555555555555556,3.375,3.6666666666666665,0.7777777777777778,1.625,1.7777777777777777,1.25,2.25,3.0,1.0,,,,,,,,,,,,
46,240627_145539,LEARNING,1.0,47,3.0,1068.0,,,,,,,,,,47.0,47.0,47.0,cue2.png,Hard,A,,,,,,,,,,,,,,,,,,,,,,,,,,,31,21,Female,0.5833333333333334,0.75,0.4859200546052307,2.366463942167496e-05,0.2277925010085602,6.570103243546668e-05,0.632446243787643,9.465834417135815e-05,1.1476453147374706,0.00033798986746077543,2.7905783633193435,0.22399999999999998,-2.3043785231570744,2.484,1.6253635341467823,0.14285714285714285,2.25,0.4,1.0,1.0555555555555556,3.375,3.6666666666666665,0.7777777777777778,1.625,1.7777777777777777,1.25,2.25,3.0,1.0,,,,,,,,,,,,
47,240627_145601,LEARNING,1.0,48,3.0,1068.0,,,,,,,,,,48.0,48.0,48.0,cue2.png,Hard,A,,,,,,,,,,,,,,,,,,,,,,,,,,,31,21,Female,0.5833333333333334,0.75,0.4547668090936812,-2.8382851474410917e-05,-0.4519287071835404,-2.0141678973232668e-05,-0.5412902226684124,-4.619028476659029e-05,-0.5764370060026515,-6.856705870658935e-05,-0.7175708201831023,1.227,-0.5109135278152923,1.4699999999999998,0.0369363327228241,0.14285714285714285,2.25,0.4,1.0,1.0555555555555556,3.375,3.6666666666666665,0.7777777777777778,1.625,1.7777777777777777,1.25,2.25,3.0,1.0,,,,,,,,,,,,
48,240627_145622,LEARNING,1.0,49,1.0,1068.0,,,,,,,,,,49.0,49.0,49.0,cue1.png,Easy,A,,,,,,,,,,,,,,,,,,,,,,,,,,,31,21,Female,0.84375,0.875,0.3544617362997748,,,1.4519273225245977e-05,-0.06736735968063225,-1.961505009043154e-05,-0.2511381896764348,,,,,,,0.14285714285714285,2.25,0.4,1.0,1.0555555555555556,3.375,3.6666666666666665,0.7777777777777778,1.625,1.7777777777777777,1.25,2.25,3.0,1.0,,,,,,,,,,,,
49,240627_145643,LEARNING,1.0,50,1.0,1068.0,,,,,,,,,,50.0,50.0,50.0,cue1.png,Easy,A,,,,,,,,,,,,,,,,,,,,,,,,,,,31,21,Female,1.0,1.0,0.3818192545493895,1.1092428849549061e-05,0.06360402597155182,0.00011251445593151842,1.2725311313136716,-4.787795057160319e-05,-0.5970951749864778,8.722031626241756e-05,0.6267067388038677,1.6360000000000001,0.22041965572886407,2.134,1.0770898452923587,0.14285714285714285,2.25,0.4,1.0,1.0555555555555556,3.375,3.6666666666666665,0.7777777777777778,1.625,1.7777777777777777,1.25,2.25,3.0,1.0,,,,,,,,,,,,
0,240627_145815,TrueCHOICE,9.0,1,1.0,1068.0,,,,,,,,,,,1.0,1.0,,,A,,,,,,True,cue1.png,Easy,cue2.png,Hard,Left,Easy,Easy,0.0163278002291917,,,,,,,,,,,,,31,21,Female,0.84375,0.875,0.4224033636379648,,,,,,,,,,,,,0.14285714285714285,2.25,0.4,1.0,1.0555555555555556,3.375,3.6666666666666665,0.7777777777777778,1.625,1.7777777777777777,1.25,2.25,3.0,1.0,,,,,1.458,0.5094881475302725,,,,,,
1,240627_145833,TrueCHOICE,9.0,2,1.0,1068.0,,,,,,,,,,,2.0,2.0,,,A,,,,,,True,cue1.png,Easy,cue2.png,Hard,Left,Easy,Easy,0.0173919999506324,,,,,,,,,,,,,31,21,Female,,,,,,,,,,,,,,,,0.14285714285714285,2.25,0.4,1.0,1.0555555555555556,3.375,3.6666666666666665,0.7777777777777778,1.625,1.7777777777777777,1.25,2.25,3.0,1.0,-7.116765698110192e-05,-0.46355679758522683,-4.581904920193452e-05,-0.5788075629361705,1.459,0.5157166089915235,,,,,,
2,240627_145853,TrueCHOICE,9.0,3,1.0,1068.0,,,,,,,,,,,3.0,3.0,,,A,,,,,,True,cue2.png,Hard,cue1.png,Easy,Right,Easy,Easy,0.0165014001540839,,,,,,,,,,,,,31,21,Female,1.0,1.0,0.3413916545793075,,,,,,,,,,,,,0.14285714285714285,2.25,0.4,1.0,1.0555555555555556,3.375,3.6666666666666665,0.7777777777777778,1.625,1.7777777777777777,1.25,2.25,3.0,1.0,,,3.067689443105601e-05,1.5880040605316699,1.0879999999999999,-1.7950425931323337,,,,,,
3,240627_145912,TrueCHOICE,9.0,4,1.0,1068.0,,,,,,,,,,,4.0,4.0,,,A,,,,,,True,cue1.png,Easy,cue2.png,Hard,Left,Easy,Easy,0.0142785001080483,,,,,,,,,,,,,31,21,Female,0.84375,0.875,0.3472416818311268,,,,,,,,,,,,,0.14285714285714285,2.25,0.4,1.0,1.0555555555555556,3.375,3.6666666666666665,0.7777777777777778,1.625,1.7777777777777777,1.25,2.25,3.0,1.0,6.606353856714606e-05,1.6901372778682024,-5.1836084216471887e-05,-0.7492451154273816,1.3269999999999997,-0.30644030389351623,,,,,,
4,240627_145931,TrueCHOICE,9.0,5,3.0,1068.0,,,,,,,,,,,5.0,5.0,,,A,,,,,,True,cue2.png,Hard,cue1.png,Easy,Left,Hard,Hard,0.0167719000019133,,,,,,,,,,,,,31,21,Female,0.5833333333333334,0.75,0.3777686272409152,,,,,,,,,,,,,0.14285714285714285,2.25,0.4,1.0,1.0555555555555556,3.375,3.6666666666666665,0.7777777777777778,1.625,1.7777777777777777,1.25,2.25,3.0,1.0,,,,,,,,,,,,
5,240627_145951,TrueCHOICE,9.0,6,3.0,1068.0,,,,,,,,,,,6.0,6.0,,,A,,,,,,True,cue2.png,Hard,cue1.png,Easy,Left,Hard,Hard,0.0167926999274641,,,,,,,,,,,,,31,21,Female,0.84375,0.875,0.3886851363773034,,,,,,,,,,,,,0.14285714285714285,2.25,0.4,1.0,1.0555555555555556,3.375,3.6666666666666665,0.7777777777777778,1.625,1.7777777777777777,1.25,2.25,3.0,1.0,,,,,,,,,,,,
6,240627_150010,TrueCHOICE,9.0,7,1.0,1068.0,,,,,,,,,,,7.0,7.0,,,A,,,,,,True,cue1.png,Easy,cue2.png,Hard,Left,Easy,Easy,0.0165864999871701,,,,,,,,,,,,,31,21,Female,,,,,,,,,,,,,,,,0.14285714285714285,2.25,0.4,1.0,1.0555555555555556,3.375,3.6666666666666665,0.7777777777777778,1.625,1.7777777777777777,1.25,2.25,3.0,1.0,-6.179024526890365e-05,-0.3163885391803918,,,,,,,,,,
7,240627_150028,TrueCHOICE,9.0,8,1.0,1068.0,,,,,,,,,,,8.0,8.0,,,A,,,,,,True,cue2.png,Hard,cue1.png,Easy,Right,Easy,Easy,0.0169774999376386,,,,,,,,,,,,,31,21,Female,1.0,1.0,0.3405830363573676,,,,,,,,,,,,,0.14285714285714285,2.25,0.4,1.0,1.0555555555555556,3.375,3.6666666666666665,0.7777777777777778,1.625,1.7777777777777777,1.25,2.25,3.0,1.0,,,-7.436142660657667e-05,-1.3872942902652265,1.549,1.0762781405040482,,,,,,
8,240627_150046,TrueCHOICE,9.0,9,1.0,1068.0,,,,,,,,,,,9.0,9.0,,,A,,,,,,True,cue1.png,Easy,cue2.png,Hard,Left,Easy,Easy,0.0161730998661369,,,,,,,,,,,,,31,21,Female,0.84375,0.875,0.3418627182148736,,,,,,,,,,,,,0.14285714285714285,2.25,0.4,1.0,1.0555555555555556,3.375,3.6666666666666665,0.7777777777777778,1.625,1.7777777777777777,1.25,2.25,3.0,1.0,,,-1.798092310672031e-06,0.6681228824976367,,,,,,,,
9,240627_150105,TrueCHOICE,9.0,10,1.0,1068.0,,,,,,,,,,,10.0,10.0,,,A,,,,,,True,cue2.png,Hard,cue1.png,Easy,Right,Easy,Easy,0.016330000013113,,,,,,,,,,,,,31,21,Female,1.0,1.0,0.3913441181648522,,,,,,,,,,,,,0.14285714285714285,2.25,0.4,1.0,1.0555555555555556,3.375,3.6666666666666665,0.7777777777777778,1.625,1.7777777777777777,1.25,2.25,3.0,1.0,-9.962679396686254e-05,-0.9101919411025838,-9.173085592495672e-06,0.459220025599472,,,,,,,,
0,240627_150242,FalseCHOICE,9.0,1,2.0,1068.0,,,,,,,,,,,1.0,1.0,,,A,,,,,,False,cue1.png,Easy,cue2.png,Hard,Left,Easy,Mid,0.0163155000191181,,,,,,,,,,,,,31,21,Female,1.0,1.0,0.4214937090662054,,,,,,,,,,,,,0.14285714285714285,2.25,0.4,1.0,1.0555555555555556,3.375,3.6666666666666665,0.7777777777777778,1.625,1.7777777777777777,1.25,2.25,3.0,1.0,,,,,1.458,0.5094881475302725,,,,,,
1,240627_150302,FalseCHOICE,9.0,2,2.0,1068.0,,,,,,,,,,,2.0,2.0,,,A,,,,,,False,cue2.png,Hard,cue1.png,Easy,Left,Hard,Mid,0.0161152000073343,,,,,,,,,,,,,31,21,Female,,,,,,,,,,,,,,,,0.14285714285714285,2.25,0.4,1.0,1.0555555555555556,3.375,3.6666666666666665,0.7777777777777778,1.625,1.7777777777777777,1.25,2.25,3.0,1.0,-7.116765698110192e-05,-0.46355679758522683,-4.581904920193452e-05,-0.5788075629361705,1.459,0.5157166089915235,,,,,,
2,240627_150321,FalseCHOICE,9.0,3,2.0,1068.0,,,,,,,,,,,3.0,3.0,,,A,,,,,,False,cue2.png,Hard,cue1.png,Easy,Right,Easy,Mid,0.0168530000373721,,,,,,,,,,,,,31,21,Female,,,,,,,,,,,,,,,,0.14285714285714285,2.25,0.4,1.0,1.0555555555555556,3.375,3.6666666666666665,0.7777777777777778,1.625,1.7777777777777777,1.25,2.25,3.0,1.0,,,3.067689443105601e-05,1.5880040605316699,1.0879999999999999,-1.7950425931323337,,,,,,
3,240627_150340,FalseCHOICE,9.0,4,2.0,1068.0,,,,,,,,,,,4.0,4.0,,,A,,,,,,False,cue2.png,Hard,cue1.png,Easy,Left,Hard,Mid,0.0152183999307453,,,,,,,,,,,,,31,21,Female,0.5833333333333334,0.75,0.4245081454600123,,,,,,,,,,,,,0.14285714285714285,2.25,0.4,1.0,1.0555555555555556,3.375,3.6666666666666665,0.7777777777777778,1.625,1.7777777777777777,1.25,2.25,3.0,1.0,6.606353856714606e-05,1.6901372778682024,-5.1836084216471887e-05,-0.7492451154273816,1.3269999999999997,-0.30644030389351623,,,,,,
4,240627_150359,FalseCHOICE,9.0,5,2.0,1068.0,,,,,,,,,,,5.0,5.0,,,A,,,,,,False,cue1.png,Easy,cue2.png,Hard,Left,Easy,Mid,0.0159092999529093,,,,,,,,,,,,,31,21,Female,,,,,,,,,,,,,,,,0.14285714285714285,2.25,0.4,1.0,1.0555555555555556,3.375,3.6666666666666665,0.7777777777777778,1.625,1.7777777777777777,1.25,2.25,3.0,1.0,,,,,,,,,,,,
5,240627_150419,FalseCHOICE,9.0,6,2.0,1068.0,,,,,,,,,,,6.0,6.0,,,A,,,,,,False,cue2.png,Hard,cue1.png,Easy,Right,Easy,Mid,0.0165735001210123,,,,,,,,,,,,,31,21,Female,0.84375,0.875,0.4709328727542676,,,,,,,,,,,,,0.14285714285714285,2.25,0.4,1.0,1.0555555555555556,3.375,3.6666666666666665,0.7777777777777778,1.625,1.7777777777777777,1.25,2.25,3.0,1.0,,,,,,,,,,,,
6,240627_150438,FalseCHOICE,9.0,7,2.0,1068.0,,,,,,,,,,,7.0,7.0,,,A,,,,,,False,cue2.png,Hard,cue1.png,Easy,Right,Easy,Mid,0.0167022999376058,,,,,,,,,,,,,31,21,Female,0.84375,0.875,0.3754444545431232,,,,,,,,,,,,,0.14285714285714285,2.25,0.4,1.0,1.0555555555555556,3.375,3.6666666666666665,0.7777777777777778,1.625,1.7777777777777777,1.25,2.25,3.0,1.0,-6.179024526890365e-05,-0.3163885391803918,,,,,,,,,,
7,240627_150456,FalseCHOICE,9.0,8,2.0,1068.0,,,,,,,,,,,8.0,8.0,,,A,,,,,,False,cue1.png,Easy,cue2.png,Hard,Right,Hard,Mid,0.0166118999477475,,,,,,,,,,,,,31,21,Female,,,,,,,,,,,,,,,,0.14285714285714285,2.25,0.4,1.0,1.0555555555555556,3.375,3.6666666666666665,0.7777777777777778,1.625,1.7777777777777777,1.25,2.25,3.0,1.0,,,-7.436142660657667e-05,-1.3872942902652265,1.549,1.0762781405040482,,,,,,
8,240627_150516,FalseCHOICE,9.0,9,2.0,1068.0,,,,,,,,,,,9.0,9.0,,,A,,,,,,False,cue1.png,Easy,cue2.png,Hard,Left,Easy,Mid,0.0160161000676453,,,,,,,,,,,,,31,21,Female,0.84375,0.875,0.3810064272574064,,,,,,,,,,,,,0.14285714285714285,2.25,0.4,1.0,1.0555555555555556,3.375,3.6666666666666665,0.7777777777777778,1.625,1.7777777777777777,1.25,2.25,3.0,1.0,,,-1.798092310672031e-06,0.6681228824976367,,,,,,,,
9,240627_150535,FalseCHOICE,9.0,10,2.0,1068.0,,,,,,,,,,,10.0,10.0,,,A,,,,,,False,cue2.png,Hard,cue1.png,Easy,Right,Easy,Mid,0.0164010000880807,,,,,,,,,,,,,31,21,Female,,,,,,,,,,,,,,,,0.14285714285714285,2.25,0.4,1.0,1.0555555555555556,3.375,3.6666666666666665,0.7777777777777778,1.625,1.7777777777777777,1.25,2.25,3.0,1.0,-9.962679396686254e-05,-0.9101919411025838,-9.173085592495672e-06,0.459220025599472,,,,,,,,
0,240627_143839,OFFLINERATING,9.0,1,1.0,,,,,,,,,,,,,,,,,T0,cue1.png,Easy,2.0,0.8016577002126724,,,,,,,,,,,,,,,,,,,,,,31,21,Female,,,,,,,,,,,,,,,,0.14285714285714285,2.25,0.4,1.0,1.0555555555555556,3.375,3.6666666666666665,0.7777777777777778,1.625,1.7777777777777777,1.25,2.25,3.0,1.0,,,,,,,,,,,,
1,240627_143846,OFFLINERATING,9.0,2,3.0,,,,,,,,,,,,,,,,,T0,cue2.png,Hard,4.0,0.7183858999051154,,,,,,,,,,,,,,,,,,,,,,31,21,Female,,,,,,,,,,,,,,,,0.14285714285714285,2.25,0.4,1.0,1.0555555555555556,3.375,3.6666666666666665,0.7777777777777778,1.625,1.7777777777777777,1.25,2.25,3.0,1.0,,,,,,,,,,,1.5959999999999999,0.34323619273234696
2,240627_145708,OFFLINERATING,9.0,3,1.0,,,,,,,,,,,,,,,,,T1,cue1.png,Easy,29.0,1.1994874000083655,,,,,,,,,,,,,,,,,,,,,,31,21,Female,,,,,,,,,,,,,,,,0.14285714285714285,2.25,0.4,1.0,1.0555555555555556,3.375,3.6666666666666665,0.7777777777777778,1.625,1.7777777777777777,1.25,2.25,3.0,1.0,,,,,,,2.9753342023206616e-05,-1.452383285813304,8.288320844927408e-06,-1.2943011714293,,
3,240627_145715,OFFLINERATING,9.0,4,3.0,,,,,,,,,,,,,,,,,T1,cue2.png,Hard,2.0,0.9849386001005768,,,,,,,,,,,,,,,,,,,,,,31,21,Female,,,,,,,,,,,,,,,,0.14285714285714285,2.25,0.4,1.0,1.0555555555555556,3.375,3.6666666666666665,0.7777777777777778,1.625,1.7777777777777777,1.25,2.25,3.0,1.0,,,,,,,0.00017063717486700582,1.3029101795145774,4.546599250322475e-05,1.1406972990332138,,
4,240627_150124,OFFLINERATING,9.0,5,1.0,,,,,,,,,,,,,,,,,T2,cue1.png,Easy,61.0,0.9184439000673592,,,,,,,,,,,,,,,,,,,,,,31,21,Female,,,,,,,,,,,,,,,,0.14285714285714285,2.25,0.4,1.0,1.0555555555555556,3.375,3.6666666666666665,0.7777777777777778,1.625,1.7777777777777777,1.25,2.25,3.0,1.0,,,,,,,,,,,1.467,-1.3597433789012017
5,240627_150131,OFFLINERATING,9.0,6,3.0,,,,,,,,,,,,,,,,,T2,cue2.png,Hard,2.0,0.9181826999410988,,,,,,,,,,,,,,,,,,,,,,31,21,Female,,,,,,,,,,,,,,,,0.14285714285714285,2.25,0.4,1.0,1.0555555555555556,3.375,3.6666666666666665,0.7777777777777778,1.625,1.7777777777777777,1.25,2.25,3.0,1.0,,,,,,,,,,,1.6469999999999998,1.0165071861688664
6,240627_151838,OFFLINERATING,9.0,7,1.0,,,,,,,,,,,,,,,,,T3,cue1.png,Easy,0.0,0.841384100029245,,,,,,,,,,,,,,,,,,,,,,31,21,Female,,,,,,,,,,,,,,,,0.14285714285714285,2.25,0.4,1.0,1.0555555555555556,3.375,3.6666666666666665,0.7777777777777778,1.625,1.7777777777777777,1.25,2.25,3.0,1.0,,,,,,,0.00012325581000751295,0.37626329363364186,3.0395003442353508e-05,0.1536038723960862,,
7,240627_151845,OFFLINERATING,9.0,8,3.0,,,,,,,,,,,,,,,,,T3,cue2.png,Hard,0.0,0.7517790999263525,,,,,,,,,,,,,,,,,,,,,,31,21,Female,,,,,,,,,,,,,,,,0.14285714285714285,2.25,0.4,1.0,1.0555555555555556,3.375,3.6666666666666665,0.7777777777777778,1.625,1.7777777777777777,1.25,2.25,3.0,1.0,,,,,,,9.242044278519237e-05,-0.2267901873349153,,,,
