,END,Phase,Block,TrialN,NbackLevel,ISI,Letter_Resp,Letter_RT,Letter_Accuracy,Trial_A_measure,Trial_ACC,Trial_RT,TrialCountCali,CaliEnd_A_measure,ISI_calibrated,TrialIndex,TrialNumber_total,TrialNumber_valid,CueLearning,TrialDemandLearning,CueMapping,OfflineRatingTimePoint,CueFigure,TrialDemand,OfflineRating,OfflineRatingRT,PhaseType,CueLeft,CueDemandLeft,CueRight,CueDemandRight,Choice,ChoiceDemand,TaskDemand,ChoiceRT,CueCheck,CueDemandCheck,CorrectAnswer,Answer,AnswerDemand,AnswerRT,AnswerACC,DemandRatingQuesIndex,QuesTLX,DemandLevel,DemandRating,DemandRatingRT,PID,Age,Gender,BAI_bis,BAI_bas_d,BAI_bas_rr,BAI_bas_fs,NFC,BFI_ext,BFI_agr,BFI_con,BFI_neu,BFI_open,UPPS_lps,UPPS_lpm,UPPS_pu,UPPS_ss,Task_A_measure,Task_ACC,Task_RT,Task_RT_z,cue_i_on_zyg_values,cue_i_on_zyg_zvalues,cue_e_on_zyg_values,cue_e_on_zyg_zvalues,cue_i_on_cor_values,cue_i_on_cor_zvalues,cue_e_on_cor_values,cue_e_on_cor_zvalues,cue_i_on_scr_values,cue_i_on_scr_zvalues,cue_e_on_scr_values,cue_e_on_scr_zvalues,cue_e_true_zyg_values,cue_e_true_zyg_zvalues,cue_e_true_cor_values,cue_e_true_cor_zvalues,cue_e_true_scr_values,cue_e_true_scr_zvalues,cue_e_false_zyg_values,cue_e_false_zyg_zvalues,cue_e_false_cor_values,cue_e_false_cor_zvalues,cue_e_false_scr_values,cue_e_false_scr_zvalues,OfflineRating_z,cue_i_off_zyg_values,cue_i_off_zyg_zvalues,cue_i_off_cor_values,cue_i_off_cor_zvalues,cue_i_off_scr_values,cue_i_off_scr_zvalues,DemandRating_z
0,240628_092458,PRACTICE,0.0,1,1.0,1068.0,,,,,,,,,,10.0,1.0,1.0,cue2.png,Easy,B,,,,,,,,,,,,,,,,,,,,,,,,,,,32,22,Female,0.2857142857142857,0.5,0.2,1.25,1.5,2.0,2.888888888888889,3.0,2.625,1.6666666666666667,2.25,2.25,2.75,1.25,,,,,,,,,,,,,,,,,,,,,,,,,,,,,,,,,,,,
0,240628_092754,LEARNING,1.0,1,1.0,1068.0,,,,,,,,,,1.0,1.0,1.0,cue2.png,Easy,B,,,,,,,,,,,,,,,,,,,,,,,,,,,32,22,Female,0.2857142857142857,0.5,0.2,1.25,1.5,2.0,2.888888888888889,3.0,2.625,1.6666666666666667,2.25,2.25,2.75,1.25,0.5833333333333334,0.75,0.5219969817818227,-0.6790942769953107,0.006891840457784186,-0.7107298310152806,0.010286812406608267,-0.20057382863661435,,,,,4.820312180649283e+45,-0.19209863548033795,,,,,,,,,,,,,,,,,,,,,,
1,240628_092817,LEARNING,1.0,2,3.0,1068.0,,,,,,,,,,2.0,2.0,2.0,cue1.png,Hard,B,,,,,,,,,,,,,,,,,,,,,,,,,,,32,22,Female,0.2857142857142857,0.5,0.2,1.25,1.5,2.0,2.888888888888889,3.0,2.625,1.6666666666666667,2.25,2.25,2.75,1.25,0.84375,0.875,0.560424890877171,-0.33858793946438054,0.007796304121611693,-0.46498989774226157,0.010622241652326959,-0.13693390976728148,0.015476692759956324,-1.2409670768316994,0.01563629625089225,-0.6111924865495949,3.834126225141861e+44,-0.1945567495302169,1.3088451149322025e+45,-0.17950025048532264,,,,,,,,,,,,,,,,,,,,
2,240628_092839,LEARNING,1.0,3,1.0,1068.0,,,,,,,,,,3.0,3.0,3.0,cue2.png,Easy,B,,,,,,,,,,,,,,,,,,,,,,,,,,,32,22,Female,0.2857142857142857,0.5,0.2,1.25,1.5,2.0,2.888888888888889,3.0,2.625,1.6666666666666667,2.25,2.25,2.75,1.25,0.84375,0.875,0.4880185091698711,-0.980174547464443,,,0.019545081163995646,1.5559679163391398,0.014502833456306763,-1.4097263877058706,0.01482797587623554,-0.6834755423895041,,,-4.9904246237633316e+45,-0.17994023708875742,,,,,,,,,,,,,,,,,,,,
3,240628_092904,LEARNING,1.0,4,3.0,1068.0,,,,,,,,,,4.0,4.0,4.0,cue1.png,Hard,B,,,,,,,,,,,,,,,,,,,,,,,,,,,32,22,Female,0.2857142857142857,0.5,0.2,1.25,1.5,2.0,2.888888888888889,3.0,2.625,1.6666666666666667,2.25,2.25,2.75,1.25,0.84375,0.875,0.7389859454494647,1.2436259292946776,,,0.011402553090139145,0.01111208571167735,0.02563970831667634,0.5201738757968378,0.014033584692132794,-0.754512997487202,-8.838324311226215e+44,-0.1952588237670052,-5.2540401271830946e+45,-0.17995864990401597,,,,,,,,,,,,,,,,,,,,
4,240628_092929,LEARNING,1.0,5,3.0,1068.0,,,,,,,,,,5.0,5.0,5.0,cue1.png,Hard,B,,,,,,,,,,,,,,,,,,,,,,,,,,,32,22,Female,0.2857142857142857,0.5,0.2,1.25,1.5,2.0,2.888888888888889,3.0,2.625,1.6666666666666667,2.25,2.25,2.75,1.25,0.5833333333333334,0.75,0.7687487727327441,1.5073517356519615,,,0.006037486780570003,-1.0067848002262711,0.018513780359255307,-0.714672561390461,0.01889816296230571,-0.3195040656761584,1.0642875047776089e+49,5.70155558551795,8.228465475679839e+49,5.567764335525076,,,,,,,,,,,,,,,,,,,,
5,240628_092951,LEARNING,1.0,6,1.0,1068.0,,,,,,,,,,6.0,6.0,6.0,cue2.png,Easy,B,,,,,,,,,,,,,,,,,,,,,,,,,,,32,22,Female,0.2857142857142857,0.5,0.2,1.25,1.5,2.0,2.888888888888889,3.0,2.625,1.6666666666666667,2.25,2.25,2.75,1.25,1.0,1.0,0.4728032636710189,-1.114995505497658,0.009382490726872712,-0.03402798503712366,0.020145271966226175,1.6698401992351395,0.01708628806321886,-0.9620415758410198,0.024831112313655184,0.2110426367264361,,,-5.381678074362626e+43,-0.1795954286573932,,,,,,,,,,,,,,,,,,,,
6,240628_093016,LEARNING,1.0,7,3.0,1068.0,,,,,,,,,,7.0,7.0,7.0,cue1.png,Hard,B,,,,,,,,,,,,,,,,,,,,,,,,,,,32,22,Female,0.2857142857142857,0.5,0.2,1.25,1.5,2.0,2.888888888888889,3.0,2.625,1.6666666666666667,2.25,2.25,2.75,1.25,0.84375,0.875,0.6564771272877062,0.5125225164975757,0.00866563408565783,-0.22879568021792382,0.007820538318682357,-0.6684921299429116,0.02094503290206603,-0.293362725207536,0.017277845364197842,-0.4643989750394905,,,,,,,,,,,,,,,,,,,,,,,,
7,240628_093040,LEARNING,1.0,8,3.0,1068.0,,,,,,,,,,8.0,8.0,8.0,cue1.png,Hard,B,,,,,,,,,,,,,,,,,,,,,,,,,,,32,22,Female,0.2857142857142857,0.5,0.2,1.25,1.5,2.0,2.888888888888889,3.0,2.625,1.6666666666666667,2.25,2.25,2.75,1.25,0.84375,0.875,0.6532984999304806,0.484356977823614,0.00809531102433611,-0.3837506625332686,0.012983085020596901,0.31098135802038146,0.020443915038299492,-0.38020104470508126,,,,,,,,,,,,,,,,,,,,,,,,,,
8,240628_093103,LEARNING,1.0,9,1.0,1068.0,,,,,,,,,,9.0,9.0,9.0,cue2.png,Easy,B,,,,,,,,,,,,,,,,,,,,,,,,,,,32,22,Female,0.2857142857142857,0.5,0.2,1.25,1.5,2.0,2.888888888888889,3.0,2.625,1.6666666666666667,2.25,2.25,2.75,1.25,0.84375,0.875,0.5562668090728535,-0.37543233822750555,0.009368735222570566,-0.03776531230026811,0.010209649226830798,-0.21521375214780453,0.0222235015425353,-0.07181790253007966,0.020838667243038893,-0.1459768558227761,1.3055263920300518e+48,0.5285135505175456,,,,,,,,,,,,,,,,,,,,,,
9,240628_093126,LEARNING,1.0,10,1.0,1068.0,,,,,,,,,,10.0,10.0,10.0,cue2.png,Easy,B,,,,,,,,,,,,,,,,,,,,,,,,,,,32,22,Female,0.2857142857142857,0.5,0.2,1.25,1.5,2.0,2.888888888888889,3.0,2.625,1.6666666666666667,2.25,2.25,2.75,1.25,1.0,1.0,0.5712039272554896,-0.24307584198889612,,,0.006958318158344705,-0.8320784055934536,0.019808764169778597,-0.4902658379159993,0.020646141349496563,-0.16319324718178255,3.5395139735322533e+44,-0.1945730715250121,2.266386334106616e+45,-0.17943336887425504,,,,,,,,,,,,,,,,,,,,
10,240628_093150,LEARNING,1.0,11,3.0,1068.0,,,,,,,,,,11.0,11.0,11.0,cue1.png,Hard,B,,,,,,,,,,,,,,,,,,,,,,,,,,,32,22,Female,0.2857142857142857,0.5,0.2,1.25,1.5,2.0,2.888888888888889,3.0,2.625,1.6666666666666667,2.25,2.25,2.75,1.25,0.84375,0.875,0.6995972818271681,0.8946064300295049,0.009657486727460174,0.04068756356627266,,,0.021148596539168653,-0.258087343037094,0.020548585037906367,-0.17191710042030148,,,1.3217755131250403e+45,-0.1794993473327005,,,,,,,,,,,,,,,,,,,,
11,240628_093214,LEARNING,1.0,12,1.0,1068.0,,,,,,,,,,12.0,12.0,12.0,cue2.png,Easy,B,,,,,,,,,,,,,,,,,,,,,,,,,,,32,22,Female,0.2857142857142857,0.5,0.2,1.25,1.5,2.0,2.888888888888889,3.0,2.625,1.6666666666666667,2.25,2.25,2.75,1.25,1.0,1.0,0.6090620181692595,0.09238138653154009,0.006162021844448711,-0.9090192532608498,0.008537779243900435,-0.5324123012659449,0.019185593492262898,-0.5982545932736041,0.020556283229700423,-0.17122869908246255,2.4555431431724803e+43,-0.19475556221275384,,,,,,,,,,,,,,,,,,,,,,
12,240628_093236,LEARNING,1.0,13,1.0,1068.0,,,,,,,,,,13.0,13.0,13.0,cue2.png,Easy,B,,,,,,,,,,,,,,,,,,,,,,,,,,,32,22,Female,0.2857142857142857,0.5,0.2,1.25,1.5,2.0,2.888888888888889,3.0,2.625,1.6666666666666667,2.25,2.25,2.75,1.25,1.0,1.0,0.4608623272400688,-1.2208030975970328,0.006698250738051515,-0.763327549101744,0.0061959717434197665,-0.9767159546902834,0.02405417017175119,0.24541722080618475,0.0223581471757949,-0.010099230724349637,,,,,,,,,,,,,,,,,,,,,,,,
13,240628_093300,LEARNING,1.0,14,1.0,1068.0,,,,,,,,,,14.0,14.0,14.0,cue2.png,Easy,B,,,,,,,,,,,,,,,,,,,,,,,,,,,32,22,Female,0.2857142857142857,0.5,0.2,1.25,1.5,2.0,2.888888888888889,3.0,2.625,1.6666666666666667,2.25,2.25,2.75,1.25,0.5833333333333334,0.75,0.6602707000195303,0.5461370322877926,0.0058542817488848155,-0.9926312695018102,0.008089171273202833,-0.6175252579437727,0.025293450857618027,0.4601711937289675,0.02673404930374094,0.3812104377949351,,,,,,,,,,,,,,,,,,,,,,,,
14,240628_093324,LEARNING,1.0,15,3.0,1068.0,,,,,,,,,,15.0,15.0,15.0,cue1.png,Hard,B,,,,,,,,,,,,,,,,,,,,,,,,,,,32,22,Female,0.2857142857142857,0.5,0.2,1.25,1.5,2.0,2.888888888888889,3.0,2.625,1.6666666666666667,2.25,2.25,2.75,1.25,0.84375,0.875,0.6935281636913053,0.8408285056736013,,,0.02251960532808744,2.120314880397329,,,0.020095938652612874,-0.21239444698947346,,,,,,,,,,,,,,,,,,,,,,,,
15,240628_093348,LEARNING,1.0,16,1.0,1068.0,,,,,,,,,,16.0,16.0,16.0,cue2.png,Easy,B,,,,,,,,,,,,,,,,,,,,,,,,,,,32,22,Female,0.2857142857142857,0.5,0.2,1.25,1.5,2.0,2.888888888888889,3.0,2.625,1.6666666666666667,2.25,2.25,2.75,1.25,1.0,1.0,0.593424827220257,-0.04617839318754968,0.006430251899529702,-0.836141990775276,0.011719242160558117,0.07119649100879329,,,,,,,,,,,,,,,,,,,,,,,,,,,,
16,240628_093409,LEARNING,1.0,17,1.0,1068.0,,,,,,,,,,17.0,17.0,17.0,cue2.png,Easy,B,,,,,,,,,,,,,,,,,,,,,,,,,,,32,22,Female,0.2857142857142857,0.5,0.2,1.25,1.5,2.0,2.888888888888889,3.0,2.625,1.6666666666666667,2.25,2.25,2.75,1.25,1.0,1.0,0.438263309082355,-1.4210510185959306,0.008080812992755801,-0.3876897321229286,0.008060331650049643,-0.622996907482735,,,0.01993674894700602,-0.22662979072234155,,,,,,,,,,,,,,,,,,,,,,,,
17,240628_093434,LEARNING,1.0,18,3.0,1068.0,,,,,,,,,,18.0,18.0,18.0,cue1.png,Hard,B,,,,,,,,,,,,,,,,,,,,,,,,,,,32,22,Female,0.2857142857142857,0.5,0.2,1.25,1.5,2.0,2.888888888888889,3.0,2.625,1.6666666666666667,2.25,2.25,2.75,1.25,1.0,1.0,0.6709286454768683,0.6405761537158665,0.01139133923335241,0.5117698371206845,0.008687307835401323,-0.5040427194443803,,,0.019751220767295845,-0.24322042012415845,,,,,,,,,,,,,,,,,,,,,,,,
18,240628_093458,LEARNING,1.0,19,3.0,1068.0,,,,,,,,,,19.0,19.0,19.0,cue1.png,Hard,B,,,,,,,,,,,,,,,,,,,,,,,,,,,32,22,Female,0.2857142857142857,0.5,0.2,1.25,1.5,2.0,2.888888888888889,3.0,2.625,1.6666666666666667,2.25,2.25,2.75,1.25,0.84375,0.875,0.6893710636703129,0.8039928064065485,0.011950440260853453,0.6636758281359137,0.012843834578312186,0.2845618166040376,0.03191694277794607,1.6079508862023157,0.02207897903795316,-0.035063498270999124,,,,,,,,,,,,,,,,,,,,,,,,
19,240628_093523,LEARNING,1.0,20,3.0,1068.0,,,,,,,,,,20.0,20.0,20.0,cue1.png,Hard,B,,,,,,,,,,,,,,,,,,,,,,,,,,,32,22,Female,0.2857142857142857,0.5,0.2,1.25,1.5,2.0,2.888888888888889,3.0,2.625,1.6666666666666667,2.25,2.25,2.75,1.25,0.84375,0.7840909090909091,0.6395071699749678,0.3621532107339095,0.006401289644703659,-0.8440109443364059,,,0.021115529564759254,-0.26381749296030305,0.010463607050950613,-1.073753859496144,9.947946680103708e+43,-0.1947140530864818,5.6519017168581e+44,-0.17955219273040487,,,,,,,,,,,,,,,,,,,,
20,240628_093546,LEARNING,1.0,21,1.0,1068.0,,,,,,,,,,21.0,21.0,21.0,cue2.png,Easy,B,,,,,,,,,,,,,,,,,,,,,,,,,,,32,22,Female,0.2857142857142857,0.5,0.2,1.25,1.5,2.0,2.888888888888889,3.0,2.625,1.6666666666666667,2.25,2.25,2.75,1.25,1.0,1.0,0.5550022182181816,-0.3866377670560952,,,0.007164792986888097,-0.7929045961991447,0.026202336633588272,0.6176712932210282,0.024446040010275165,0.17660801936393125,3.7838902121395904e+43,-0.1947482029553477,1.865302142993741e+44,-0.17957864108321694,,,,,,,,,,,,,,,,,,,,
21,240628_093612,LEARNING,1.0,22,3.0,1068.0,,,,,,,,,,22.0,22.0,22.0,cue1.png,Hard,B,,,,,,,,,,,,,,,,,,,,,,,,,,,32,22,Female,0.2857142857142857,0.5,0.2,1.25,1.5,2.0,2.888888888888889,3.0,2.625,1.6666666666666667,2.25,2.25,2.75,1.25,1.0,1.0,0.7799890727566724,1.6069510499003643,,,,,0.027079574756896856,0.7696871959364582,0.02096001929369689,-0.13512509787008964,-2.1130854282621692e+43,-0.19478087315327205,-1.6077913585901096e+44,-0.17960289968265086,,,,,,,,,,,,,,,,,,,,
22,240628_093637,LEARNING,1.0,23,3.0,1068.0,,,,,,,,,,23.0,23.0,23.0,cue1.png,Hard,B,,,,,,,,,,,,,,,,,,,,,,,,,,,32,22,Female,0.2857142857142857,0.5,0.2,1.25,1.5,2.0,2.888888888888889,3.0,2.625,1.6666666666666667,2.25,2.25,2.75,1.25,0.84375,0.875,0.8181651091330092,1.9452255653235204,0.006986973893831152,-0.6848823755992355,0.006351493186349661,-0.9472093683182635,0.02259332107992789,-0.007732166485567536,,,-7.689623729501532e+43,-0.1948117680765588,-4.4864694749055615e+44,-0.1796230064546946,,,,,,,,,,,,,,,,,,,,
23,240628_093703,LEARNING,1.0,24,3.0,1068.0,,,,,,,,,,24.0,24.0,24.0,cue1.png,Hard,B,,,,,,,,,,,,,,,,,,,,,,,,,,,32,22,Female,0.2857142857142857,0.5,0.2,1.25,1.5,2.0,2.888888888888889,3.0,2.625,1.6666666666666667,2.25,2.25,2.75,1.25,1.0,1.0,0.7743874000258405,1.5573151183463014,0.009141612582296024,-0.0994738194498732,0.020760394044091496,1.7865453453419122,,,,,-1.0240004980704922e+44,-0.19482589760079977,,,,,,,,,,,,,,,,,,,,,,
24,240628_093725,LEARNING,1.0,25,1.0,1068.0,,,,,,,,,,25.0,25.0,25.0,cue2.png,Easy,B,,,,,,,,,,,,,,,,,,,,,,,,,,,32,22,Female,0.2857142857142857,0.5,0.2,1.25,1.5,2.0,2.888888888888889,3.0,2.625,1.6666666666666667,2.25,2.25,2.75,1.25,1.0,1.0,0.5091741363602605,-0.792716387435609,0.007238370647945235,-0.6165786680521402,,,0.026222889597032426,0.6212329000509463,0.022494316450510657,0.0020775392749703284,-9.421163282575303e+43,-0.19482136108547768,-5.811774339679453e+44,-0.17963226334335244,,,,,,,,,,,,,,,,,,,,
25,240628_093747,LEARNING,1.0,26,1.0,1068.0,,,,,,,,,,26.0,26.0,26.0,cue2.png,Easy,B,,,,,,,,,,,,,,,,,,,,,,,,,,,32,22,Female,0.2857142857142857,0.5,0.2,1.25,1.5,2.0,2.888888888888889,3.0,2.625,1.6666666666666667,2.25,2.25,2.75,1.25,0.84375,0.875,0.4900455000302331,-0.9622135589454478,0.00718027081998771,-0.6323642086066791,0.008171709582944537,-0.6018655282016048,0.02237389384553429,-0.04575653892265042,0.02989853883642604,0.664191024165815,-6.495791095597143e+43,-0.19480515405085874,-4.049742586236682e+44,-0.17961995603792655,,,,,,,,,,,,,,,,,,,,
26,240628_093813,LEARNING,1.0,27,3.0,1068.0,,,,,,,,,,27.0,27.0,27.0,cue1.png,Hard,B,,,,,,,,,,,,,,,,,,,,,,,,,,,32,22,Female,0.2857142857142857,0.5,0.2,1.25,1.5,2.0,2.888888888888889,3.0,2.625,1.6666666666666667,2.25,2.25,2.75,1.25,0.84375,0.875,0.762127181832594,1.448678398509317,0.008341233880200517,-0.3169341959273146,0.0064342674350955625,-0.9315048746228123,0.02489165466482932,0.3905442482833777,,,1.1512100686392403e+44,-0.1947053874205395,9.287602663642762e+44,-0.1795267983628506,,,,,,,,,,,,,,,,,,,,
27,240628_093835,LEARNING,1.0,28,1.0,1068.0,,,,,,,,,,28.0,28.0,28.0,cue2.png,Easy,B,,,,,,,,,,,,,,,,,,,,,,,,,,,32,22,Female,0.2857142857142857,0.5,0.2,1.25,1.5,2.0,2.888888888888889,3.0,2.625,1.6666666666666667,2.25,2.25,2.75,1.25,1.0,1.0,0.4711163363800468,-1.1299432205061597,0.0158683456740129,1.7281584085919246,0.008488411773043233,-0.5417786337495808,0.02099611592667574,-0.28451058815016367,,,2.90892079849936e+43,-0.19475305042728325,,,,,,,,,,,,,,,,,,,,,,
28,240628_093857,LEARNING,1.0,29,1.0,1068.0,,,,,,,,,,29.0,29.0,29.0,cue2.png,Easy,B,,,,,,,,,,,,,,,,,,,,,,,,,,,32,22,Female,0.2857142857142857,0.5,0.2,1.25,1.5,2.0,2.888888888888889,3.0,2.625,1.6666666666666667,2.25,2.25,2.75,1.25,1.0,1.0,0.4839222908909009,-1.0164707789465832,0.005991741074540372,-0.9552840029776872,0.0073688723703494614,-0.7541852669451988,0.02079637910204877,-0.31912282500401223,0.020680938900235386,-0.1600815189834001,6.137581208240036e+43,-0.1947351631269027,,,,,,,,,,,,,,,,,,,,,,
29,240628_093922,LEARNING,1.0,30,3.0,1068.0,,,,,,,,,,30.0,30.0,30.0,cue1.png,Hard,B,,,,,,,,,,,,,,,,,,,,,,,,,,,32,22,Female,0.2857142857142857,0.5,0.2,1.25,1.5,2.0,2.888888888888889,3.0,2.625,1.6666666666666667,2.25,2.25,2.75,1.25,1.0,0.9090909090909092,0.6279739500256255,0.2599583586761222,0.010728705733515968,0.3317343989415679,0.010527670831828376,-0.15487652932342907,0.018173478298698482,-0.7736432371476397,0.02596964703285061,0.3128547043960521,8.563061716845354e+43,-0.1947217255729581,5.197591515973942e+44,-0.17955536596175525,,,,,,,,,,,,,,,,,,,,
30,240628_093945,LEARNING,1.0,31,3.0,1068.0,,,,,,,,,,31.0,31.0,31.0,cue1.png,Hard,B,,,,,,,,,,,,,,,,,,,,,,,,,,,32,22,Female,0.2857142857142857,0.5,0.2,1.25,1.5,2.0,2.888888888888889,3.0,2.625,1.6666666666666667,2.25,2.25,2.75,1.25,0.84375,0.875,0.6171974090816961,0.16446837302624662,0.007267469459012306,-0.6086726125897397,0.008009791261822862,-0.6325857738306452,,,,,,,5.181694167545847e+44,-0.1795554770003459,,,,,,,,,,,,,,,,,,,,
31,240628_094008,LEARNING,1.0,32,1.0,1068.0,,,,,,,,,,32.0,32.0,32.0,cue2.png,Easy,B,,,,,,,,,,,,,,,,,,,,,,,,,,,32,22,Female,0.2857142857142857,0.5,0.2,1.25,1.5,2.0,2.888888888888889,3.0,2.625,1.6666666666666667,2.25,2.25,2.75,1.25,1.0,1.0,0.509647527243942,-0.7885217122680647,,,0.015267335242918838,0.7443648529936788,,,,,6.214232290232e+43,-0.19473473846752262,3.5388251916252457e+44,-0.1795669519866632,,,,,,,,,,,,,,,,,,,,
32,240628_094030,LEARNING,1.0,33,1.0,1068.0,,,,,,,,,,33.0,33.0,33.0,cue2.png,Easy,B,,,,,,,,,,,,,,,,,,,,,,,,,,,32,22,Female,0.2857142857142857,0.5,0.2,1.25,1.5,2.0,2.888888888888889,3.0,2.625,1.6666666666666667,2.25,2.25,2.75,1.25,1.0,1.0,0.4635948272718286,-1.1965906540886166,0.006871164798731377,-0.7163473425629663,0.0068734789184771465,-0.8481746834553885,,,0.01595347199878189,-0.5828294351969568,2.2755570098947866e+43,-0.19475655936501568,,,,,,,,,,,,,,,,,,,,,,
33,240628_094053,LEARNING,1.0,34,1.0,1068.0,,,,,,,,,,34.0,34.0,34.0,cue2.png,Easy,B,,,,,,,,,,,,,,,,,,,,,,,,,,,32,22,Female,0.2857142857142857,0.5,0.2,1.25,1.5,2.0,2.888888888888889,3.0,2.625,1.6666666666666667,2.25,2.25,2.75,1.25,0.84375,0.7840909090909091,0.4534620600286871,-1.2863762173482411,0.0079640493776217,-0.41941403917838876,0.018892012032059424,1.4320631969297233,0.023919756291000606,0.22212474539173402,0.02055099406075194,-0.17170167651373444,-2.1396136268222285e+43,-0.19478102012377868,-1.0778632013913506e+44,-0.17959919828074838,,,,,,,,,,,,,,,,,,,,
34,240628_094117,LEARNING,1.0,35,3.0,1068.0,,,,,,,,,,35.0,35.0,35.0,cue1.png,Hard,B,,,,,,,,,,,,,,,,,,,,,,,,,,,32,22,Female,0.2857142857142857,0.5,0.2,1.25,1.5,2.0,2.888888888888889,3.0,2.625,1.6666666666666667,2.25,2.25,2.75,1.25,1.0,1.0,0.6723326817789878,0.653017196443665,0.008774027801932288,-0.19934544836252904,0.0074745825912403835,-0.7341292045504503,0.027748348651924465,0.8855784969001007,0.014575638410917894,-0.7060405100284838,-5.444689018405187e+43,-0.19479933077550635,-3.436525746133724e+44,-0.17961567288756408,,,,,,,,,,,,,,,,,,,,
35,240628_094142,LEARNING,1.0,36,3.0,1068.0,,,,,,,,,,36.0,36.0,36.0,cue1.png,Hard,B,,,,,,,,,,,,,,,,,,,,,,,,,,,32,22,Female,0.2857142857142857,0.5,0.2,1.25,1.5,2.0,2.888888888888889,3.0,2.625,1.6666666666666667,2.25,2.25,2.75,1.25,0.84375,0.875,0.7843122636391358,1.6452584657470648,0.013529097695562218,1.0925920888783378,,,0.030280216034690714,1.3243237993675065,0.0348868306581253,1.110262888241717,-7.588416276878974e+43,-0.19481120737091745,-4.617442302506754e+44,-0.17962392126374307,,,,,,,,,,,,,,,,,,,,
36,240628_094205,LEARNING,1.0,37,1.0,1068.0,,,,,,,,,,37.0,37.0,37.0,cue2.png,Easy,B,,,,,,,,,,,,,,,,,,,,,,,,,,,32,22,Female,0.2857142857142857,0.5,0.2,1.25,1.5,2.0,2.888888888888889,3.0,2.625,1.6666666666666667,2.25,2.25,2.75,1.25,1.0,1.0,0.5352933182042431,-0.5612766042579324,0.008746960071857377,-0.20669966550632488,,,,,0.01962854551422991,-0.25419050382556946,-7.518121592990758e+43,-0.19481081792700997,-4.590440216769875e+44,-0.17962373266162757,,,,,,,,,,,,,,,,,,,,
37,240628_094229,LEARNING,1.0,38,3.0,1068.0,,,,,,,,,,38.0,38.0,38.0,cue1.png,Hard,B,,,,,,,,,,,,,,,,,,,,,,,,,,,32,22,Female,0.2857142857142857,0.5,0.2,1.25,1.5,2.0,2.888888888888889,3.0,2.625,1.6666666666666667,2.25,2.25,2.75,1.25,0.84375,0.875,0.6555367818483236,0.50419019790112,,,,,0.016400638420019535,-1.0808572618993797,0.020525020522399937,-0.1740243282517353,-4.940007382429346e+43,-0.19479653475769287,-2.8250073196243335e+44,-0.17961140160015174,,,,,,,,,,,,,,,,,,,,
38,240628_094253,LEARNING,1.0,39,3.0,1068.0,,,,,,,,,,39.0,39.0,39.0,cue1.png,Hard,B,,,,,,,,,,,,,,,,,,,,,,,,,,,32,22,Female,0.2857142857142857,0.5,0.2,1.25,1.5,2.0,2.888888888888889,3.0,2.625,1.6666666666666667,2.25,2.25,2.75,1.25,0.84375,0.875,0.6400819999927824,0.36724672918642837,,,,,0.01925947770253799,-0.5854512567302448,0.014968454205916217,-0.6709134404470434,-9.013241561809267e+42,-0.19477415980001947,-2.714541494772476e+43,-0.17959356573611307,,,,,,,,,,,,,,,,,,,,
39,240628_094316,LEARNING,1.0,40,3.0,1068.0,,,,,,,,,,40.0,40.0,40.0,cue1.png,Hard,B,,,,,,,,,,,,,,,,,,,,,,,,,,,32,22,Female,0.2857142857142857,0.5,0.2,1.25,1.5,2.0,2.888888888888889,3.0,2.625,1.6666666666666667,2.25,2.25,2.75,1.25,1.0,1.0,0.5794200272595679,-0.17027369930049252,0.0073003324126443185,-0.5997438514292192,0.007358334274812388,-0.7561846261351816,0.016012904111104835,-1.1480474345757645,,,3.815712490223843e+43,-0.19474802665478505,2.458178381646398e+44,-0.17957450000634098,,,,,,,,,,,,,,,,,,,,
40,240628_094338,LEARNING,1.0,41,1.0,1068.0,,,,,,,,,,41.0,41.0,41.0,cue2.png,Easy,B,,,,,,,,,,,,,,,,,,,,,,,,,,,32,22,Female,0.2857142857142857,0.5,0.2,1.25,1.5,2.0,2.888888888888889,3.0,2.625,1.6666666666666667,2.25,2.25,2.75,1.25,0.84375,0.875,0.4439931545745242,-1.370279359427183,,,,,0.023973529386568545,0.2314430427244274,0.02364263236177561,0.10476427802143848,7.10377478273742e+43,-0.19472981025837535,4.2670382480301175e+44,-0.17956186561947213,,,,,,,,,,,,,,,,,,,,
41,240628_094402,LEARNING,1.0,42,3.0,1068.0,,,,,,,,,,42.0,42.0,42.0,cue1.png,Hard,B,,,,,,,,,,,,,,,,,,,,,,,,,,,32,22,Female,0.2857142857142857,0.5,0.2,1.25,1.5,2.0,2.888888888888889,3.0,2.625,1.6666666666666667,2.25,2.25,2.75,1.25,0.84375,0.875,0.6705325909001245,0.6370667487920972,0.023848373934355096,3.896306992819945,,,0.019857586724109425,-0.48180541597094984,0.018024188708571674,-0.39765813894460705,,,,,,,,,,,,,,,,,,,,,,,,
42,240628_094426,LEARNING,1.0,43,3.0,1068.0,,,,,,,,,,43.0,43.0,43.0,cue1.png,Hard,B,,,,,,,,,,,,,,,,,,,,,,,,,,,32,22,Female,0.2857142857142857,0.5,0.2,1.25,1.5,2.0,2.888888888888889,3.0,2.625,1.6666666666666667,2.25,2.25,2.75,1.25,0.84375,0.875,0.6635746182027188,0.5754127619994452,0.010882365240114177,0.37348320368449683,0.011292171720421885,-0.00983021882244637,,,0.020945433030383778,-0.1364294565360518,5.633164596529773e+43,-0.1947379576764389,3.4513874254308513e+44,-0.17956756271532467,,,,,,,,,,,,,,,,,,,,
43,240628_094448,LEARNING,1.0,44,1.0,1068.0,,,,,,,,,,44.0,44.0,44.0,cue2.png,Easy,B,,,,,,,,,,,,,,,,,,,,,,,,,,,32,22,Female,0.2857142857142857,0.5,0.2,1.25,1.5,2.0,2.888888888888889,3.0,2.625,1.6666666666666667,2.25,2.25,2.75,1.25,0.84375,0.875,0.4532824726986952,-1.2879675249536269,,,,,0.02105963027794727,-0.27350423629724707,0.02026252174121349,-0.19749795907103324,5.91052968897438e+42,-0.1947658917895973,5.139638833571588e+43,-0.17958807980795188,,,,,,,,,,,,,,,,,,,,
44,240628_094511,LEARNING,1.0,45,1.0,1068.0,,,,,,,,,,45.0,45.0,45.0,cue2.png,Easy,B,,,,,,,,,,,,,,,,,,,,,,,,,,,32,22,Female,0.2857142857142857,0.5,0.2,1.25,1.5,2.0,2.888888888888889,3.0,2.625,1.6666666666666667,2.25,2.25,2.75,1.25,1.0,1.0,0.5103044454431669,-0.7827008176281699,0.019967011207627276,2.8417529453547714,,,,,0.019370688173841077,-0.277249079507238,,,-2.7646380862105538e+44,-0.17961097993772002,,,,,,,,,,,,,,,,,,,,
45,240628_094532,LEARNING,1.0,46,1.0,1068.0,,,,,,,,,,46.0,46.0,46.0,cue2.png,Easy,B,,,,,,,,,,,,,,,,,,,,,,,,,,,32,22,Female,0.2857142857142857,0.5,0.2,1.25,1.5,2.0,2.888888888888889,3.0,2.625,1.6666666666666667,2.25,2.25,2.75,1.25,1.0,1.0,0.4436632182279771,-1.3732028965028622,0.010012819091833734,0.13723024958351418,,,0.048147609020345844,4.420550242014092,0.08667801406845908,5.741625798095422,-8.581933539420879e+43,-0.19481671161709171,-5.210716443332725e+44,-0.17962806511985588,,,,,,,,,,,,,,,,,,,,
46,240628_094556,LEARNING,1.0,47,3.0,1068.0,,,,,,,,,,47.0,47.0,47.0,cue1.png,Hard,B,,,,,,,,,,,,,,,,,,,,,,,,,,,32,22,Female,0.2857142857142857,0.5,0.2,1.25,1.5,2.0,2.888888888888889,3.0,2.625,1.6666666666666667,2.25,2.25,2.75,1.25,0.84375,0.875,0.6465949272652242,0.424957207439145,0.0117544732850203,0.6104322170425017,0.026179741054710267,2.814740735226848,0.023376652333571904,0.12801068882809286,0.02263314736432768,0.014492323078982773,-5.014504699618176e+43,-0.19479694748486792,-3.4047051098897086e+44,-0.17961545062920334,,,,,,,,,,,,,,,,,,,,
47,240628_094623,LEARNING,1.0,48,3.0,1068.0,,,,,,,,,,48.0,48.0,48.0,cue1.png,Hard,B,,,,,,,,,,,,,,,,,,,,,,,,,,,32,22,Female,0.2857142857142857,0.5,0.2,1.25,1.5,2.0,2.888888888888889,3.0,2.625,1.6666666666666667,2.25,2.25,2.75,1.25,0.84375,0.7840909090909091,0.8274937500245869,2.0278858353957454,0.009050571322314835,-0.12420944349716029,0.019271689385396883,1.5040981678552545,0.01989595912189872,-0.47515589341338593,0.024244538116914516,0.15858896025531852,3.71484496200602e+43,-0.1947485854771903,1.7600480837480524e+44,-0.17957937625376758,,,,,,,,,,,,,,,,,,,,
48,240628_094645,LEARNING,1.0,49,1.0,1068.0,,,,,,,,,,49.0,49.0,49.0,cue2.png,Easy,B,,,,,,,,,,,,,,,,,,,,,,,,,,,32,22,Female,0.2857142857142857,0.5,0.2,1.25,1.5,2.0,2.888888888888889,3.0,2.625,1.6666666666666667,2.25,2.25,2.75,1.25,1.0,1.0,0.4964935363016345,-0.9050780741707307,0.008863456831150009,-0.17504786234383335,0.007475616875031286,-0.7339329731920311,0.020987068363401258,-0.28607843325629956,0.021846592690215473,-0.05584436174618946,,,,,,,,,,,,,,,,,,,,,,,,
49,240628_094707,LEARNING,1.0,50,1.0,1068.0,,,,,,,,,,50.0,50.0,50.0,cue2.png,Easy,B,,,,,,,,,,,,,,,,,,,,,,,,,,,32,22,Female,0.2857142857142857,0.5,0.2,1.25,1.5,2.0,2.888888888888889,3.0,2.625,1.6666666666666667,2.25,2.25,2.75,1.25,1.0,1.0,0.4500598999967968,-1.3165224594786338,0.01215794388503876,0.7200539103083025,0.01370076875159908,0.44714519882370485,,,0.026143799933862604,0.3284281134838515,-4.727497368830185e+43,-0.19479535741787862,-5.50606087489686e+44,-0.1796301280191867,,,,,,,,,,,,,,,,,,,,
0,240628_094828,TrueCHOICE,9.0,1,1.0,1068.0,,,,,,,,,,,1.0,1.0,,,B,,,,,,True,cue2.png,Easy,cue1.png,Hard,Left,Easy,Easy,0.0157991999294608,,,,,,,,,,,,,32,22,Female,0.2857142857142857,0.5,0.2,1.25,1.5,2.0,2.888888888888889,3.0,2.625,1.6666666666666667,2.25,2.25,2.75,1.25,0.84375,0.875,0.5341712636238133,1.2011377499696825,,,,,,,,,,,,,0.013508382835958496,0.6819102411696227,0.020792160995584417,-0.33740979168620644,82250358.9187715,0.15607252110370676,,,,,,,,,,,,,,
1,240628_094847,TrueCHOICE,9.0,2,1.0,1068.0,,,,,,,,,,,2.0,2.0,,,B,,,,,,True,cue2.png,Easy,cue1.png,Hard,Left,Easy,Easy,0.0161524000577628,,,,,,,,,,,,,32,22,Female,0.2857142857142857,0.5,0.2,1.25,1.5,2.0,2.888888888888889,3.0,2.625,1.6666666666666667,2.25,2.25,2.75,1.25,1.0,1.0,0.382265045476908,-1.7324671486995211,,,,,,,,,,,,,0.015127179613703677,1.3889340451262187,0.022922933891853188,-0.0628104232073562,22635590.728252765,-0.4382946554275899,,,,,,,,,,,,,,
2,240628_094913,TrueCHOICE,9.0,3,1.0,1068.0,,,,,,,,,,,4.0,3.0,,,B,,,,,,True,cue1.png,Hard,cue2.png,Easy,Right,Easy,Easy,0.0160988999996334,,,,,,,,,,,,,32,22,Female,0.2857142857142857,0.5,0.2,1.25,1.5,2.0,2.888888888888889,3.0,2.625,1.6666666666666667,2.25,2.25,2.75,1.25,1.0,1.0,0.5191276182039556,0.9106156605127661,,,,,,,,,,,,,,,,,12664485.125103766,-0.5377079059379162,,,,,,,,,,,,,,
3,240628_094934,TrueCHOICE,9.0,4,3.0,1068.0,,,,,,,,,,,5.0,4.0,,,B,,,,,,True,cue2.png,Easy,cue1.png,Hard,Right,Hard,Hard,0.0165974998380988,,,,,,,,,,,,,32,22,Female,0.2857142857142857,0.5,0.2,1.25,1.5,2.0,2.888888888888889,3.0,2.625,1.6666666666666667,2.25,2.25,2.75,1.25,0.84375,0.875,0.5487494363280182,1.4826706548132653,,,,,,,,,,,,,,,0.016352412840169972,-0.9095740245881845,282005764.3502977,2.147660510572454,,,,,,,,,,,,,,
4,240628_094954,TrueCHOICE,9.0,5,1.0,1068.0,,,,,,,,,,,6.0,5.0,,,B,,,,,,True,cue1.png,Hard,cue2.png,Easy,Right,Easy,Easy,0.0164397999178618,,,,,,,,,,,,,32,22,Female,0.2857142857142857,0.5,0.2,1.25,1.5,2.0,2.888888888888889,3.0,2.625,1.6666666666666667,2.25,2.25,2.75,1.25,1.0,1.0,0.5013936272695322,0.5681377599184143,,,,,,,,,,,,,0.00949839222422612,-1.069488609578245,0.01845572726698662,-0.6385133149613182,,,,,,,,,,,,,,,,
5,240628_095013,TrueCHOICE,9.0,6,1.0,1068.0,,,,,,,,,,,7.0,6.0,,,B,,,,,,True,cue1.png,Hard,cue2.png,Easy,Right,Easy,Easy,0.0167051998432725,,,,,,,,,,,,,32,22,Female,0.2857142857142857,0.5,0.2,1.25,1.5,2.0,2.888888888888889,3.0,2.625,1.6666666666666667,2.25,2.25,2.75,1.25,1.0,1.0,0.4201411818238822,-1.001005194833415,,,,,,,,,,,,,0.013901049955323284,0.8534110769994756,,,,,,,,,,,,,,,,,,
6,240628_095033,TrueCHOICE,9.0,7,1.0,1068.0,,,,,,,,,,,8.0,7.0,,,B,,,,,,True,cue2.png,Easy,cue1.png,Hard,Left,Easy,Easy,0.0162776000797748,,,,,,,,,,,,,32,22,Female,0.2857142857142857,0.5,0.2,1.25,1.5,2.0,2.888888888888889,3.0,2.625,1.6666666666666667,2.25,2.25,2.75,1.25,0.84375,0.875,0.4181211726867001,-1.0400155050924929,,,,,,,,,,,,,,,0.04157879943156173,2.341429326885711,-1621184.5516486422,-0.6801379347437735,,,,,,,,,,,,,,
7,240628_095053,TrueCHOICE,9.0,8,1.0,1068.0,,,,,,,,,,,9.0,8.0,,,B,,,,,,True,cue1.png,Hard,cue2.png,Easy,Right,Easy,Easy,0.0164965998847037,,,,,,,,,,,,,32,22,Female,0.2857142857142857,0.5,0.2,1.25,1.5,2.0,2.888888888888889,3.0,2.625,1.6666666666666667,2.25,2.25,2.75,1.25,1.0,1.0,0.4628314000173387,-0.17657394543934657,,,,,,,,,,,,,,,0.023509246289828895,0.012749489581745203,,,,,,,,,,,,,,,,
8,240628_095113,TrueCHOICE,9.0,9,1.0,1068.0,,,,,,,,,,,10.0,9.0,,,B,,,,,,True,cue2.png,Easy,cue1.png,Hard,Left,Easy,Easy,0.0160999000072479,,,,,,,,,,,,,32,22,Female,0.2857142857142857,0.5,0.2,1.25,1.5,2.0,2.888888888888889,3.0,2.625,1.6666666666666667,2.25,2.25,2.75,1.25,0.84375,0.875,0.4760287454859777,0.0782924964253829,,,,,,,,,,,,,0.01001300678130382,-0.8447261522280933,,,,,,,,,,,,,,,,,,
9,240628_095133,TrueCHOICE,9.0,10,1.0,1068.0,,,,,,,,,,,11.0,10.0,,,B,,,,,,True,cue1.png,Hard,cue2.png,Easy,Right,Easy,Easy,0.0163714999798685,,,,,,,,,,,,,32,22,Female,0.2857142857142857,0.5,0.2,1.25,1.5,2.0,2.888888888888889,3.0,2.625,1.6666666666666667,2.25,2.25,2.75,1.25,1.0,1.0,0.456917000003159,-0.2907925275747234,,,,,,,,,,,,,0.009634503969544647,-1.0100406014889771,0.02026092945545598,-0.405871262024393,1643104.7701829055,-0.647592535566882,,,,,,,,,,,,,,
0,240628_095254,FalseCHOICE,9.0,1,2.0,1068.0,,,,,,,,,,,1.0,1.0,,,B,,,,,,False,cue2.png,Easy,cue1.png,Hard,Right,Hard,Mid,0.016542499884963,,,,,,,,,,,,,32,22,Female,0.2857142857142857,0.5,0.2,1.25,1.5,2.0,2.888888888888889,3.0,2.625,1.6666666666666667,2.25,2.25,2.75,1.25,0.5833333333333334,0.75,0.6197611636651511,0.24030832083679593,,,,,,,,,,,,,,,,,,,0.009664760007728191,-0.44078331803799803,0.018512595996878548,-0.4012838473938467,,,,,,,,,,
1,240628_095316,FalseCHOICE,9.0,2,2.0,1068.0,,,,,,,,,,,2.0,2.0,,,B,,,,,,False,cue1.png,Hard,cue2.png,Easy,Left,Hard,Mid,0.0162496999837458,,,,,,,,,,,,,32,22,Female,0.2857142857142857,0.5,0.2,1.25,1.5,2.0,2.888888888888889,3.0,2.625,1.6666666666666667,2.25,2.25,2.75,1.25,0.5833333333333334,0.75,0.601393736390905,0.04889351122900823,,,,,,,,,,,,,,,,,,,0.008796791530679157,-0.5389246929700183,,,1.7066207914664863e+44,-0.1714021480705428,,,,,,,,
2,240628_095338,FalseCHOICE,9.0,3,2.0,1068.0,,,,,,,,,,,3.0,3.0,,,B,,,,,,False,cue1.png,Hard,cue2.png,Easy,Right,Easy,Mid,0.0165853998623788,,,,,,,,,,,,,32,22,Female,0.2857142857142857,0.5,0.2,1.25,1.5,2.0,2.888888888888889,3.0,2.625,1.6666666666666667,2.25,2.25,2.75,1.25,0.5833333333333334,0.6590909090909091,0.514384280028753,-0.8578692201520541,,,,,,,,,,,,,,,,,,,0.013195001027719937,-0.041618236926607724,0.021830878685879983,-0.06698656058058412,-1.8527095163770856e+45,-0.1722039098701152,,,,,,,,
3,240628_095358,FalseCHOICE,9.0,4,2.0,1068.0,,,,,,,,,,,4.0,4.0,,,B,,,,,,False,cue1.png,Hard,cue2.png,Easy,Right,Easy,Mid,0.0164902000688016,,,,,,,,,,,,,32,22,Female,0.2857142857142857,0.5,0.2,1.25,1.5,2.0,2.888888888888889,3.0,2.625,1.6666666666666667,2.25,2.25,2.75,1.25,0.84375,0.875,0.5198696090585806,-0.8007042619789116,,,,,,,,,,,,,,,,,,,0.014718439553042084,0.13063727171564737,0.02498935636601044,0.25121132003627245,-2.1371610319269988e+45,-0.17231662389629948,,,,,,,,
4,240628_095419,FalseCHOICE,9.0,5,2.0,1068.0,,,,,,,,,,,5.0,5.0,,,B,,,,,,False,cue2.png,Easy,cue1.png,Hard,Left,Easy,Mid,0.0177462000865489,,,,,,,,,,,,,32,22,Female,0.2857142857142857,0.5,0.2,1.25,1.5,2.0,2.888888888888889,3.0,2.625,1.6666666666666667,2.25,2.25,2.75,1.25,0.84375,0.875,0.5055411545432765,-0.9500272102650018,,,,,,,,,,,,,,,,,,,0.007010913881432424,-0.740854247547076,0.02137673879605454,-0.11273845914713014,1.514805177042176e+49,5.830951766554699,,,,,,,,
5,240628_095441,FalseCHOICE,9.0,6,2.0,1068.0,,,,,,,,,,,6.0,6.0,,,B,,,,,,False,cue1.png,Hard,cue2.png,Easy,Right,Easy,Mid,0.0168704001698642,,,,,,,,,,,,,32,22,Female,0.2857142857142857,0.5,0.2,1.25,1.5,2.0,2.888888888888889,3.0,2.625,1.6666666666666667,2.25,2.25,2.75,1.25,0.5833333333333334,0.75,0.6060305545741523,0.09721577522820779,,,,,,,,,,,,,,,,,,,,,0.022506280936854053,0.0010562076731799887,,,,,,,,,,
6,240628_095502,FalseCHOICE,9.0,7,2.0,1068.0,,,,,,,,,,,7.0,7.0,,,B,,,,,,False,cue1.png,Hard,cue2.png,Easy,Right,Easy,Mid,0.0170470001175999,,,,,,,,,,,,,32,22,Female,0.2857142857142857,0.5,0.2,1.25,1.5,2.0,2.888888888888889,3.0,2.625,1.6666666666666667,2.25,2.25,2.75,1.25,0.84375,0.875,0.565426845442165,-0.3259328310965908,,,,,,,,,,,,,,,,,,,,,0.02932704843797508,0.688208051958937,,,,,,,,,,
7,240628_095526,FalseCHOICE,9.0,8,2.0,1068.0,,,,,,,,,,,8.0,8.0,,,B,,,,,,False,cue2.png,Easy,cue1.png,Hard,Left,Easy,Mid,0.0161035000346601,,,,,,,,,,,,,32,22,Female,0.2857142857142857,0.5,0.2,1.25,1.5,2.0,2.888888888888889,3.0,2.625,1.6666666666666667,2.25,2.25,2.75,1.25,1.0,1.0,0.7966754545499994,2.0840077568542963,,,,,,,,,,,,,,,,,,,0.008459606289958678,-0.5770502977657125,,,,,,,,,,,,
8,240628_095551,FalseCHOICE,9.0,9,2.0,1068.0,,,,,,,,,,,9.0,9.0,,,B,,,,,,False,cue2.png,Easy,cue1.png,Hard,Left,Easy,Mid,0.0159650000277906,,,,,,,,,,,,,32,22,Female,0.2857142857142857,0.5,0.2,1.25,1.5,2.0,2.888888888888889,3.0,2.625,1.6666666666666667,2.25,2.25,2.75,1.25,0.5833333333333334,0.6590909090909091,0.7726450000191107,1.8335761199059768,,,,,,,,,,,,,,,,,,,0.008415259501076511,-0.582064598342057,0.01824472765130846,-0.42826999340366273,,,,,,,,,,
9,240628_095613,FalseCHOICE,9.0,10,2.0,1068.0,,,,,,,,,,,10.0,10.0,,,B,,,,,,False,cue1.png,Hard,cue2.png,Easy,Right,Easy,Mid,0.0145896999165415,,,,,,,,,,,,,32,22,Female,0.2857142857142857,0.5,0.2,1.25,1.5,2.0,2.888888888888889,3.0,2.625,1.6666666666666667,2.25,2.25,2.75,1.25,0.1875,0.6590909090909091,0.6026127400342375,0.06159726918137318,,,,,,,,,,,,,,,,,,,,,,,,,,,,,,,,
10,240628_095637,FalseCHOICE,9.0,11,2.0,1068.0,,,,,,,,,,,11.0,11.0,,,B,,,,,,False,cue2.png,Easy,cue1.png,Hard,Left,Easy,Mid,0.0138346999883651,,,,,,,,,,,,,32,22,Female,0.2857142857142857,0.5,0.2,1.25,1.5,2.0,2.888888888888889,3.0,2.625,1.6666666666666667,2.25,2.25,2.75,1.25,0.84375,0.875,0.7354756272397935,1.4462182004999282,,,,,,,,,,,,,,,,,,,0.01041128354372511,-0.3563737476686443,,,9.327449621317384e+44,-0.17110017242502265,,,,,,,,
11,240628_095700,FalseCHOICE,9.0,12,2.0,1068.0,,,,,,,,,,,12.0,12.0,,,B,,,,,,False,cue1.png,Hard,cue2.png,Easy,Right,Easy,Mid,0.016509500099346,,,,,,,,,,,,,32,22,Female,0.2857142857142857,0.5,0.2,1.25,1.5,2.0,2.888888888888889,3.0,2.625,1.6666666666666667,2.25,2.25,2.75,1.25,1.0,1.0,0.7516855455046012,1.6151486866310247,,,,,,,,,,,,,,,,,,,,,0.01439975312835002,-0.815628356556842,5.97644448707688e+44,-0.17123295613676143,,,,,,,,
12,240628_095724,FalseCHOICE,9.0,13,2.0,1068.0,,,,,,,,,,,13.0,13.0,,,B,,,,,,False,cue2.png,Easy,cue1.png,Hard,Left,Easy,Mid,0.0166569000575691,,,,,,,,,,,,,32,22,Female,0.2857142857142857,0.5,0.2,1.25,1.5,2.0,2.888888888888889,3.0,2.625,1.6666666666666667,2.25,2.25,2.75,1.25,0.84375,0.6931818181818181,0.6678713333482543,0.741684960721575,,,,,,,,,,,,,,,,,,,,,0.012711036543576054,-0.9857565298910974,,,,,,,,,,
13,240628_095746,FalseCHOICE,9.0,14,2.0,1068.0,,,,,,,,,,,14.0,14.0,,,B,,,,,,False,cue1.png,Hard,cue2.png,Easy,Left,Hard,Mid,0.015802500071004,,,,,,,,,,,,,32,22,Female,0.2857142857142857,0.5,0.2,1.25,1.5,2.0,2.888888888888889,3.0,2.625,1.6666666666666667,2.25,2.25,2.75,1.25,1.0,1.0,0.6192577999847179,0.23506255279236743,,,,,,,,,,,,,,,,,,,0.0064021710596909465,-0.8096849241043899,0.017962765003433082,-0.45667605672064543,,,,,,,,,,
14,240628_095810,FalseCHOICE,9.0,15,2.0,1068.0,,,,,,,,,,,15.0,15.0,,,B,,,,,,False,cue2.png,Easy,cue1.png,Hard,Right,Hard,Mid,0.0158847998827695,,,,,,,,,,,,,32,22,Female,0.2857142857142857,0.5,0.2,1.25,1.5,2.0,2.888888888888889,3.0,2.625,1.6666666666666667,2.25,2.25,2.75,1.25,0.84375,0.875,0.6097578636201267,0.13605965579633483,,,,,,,,,,,,,,,,,,,,,0.01899844630830136,-0.35233731205363417,,,,,,,,,,
15,240628_095835,FalseCHOICE,9.0,16,2.0,1068.0,,,,,,,,,,,16.0,16.0,,,B,,,,,,False,cue2.png,Easy,cue1.png,Hard,Left,Easy,Mid,0.0160743000451475,,,,,,,,,,,,,32,22,Female,0.2857142857142857,0.5,0.2,1.25,1.5,2.0,2.888888888888889,3.0,2.625,1.6666666666666667,2.25,2.25,2.75,1.25,0.84375,0.7840909090909091,0.8298427899600938,2.4296587344205824,,,,,,,,,,,,,,,,,,,0.006530098364196086,-0.7952201573675071,0.019217116341430075,-0.33030760402888054,,,,,,,,,,
16,240628_095857,FalseCHOICE,9.0,17,2.0,1068.0,,,,,,,,,,,17.0,17.0,,,B,,,,,,False,cue1.png,Hard,cue2.png,Easy,Right,Easy,Mid,0.0152366000693291,,,,,,,,,,,,,32,22,Female,0.2857142857142857,0.5,0.2,1.25,1.5,2.0,2.888888888888889,3.0,2.625,1.6666666666666667,2.25,2.25,2.75,1.25,1.0,1.0,0.5467780181206763,-0.5202802308631592,,,,,,,,,,,,,,,,,,,0.03212340908766025,2.0986207710528633,0.029760892764077597,0.7319152929351553,,,,,,,,,,
17,240628_095918,FalseCHOICE,9.0,18,2.0,1068.0,,,,,,,,,,,18.0,18.0,,,B,,,,,,False,cue1.png,Hard,cue2.png,Easy,Left,Hard,Mid,0.0163978999480605,,,,,,,,,,,,,32,22,Female,0.2857142857142857,0.5,0.2,1.25,1.5,2.0,2.888888888888889,3.0,2.625,1.6666666666666667,2.25,2.25,2.75,1.25,1.0,1.0,0.5577202909414403,-0.40624612922281517,,,,,,,,,,,,,,,,,,,0.008855943655719744,-0.5322363499769973,0.021492194094850252,-0.10110702302399639,,,,,,,,,,
18,240628_095940,FalseCHOICE,9.0,19,2.0,1068.0,,,,,,,,,,,19.0,19.0,,,B,,,,,,False,cue2.png,Easy,cue1.png,Hard,Right,Hard,Mid,0.0164144001901149,,,,,,,,,,,,,32,22,Female,0.2857142857142857,0.5,0.2,1.25,1.5,2.0,2.888888888888889,3.0,2.625,1.6666666666666667,2.25,2.25,2.75,1.25,0.7083333333333334,0.7840909090909091,0.5177391599863768,-0.8229065822846401,,,,,,,,,,,,,,,,,,,0.019345711276057515,0.6538438409504629,0.02596482817100451,0.34948431493607873,,,,,,,,,,
19,240628_100001,FalseCHOICE,9.0,20,2.0,1068.0,,,,,,,,,,,20.0,20.0,,,B,,,,,,False,cue2.png,Easy,cue1.png,Hard,Left,Easy,Mid,0.0150733001064509,,,,,,,,,,,,,32,22,Female,0.2857142857142857,0.5,0.2,1.25,1.5,2.0,2.888888888888889,3.0,2.625,1.6666666666666667,2.25,2.25,2.75,1.25,0.84375,0.875,0.5973958909215237,0.0072302549690544445,,,,,,,,,,,,,,,,,,,,,,,,,,,,,,,,
20,240628_100022,FalseCHOICE,9.0,21,2.0,1068.0,,,,,,,,,,,21.0,21.0,,,B,,,,,,False,cue2.png,Easy,cue1.png,Hard,Left,Easy,Mid,0.016287000151351,,,,,,,,,,,,,32,22,Female,0.2857142857142857,0.5,0.2,1.25,1.5,2.0,2.888888888888889,3.0,2.625,1.6666666666666667,2.25,2.25,2.75,1.25,1.0,1.0,0.4864708636887371,-1.1487668616371414,,,,,,,,,,,,,,,,,,,,,0.03970222716602826,1.7334457318247813,2.107458089923583e+44,-0.17138626487664713,,,,,,,,
21,240628_100044,FalseCHOICE,9.0,22,2.0,1068.0,,,,,,,,,,,22.0,22.0,,,B,,,,,,False,cue1.png,Hard,cue2.png,Easy,Right,Easy,Mid,0.0172325000166893,,,,,,,,,,,,,32,22,Female,0.2857142857142857,0.5,0.2,1.25,1.5,2.0,2.888888888888889,3.0,2.625,1.6666666666666667,2.25,2.25,2.75,1.25,1.0,1.0,0.6970206181603399,1.04546211574709,,,,,,,,,,,,,,,,,,,0.023426231384083198,1.1152290921763237,0.02391127560599504,0.14260108190517978,5.903418839178277e+43,-0.17144638066665716,,,,,,,,
22,240628_100107,FalseCHOICE,9.0,23,2.0,1068.0,,,,,,,,,,,23.0,23.0,,,B,,,,,,False,cue2.png,Easy,cue1.png,Hard,Left,Easy,Mid,0.0160088001284748,,,,,,,,,,,,,32,22,Female,0.2857142857142857,0.5,0.2,1.25,1.5,2.0,2.888888888888889,3.0,2.625,1.6666666666666667,2.25,2.25,2.75,1.25,0.84375,0.875,0.7513397635722702,1.6115451453318161,,,,,,,,,,,,,,,,,,,0.013670987509711185,0.012201652881484252,0.03149245473351794,0.9063598844859522,-1.1267523161874693e+44,-0.171514420592638,,,,,,,,
23,240628_100129,FalseCHOICE,9.0,24,2.0,1068.0,,,,,,,,,,,24.0,24.0,,,B,,,,,,False,cue1.png,Hard,cue2.png,Easy,Right,Easy,Mid,0.0167050999589264,,,,,,,,,,,,,32,22,Female,0.2857142857142857,0.5,0.2,1.25,1.5,2.0,2.888888888888889,3.0,2.625,1.6666666666666667,2.25,2.25,2.75,1.25,1.0,1.0,0.6392667454201728,0.44358432472013587,,,,,,,,,,,,,,,,,,,0.039354449330654254,2.916235984509642,0.02030941053086925,-0.22026544724045666,-2.160157369884399e+44,-0.17155536930899698,,,,,,,,
24,240628_100151,FalseCHOICE,9.0,25,2.0,1068.0,,,,,,,,,,,25.0,25.0,,,B,,,,,,False,cue1.png,Hard,cue2.png,Easy,Right,Easy,Mid,0.0154438000172376,,,,,,,,,,,,,32,22,Female,0.2857142857142857,0.5,0.2,1.25,1.5,2.0,2.888888888888889,3.0,2.625,1.6666666666666667,2.25,2.25,2.75,1.25,0.15625,0.625,0.6837659182069316,0.9073292226582758,,,,,,,,,,,,,,,,,,,0.006844852825272871,-0.7596308054579934,0.01757900210634827,-0.4953378909580583,-2.623250740774351e+44,-0.1715737194022392,,,,,,,,
25,240628_100211,FalseCHOICE,9.0,26,2.0,1068.0,,,,,,,,,,,26.0,26.0,,,B,,,,,,False,cue2.png,Easy,cue1.png,Hard,Left,Easy,Mid,0.0161884999834001,,,,,,,,,,,,,32,22,Female,0.2857142857142857,0.5,0.2,1.25,1.5,2.0,2.888888888888889,3.0,2.625,1.6666666666666667,2.25,2.25,2.75,1.25,0.15625,0.625,0.4686405272858048,-1.3345844177298019,,,,,,,,,,,,,,,,,,,0.008253517384009097,-0.6003528129179823,,,-2.232965614862918e+44,-0.1715582543386004,,,,,,,,
26,240628_100236,FalseCHOICE,9.0,27,2.0,1068.0,,,,,,,,,,,27.0,27.0,,,B,,,,,,False,cue2.png,Easy,cue1.png,Hard,Left,Easy,Mid,0.0165641999337822,,,,,,,,,,,,,32,22,Female,0.2857142857142857,0.5,0.2,1.25,1.5,2.0,2.888888888888889,3.0,2.625,1.6666666666666667,2.25,2.25,2.75,1.25,0.7083333333333334,0.7840909090909091,0.6636707999976352,0.6979094074252618,,,,,,,,,,,,,,,,,,,0.025747303586209053,1.3776732053629996,0.029393533219876134,0.6949059991463666,9.874926453519281e+43,-0.17143064355193768,,,,,,,,
27,240628_100257,FalseCHOICE,9.0,28,2.0,1068.0,,,,,,,,,,,28.0,28.0,,,B,,,,,,False,cue1.png,Hard,cue2.png,Easy,Right,Easy,Mid,0.0167576000094413,,,,,,,,,,,,,32,22,Female,0.2857142857142857,0.5,0.2,1.25,1.5,2.0,2.888888888888889,3.0,2.625,1.6666666666666667,2.25,2.25,2.75,1.25,1.0,1.0,0.5583679091227665,-0.3994970233722146,,,,,,,,,,,,,,,,,,,0.008245762358899303,-0.601229675208529,0.015135615155410561,-0.7414946246928837,-3.124548486232476e+42,-0.17147101109087026,,,,,,,,
28,240628_100319,FalseCHOICE,9.0,29,2.0,1068.0,,,,,,,,,,,29.0,29.0,,,B,,,,,,False,cue2.png,Easy,cue1.png,Hard,Left,Easy,Mid,0.0163477999158203,,,,,,,,,,,,,32,22,Female,0.2857142857142857,0.5,0.2,1.25,1.5,2.0,2.888888888888889,3.0,2.625,1.6666666666666667,2.25,2.25,2.75,1.25,0.5833333333333334,0.75,0.6110794091258537,0.1498320463216776,,,,,,,,,,,,,,,,,,,0.0070507037094758515,-0.7363552034737623,0.013690575174762507,-0.8870738263891396,1.0944331593093448e+44,-0.1714264060298183,,,,,,,,
29,240628_100339,FalseCHOICE,9.0,30,2.0,1068.0,,,,,,,,,,,30.0,30.0,,,B,,,,,,False,cue2.png,Easy,cue1.png,Hard,Left,Easy,Mid,0.0164738001767545,,,,,,,,,,,,,32,22,Female,0.2857142857142857,0.5,0.2,1.25,1.5,2.0,2.888888888888889,3.0,2.625,1.6666666666666667,2.25,2.25,2.75,1.25,1.0,1.0,0.527849754572592,-0.7175397549742351,,,,,,,,,,,,,,,,,,,0.03243069932515684,2.133366141660831,0.07252733445570769,5.0403804732998285,1.957295516789992e+44,-0.17139221507458066,,,,,,,,
30,240628_100359,FalseCHOICE,9.0,31,2.0,1068.0,,,,,,,,,,,31.0,31.0,,,B,,,,,,False,cue1.png,Hard,cue2.png,Easy,Right,Easy,Mid,0.016515800030902,,,,,,,,,,,,,32,22,Female,0.2857142857142857,0.5,0.2,1.25,1.5,2.0,2.888888888888889,3.0,2.625,1.6666666666666667,2.25,2.25,2.75,1.25,1.0,1.0,0.535755390915173,-0.6351517398892175,,,,,,,,,,,,,,,,,,,0.007105603731788586,-0.7301476466142222,0.02087259467114521,-0.16352798762179802,2.234711890015084e+44,-0.17138122243975668,,,,,,,,
31,240628_100420,FalseCHOICE,9.0,32,2.0,1068.0,,,,,,,,,,,32.0,32.0,,,B,,,,,,False,cue2.png,Easy,cue1.png,Hard,Right,Hard,Mid,0.0165989999659359,,,,,,,,,,,,,32,22,Female,0.2857142857142857,0.5,0.2,1.25,1.5,2.0,2.888888888888889,3.0,2.625,1.6666666666666667,2.25,2.25,2.75,1.25,0.84375,0.875,0.5141740181610327,-0.8600604489385646,,,,,,,,,,,,,,,,,,,0.012183348696899483,-0.1560059748747147,0.016227284168715987,-0.6315154506894968,1.8805059176269398e+44,-0.17139525786550197,,,,,,,,
32,240628_100443,FalseCHOICE,9.0,33,2.0,1068.0,,,,,,,,,,,33.0,33.0,,,B,,,,,,False,cue1.png,Hard,cue2.png,Easy,Left,Hard,Mid,0.0159378999378532,,,,,,,,,,,,,32,22,Female,0.2857142857142857,0.5,0.2,1.25,1.5,2.0,2.888888888888889,3.0,2.625,1.6666666666666667,2.25,2.25,2.75,1.25,0.5833333333333334,0.6590909090909091,0.5929513500072062,-0.0390882054339971,,,,,,,,,,,,,,,,,,,0.010518598419725585,-0.3442396324791698,0.015264755554240669,-0.7284844959627486,1.1186256288401012e+44,-0.17142544740225082,,,,,,,,
33,240628_100504,FalseCHOICE,9.0,34,2.0,1068.0,,,,,,,,,,,34.0,34.0,,,B,,,,,,False,cue1.png,Hard,cue2.png,Easy,Right,Easy,Mid,0.0163739998824894,,,,,,,,,,,,,32,22,Female,0.2857142857142857,0.5,0.2,1.25,1.5,2.0,2.888888888888889,3.0,2.625,1.6666666666666667,2.25,2.25,2.75,1.25,1.0,1.0,0.5665792363314804,-0.3139232731232023,,,,,,,,,,,,,,,,,,,0.005747779526334033,-0.8836771099103409,,,-2.881180653758388e+42,-0.17147091465626982,,,,,,,,
34,240628_100527,FalseCHOICE,9.0,35,2.0,1068.0,,,,,,,,,,,35.0,35.0,,,B,,,,,,False,cue1.png,Hard,cue2.png,Easy,Right,Easy,Mid,0.0168773001059889,,,,,,,,,,,,,32,22,Female,0.2857142857142857,0.5,0.2,1.25,1.5,2.0,2.888888888888889,3.0,2.625,1.6666666666666667,2.25,2.25,2.75,1.25,0.84375,0.7840909090909091,0.5982302100397646,0.015925051076626492,,,,,,,,,,,,,,,,,,,,,0.021410356361264392,-0.10935168897345847,-1.1313710841855212e+44,-0.17151460361150364,,,,,,,,
35,240628_100549,FalseCHOICE,9.0,36,2.0,1068.0,,,,,,,,,,,36.0,36.0,,,B,,,,,,False,cue2.png,Easy,cue1.png,Hard,Left,Easy,Mid,0.0164564999286085,,,,,,,,,,,,,32,22,Female,0.2857142857142857,0.5,0.2,1.25,1.5,2.0,2.888888888888889,3.0,2.625,1.6666666666666667,2.25,2.25,2.75,1.25,0.84375,0.875,0.6725238363935866,0.7901706833720533,,,,,,,,,,,,,,,,,,,0.009273391236527682,-0.4850354658137558,0.01899074078517309,-0.35311359777630497,-1.787758043873745e+44,-0.1715406129708907,,,,,,,,
36,240628_100612,FalseCHOICE,9.0,37,2.0,1068.0,,,,,,,,,,,37.0,37.0,,,B,,,,,,False,cue1.png,Hard,cue2.png,Easy,Left,Hard,Mid,0.0168450998608022,,,,,,,,,,,,,32,22,Female,0.2857142857142857,0.5,0.2,1.25,1.5,2.0,2.888888888888889,3.0,2.625,1.6666666666666667,2.25,2.25,2.75,1.25,1.0,1.0,0.6059136727655475,0.09599769994707828,,,,,,,,,,,,,,,,,,,0.029871646379289823,1.8440134966372521,0.013884060990785596,-0.8675812787687216,-2.0354994106739788e+44,-0.1715504297324047,,,,,,,,
37,240628_100636,FalseCHOICE,9.0,38,2.0,1068.0,,,,,,,,,,,38.0,38.0,,,B,,,,,,False,cue2.png,Easy,cue1.png,Hard,Right,Hard,Mid,0.0165115999989211,,,,,,,,,,,,,32,22,Female,0.2857142857142857,0.5,0.2,1.25,1.5,2.0,2.888888888888889,3.0,2.625,1.6666666666666667,2.25,2.25,2.75,1.25,0.84375,0.7840909090909091,0.7592221999773756,1.6936913839530703,,,,,,,,,,,,,,,,,,,0.009392210453248864,-0.47160055244338955,0.018059149061882253,-0.44696593487406316,-1.5499018295818223e+44,-0.17153118790893807,,,,,,,,
38,240628_100659,FalseCHOICE,9.0,39,2.0,1068.0,,,,,,,,,,,39.0,39.0,,,B,,,,,,False,cue2.png,Easy,cue1.png,Hard,Left,Easy,Mid,0.0162811998743563,,,,,,,,,,,,,32,22,Female,0.2857142857142857,0.5,0.2,1.25,1.5,2.0,2.888888888888889,3.0,2.625,1.6666666666666667,2.25,2.25,2.75,1.25,1.0,1.0,0.5563337273091417,-0.42069610143300395,,,,,,,,,,,,,,,,,,,0.008183054334229993,-0.608320084506849,0.023007950533803164,0.0515964421422507,-4.2690944802088236e+43,-0.17148668929114894,,,,,,,,
39,240628_100719,FalseCHOICE,9.0,40,2.0,1068.0,,,,,,,,,,,40.0,40.0,,,B,,,,,,False,cue1.png,Hard,cue2.png,Easy,Right,Easy,Mid,0.0158560001291334,,,,,,,,,,,,,32,22,Female,0.2857142857142857,0.5,0.2,1.25,1.5,2.0,2.888888888888889,3.0,2.625,1.6666666666666667,2.25,2.25,2.75,1.25,0.84375,0.875,0.5175051362973384,-0.8253454431665775,,,,,,,,,,,,,,,,,,,0.00826144697866635,-0.5994562120126565,0.012524628731674228,-1.0045360106044572,6.496320427310098e+43,-0.17144403129175576,,,,,,,,
40,240628_100741,FalseCHOICE,9.0,41,2.0,1068.0,,,,,,,,,,,41.0,41.0,,,B,,,,,,False,cue1.png,Hard,cue2.png,Easy,Right,Easy,Mid,0.0143963999580591,,,,,,,,,,,,,32,22,Female,0.2857142857142857,0.5,0.2,1.25,1.5,2.0,2.888888888888889,3.0,2.625,1.6666666666666667,2.25,2.25,2.75,1.25,1.0,1.0,0.5770128271965818,-0.20519036354640946,,,,,,,,,,,,,,,,,,,0.03238797548988953,2.1285353487848524,0.020527503732638064,-0.1982938515517025,1.6033528799906375e+44,-0.17140624006564276,,,,,,,,
41,240628_100802,FalseCHOICE,9.0,42,2.0,1068.0,,,,,,,,,,,42.0,42.0,,,B,,,,,,False,cue2.png,Easy,cue1.png,Hard,Right,Hard,Mid,0.0165874001104384,,,,,,,,,,,,,32,22,Female,0.2857142857142857,0.5,0.2,1.25,1.5,2.0,2.888888888888889,3.0,2.625,1.6666666666666667,2.25,2.25,2.75,1.25,0.5833333333333334,0.75,0.5860030000436712,-0.11149993003209652,,,,,,,,,,,,,,,,,,,0.007962683363811994,-0.6332374756377531,0.019032768106057446,-0.34887959463056967,,,,,,,,,,
42,240628_100827,FalseCHOICE,9.0,43,2.0,1068.0,,,,,,,,,,,44.0,43.0,,,B,,,,,,False,cue1.png,Hard,cue2.png,Easy,Left,Hard,Mid,0.0158138000406324,,,,,,,,,,,,,32,22,Female,0.2857142857142857,0.5,0.2,1.25,1.5,2.0,2.888888888888889,3.0,2.625,1.6666666666666667,2.25,2.25,2.75,1.25,0.84375,0.875,0.4236889091024006,-1.8030444425152519,,,,,,,,,,,,,,,,,,,0.00838712109697511,-0.5852462135042726,,,1.646312117857059e+44,-0.17140453780413348,,,,,,,,
43,240628_100848,FalseCHOICE,9.0,44,2.0,1068.0,,,,,,,,,,,45.0,44.0,,,B,,,,,,False,cue2.png,Easy,cue1.png,Hard,Left,Easy,Mid,0.0172818999271839,,,,,,,,,,,,,32,22,Female,0.2857142857142857,0.5,0.2,1.25,1.5,2.0,2.888888888888889,3.0,2.625,1.6666666666666667,2.25,2.25,2.75,1.25,1.0,1.0,0.5145473272793673,-0.8561700350692769,,,,,,,,,,,,,,,,,,,,,0.026057510681877713,0.35882152783317395,4.595891582005162e+43,-0.17145156174861473,,,,,,,,
44,240628_100909,FalseCHOICE,9.0,45,2.0,1068.0,,,,,,,,,,,46.0,45.0,,,B,,,,,,False,cue1.png,Hard,cue2.png,Easy,Right,Easy,Mid,0.0159374000504612,,,,,,,,,,,,,32,22,Female,0.2857142857142857,0.5,0.2,1.25,1.5,2.0,2.888888888888889,3.0,2.625,1.6666666666666667,2.25,2.25,2.75,1.25,1.0,0.9090909090909092,0.4655630399938673,-1.366656228074334,,,,,,,,,,,,,,,,,,,0.01874011206488401,0.5853686130892131,0.01878767794660218,-0.37357097357851005,-1.0759136787382483e+44,-0.17151240610960683,,,,,,,,
45,240628_100930,FalseCHOICE,9.0,46,2.0,1068.0,,,,,,,,,,,47.0,46.0,,,B,,,,,,False,cue1.png,Hard,cue2.png,Easy,Right,Easy,Mid,0.0166436000727117,,,,,,,,,,,,,32,22,Female,0.2857142857142857,0.5,0.2,1.25,1.5,2.0,2.888888888888889,3.0,2.625,1.6666666666666667,2.25,2.25,2.75,1.25,0.15625,0.625,0.5812921454621987,-0.16059375897932773,,,,,,,,,,,,,,,,,,,0.01388136564954527,0.035989152594784836,0.01802167499921689,-0.4507412242779537,-2.1160567659737907e+44,-0.17155362182081282,,,,,,,,
46,240628_100952,FalseCHOICE,9.0,47,2.0,1068.0,,,,,,,,,,,48.0,47.0,,,B,,,,,,False,cue2.png,Easy,cue1.png,Hard,Right,Hard,Mid,0.0165931999217718,,,,,,,,,,,,,32,22,Female,0.2857142857142857,0.5,0.2,1.25,1.5,2.0,2.888888888888889,3.0,2.625,1.6666666666666667,2.25,2.25,2.75,1.25,0.5833333333333334,0.75,0.6957670455078848,1.032398099376345,,,,,,,,,,,,,,,,,,,0.01373984468181494,0.0199873475499918,0.03381011646574282,1.139850548618266,-1.738410414709278e+44,-0.17153865756912215,,,,,,,,
47,240628_101011,FalseCHOICE,9.0,48,2.0,1068.0,,,,,,,,,,,49.0,48.0,,,B,,,,,,False,cue2.png,Easy,cue1.png,Hard,Left,Easy,Mid,0.0170158001128584,,,,,,,,,,,,,32,22,Female,0.2857142857142857,0.5,0.2,1.25,1.5,2.0,2.888888888888889,3.0,2.625,1.6666666666666667,2.25,2.25,2.75,1.25,1.0,1.0,0.4283454363573004,-1.7545167818569791,,,,,,,,,,,,,,,,,,,0.007587375834079381,-0.6756735755241525,0.02231701457080622,-0.018011255404788193,5.344132910415925e+43,-0.17144859683937458,,,,,,,,
48,240628_101032,FalseCHOICE,9.0,49,2.0,1068.0,,,,,,,,,,,50.0,49.0,,,B,,,,,,False,cue1.png,Hard,cue2.png,Easy,Right,Easy,Mid,0.0162337999790906,,,,,,,,,,,,,32,22,Female,0.2857142857142857,0.5,0.2,1.25,1.5,2.0,2.888888888888889,3.0,2.625,1.6666666666666667,2.25,2.25,2.75,1.25,0.84375,0.875,0.5821498818272217,-0.15165492173483375,,,,,,,,,,,,,,,,,,,0.006782483589022621,-0.7666829078798119,,,2.6644666609505003e+44,-0.1713641933898638,,,,,,,,
49,240628_101052,FalseCHOICE,9.0,50,2.0,1068.0,,,,,,,,,,,51.0,50.0,,,B,,,,,,False,cue2.png,Easy,cue1.png,Hard,Left,Easy,Mid,0.0164961998816579,,,,,,,,,,,,,32,22,Female,0.2857142857142857,0.5,0.2,1.25,1.5,2.0,2.888888888888889,3.0,2.625,1.6666666666666667,2.25,2.25,2.75,1.25,1.0,1.0,0.4362096182197671,-1.6725607816263006,,,,,,,,,,,,,,,,,,,,,,,-1.294275497995973e+44,-0.17152105870538079,,,,,,,,
0,240628_092707,OFFLINERATING,9.0,1,1.0,,,,,,,,,,,,,,,,,T0,cue2.png,Easy,53.0,1.240315099945292,,,,,,,,,,,,,,,,,,,,,,32,22,Female,0.2857142857142857,0.5,0.2,1.25,1.5,2.0,2.888888888888889,3.0,2.625,1.6666666666666667,2.25,2.25,2.75,1.25,,,,,,,,,,,,,,,,,,,,,,,,,,,,,0.17805208235600942,0.006608105139817582,0.19777870799596517,,,65747731.62285618,1.7318886111147946,
1,240628_092715,OFFLINERATING,9.0,2,3.0,,,,,,,,,,,,,,,,,T0,cue1.png,Hard,47.0,1.9520807000808416,,,,,,,,,,,,,,,,,,,,,,32,22,Female,0.2857142857142857,0.5,0.2,1.25,1.5,2.0,2.888888888888889,3.0,2.625,1.6666666666666667,2.25,2.25,2.75,1.25,,,,,,,,,,,,,,,,,,,,,,,,,,,,,-0.296753470593349,0.007719936738937278,1.5199149066828288,,,993667.0509470983,-0.5549486729390871,
2,240628_094734,OFFLINERATING,9.0,3,1.0,,,,,,,,,,,,,,,,,T1,cue2.png,Easy,59.0,1.22802529996261,,,,,,,,,,,,,,,,,,,,,,32,22,Female,0.2857142857142857,0.5,0.2,1.25,1.5,2.0,2.888888888888889,3.0,2.625,1.6666666666666667,2.25,2.25,2.75,1.25,,,,,,,,,,,,,,,,,,,,,,,,,,,,,0.6528576353053678,,,0.02320397484506461,0.22889621545571856,44630.14309624825,-0.5884646074084428,
3,240628_094742,OFFLINERATING,9.0,4,3.0,,,,,,,,,,,,,,,,,T1,cue1.png,Hard,30.0,1.8355348000768568,,,,,,,,,,,,,,,,,,,,,,32,22,Female,0.2857142857142857,0.5,0.2,1.25,1.5,2.0,2.888888888888889,3.0,2.625,1.6666666666666667,2.25,2.25,2.75,1.25,,,,,,,,,,,,,,,,,,,,,,,,,,,,,-1.6420358706165312,,,0.021463108137908804,-1.352686142744748,44326.50056145096,-0.5884753307672649,
4,240628_095147,OFFLINERATING,9.0,5,1.0,,,,,,,,,,,,,,,,,T2,cue2.png,Easy,77.0,1.3186069000512362,,,,,,,,,,,,,,,,,,,,,,32,22,Female,0.2857142857142857,0.5,0.2,1.25,1.5,2.0,2.888888888888889,3.0,2.625,1.6666666666666667,2.25,2.25,2.75,1.25,,,,,,,,,,,,,,,,,,,,,,,,,,,,,2.077274294153443,0.005470439038681339,-1.1550786271635178,0.022621598868145167,-0.3001940170988404,,,
5,240628_095154,OFFLINERATING,9.0,6,3.0,,,,,,,,,,,,,,,,,T2,cue1.png,Hard,43.0,0.9849153000395744,,,,,,,,,,,,,,,,,,,,,,32,22,Female,0.2857142857142857,0.5,0.2,1.25,1.5,2.0,2.888888888888889,3.0,2.625,1.6666666666666667,2.25,2.25,2.75,1.25,,,,,,,,,,,,,,,,,,,,,,,,,,,,,-0.6132905058929213,0.005968662895304138,-0.5626149875152793,0.02451942226937429,1.423983944387873,,,
6,240628_101106,OFFLINERATING,9.0,7,1.0,,,,,,,,,,,,,,,,,T3,cue2.png,Easy,49.0,1.3417992999311537,,,,,,,,,,,,,,,,,,,,,,32,22,Female,0.2857142857142857,0.5,0.2,1.25,1.5,2.0,2.888888888888889,3.0,2.625,1.6666666666666667,2.25,2.25,2.75,1.25,,,,,,,,,,,,,,,,,,,,,,,,,,,,,-0.13848495294356286,,,,,,,
7,240628_101115,OFFLINERATING,9.0,8,3.0,,,,,,,,,,,,,,,,,T3,cue1.png,Hard,48.0,2.252409800188616,,,,,,,,,,,,,,,,,,,,,,32,22,Female,0.2857142857142857,0.5,0.2,1.25,1.5,2.0,2.888888888888889,3.0,2.625,1.6666666666666667,2.25,2.25,2.75,1.25,,,,,,,,,,,,,,,,,,,,,,,,,,,,,-0.21761921176845594,,,,,,,
0,240628_095212,LEARNINGCHECK,9.0,1,,,,,,,,,,,,1.0,1.0,1.0,,,B,,,,,,,,,,,,,,,cue2.png,Easy,Left,Left,Easy,0.0162096000276505,1.0,,,,,,32,22,Female,0.2857142857142857,0.5,0.2,1.25,1.5,2.0,2.888888888888889,3.0,2.625,1.6666666666666667,2.25,2.25,2.75,1.25,,,,,,,,,,,,,,,,,,,,,,,,,,,,,,,,,,,,
1,240628_095216,LEARNINGCHECK,9.0,2,,,,,,,,,,,,2.0,2.0,2.0,,,B,,,,,,,,,,,,,,,cue1.png,Hard,Right,Right,Hard,0.0144789998885244,1.0,,,,,,32,22,Female,0.2857142857142857,0.5,0.2,1.25,1.5,2.0,2.888888888888889,3.0,2.625,1.6666666666666667,2.25,2.25,2.75,1.25,,,,,,,,,,,,,,,,,,,,,,,,,,,,,,,,,,,,
2,240628_101128,LEARNINGCHECK,9.0,1,,,,,,,,,,,,1.0,1.0,1.0,,,B,,,,,,,,,,,,,,,cue2.png,Easy,Middle,Middle,Mid,0.0160672001074999,1.0,,,,,,32,22,Female,0.2857142857142857,0.5,0.2,1.25,1.5,2.0,2.888888888888889,3.0,2.625,1.6666666666666667,2.25,2.25,2.75,1.25,,,,,,,,,,,,,,,,,,,,,,,,,,,,,,,,,,,,
3,240628_101132,LEARNINGCHECK,9.0,2,,,,,,,,,,,,2.0,2.0,2.0,,,B,,,,,,,,,,,,,,,cue1.png,Hard,Middle,Middle,Mid,0.0144454999826848,1.0,,,,,,32,22,Female,0.2857142857142857,0.5,0.2,1.25,1.5,2.0,2.888888888888889,3.0,2.625,1.6666666666666667,2.25,2.25,2.75,1.25,,,,,,,,,,,,,,,,,,,,,,,,,,,,,,,,,,,,
0,240628_101144,DEMANDRATING,9.0,-1,,,,,,,,,,,,,,,,,,,,,,,,,,,,,,,,,,,,,,,1.0,MentalDemand,1.0,100.0,2.3470638999715447,32,22,Female,0.2857142857142857,0.5,0.2,1.25,1.5,2.0,2.888888888888889,3.0,2.625,1.6666666666666667,2.25,2.25,2.75,1.25,,,,,,,,,,,,,,,,,,,,,,,,,,,,,,,,,,,,0.9943907463242057
1,240628_101151,DEMANDRATING,9.0,-1,,,,,,,,,,,,,,,,,,,,,,,,,,,,,,,,,,,,,,,2.0,Effort,1.0,6.0,5.238457800121978,32,22,Female,0.2857142857142857,0.5,0.2,1.25,1.5,2.0,2.888888888888889,3.0,2.625,1.6666666666666667,2.25,2.25,2.75,1.25,,,,,,,,,,,,,,,,,,,,,,,,,,,,,,,,,,,,-1.5940848579535725
2,240628_101156,DEMANDRATING,9.0,-1,,,,,,,,,,,,,,,,,,,,,,,,,,,,,,,,,,,,,,,3.0,Frustration,1.0,10.0,4.184109000023454,32,22,Female,0.2857142857142857,0.5,0.2,1.25,1.5,2.0,2.888888888888889,3.0,2.625,1.6666666666666667,2.25,2.25,2.75,1.25,,,,,,,,,,,,,,,,,,,,,,,,,,,,,,,,,,,,-1.483936959899199
3,240628_101202,DEMANDRATING,9.0,-1,,,,,,,,,,,,,,,,,,,,,,,,,,,,,,,,,,,,,,,4.0,MentalDemand,2.0,48.0,3.8444757000543177,32,22,Female,0.2857142857142857,0.5,0.2,1.25,1.5,2.0,2.888888888888889,3.0,2.625,1.6666666666666667,2.25,2.25,2.75,1.25,,,,,,,,,,,,,,,,,,,,,,,,,,,,,,,,,,,,-0.43753192838265037
4,240628_101207,DEMANDRATING,9.0,-1,,,,,,,,,,,,,,,,,,,,,,,,,,,,,,,,,,,,,,,5.0,Effort,2.0,54.0,3.2858394000213598,32,22,Female,0.2857142857142857,0.5,0.2,1.25,1.5,2.0,2.888888888888889,3.0,2.625,1.6666666666666667,2.25,2.25,2.75,1.25,,,,,,,,,,,,,,,,,,,,,,,,,,,,,,,,,,,,-0.2723100813010901
5,240628_101211,DEMANDRATING,9.0,-1,,,,,,,,,,,,,,,,,,,,,,,,,,,,,,,,,,,,,,,6.0,Frustration,2.0,57.0,2.5935935999732465,32,22,Female,0.2857142857142857,0.5,0.2,1.25,1.5,2.0,2.888888888888889,3.0,2.625,1.6666666666666667,2.25,2.25,2.75,1.25,,,,,,,,,,,,,,,,,,,,,,,,,,,,,,,,,,,,-0.1896991577603099
6,240628_101215,DEMANDRATING,9.0,-1,,,,,,,,,,,,,,,,,,,,,,,,,,,,,,,,,,,,,,,7.0,MentalDemand,3.0,100.0,2.821418199921027,32,22,Female,0.2857142857142857,0.5,0.2,1.25,1.5,2.0,2.888888888888889,3.0,2.625,1.6666666666666667,2.25,2.25,2.75,1.25,,,,,,,,,,,,,,,,,,,,,,,,,,,,,,,,,,,,0.9943907463242057
7,240628_101218,DEMANDRATING,9.0,-1,,,,,,,,,,,,,,,,,,,,,,,,,,,,,,,,,,,,,,,8.0,Effort,3.0,100.0,1.78744009998627,32,22,Female,0.2857142857142857,0.5,0.2,1.25,1.5,2.0,2.888888888888889,3.0,2.625,1.6666666666666667,2.25,2.25,2.75,1.25,,,,,,,,,,,,,,,,,,,,,,,,,,,,,,,,,,,,0.9943907463242057
8,240628_101222,DEMANDRATING,9.0,-1,,,,,,,,,,,,,,,,,,,,,,,,,,,,,,,,,,,,,,,9.0,Frustration,3.0,100.0,1.6459317000117153,32,22,Female,0.2857142857142857,0.5,0.2,1.25,1.5,2.0,2.888888888888889,3.0,2.625,1.6666666666666667,2.25,2.25,2.75,1.25,,,,,,,,,,,,,,,,,,,,,,,,,,,,,,,,,,,,0.9943907463242057
