,END,Phase,Block,TrialN,NbackLevel,ISI,Letter_Resp,Letter_RT,Letter_Accuracy,Trial_A_measure,Trial_ACC,Trial_RT,TrialCountCali,CaliEnd_A_measure,ISI_calibrated,TrialIndex,TrialNumber_total,TrialNumber_valid,CueLearning,TrialDemandLearning,CueMapping,OfflineRatingTimePoint,CueFigure,TrialDemand,OfflineRating,OfflineRatingRT,PhaseType,CueLeft,CueDemandLeft,CueRight,CueDemandRight,Choice,ChoiceDemand,TaskDemand,ChoiceRT,CueCheck,CueDemandCheck,CorrectAnswer,Answer,AnswerDemand,AnswerRT,AnswerACC,DemandRatingQuesIndex,QuesTLX,DemandLevel,DemandRating,DemandRatingRT,PID,Age,Gender,BAI_bis,BAI_bas_d,BAI_bas_rr,BAI_bas_fs,NFC,BFI_ext,BFI_agr,BFI_con,BFI_neu,BFI_open,UPPS_lps,UPPS_lpm,UPPS_pu,UPPS_ss,Task_A_measure,Task_ACC,Task_RT,Task_RT_z,cue_i_on_zyg_values,cue_i_on_zyg_zvalues,cue_e_on_zyg_values,cue_e_on_zyg_zvalues,cue_i_on_cor_values,cue_i_on_cor_zvalues,cue_e_on_cor_values,cue_e_on_cor_zvalues,cue_i_on_scr_values,cue_i_on_scr_zvalues,cue_e_on_scr_values,cue_e_on_scr_zvalues,cue_e_true_zyg_values,cue_e_true_zyg_zvalues,cue_e_true_cor_values,cue_e_true_cor_zvalues,cue_e_true_scr_values,cue_e_true_scr_zvalues,cue_e_false_zyg_values,cue_e_false_zyg_zvalues,cue_e_false_cor_values,cue_e_false_cor_zvalues,cue_e_false_scr_values,cue_e_false_scr_zvalues,OfflineRating_z,cue_i_off_zyg_values,cue_i_off_zyg_zvalues,cue_i_off_cor_values,cue_i_off_cor_zvalues,cue_i_off_scr_values,cue_i_off_scr_zvalues,DemandRating_z
0,240628_092458,PRACTICE,0.0,1,1.0,1068.0,,,,,,,,,,10.0,1.0,1.0,cue2.png,Easy,B,,,,,,,,,,,,,,,,,,,,,,,,,,,32,22,Female,0.2857142857142857,0.5,0.2,1.25,1.5,2.0,2.888888888888889,3.0,2.625,1.6666666666666667,2.25,2.25,2.75,1.25,,,,,,,,,,,,,,,,,,,,,,,,,,,,,,,,,,,,
0,240628_092754,LEARNING,1.0,1,1.0,1068.0,,,,,,,,,,1.0,1.0,1.0,cue2.png,Easy,B,,,,,,,,,,,,,,,,,,,,,,,,,,,32,22,Female,0.2857142857142857,0.5,0.2,1.25,1.5,2.0,2.888888888888889,3.0,2.625,1.6666666666666667,2.25,2.25,2.75,1.25,0.5833333333333334,0.75,0.5219969817818227,-0.6790942769953107,-0.00010851362469841081,-0.6493203108028431,0.00034768913895754207,0.16477299882133234,,,,,1.225,-0.3839121917912334,,,,,,,,,,,,,,,,,,,,,,
1,240628_092817,LEARNING,1.0,2,3.0,1068.0,,,,,,,,,,2.0,2.0,2.0,cue1.png,Hard,B,,,,,,,,,,,,,,,,,,,,,,,,,,,32,22,Female,0.2857142857142857,0.5,0.2,1.25,1.5,2.0,2.888888888888889,3.0,2.625,1.6666666666666667,2.25,2.25,2.75,1.25,0.84375,0.875,0.560424890877171,-0.33858793946438054,-9.006504429325771e-05,-0.5497993039925704,0.00031457499952892466,0.09535696509688003,-0.00030516112625742983,-0.08291165031457189,-0.0004773958770466855,-0.45513970288187133,1.95,1.0677576237715676,1.5910000000000002,0.20648169471236824,,,,,,,,,,,,,,,,,,,,
2,240628_092839,LEARNING,1.0,3,1.0,1068.0,,,,,,,,,,3.0,3.0,3.0,cue2.png,Easy,B,,,,,,,,,,,,,,,,,,,,,,,,,,,32,22,Female,0.2857142857142857,0.5,0.2,1.25,1.5,2.0,2.888888888888889,3.0,2.625,1.6666666666666667,2.25,2.25,2.75,1.25,0.84375,0.875,0.4880185091698711,-0.980174547464443,,,0.0006814958709627488,0.8645205920291352,-0.0012973023165827845,-1.5126752592638002,-0.0002560832227268238,-0.13360321063709393,,,1.579,0.1867039519412156,,,,,,,,,,,,,,,,,,,,
3,240628_092904,LEARNING,1.0,4,3.0,1068.0,,,,,,,,,,4.0,4.0,4.0,cue1.png,Hard,B,,,,,,,,,,,,,,,,,,,,,,,,,,,32,22,Female,0.2857142857142857,0.5,0.2,1.25,1.5,2.0,2.888888888888889,3.0,2.625,1.6666666666666667,2.25,2.25,2.75,1.25,0.84375,0.875,0.7389859454494647,1.2436259292946776,,,0.0001946454095389039,-0.15604731739256553,0.001259579317084706,2.1720183587983604,-0.00012795487496673145,0.052549450278336456,1.57,0.30688241009727196,1.4969999999999999,0.05155604300500839,,,,,,,,,,,,,,,,,,,,
4,240628_092929,LEARNING,1.0,5,3.0,1068.0,,,,,,,,,,5.0,5.0,5.0,cue1.png,Hard,B,,,,,,,,,,,,,,,,,,,,,,,,,,,32,22,Female,0.2857142857142857,0.5,0.2,1.25,1.5,2.0,2.888888888888889,3.0,2.625,1.6666666666666667,2.25,2.25,2.75,1.25,0.5833333333333334,0.75,0.7687487727327441,1.5073517356519615,,,-0.0002108479872537654,-1.0060692050964395,-0.0009668486186990323,-1.0364621191542223,0.00016745187321220902,0.48173435110019813,1.4369999999999998,0.04057608531126794,1.459,-0.011073475770306778,,,,,,,,,,,,,,,,,,,,
5,240628_092951,LEARNING,1.0,6,1.0,1068.0,,,,,,,,,,6.0,6.0,6.0,cue2.png,Easy,B,,,,,,,,,,,,,,,,,,,,,,,,,,,32,22,Female,0.2857142857142857,0.5,0.2,1.25,1.5,2.0,2.888888888888889,3.0,2.625,1.6666666666666667,2.25,2.25,2.75,1.25,1.0,1.0,0.4728032636710189,-1.114995505497658,0.00010865095837981655,0.5221756784192593,0.0009218558471022777,1.3683789588055633,-0.0005664347862618683,-0.4594302090580281,0.00023608246025861365,0.5814450444964608,,,1.182,-0.4676097047377383,,,,,,,,,,,,,,,,,,,,
6,240628_093016,LEARNING,1.0,7,3.0,1068.0,,,,,,,,,,7.0,7.0,7.0,cue1.png,Hard,B,,,,,,,,,,,,,,,,,,,,,,,,,,,32,22,Female,0.2857142857142857,0.5,0.2,1.25,1.5,2.0,2.888888888888889,3.0,2.625,1.6666666666666667,2.25,2.25,2.75,1.25,0.84375,0.875,0.6564771272877062,0.5125225164975757,0.00014118859467194102,0.6977002039873191,-5.580543370161794e-05,-0.6810588224681621,3.78707265084122e-05,0.41142772857382504,-0.00026175842440454185,-0.1418484890006067,,,,,,,,,,,,,,,,,,,,,,,,
7,240628_093040,LEARNING,1.0,8,3.0,1068.0,,,,,,,,,,8.0,8.0,8.0,cue1.png,Hard,B,,,,,,,,,,,,,,,,,,,,,,,,,,,32,22,Female,0.2857142857142857,0.5,0.2,1.25,1.5,2.0,2.888888888888889,3.0,2.625,1.6666666666666667,2.25,2.25,2.75,1.25,0.84375,0.875,0.6532984999304806,0.484356977823614,0.00010030484717665766,0.4771525182818614,0.0004016251310136258,0.2778371674251311,-0.0022062746986342098,-2.8225852257785835,,,,,,,,,,,,,,,,,,,,,,,,,,
8,240628_093103,LEARNING,1.0,9,1.0,1068.0,,,,,,,,,,9.0,9.0,9.0,cue2.png,Easy,B,,,,,,,,,,,,,,,,,,,,,,,,,,,32,22,Female,0.2857142857142857,0.5,0.2,1.25,1.5,2.0,2.888888888888889,3.0,2.625,1.6666666666666667,2.25,2.25,2.75,1.25,0.84375,0.875,0.5562668090728535,-0.37543233822750555,5.3764500889073256e-05,0.22609026752215547,0.00016381914269689374,-0.22066736235301782,-0.0005844971610721181,-0.48545969603702105,-0.001401621567805494,-1.797911030451747,1.159,-0.5160642025872955,,,,,,,,,,,,,,,,,,,,,,
9,240628_093126,LEARNING,1.0,10,1.0,1068.0,,,,,,,,,,10.0,10.0,10.0,cue2.png,Easy,B,,,,,,,,,,,,,,,,,,,,,,,,,,,32,22,Female,0.2857142857142857,0.5,0.2,1.25,1.5,2.0,2.888888888888889,3.0,2.625,1.6666666666666667,2.25,2.25,2.75,1.25,1.0,1.0,0.5712039272554896,-0.24307584198889612,,,6.271922516776305e-05,-0.4325996488576923,-0.00031834461548229786,-0.10191022966647773,-0.0005261866846332985,-0.5260259573231362,-0.17400000000000015,-3.1851343600289703,0.274,-1.9641255744215924,,,,,,,,,,,,,,,,,,,,
10,240628_093150,LEARNING,1.0,11,3.0,1068.0,,,,,,,,,,11.0,11.0,11.0,cue1.png,Hard,B,,,,,,,,,,,,,,,,,,,,,,,,,,,32,22,Female,0.2857142857142857,0.5,0.2,1.25,1.5,2.0,2.888888888888889,3.0,2.625,1.6666666666666667,2.25,2.25,2.75,1.25,0.84375,0.875,0.6995972818271681,0.8946064300295049,0.00027307812250613756,1.4091792614287482,,,0.0005036317597814054,1.0826307613013921,0.00038266561588567224,0.7944099733539647,,,1.161,-0.5022207545872546,,,,,,,,,,,,,,,,,,,,
11,240628_093214,LEARNING,1.0,12,1.0,1068.0,,,,,,,,,,12.0,12.0,12.0,cue2.png,Easy,B,,,,,,,,,,,,,,,,,,,,,,,,,,,32,22,Female,0.2857142857142857,0.5,0.2,1.25,1.5,2.0,2.888888888888889,3.0,2.625,1.6666666666666667,2.25,2.25,2.75,1.25,1.0,1.0,0.6090620181692595,0.09238138653154009,-7.243614772160919e-05,-0.45470008783420557,0.00010475863933344723,-0.34447386809349645,-0.0006437824408095883,-0.5708950517520813,-0.0013706897101220857,-1.7529713452416853,1.028,-0.7783659209855396,,,,,,,,,,,,,,,,,,,,,,
12,240628_093236,LEARNING,1.0,13,1.0,1068.0,,,,,,,,,,13.0,13.0,13.0,cue2.png,Easy,B,,,,,,,,,,,,,,,,,,,,,,,,,,,32,22,Female,0.2857142857142857,0.5,0.2,1.25,1.5,2.0,2.888888888888889,3.0,2.625,1.6666666666666667,2.25,2.25,2.75,1.25,1.0,1.0,0.4608623272400688,-1.2208030975970328,1.0923395517272935e-05,-0.005016400082233229,5.607128763916551e-06,-0.5523217759747099,0.0007551789197629017,1.4451325692931876,0.00019110944781895126,0.5161055151777705,,,,,,,,,,,,,,,,,,,,,,,,
13,240628_093300,LEARNING,1.0,14,1.0,1068.0,,,,,,,,,,14.0,14.0,14.0,cue2.png,Easy,B,,,,,,,,,,,,,,,,,,,,,,,,,,,32,22,Female,0.2857142857142857,0.5,0.2,1.25,1.5,2.0,2.888888888888889,3.0,2.625,1.6666666666666667,2.25,2.25,2.75,1.25,0.5833333333333334,0.75,0.6602707000195303,0.5461370322877926,-9.715666169057531e-05,-0.5880550877870329,-6.756542696945795e-05,-0.7057108926522428,-0.00010183500317951979,0.21009935896546328,0.000527156876780786,1.0043356702420092,,,,,,,,,,,,,,,,,,,,,,,,
14,240628_093324,LEARNING,1.0,15,3.0,1068.0,,,,,,,,,,15.0,15.0,15.0,cue1.png,Hard,B,,,,,,,,,,,,,,,,,,,,,,,,,,,32,22,Female,0.2857142857142857,0.5,0.2,1.25,1.5,2.0,2.888888888888889,3.0,2.625,1.6666666666666667,2.25,2.25,2.75,1.25,0.84375,0.875,0.6935281636913053,0.8408285056736013,,,0.0012222756115011155,1.9981385979456838,,,-0.0007911688138456975,-0.9110081202109668,,,,,,,,,,,,,,,,,,,,,,,,
15,240628_093348,LEARNING,1.0,16,1.0,1068.0,,,,,,,,,,16.0,16.0,16.0,cue2.png,Easy,B,,,,,,,,,,,,,,,,,,,,,,,,,,,32,22,Female,0.2857142857142857,0.5,0.2,1.25,1.5,2.0,2.888888888888889,3.0,2.625,1.6666666666666667,2.25,2.25,2.75,1.25,1.0,1.0,0.593424827220257,-0.04617839318754968,1.4298956065667001e-05,0.013193086878149851,6.434749061789719e-05,-0.4291863718905369,,,,,,,,,,,,,,,,,,,,,,,,,,,,
16,240628_093409,LEARNING,1.0,17,1.0,1068.0,,,,,,,,,,17.0,17.0,17.0,cue2.png,Easy,B,,,,,,,,,,,,,,,,,,,,,,,,,,,32,22,Female,0.2857142857142857,0.5,0.2,1.25,1.5,2.0,2.888888888888889,3.0,2.625,1.6666666666666667,2.25,2.25,2.75,1.25,1.0,1.0,0.438263309082355,-1.4210510185959306,-1.9057299773814554e-05,-0.1667474880421294,-0.00015268580389481796,-0.8841458167433861,,,-0.0005522530557583371,-0.5638967675705342,,,,,,,,,,,,,,,,,,,,,,,,
17,240628_093434,LEARNING,1.0,18,3.0,1068.0,,,,,,,,,,18.0,18.0,18.0,cue1.png,Hard,B,,,,,,,,,,,,,,,,,,,,,,,,,,,32,22,Female,0.2857142857142857,0.5,0.2,1.25,1.5,2.0,2.888888888888889,3.0,2.625,1.6666666666666667,2.25,2.25,2.75,1.25,1.0,1.0,0.6709286454768683,0.6405761537158665,0.00019817699982335388,1.0051245874697554,3.482733294556551e-06,-0.5567750732697538,,,0.000317681226112752,0.6999966972470641,,,,,,,,,,,,,,,,,,,,,,,,
18,240628_093458,LEARNING,1.0,19,3.0,1068.0,,,,,,,,,,19.0,19.0,19.0,cue1.png,Hard,B,,,,,,,,,,,,,,,,,,,,,,,,,,,32,22,Female,0.2857142857142857,0.5,0.2,1.25,1.5,2.0,2.888888888888889,3.0,2.625,1.6666666666666667,2.25,2.25,2.75,1.25,0.84375,0.875,0.6893710636703129,0.8039928064065485,-3.9530920723398425e-05,-0.2771925914163352,0.00018776426072566934,-0.17047203343001952,0.0016446348848922366,2.7269176449513224,-0.0003147324805783695,-0.21881242156224195,,,,,,,,,,,,,,,,,,,,,,,,
19,240628_093523,LEARNING,1.0,20,3.0,1068.0,,,,,,,,,,20.0,20.0,20.0,cue1.png,Hard,B,,,,,,,,,,,,,,,,,,,,,,,,,,,32,22,Female,0.2857142857142857,0.5,0.2,1.25,1.5,2.0,2.888888888888889,3.0,2.625,1.6666666666666667,2.25,2.25,2.75,1.25,0.84375,0.7840909090909091,0.6395071699749678,0.3621532107339095,-0.00010233368000539143,-0.6159825523209332,,,-0.00045017568543473125,-0.29189051491702594,-0.0018118013349087388,-2.3938451577138085,2.474,2.1169644973645445,1.3649999999999998,-0.16599912747766662,,,,,,,,,,,,,,,,,,,,
20,240628_093546,LEARNING,1.0,21,1.0,1068.0,,,,,,,,,,21.0,21.0,21.0,cue2.png,Easy,B,,,,,,,,,,,,,,,,,,,,,,,,,,,32,22,Female,0.2857142857142857,0.5,0.2,1.25,1.5,2.0,2.888888888888889,3.0,2.625,1.6666666666666667,2.25,2.25,2.75,1.25,1.0,1.0,0.5550022182181816,-0.3866377670560952,,,-0.00013394066524044252,-0.8448510260752903,-0.0001361132835718216,0.1607013112277223,0.0006457648599227589,1.1766565660755515,1.2720000000000002,-0.289803941678886,0.679,-1.2966267558952036,,,,,,,,,,,,,,,,,,,,
21,240628_093612,LEARNING,1.0,22,3.0,1068.0,,,,,,,,,,22.0,22.0,22.0,cue1.png,Hard,B,,,,,,,,,,,,,,,,,,,,,,,,,,,32,22,Female,0.2857142857142857,0.5,0.2,1.25,1.5,2.0,2.888888888888889,3.0,2.625,1.6666666666666667,2.25,2.25,2.75,1.25,1.0,1.0,0.7799890727566724,1.6069510499003643,,,,,-8.443332356726681e-05,0.23517672546007884,0.00045588370216161165,0.9007856648045562,1.5150000000000001,0.19675573443388714,2.593,1.8579232161035815,,,,,,,,,,,,,,,,,,,,
22,240628_093637,LEARNING,1.0,23,3.0,1068.0,,,,,,,,,,23.0,23.0,23.0,cue1.png,Hard,B,,,,,,,,,,,,,,,,,,,,,,,,,,,32,22,Female,0.2857142857142857,0.5,0.2,1.25,1.5,2.0,2.888888888888889,3.0,2.625,1.6666666666666667,2.25,2.25,2.75,1.25,0.84375,0.875,0.8181651091330092,1.9452255653235204,0.00014332137146569335,0.7092054845647087,2.7655166531316208e-05,-0.5061032312796556,0.0005882497444575476,1.204572795693591,,,1.6829999999999998,0.5331426710056805,2.183,1.1821836714225458,,,,,,,,,,,,,,,,,,,,
23,240628_093703,LEARNING,1.0,24,3.0,1068.0,,,,,,,,,,24.0,24.0,24.0,cue1.png,Hard,B,,,,,,,,,,,,,,,,,,,,,,,,,,,32,22,Female,0.2857142857142857,0.5,0.2,1.25,1.5,2.0,2.888888888888889,3.0,2.625,1.6666666666666667,2.25,2.25,2.75,1.25,1.0,1.0,0.7743874000258405,1.5573151183463014,-1.8876164562374714e-05,-0.16577035277126329,0.00021531646057221243,-0.11271530271825483,,,,,1.8509999999999998,0.8695296075774743,,,,,,,,,,,,,,,,,,,,,,
24,240628_093725,LEARNING,1.0,25,1.0,1068.0,,,,,,,,,,25.0,25.0,25.0,cue2.png,Easy,B,,,,,,,,,,,,,,,,,,,,,,,,,,,32,22,Female,0.2857142857142857,0.5,0.2,1.25,1.5,2.0,2.888888888888889,3.0,2.625,1.6666666666666667,2.25,2.25,2.75,1.25,1.0,1.0,0.5091741363602605,-0.792716387435609,2.9976212614403648e-05,0.09776416614218965,,,-0.0005243461294515712,-0.39877671493469463,-0.0017290760999293612,-2.273656902066436,1.4389999999999998,0.0445806916990274,0.5710000000000002,-1.4746264408355736,,,,,,,,,,,,,,,,,,,,
25,240628_093747,LEARNING,1.0,26,1.0,1068.0,,,,,,,,,,26.0,26.0,26.0,cue2.png,Easy,B,,,,,,,,,,,,,,,,,,,,,,,,,,,32,22,Female,0.2857142857142857,0.5,0.2,1.25,1.5,2.0,2.888888888888889,3.0,2.625,1.6666666666666667,2.25,2.25,2.75,1.25,0.84375,0.875,0.4900455000302331,-0.9622135589454478,2.7160509480987378e-05,0.08257483424984768,-9.207865938355535e-06,-0.5833779407920796,-0.0003811373681370453,-0.19240016550118147,-0.0007303612844722085,-0.8226632410764697,1.684,0.5351449741995604,1.229,-0.39014687888405836,,,,,,,,,,,,,,,,,,,,
26,240628_093813,LEARNING,1.0,27,3.0,1068.0,,,,,,,,,,27.0,27.0,27.0,cue1.png,Hard,B,,,,,,,,,,,,,,,,,,,,,,,,,,,32,22,Female,0.2857142857142857,0.5,0.2,1.25,1.5,2.0,2.888888888888889,3.0,2.625,1.6666666666666667,2.25,2.25,2.75,1.25,0.84375,0.875,0.762127181832594,1.448678398509317,-7.335649740923674e-05,-0.45966492119908764,-1.4620378355449746e-05,-0.5947240047684345,-0.0006005289440389411,-0.5085629197475686,,,1.4499999999999997,0.06660602683170418,2.176,1.1706466548060408,,,,,,,,,,,,,,,,,,,,
27,240628_093835,LEARNING,1.0,28,1.0,1068.0,,,,,,,,,,28.0,28.0,28.0,cue2.png,Easy,B,,,,,,,,,,,,,,,,,,,,,,,,,,,32,22,Female,0.2857142857142857,0.5,0.2,1.25,1.5,2.0,2.888888888888889,3.0,2.625,1.6666666666666667,2.25,2.25,2.75,1.25,1.0,1.0,0.4711163363800468,-1.1299432205061597,3.7568268881363765e-05,0.13871957121157186,0.00011129391389537186,-0.33077419637570854,-0.00030931057715315527,-0.08889137774216158,,,0.954,-0.9265363573326394,,,,,,,,,,,,,,,,,,,,,,
28,240628_093857,LEARNING,1.0,29,1.0,1068.0,,,,,,,,,,29.0,29.0,29.0,cue2.png,Easy,B,,,,,,,,,,,,,,,,,,,,,,,,,,,32,22,Female,0.2857142857142857,0.5,0.2,1.25,1.5,2.0,2.888888888888889,3.0,2.625,1.6666666666666667,2.25,2.25,2.75,1.25,1.0,1.0,0.4839222908909009,-1.0164707789465832,-2.6949755415022272e-05,-0.20932339981250125,0.00014742319264883638,-0.2550376295898827,-0.0006362269903218091,-0.560006976282599,0.0004412680531529689,0.8795511604850348,1.532,0.2307948887298423,,,,,,,,,,,,,,,,,,,,,,
29,240628_093922,LEARNING,1.0,30,3.0,1068.0,,,,,,,,,,30.0,30.0,30.0,cue1.png,Hard,B,,,,,,,,,,,,,,,,,,,,,,,,,,,32,22,Female,0.2857142857142857,0.5,0.2,1.25,1.5,2.0,2.888888888888889,3.0,2.625,1.6666666666666667,2.25,2.25,2.75,1.25,1.0,0.9090909090909092,0.6279739500256255,0.2599583586761222,-8.784281836933527e-05,-0.5378114894045777,0.00015761405090254296,-0.23367488326983,-0.0008404265413725007,-0.8542766728772005,-0.0006836809009638772,-0.7548431391666315,2.131,1.4301745018637977,1.345,-0.1989620320962534,,,,,,,,,,,,,,,,,,,,
30,240628_093945,LEARNING,1.0,31,3.0,1068.0,,,,,,,,,,31.0,31.0,31.0,cue1.png,Hard,B,,,,,,,,,,,,,,,,,,,,,,,,,,,32,22,Female,0.2857142857142857,0.5,0.2,1.25,1.5,2.0,2.888888888888889,3.0,2.625,1.6666666666666667,2.25,2.25,2.75,1.25,0.84375,0.875,0.6171974090816961,0.16446837302624662,3.1684491168609396e-05,0.10697948774923677,9.435514149629728e-05,-0.366282363472717,,,,,,,1.448,-0.02920307331052988,,,,,,,,,,,,,,,,,,,,
31,240628_094008,LEARNING,1.0,32,1.0,1068.0,,,,,,,,,,32.0,32.0,32.0,cue2.png,Easy,B,,,,,,,,,,,,,,,,,,,,,,,,,,,32,22,Female,0.2857142857142857,0.5,0.2,1.25,1.5,2.0,2.888888888888889,3.0,2.625,1.6666666666666667,2.25,2.25,2.75,1.25,1.0,1.0,0.509647527243942,-0.7885217122680647,,,0.0007914166833997965,1.0949438177209128,,,,,1.212,-0.4099421333116701,1.2380000000000002,-0.37531357180569397,,,,,,,,,,,,,,,,,,,,
32,240628_094030,LEARNING,1.0,33,1.0,1068.0,,,,,,,,,,33.0,33.0,33.0,cue2.png,Easy,B,,,,,,,,,,,,,,,,,,,,,,,,,,,32,22,Female,0.2857142857142857,0.5,0.2,1.25,1.5,2.0,2.888888888888889,3.0,2.625,1.6666666666666667,2.25,2.25,2.75,1.25,1.0,1.0,0.4635948272718286,-1.1965906540886166,-5.918317168047667e-05,-0.383206808141123,0.00016801134544393434,-0.2118793916465581,,,0.0005231720882922491,0.9985463270303474,0.8009999999999999,-1.2328887459962377,,,,,,,,,,,,,,,,,,,,,,
33,240628_094053,LEARNING,1.0,34,1.0,1068.0,,,,,,,,,,34.0,34.0,34.0,cue2.png,Easy,B,,,,,,,,,,,,,,,,,,,,,,,,,,,32,22,Female,0.2857142857142857,0.5,0.2,1.25,1.5,2.0,2.888888888888889,3.0,2.625,1.6666666666666667,2.25,2.25,2.75,1.25,0.84375,0.7840909090909091,0.4534620600286871,-1.2863762173482411,-0.00025459956105428625,-1.437382001603573,0.0007729816937224318,1.0562991817063658,-0.0008659499920524484,-0.8910582331156508,-0.0002527870443786214,-0.1288143221428897,0.733,-1.3690453631800588,2.193,1.1986651237318395,,,,,,,,,,,,,,,,,,,,
34,240628_094117,LEARNING,1.0,35,3.0,1068.0,,,,,,,,,,35.0,35.0,35.0,cue1.png,Hard,B,,,,,,,,,,,,,,,,,,,,,,,,,,,32,22,Female,0.2857142857142857,0.5,0.2,1.25,1.5,2.0,2.888888888888889,3.0,2.625,1.6666666666666667,2.25,2.25,2.75,1.25,1.0,1.0,0.6723326817789878,0.653017196443665,2.0161735442316732e-05,0.04481989465723018,8.870710615540385e-05,-0.37812214606907624,-0.0006438419450125821,-0.5709808025956604,-0.0001683417694209096,-0.0061270877414376845,1.6849999999999998,0.5371472773934399,1.353,-0.18577687024881853,,,,,,,,,,,,,,,,,,,,
35,240628_094142,LEARNING,1.0,36,3.0,1068.0,,,,,,,,,,36.0,36.0,36.0,cue1.png,Hard,B,,,,,,,,,,,,,,,,,,,,,,,,,,,32,22,Female,0.2857142857142857,0.5,0.2,1.25,1.5,2.0,2.888888888888889,3.0,2.625,1.6666666666666667,2.25,2.25,2.75,1.25,0.84375,0.875,0.7843122636391358,1.6452584657470648,-0.0007821465554051798,-4.28323826070464,,,-0.0003381550536750502,-0.13045883129851643,0.00012663224079428534,0.4224291050322941,1.6019999999999999,0.3709561123014228,1.721,0.4207405747331842,,,,,,,,,,,,,,,,,,,,
36,240628_094205,LEARNING,1.0,37,1.0,1068.0,,,,,,,,,,37.0,37.0,37.0,cue2.png,Easy,B,,,,,,,,,,,,,,,,,,,,,,,,,,,32,22,Female,0.2857142857142857,0.5,0.2,1.25,1.5,2.0,2.888888888888889,3.0,2.625,1.6666666666666667,2.25,2.25,2.75,1.25,1.0,1.0,0.5352933182042431,-0.5612766042579324,0.00015848480772288377,0.7910047563719566,,,,,0.0008191784874698113,1.4286024373149506,1.442,0.0505876012806668,0.583,-1.4548486980644217,,,,,,,,,,,,,,,,,,,,
37,240628_094229,LEARNING,1.0,38,3.0,1068.0,,,,,,,,,,38.0,38.0,38.0,cue1.png,Hard,B,,,,,,,,,,,,,,,,,,,,,,,,,,,32,22,Female,0.2857142857142857,0.5,0.2,1.25,1.5,2.0,2.888888888888889,3.0,2.625,1.6666666666666667,2.25,2.25,2.75,1.25,0.84375,0.875,0.6555367818483236,0.50419019790112,,,,,-0.00010472045587033192,0.20594116525987294,-0.00032253944771154335,-0.230154858508676,1.3900000000000001,-0.0535321648010786,2.113,1.0668135052574912,,,,,,,,,,,,,,,,,,,,
38,240628_094253,LEARNING,1.0,39,3.0,1068.0,,,,,,,,,,39.0,39.0,39.0,cue1.png,Hard,B,,,,,,,,,,,,,,,,,,,,,,,,,,,32,22,Female,0.2857142857142857,0.5,0.2,1.25,1.5,2.0,2.888888888888889,3.0,2.625,1.6666666666666667,2.25,2.25,2.75,1.25,0.84375,0.875,0.6400819999927824,0.36724672918642837,,,,,-0.00039736471668671853,-0.21578521659300176,-0.0007040633982470321,-0.7844560716026697,1.377,-0.07956210632151528,1.625,0.262518632563966,,,,,,,,,,,,,,,,,,,,
39,240628_094316,LEARNING,1.0,40,3.0,1068.0,,,,,,,,,,40.0,40.0,40.0,cue1.png,Hard,B,,,,,,,,,,,,,,,,,,,,,,,,,,,32,22,Female,0.2857142857142857,0.5,0.2,1.25,1.5,2.0,2.888888888888889,3.0,2.625,1.6666666666666667,2.25,2.25,2.75,1.25,1.0,1.0,0.5794200272595679,-0.17027369930049252,-4.576885648917978e-05,-0.31084318317975157,-3.498001760160593e-05,-0.6374032176036468,-0.0007547677430232505,-0.7308347335037172,,,1.5729999999999997,0.3128893196789105,1.343,-0.2022583225581121,,,,,,,,,,,,,,,,,,,,
40,240628_094338,LEARNING,1.0,41,1.0,1068.0,,,,,,,,,,41.0,41.0,41.0,cue2.png,Easy,B,,,,,,,,,,,,,,,,,,,,,,,,,,,32,22,Female,0.2857142857142857,0.5,0.2,1.25,1.5,2.0,2.888888888888889,3.0,2.625,1.6666666666666667,2.25,2.25,2.75,1.25,0.84375,0.875,0.4439931545745242,-1.370279359427183,,,,,0.00028976198344146404,0.7744254108465009,-4.091794888558958e-06,0.23250527074131175,1.3370000000000002,-0.15965423407670395,2.016,0.9069434178573438,,,,,,,,,,,,,,,,,,,,
41,240628_094402,LEARNING,1.0,42,3.0,1068.0,,,,,,,,,,42.0,42.0,42.0,cue1.png,Hard,B,,,,,,,,,,,,,,,,,,,,,,,,,,,32,22,Female,0.2857142857142857,0.5,0.2,1.25,1.5,2.0,2.888888888888889,3.0,2.625,1.6666666666666667,2.25,2.25,2.75,1.25,0.84375,0.875,0.6705325909001245,0.6370667487920972,0.0005183063957725554,2.7320650400549265,,,-0.0010227600391617738,-1.1170354438803856,-0.0008760200505240146,-1.034285160505038,,,,,,,,,,,,,,,,,,,,,,,,
42,240628_094426,LEARNING,1.0,43,3.0,1068.0,,,,,,,,,,43.0,43.0,43.0,cue1.png,Hard,B,,,,,,,,,,,,,,,,,,,,,,,,,,,32,22,Female,0.2857142857142857,0.5,0.2,1.25,1.5,2.0,2.888888888888889,3.0,2.625,1.6666666666666667,2.25,2.25,2.75,1.25,0.84375,0.875,0.6635746182027188,0.5754127619994452,-2.961685229651385e-05,-0.22371107415260602,-6.185617202266293e-05,-0.6937427774976113,,,0.00014008145360354472,0.44196893985752167,0.9220000000000002,-0.9906100595367903,2.276,1.3354611778989756,,,,,,,,,,,,,,,,,,,,
43,240628_094448,LEARNING,1.0,44,1.0,1068.0,,,,,,,,,,44.0,44.0,44.0,cue2.png,Easy,B,,,,,,,,,,,,,,,,,,,,,,,,,,,32,22,Female,0.2857142857142857,0.5,0.2,1.25,1.5,2.0,2.888888888888889,3.0,2.625,1.6666666666666667,2.25,2.25,2.75,1.25,0.84375,0.875,0.4532824726986952,-1.2879675249536269,,,,,0.0002747494987455773,0.7527910865110228,-0.00019138607719602126,-0.0396072604454776,2.229,1.6264002148640113,2.044,0.9530914843233658,,,,,,,,,,,,,,,,,,,,
44,240628_094511,LEARNING,1.0,45,1.0,1068.0,,,,,,,,,,45.0,45.0,45.0,cue2.png,Easy,B,,,,,,,,,,,,,,,,,,,,,,,,,,,32,22,Female,0.2857142857142857,0.5,0.2,1.25,1.5,2.0,2.888888888888889,3.0,2.625,1.6666666666666667,2.25,2.25,2.75,1.25,1.0,1.0,0.5103044454431669,-0.7827008176281699,1.5113618044086154e-05,0.01758778709474085,,,,,0.0013603823334727991,2.214896319912726,,,1.695,0.3778887987290209,,,,,,,,,,,,,,,,,,,,
45,240628_094532,LEARNING,1.0,46,1.0,1068.0,,,,,,,,,,46.0,46.0,46.0,cue2.png,Easy,B,,,,,,,,,,,,,,,,,,,,,,,,,,,32,22,Female,0.2857142857142857,0.5,0.2,1.25,1.5,2.0,2.888888888888889,3.0,2.625,1.6666666666666667,2.25,2.25,2.75,1.25,1.0,1.0,0.4436632182279771,-1.3732028965028622,0.0001306096663772978,0.6406320951282494,,,0.0005360420896323662,1.129336926337992,0.0005989435521539122,1.108631720824048,0.538,-1.7594944859866053,-0.07899999999999996,-2.5459208409396545,,,,,,,,,,,,,,,,,,,,
46,240628_094556,LEARNING,1.0,47,3.0,1068.0,,,,,,,,,,47.0,47.0,47.0,cue1.png,Hard,B,,,,,,,,,,,,,,,,,,,,,,,,,,,32,22,Female,0.2857142857142857,0.5,0.2,1.25,1.5,2.0,2.888888888888889,3.0,2.625,1.6666666666666667,2.25,2.25,2.75,1.25,0.84375,0.875,0.6465949272652242,0.424957207439145,-5.8095465639904434e-05,-0.3773391696619516,0.0023974496840667068,4.461615664265477,-0.00026836995464519023,-0.029892303053587786,0.0006040616797607489,1.1160676480764722,1.8159999999999998,0.799448995791684,1.6290000000000002,0.2691112134876838,,,,,,,,,,,,,,,,,,,,
47,240628_094623,LEARNING,1.0,48,3.0,1068.0,,,,,,,,,,48.0,48.0,48.0,cue1.png,Hard,B,,,,,,,,,,,,,,,,,,,,,,,,,,,32,22,Female,0.2857142857142857,0.5,0.2,1.25,1.5,2.0,2.888888888888889,3.0,2.625,1.6666666666666667,2.25,2.25,2.75,1.25,0.84375,0.7840909090909091,0.8274937500245869,2.0278858353957454,9.9242529478542e-05,0.4714218374084803,0.0005858050551300477,0.6639272197241713,0.0002292039475173648,0.687155900379625,-0.0004922012261608152,-0.4766498150589017,1.9660000000000002,1.0997944748736437,2.0039999999999996,0.8871656750861907,,,,,,,,,,,,,,,,,,,,
48,240628_094645,LEARNING,1.0,49,1.0,1068.0,,,,,,,,,,49.0,49.0,49.0,cue2.png,Easy,B,,,,,,,,,,,,,,,,,,,,,,,,,,,32,22,Female,0.2857142857142857,0.5,0.2,1.25,1.5,2.0,2.888888888888889,3.0,2.625,1.6666666666666667,2.25,2.25,2.75,1.25,1.0,1.0,0.4964935363016345,-0.9050780741707307,7.25043022386713e-05,0.3271822679242878,-1.2214686870814541e-05,-0.5896810362930481,6.800410436007178e-05,0.45485260346778145,-0.0005109430175983835,-0.5038790301968185,,,,,,,,,,,,,,,,,,,,,,,,
49,240628_094707,LEARNING,1.0,50,1.0,1068.0,,,,,,,,,,50.0,50.0,50.0,cue2.png,Easy,B,,,,,,,,,,,,,,,,,,,,,,,,,,,32,22,Female,0.2857142857142857,0.5,0.2,1.25,1.5,2.0,2.888888888888889,3.0,2.625,1.6666666666666667,2.25,2.25,2.75,1.25,1.0,1.0,0.4500598999967968,-1.3165224594786338,0.00023143435766008425,1.1845316563646835,0.0004752174274518521,0.43210617213316316,,,0.0004546417141601802,0.8989812290545192,1.366,-0.10158744145419206,0.817,-1.0691827140269528,,,,,,,,,,,,,,,,,,,,
0,240628_094828,TrueCHOICE,9.0,1,1.0,1068.0,,,,,,,,,,,1.0,1.0,,,B,,,,,,True,cue2.png,Easy,cue1.png,Hard,Left,Easy,Easy,0.0157991999294608,,,,,,,,,,,,,32,22,Female,0.2857142857142857,0.5,0.2,1.25,1.5,2.0,2.888888888888889,3.0,2.625,1.6666666666666667,2.25,2.25,2.75,1.25,0.84375,0.875,0.5341712636238133,1.2011377499696825,,,,,,,,,,,,,0.00036203123433332235,1.2643969190766944,-0.00024066861885396664,-0.015683269135177546,1.457,-0.019142481328850616,,,,,,,,,,,,,,
1,240628_094847,TrueCHOICE,9.0,2,1.0,1068.0,,,,,,,,,,,2.0,2.0,,,B,,,,,,True,cue2.png,Easy,cue1.png,Hard,Left,Easy,Easy,0.0161524000577628,,,,,,,,,,,,,32,22,Female,0.2857142857142857,0.5,0.2,1.25,1.5,2.0,2.888888888888889,3.0,2.625,1.6666666666666667,2.25,2.25,2.75,1.25,1.0,1.0,0.382265045476908,-1.7324671486995211,,,,,,,,,,,,,0.00033330493175315595,1.0880095806939638,-0.0008163391746033623,-0.8106155214314844,1.0570000000000002,-2.107413171749021,,,,,,,,,,,,,,
2,240628_094913,TrueCHOICE,9.0,3,1.0,1068.0,,,,,,,,,,,4.0,3.0,,,B,,,,,,True,cue1.png,Hard,cue2.png,Easy,Right,Easy,Easy,0.0160988999996334,,,,,,,,,,,,,32,22,Female,0.2857142857142857,0.5,0.2,1.25,1.5,2.0,2.888888888888889,3.0,2.625,1.6666666666666667,2.25,2.25,2.75,1.25,1.0,1.0,0.5191276182039556,0.9106156605127661,,,,,,,,,,,,,,,,,1.598,0.7169729370442597,,,,,,,,,,,,,,
3,240628_094934,TrueCHOICE,9.0,4,3.0,1068.0,,,,,,,,,,,5.0,4.0,,,B,,,,,,True,cue2.png,Easy,cue1.png,Hard,Right,Hard,Hard,0.0165974998380988,,,,,,,,,,,,,32,22,Female,0.2857142857142857,0.5,0.2,1.25,1.5,2.0,2.888888888888889,3.0,2.625,1.6666666666666667,2.25,2.25,2.75,1.25,0.84375,0.875,0.5487494363280182,1.4826706548132653,,,,,,,,,,,,,,,-0.0016495668501133945,-1.9612033813691194,1.5999999999999999,0.7274142904963594,,,,,,,,,,,,,,
4,240628_094954,TrueCHOICE,9.0,5,1.0,1068.0,,,,,,,,,,,6.0,5.0,,,B,,,,,,True,cue1.png,Hard,cue2.png,Easy,Right,Easy,Easy,0.0164397999178618,,,,,,,,,,,,,32,22,Female,0.2857142857142857,0.5,0.2,1.25,1.5,2.0,2.888888888888889,3.0,2.625,1.6666666666666667,2.25,2.25,2.75,1.25,1.0,1.0,0.5013936272695322,0.5681377599184143,,,,,,,,,,,,,0.00020032800519823556,0.2714949570008788,0.0003288815961452812,0.7707975238868184,,,,,,,,,,,,,,,,
5,240628_095013,TrueCHOICE,9.0,6,1.0,1068.0,,,,,,,,,,,7.0,6.0,,,B,,,,,,True,cue1.png,Hard,cue2.png,Easy,Right,Easy,Easy,0.0167051998432725,,,,,,,,,,,,,32,22,Female,0.2857142857142857,0.5,0.2,1.25,1.5,2.0,2.888888888888889,3.0,2.625,1.6666666666666667,2.25,2.25,2.75,1.25,1.0,1.0,0.4201411818238822,-1.001005194833415,,,,,,,,,,,,,0.00012697530993840533,-0.1789106127369461,,,,,,,,,,,,,,,,,,
6,240628_095033,TrueCHOICE,9.0,7,1.0,1068.0,,,,,,,,,,,8.0,7.0,,,B,,,,,,True,cue2.png,Easy,cue1.png,Hard,Left,Easy,Easy,0.0162776000797748,,,,,,,,,,,,,32,22,Female,0.2857142857142857,0.5,0.2,1.25,1.5,2.0,2.888888888888889,3.0,2.625,1.6666666666666667,2.25,2.25,2.75,1.25,0.84375,0.875,0.4181211726867001,-1.0400155050924929,,,,,,,,,,,,,,,2.2540971268865395e-07,0.3169626005913691,1.4539999999999997,-0.03480451150700365,,,,,,,,,,,,,,
7,240628_095053,TrueCHOICE,9.0,8,1.0,1068.0,,,,,,,,,,,9.0,8.0,,,B,,,,,,True,cue1.png,Hard,cue2.png,Easy,Right,Easy,Easy,0.0164965998847037,,,,,,,,,,,,,32,22,Female,0.2857142857142857,0.5,0.2,1.25,1.5,2.0,2.888888888888889,3.0,2.625,1.6666666666666667,2.25,2.25,2.75,1.25,1.0,1.0,0.4628314000173387,-0.17657394543934657,,,,,,,,,,,,,,,8.010779693906622e-05,0.42727063243782276,,,,,,,,,,,,,,,,
8,240628_095113,TrueCHOICE,9.0,9,1.0,1068.0,,,,,,,,,,,10.0,9.0,,,B,,,,,,True,cue2.png,Easy,cue1.png,Hard,Left,Easy,Easy,0.0160999000072479,,,,,,,,,,,,,32,22,Female,0.2857142857142857,0.5,0.2,1.25,1.5,2.0,2.888888888888889,3.0,2.625,1.6666666666666667,2.25,2.25,2.75,1.25,0.84375,0.875,0.4760287454859777,0.0782924964253829,,,,,,,,,,,,,-8.334143743629055e-05,-1.4703128453496774,,,,,,,,,,,,,,,,,,
9,240628_095133,TrueCHOICE,9.0,10,1.0,1068.0,,,,,,,,,,,11.0,10.0,,,B,,,,,,True,cue1.png,Hard,cue2.png,Easy,Right,Easy,Easy,0.0163714999798685,,,,,,,,,,,,,32,22,Female,0.2857142857142857,0.5,0.2,1.25,1.5,2.0,2.888888888888889,3.0,2.625,1.6666666666666667,2.25,2.25,2.75,1.25,1.0,1.0,0.456917000003159,-0.2907925275747234,,,,,,,,,,,,,-2.622737867997906e-06,-0.9746779986849129,0.0006921815967166761,1.272471415019771,1.5979999999999999,0.7169729370442585,,,,,,,,,,,,,,
0,240628_095254,FalseCHOICE,9.0,1,2.0,1068.0,,,,,,,,,,,1.0,1.0,,,B,,,,,,False,cue2.png,Easy,cue1.png,Hard,Right,Hard,Mid,0.016542499884963,,,,,,,,,,,,,32,22,Female,0.2857142857142857,0.5,0.2,1.25,1.5,2.0,2.888888888888889,3.0,2.625,1.6666666666666667,2.25,2.25,2.75,1.25,0.5833333333333334,0.75,0.6197611636651511,0.24030832083679593,,,,,,,,,,,,,,,,,,,0.0003224865075572218,0.2896938216890932,-0.0006862355570124621,-1.1088439134058,,,,,,,,,,
1,240628_095316,FalseCHOICE,9.0,2,2.0,1068.0,,,,,,,,,,,2.0,2.0,,,B,,,,,,False,cue1.png,Hard,cue2.png,Easy,Left,Hard,Mid,0.0162496999837458,,,,,,,,,,,,,32,22,Female,0.2857142857142857,0.5,0.2,1.25,1.5,2.0,2.888888888888889,3.0,2.625,1.6666666666666667,2.25,2.25,2.75,1.25,0.5833333333333334,0.75,0.601393736390905,0.04889351122900823,,,,,,,,,,,,,,,,,,,-5.451321905367793e-05,-0.2517388611296198,,,1.4549999999999998,-0.28398011781369986,,,,,,,,
2,240628_095338,FalseCHOICE,9.0,3,2.0,1068.0,,,,,,,,,,,3.0,3.0,,,B,,,,,,False,cue1.png,Hard,cue2.png,Easy,Right,Easy,Mid,0.0165853998623788,,,,,,,,,,,,,32,22,Female,0.2857142857142857,0.5,0.2,1.25,1.5,2.0,2.888888888888889,3.0,2.625,1.6666666666666667,2.25,2.25,2.75,1.25,0.5833333333333334,0.6590909090909091,0.514384280028753,-0.8578692201520541,,,,,,,,,,,,,,,,,,,-9.681327191977604e-05,-0.3124885898165656,0.0006663659993823559,1.3394499576367447,1.462,-0.27078801905291916,,,,,,,,
3,240628_095358,FalseCHOICE,9.0,4,2.0,1068.0,,,,,,,,,,,4.0,4.0,,,B,,,,,,False,cue1.png,Hard,cue2.png,Easy,Right,Easy,Mid,0.0164902000688016,,,,,,,,,,,,,32,22,Female,0.2857142857142857,0.5,0.2,1.25,1.5,2.0,2.888888888888889,3.0,2.625,1.6666666666666667,2.25,2.25,2.75,1.25,0.84375,0.875,0.5198696090585806,-0.8007042619789116,,,,,,,,,,,,,,,,,,,4.4555403966931896e-05,-0.10946026897412701,0.0010431958626403587,2.021535705859164,2.0,0.7431189999899266,,,,,,,,
4,240628_095419,FalseCHOICE,9.0,5,2.0,1068.0,,,,,,,,,,,5.0,5.0,,,B,,,,,,False,cue2.png,Easy,cue1.png,Hard,Left,Easy,Mid,0.0177462000865489,,,,,,,,,,,,,32,22,Female,0.2857142857142857,0.5,0.2,1.25,1.5,2.0,2.888888888888889,3.0,2.625,1.6666666666666667,2.25,2.25,2.75,1.25,0.84375,0.875,0.5055411545432765,-0.9500272102650018,,,,,,,,,,,,,,,,,,,-9.018550822704943e-05,-0.3029700474306049,-0.0005692318406408693,-0.8970598293734771,1.5590000000000002,-0.08798322193924586,,,,,,,,
5,240628_095441,FalseCHOICE,9.0,6,2.0,1068.0,,,,,,,,,,,6.0,6.0,,,B,,,,,,False,cue1.png,Hard,cue2.png,Easy,Right,Easy,Mid,0.0168704001698642,,,,,,,,,,,,,32,22,Female,0.2857142857142857,0.5,0.2,1.25,1.5,2.0,2.888888888888889,3.0,2.625,1.6666666666666667,2.25,2.25,2.75,1.25,0.5833333333333334,0.75,0.6060305545741523,0.09721577522820779,,,,,,,,,,,,,,,,,,,,,-0.0004593252720434676,-0.6981220290935908,,,,,,,,,,
6,240628_095502,FalseCHOICE,9.0,7,2.0,1068.0,,,,,,,,,,,7.0,7.0,,,B,,,,,,False,cue1.png,Hard,cue2.png,Easy,Right,Easy,Mid,0.0170470001175999,,,,,,,,,,,,,32,22,Female,0.2857142857142857,0.5,0.2,1.25,1.5,2.0,2.888888888888889,3.0,2.625,1.6666666666666667,2.25,2.25,2.75,1.25,0.84375,0.875,0.565426845442165,-0.3259328310965908,,,,,,,,,,,,,,,,,,,,,0.0006929537830219438,1.3875755179110576,,,,,,,,,,
7,240628_095526,FalseCHOICE,9.0,8,2.0,1068.0,,,,,,,,,,,8.0,8.0,,,B,,,,,,False,cue2.png,Easy,cue1.png,Hard,Left,Easy,Mid,0.0161035000346601,,,,,,,,,,,,,32,22,Female,0.2857142857142857,0.5,0.2,1.25,1.5,2.0,2.888888888888889,3.0,2.625,1.6666666666666667,2.25,2.25,2.75,1.25,1.0,1.0,0.7966754545499994,2.0840077568542963,,,,,,,,,,,,,,,,,,,-1.5739734063545917e-06,-0.1757095280186911,,,,,,,,,,,,
8,240628_095551,FalseCHOICE,9.0,9,2.0,1068.0,,,,,,,,,,,9.0,9.0,,,B,,,,,,False,cue2.png,Easy,cue1.png,Hard,Left,Easy,Mid,0.0159650000277906,,,,,,,,,,,,,32,22,Female,0.2857142857142857,0.5,0.2,1.25,1.5,2.0,2.888888888888889,3.0,2.625,1.6666666666666667,2.25,2.25,2.75,1.25,0.5833333333333334,0.6590909090909091,0.7726450000191107,1.8335761199059768,,,,,,,,,,,,,,,,,,,-0.0007543063936370281,-1.2567552290166433,-0.0001329346036858959,-0.10733439534635517,,,,,,,,,,
9,240628_095613,FalseCHOICE,9.0,10,2.0,1068.0,,,,,,,,,,,10.0,10.0,,,B,,,,,,False,cue1.png,Hard,cue2.png,Easy,Right,Easy,Mid,0.0145896999165415,,,,,,,,,,,,,32,22,Female,0.2857142857142857,0.5,0.2,1.25,1.5,2.0,2.888888888888889,3.0,2.625,1.6666666666666667,2.25,2.25,2.75,1.25,0.1875,0.6590909090909091,0.6026127400342375,0.06159726918137318,,,,,,,,,,,,,,,,,,,,,,,,,,,,,,,,
10,240628_095637,FalseCHOICE,9.0,11,2.0,1068.0,,,,,,,,,,,11.0,11.0,,,B,,,,,,False,cue2.png,Easy,cue1.png,Hard,Left,Easy,Mid,0.0138346999883651,,,,,,,,,,,,,32,22,Female,0.2857142857142857,0.5,0.2,1.25,1.5,2.0,2.888888888888889,3.0,2.625,1.6666666666666667,2.25,2.25,2.75,1.25,0.84375,0.875,0.7354756272397935,1.4462182004999282,,,,,,,,,,,,,,,,,,,-0.00023723087410190647,-0.5141510147416334,,,1.5510000000000002,-0.10305990623728074,,,,,,,,
11,240628_095700,FalseCHOICE,9.0,12,2.0,1068.0,,,,,,,,,,,12.0,12.0,,,B,,,,,,False,cue1.png,Hard,cue2.png,Easy,Right,Easy,Mid,0.016509500099346,,,,,,,,,,,,,32,22,Female,0.2857142857142857,0.5,0.2,1.25,1.5,2.0,2.888888888888889,3.0,2.625,1.6666666666666667,2.25,2.25,2.75,1.25,1.0,1.0,0.7516855455046012,1.6151486866310247,,,,,,,,,,,,,,,,,,,,,0.0003876072089597357,0.83487901812814,1.935,0.6206209400683933,,,,,,,,
12,240628_095724,FalseCHOICE,9.0,13,2.0,1068.0,,,,,,,,,,,13.0,13.0,,,B,,,,,,False,cue2.png,Easy,cue1.png,Hard,Left,Easy,Mid,0.0166569000575691,,,,,,,,,,,,,32,22,Female,0.2857142857142857,0.5,0.2,1.25,1.5,2.0,2.888888888888889,3.0,2.625,1.6666666666666667,2.25,2.25,2.75,1.25,0.84375,0.6931818181818181,0.6678713333482543,0.741684960721575,,,,,,,,,,,,,,,,,,,,,-0.00018788858784273086,-0.20680456227352936,,,,,,,,,,
13,240628_095746,FalseCHOICE,9.0,14,2.0,1068.0,,,,,,,,,,,14.0,14.0,,,B,,,,,,False,cue1.png,Hard,cue2.png,Easy,Left,Hard,Mid,0.015802500071004,,,,,,,,,,,,,32,22,Female,0.2857142857142857,0.5,0.2,1.25,1.5,2.0,2.888888888888889,3.0,2.625,1.6666666666666667,2.25,2.25,2.75,1.25,1.0,1.0,0.6192577999847179,0.23506255279236743,,,,,,,,,,,,,,,,,,,5.941483891357515e-05,-0.08811971310514409,-0.00010732479881330088,-0.06097903813732655,,,,,,,,,,
14,240628_095810,FalseCHOICE,9.0,15,2.0,1068.0,,,,,,,,,,,15.0,15.0,,,B,,,,,,False,cue2.png,Easy,cue1.png,Hard,Right,Hard,Mid,0.0158847998827695,,,,,,,,,,,,,32,22,Female,0.2857142857142857,0.5,0.2,1.25,1.5,2.0,2.888888888888889,3.0,2.625,1.6666666666666667,2.25,2.25,2.75,1.25,0.84375,0.875,0.6097578636201267,0.13605965579633483,,,,,,,,,,,,,,,,,,,,,-0.0008098589171632005,-1.3326099689332351,,,,,,,,,,
15,240628_095835,FalseCHOICE,9.0,16,2.0,1068.0,,,,,,,,,,,16.0,16.0,,,B,,,,,,False,cue2.png,Easy,cue1.png,Hard,Left,Easy,Mid,0.0160743000451475,,,,,,,,,,,,,32,22,Female,0.2857142857142857,0.5,0.2,1.25,1.5,2.0,2.888888888888889,3.0,2.625,1.6666666666666667,2.25,2.25,2.75,1.25,0.84375,0.7840909090909091,0.8298427899600938,2.4296587344205824,,,,,,,,,,,,,,,,,,,7.935974522628106e-06,-0.162051702144537,-5.682633529644973e-05,0.030426356260492494,,,,,,,,,,
16,240628_095857,FalseCHOICE,9.0,17,2.0,1068.0,,,,,,,,,,,17.0,17.0,,,B,,,,,,False,cue1.png,Hard,cue2.png,Easy,Right,Easy,Mid,0.0152366000693291,,,,,,,,,,,,,32,22,Female,0.2857142857142857,0.5,0.2,1.25,1.5,2.0,2.888888888888889,3.0,2.625,1.6666666666666667,2.25,2.25,2.75,1.25,1.0,1.0,0.5467780181206763,-0.5202802308631592,,,,,,,,,,,,,,,,,,,0.0016878333035660682,2.250553012189182,3.7494831845348575e-06,0.14007239682522038,,,,,,,,,,
17,240628_095918,FalseCHOICE,9.0,18,2.0,1068.0,,,,,,,,,,,18.0,18.0,,,B,,,,,,False,cue1.png,Hard,cue2.png,Easy,Left,Hard,Mid,0.0163978999480605,,,,,,,,,,,,,32,22,Female,0.2857142857142857,0.5,0.2,1.25,1.5,2.0,2.888888888888889,3.0,2.625,1.6666666666666667,2.25,2.25,2.75,1.25,1.0,1.0,0.5577202909414403,-0.40624612922281517,,,,,,,,,,,,,,,,,,,7.062878413093606e-05,-0.07201467107076547,0.0006707495216007201,1.3473844084955808,,,,,,,,,,
18,240628_095940,FalseCHOICE,9.0,19,2.0,1068.0,,,,,,,,,,,19.0,19.0,,,B,,,,,,False,cue2.png,Easy,cue1.png,Hard,Right,Hard,Mid,0.0164144001901149,,,,,,,,,,,,,32,22,Female,0.2857142857142857,0.5,0.2,1.25,1.5,2.0,2.888888888888889,3.0,2.625,1.6666666666666667,2.25,2.25,2.75,1.25,0.7083333333333334,0.7840909090909091,0.5177391599863768,-0.8229065822846401,,,,,,,,,,,,,,,,,,,0.0003318484722062394,0.30313911959935697,0.00024159093751477487,0.5705803850524642,,,,,,,,,,
19,240628_100001,FalseCHOICE,9.0,20,2.0,1068.0,,,,,,,,,,,20.0,20.0,,,B,,,,,,False,cue2.png,Easy,cue1.png,Hard,Left,Easy,Mid,0.0150733001064509,,,,,,,,,,,,,32,22,Female,0.2857142857142857,0.5,0.2,1.25,1.5,2.0,2.888888888888889,3.0,2.625,1.6666666666666667,2.25,2.25,2.75,1.25,0.84375,0.875,0.5973958909215237,0.0072302549690544445,,,,,,,,,,,,,,,,,,,,,,,,,,,,,,,,
20,240628_100022,FalseCHOICE,9.0,21,2.0,1068.0,,,,,,,,,,,21.0,21.0,,,B,,,,,,False,cue2.png,Easy,cue1.png,Hard,Left,Easy,Mid,0.016287000151351,,,,,,,,,,,,,32,22,Female,0.2857142857142857,0.5,0.2,1.25,1.5,2.0,2.888888888888889,3.0,2.625,1.6666666666666667,2.25,2.25,2.75,1.25,1.0,1.0,0.4864708636887371,-1.1487668616371414,,,,,,,,,,,,,,,,,,,,,0.0002040272378653115,0.5025877266153483,1.1110000000000002,-0.932277542629199,,,,,,,,
21,240628_100044,FalseCHOICE,9.0,22,2.0,1068.0,,,,,,,,,,,22.0,22.0,,,B,,,,,,False,cue1.png,Hard,cue2.png,Easy,Right,Easy,Mid,0.0172325000166893,,,,,,,,,,,,,32,22,Female,0.2857142857142857,0.5,0.2,1.25,1.5,2.0,2.888888888888889,3.0,2.625,1.6666666666666667,2.25,2.25,2.75,1.25,1.0,1.0,0.6970206181603399,1.04546211574709,,,,,,,,,,,,,,,,,,,-0.00042054364339276507,-0.7774178488168595,-0.0018254572767249623,-3.170906862353437,2.398,1.493184043817162,,,,,,,,
22,240628_100107,FalseCHOICE,9.0,23,2.0,1068.0,,,,,,,,,,,23.0,23.0,,,B,,,,,,False,cue2.png,Easy,cue1.png,Hard,Left,Easy,Mid,0.0160088001284748,,,,,,,,,,,,,32,22,Female,0.2857142857142857,0.5,0.2,1.25,1.5,2.0,2.888888888888889,3.0,2.625,1.6666666666666667,2.25,2.25,2.75,1.25,0.84375,0.875,0.7513397635722702,1.6115451453318161,,,,,,,,,,,,,,,,,,,9.825451259176752e-05,-0.03233964952676627,-0.00032002378412577994,-0.4459775764396929,1.606,0.0005922983117089261,,,,,,,,
23,240628_100129,FalseCHOICE,9.0,24,2.0,1068.0,,,,,,,,,,,24.0,24.0,,,B,,,,,,False,cue1.png,Hard,cue2.png,Easy,Right,Easy,Mid,0.0167050999589264,,,,,,,,,,,,,32,22,Female,0.2857142857142857,0.5,0.2,1.25,1.5,2.0,2.888888888888889,3.0,2.625,1.6666666666666667,2.25,2.25,2.75,1.25,1.0,1.0,0.6392667454201728,0.44358432472013587,,,,,,,,,,,,,,,,,,,0.002620153135510674,3.589515330259641,-4.711997768247489e-06,0.12475658422786055,1.437,-0.317902657484278,,,,,,,,
24,240628_100151,FalseCHOICE,9.0,25,2.0,1068.0,,,,,,,,,,,25.0,25.0,,,B,,,,,,False,cue1.png,Hard,cue2.png,Easy,Right,Easy,Mid,0.0154438000172376,,,,,,,,,,,,,32,22,Female,0.2857142857142857,0.5,0.2,1.25,1.5,2.0,2.888888888888889,3.0,2.625,1.6666666666666667,2.25,2.25,2.75,1.25,0.15625,0.625,0.6837659182069316,0.9073292226582758,,,,,,,,,,,,,,,,,,,-0.00013144514395010444,-0.36222556854856275,0.0002171839758401883,0.5264022496687295,0.5030000000000001,-2.07810554927985,,,,,,,,
25,240628_100211,FalseCHOICE,9.0,26,2.0,1068.0,,,,,,,,,,,26.0,26.0,,,B,,,,,,False,cue2.png,Easy,cue1.png,Hard,Left,Easy,Mid,0.0161884999834001,,,,,,,,,,,,,32,22,Female,0.2857142857142857,0.5,0.2,1.25,1.5,2.0,2.888888888888889,3.0,2.625,1.6666666666666667,2.25,2.25,2.75,1.25,0.15625,0.625,0.4686405272858048,-1.3345844177298019,,,,,,,,,,,,,,,,,,,-0.00011112006648051481,-0.333035464561522,,,1.659,0.10047533178618988,,,,,,,,
26,240628_100236,FalseCHOICE,9.0,27,2.0,1068.0,,,,,,,,,,,27.0,27.0,,,B,,,,,,False,cue2.png,Easy,cue1.png,Hard,Left,Easy,Mid,0.0165641999337822,,,,,,,,,,,,,32,22,Female,0.2857142857142857,0.5,0.2,1.25,1.5,2.0,2.888888888888889,3.0,2.625,1.6666666666666667,2.25,2.25,2.75,1.25,0.7083333333333334,0.7840909090909091,0.6636707999976352,0.6979094074252618,,,,,,,,,,,,,,,,,,,0.0017407673004868267,2.32657480727845,0.0009951203669146145,1.9345160355237305,1.824,0.4114319454331593,,,,,,,,
27,240628_100257,FalseCHOICE,9.0,28,2.0,1068.0,,,,,,,,,,,28.0,28.0,,,B,,,,,,False,cue1.png,Hard,cue2.png,Easy,Right,Easy,Mid,0.0167576000094413,,,,,,,,,,,,,32,22,Female,0.2857142857142857,0.5,0.2,1.25,1.5,2.0,2.888888888888889,3.0,2.625,1.6666666666666667,2.25,2.25,2.75,1.25,1.0,1.0,0.5583679091227665,-0.3994970233722146,,,,,,,,,,,,,,,,,,,-0.00026519093020756354,-0.5543061849459663,0.00018136958217124764,0.46157594505580046,1.5870000000000002,-0.035214826896123735,,,,,,,,
28,240628_100319,FalseCHOICE,9.0,29,2.0,1068.0,,,,,,,,,,,29.0,29.0,,,B,,,,,,False,cue2.png,Easy,cue1.png,Hard,Left,Easy,Mid,0.0163477999158203,,,,,,,,,,,,,32,22,Female,0.2857142857142857,0.5,0.2,1.25,1.5,2.0,2.888888888888889,3.0,2.625,1.6666666666666667,2.25,2.25,2.75,1.25,0.5833333333333334,0.75,0.6110794091258537,0.1498320463216776,,,,,,,,,,,,,,,,,,,-0.0001237074137799372,-0.35111293448215963,-0.0004734329546302119,-0.7236578216915239,2.5189999999999997,1.7212188938249386,,,,,,,,
29,240628_100339,FalseCHOICE,9.0,30,2.0,1068.0,,,,,,,,,,,30.0,30.0,,,B,,,,,,False,cue2.png,Easy,cue1.png,Hard,Left,Easy,Mid,0.0164738001767545,,,,,,,,,,,,,32,22,Female,0.2857142857142857,0.5,0.2,1.25,1.5,2.0,2.888888888888889,3.0,2.625,1.6666666666666667,2.25,2.25,2.75,1.25,1.0,1.0,0.527849754572592,-0.7175397549742351,,,,,,,,,,,,,,,,,,,0.0007571210286711478,0.9138994064724956,0.00047042447869212467,0.9847834840395339,1.5660000000000003,-0.07479112317846512,,,,,,,,
30,240628_100359,FalseCHOICE,9.0,31,2.0,1068.0,,,,,,,,,,,31.0,31.0,,,B,,,,,,False,cue1.png,Hard,cue2.png,Easy,Right,Easy,Mid,0.016515800030902,,,,,,,,,,,,,32,22,Female,0.2857142857142857,0.5,0.2,1.25,1.5,2.0,2.888888888888889,3.0,2.625,1.6666666666666667,2.25,2.25,2.75,1.25,1.0,1.0,0.535755390915173,-0.6351517398892175,,,,,,,,,,,,,,,,,,,-0.00014091867935247474,-0.3758311001355321,-0.00027066296664012,-0.35663139289551593,2.0010000000000003,0.7450035855271815,,,,,,,,
31,240628_100420,FalseCHOICE,9.0,32,2.0,1068.0,,,,,,,,,,,32.0,32.0,,,B,,,,,,False,cue2.png,Easy,cue1.png,Hard,Right,Hard,Mid,0.0165989999659359,,,,,,,,,,,,,32,22,Female,0.2857142857142857,0.5,0.2,1.25,1.5,2.0,2.888888888888889,3.0,2.625,1.6666666666666667,2.25,2.25,2.75,1.25,0.84375,0.875,0.5141740181610327,-0.8600604489385646,,,,,,,,,,,,,,,,,,,-0.0002158548391204538,-0.48345156550839896,-9.927005251057167e-05,-0.046399440832754005,0.11199999999999988,-2.814978494346305,,,,,,,,
32,240628_100443,FalseCHOICE,9.0,33,2.0,1068.0,,,,,,,,,,,33.0,33.0,,,B,,,,,,False,cue1.png,Hard,cue2.png,Easy,Left,Hard,Mid,0.0159378999378532,,,,,,,,,,,,,32,22,Female,0.2857142857142857,0.5,0.2,1.25,1.5,2.0,2.888888888888889,3.0,2.625,1.6666666666666667,2.25,2.25,2.75,1.25,0.5833333333333334,0.6590909090909091,0.5929513500072062,-0.0390882054339971,,,,,,,,,,,,,,,,,,,0.00017894213040889947,0.0835408413630053,-0.0005382876454210726,-0.8410488902001539,1.66,0.10235991732344403,,,,,,,,
33,240628_100504,FalseCHOICE,9.0,34,2.0,1068.0,,,,,,,,,,,34.0,34.0,,,B,,,,,,False,cue1.png,Hard,cue2.png,Easy,Right,Easy,Mid,0.0163739998824894,,,,,,,,,,,,,32,22,Female,0.2857142857142857,0.5,0.2,1.25,1.5,2.0,2.888888888888889,3.0,2.625,1.6666666666666667,2.25,2.25,2.75,1.25,1.0,1.0,0.5665792363314804,-0.3139232731232023,,,,,,,,,,,,,,,,,,,-0.001624889977785116,-2.507054293741753,,,1.683,0.14570538468029456,,,,,,,,
34,240628_100527,FalseCHOICE,9.0,35,2.0,1068.0,,,,,,,,,,,35.0,35.0,,,B,,,,,,False,cue1.png,Hard,cue2.png,Easy,Right,Easy,Mid,0.0168773001059889,,,,,,,,,,,,,32,22,Female,0.2857142857142857,0.5,0.2,1.25,1.5,2.0,2.888888888888889,3.0,2.625,1.6666666666666667,2.25,2.25,2.75,1.25,0.84375,0.7840909090909091,0.5982302100397646,0.015925051076626492,,,,,,,,,,,,,,,,,,,,,-4.976528045132385e-05,0.043207309541734185,1.312,-0.553475849641073,,,,,,,,
35,240628_100549,FalseCHOICE,9.0,36,2.0,1068.0,,,,,,,,,,,36.0,36.0,,,B,,,,,,False,cue2.png,Easy,cue1.png,Hard,Left,Easy,Mid,0.0164564999286085,,,,,,,,,,,,,32,22,Female,0.2857142857142857,0.5,0.2,1.25,1.5,2.0,2.888888888888889,3.0,2.625,1.6666666666666667,2.25,2.25,2.75,1.25,0.84375,0.875,0.6725238363935866,0.7901706833720533,,,,,,,,,,,,,,,,,,,-0.00017008770397053527,-0.41772254498122446,0.00042628512045844724,0.9048884700759984,1.106,-0.941700470315471,,,,,,,,
36,240628_100612,FalseCHOICE,9.0,37,2.0,1068.0,,,,,,,,,,,37.0,37.0,,,B,,,,,,False,cue1.png,Hard,cue2.png,Easy,Left,Hard,Mid,0.0168450998608022,,,,,,,,,,,,,32,22,Female,0.2857142857142857,0.5,0.2,1.25,1.5,2.0,2.888888888888889,3.0,2.625,1.6666666666666667,2.25,2.25,2.75,1.25,1.0,1.0,0.6059136727655475,0.09599769994707828,,,,,,,,,,,,,,,,,,,0.0008125420450748933,0.9934929644460527,-0.0008752187266557248,-1.4509153340546297,1.5789999999999997,-0.05029151119415946,,,,,,,,
37,240628_100636,FalseCHOICE,9.0,38,2.0,1068.0,,,,,,,,,,,38.0,38.0,,,B,,,,,,False,cue2.png,Easy,cue1.png,Hard,Right,Hard,Mid,0.0165115999989211,,,,,,,,,,,,,32,22,Female,0.2857142857142857,0.5,0.2,1.25,1.5,2.0,2.888888888888889,3.0,2.625,1.6666666666666667,2.25,2.25,2.75,1.25,0.84375,0.7840909090909091,0.7592221999773756,1.6936913839530703,,,,,,,,,,,,,,,,,,,-3.747944216113755e-05,-0.22727559797457195,0.00030606259690191435,0.6872781426346696,2.207,1.1332282062015788,,,,,,,,
38,240628_100659,FalseCHOICE,9.0,39,2.0,1068.0,,,,,,,,,,,39.0,39.0,,,B,,,,,,False,cue2.png,Easy,cue1.png,Hard,Left,Easy,Mid,0.0162811998743563,,,,,,,,,,,,,32,22,Female,0.2857142857142857,0.5,0.2,1.25,1.5,2.0,2.888888888888889,3.0,2.625,1.6666666666666667,2.25,2.25,2.75,1.25,1.0,1.0,0.5563337273091417,-0.42069610143300395,,,,,,,,,,,,,,,,,,,0.00010480443191657153,-0.022932904264229424,-0.00017422964525994847,-0.18208101730032894,1.529,-0.14452078805687713,,,,,,,,
39,240628_100719,FalseCHOICE,9.0,40,2.0,1068.0,,,,,,,,,,,40.0,40.0,,,B,,,,,,False,cue1.png,Hard,cue2.png,Easy,Right,Easy,Mid,0.0158560001291334,,,,,,,,,,,,,32,22,Female,0.2857142857142857,0.5,0.2,1.25,1.5,2.0,2.888888888888889,3.0,2.625,1.6666666666666667,2.25,2.25,2.75,1.25,0.84375,0.875,0.5175051362973384,-0.8253454431665775,,,,,,,,,,,,,,,,,,,-3.960309813538093e-05,-0.2303255119940198,-0.0003781770961367439,-0.5512387279622103,2.1159999999999997,0.9617309223114316,,,,,,,,
40,240628_100741,FalseCHOICE,9.0,41,2.0,1068.0,,,,,,,,,,,41.0,41.0,,,B,,,,,,False,cue1.png,Hard,cue2.png,Easy,Right,Easy,Mid,0.0143963999580591,,,,,,,,,,,,,32,22,Female,0.2857142857142857,0.5,0.2,1.25,1.5,2.0,2.888888888888889,3.0,2.625,1.6666666666666667,2.25,2.25,2.75,1.25,1.0,1.0,0.5770128271965818,-0.20519036354640946,,,,,,,,,,,,,,,,,,,0.000899582994787236,1.1184978692015455,-0.0008566722460564809,-1.417345037934636,2.156,1.0371143438016068,,,,,,,,
41,240628_100802,FalseCHOICE,9.0,42,2.0,1068.0,,,,,,,,,,,42.0,42.0,,,B,,,,,,False,cue2.png,Easy,cue1.png,Hard,Right,Hard,Mid,0.0165874001104384,,,,,,,,,,,,,32,22,Female,0.2857142857142857,0.5,0.2,1.25,1.5,2.0,2.888888888888889,3.0,2.625,1.6666666666666667,2.25,2.25,2.75,1.25,0.5833333333333334,0.75,0.5860030000436712,-0.11149993003209652,,,,,,,,,,,,,,,,,,,2.9132456854305544e-05,-0.13161011960459956,0.0005337114340244883,1.0993368527863177,,,,,,,,,,
42,240628_100827,FalseCHOICE,9.0,43,2.0,1068.0,,,,,,,,,,,44.0,43.0,,,B,,,,,,False,cue1.png,Hard,cue2.png,Easy,Left,Hard,Mid,0.0158138000406324,,,,,,,,,,,,,32,22,Female,0.2857142857142857,0.5,0.2,1.25,1.5,2.0,2.888888888888889,3.0,2.625,1.6666666666666667,2.25,2.25,2.75,1.25,0.84375,0.875,0.4236889091024006,-1.8030444425152519,,,,,,,,,,,,,,,,,,,-0.00023007845863165293,-0.5038789874075386,,,1.3,-0.5760908760881253,,,,,,,,
43,240628_100848,FalseCHOICE,9.0,44,2.0,1068.0,,,,,,,,,,,45.0,44.0,,,B,,,,,,False,cue2.png,Easy,cue1.png,Hard,Left,Easy,Mid,0.0172818999271839,,,,,,,,,,,,,32,22,Female,0.2857142857142857,0.5,0.2,1.25,1.5,2.0,2.888888888888889,3.0,2.625,1.6666666666666667,2.25,2.25,2.75,1.25,1.0,1.0,0.5145473272793673,-0.8561700350692769,,,,,,,,,,,,,,,,,,,,,6.266716475790326e-05,0.24671710532059407,1.4099999999999997,-0.36878646699014633,,,,,,,,
44,240628_100909,FalseCHOICE,9.0,45,2.0,1068.0,,,,,,,,,,,46.0,45.0,,,B,,,,,,False,cue1.png,Hard,cue2.png,Easy,Right,Easy,Mid,0.0159374000504612,,,,,,,,,,,,,32,22,Female,0.2857142857142857,0.5,0.2,1.25,1.5,2.0,2.888888888888889,3.0,2.625,1.6666666666666667,2.25,2.25,2.75,1.25,1.0,0.9090909090909092,0.4655630399938673,-1.366656228074334,,,,,,,,,,,,,,,,,,,-3.263123418242343e-05,-0.22031278588880218,-0.00020114509341848281,-0.23079967095805695,1.542,-0.12002117607257021,,,,,,,,
45,240628_100930,FalseCHOICE,9.0,46,2.0,1068.0,,,,,,,,,,,47.0,46.0,,,B,,,,,,False,cue1.png,Hard,cue2.png,Easy,Right,Easy,Mid,0.0166436000727117,,,,,,,,,,,,,32,22,Female,0.2857142857142857,0.5,0.2,1.25,1.5,2.0,2.888888888888889,3.0,2.625,1.6666666666666667,2.25,2.25,2.75,1.25,0.15625,0.625,0.5812921454621987,-0.16059375897932773,,,,,,,,,,,,,,,,,,,0.00019918276032756393,0.1126096649860895,-0.00047239427237176154,-0.7217777414895592,0.45399999999999996,-2.170450240605314,,,,,,,,
46,240628_100952,FalseCHOICE,9.0,47,2.0,1068.0,,,,,,,,,,,48.0,47.0,,,B,,,,,,False,cue2.png,Easy,cue1.png,Hard,Right,Hard,Mid,0.0165931999217718,,,,,,,,,,,,,32,22,Female,0.2857142857142857,0.5,0.2,1.25,1.5,2.0,2.888888888888889,3.0,2.625,1.6666666666666667,2.25,2.25,2.75,1.25,0.5833333333333334,0.75,0.6957670455078848,1.032398099376345,,,,,,,,,,,,,,,,,,,0.0002391604377522459,0.1700240863054095,-0.00012338167153692903,-0.09004298745152801,1.8200000000000003,0.4038936032841423,,,,,,,,
47,240628_101011,FalseCHOICE,9.0,48,2.0,1068.0,,,,,,,,,,,49.0,48.0,,,B,,,,,,False,cue2.png,Easy,cue1.png,Hard,Left,Easy,Mid,0.0170158001128584,,,,,,,,,,,,,32,22,Female,0.2857142857142857,0.5,0.2,1.25,1.5,2.0,2.888888888888889,3.0,2.625,1.6666666666666667,2.25,2.25,2.75,1.25,1.0,1.0,0.4283454363573004,-1.7545167818569791,,,,,,,,,,,,,,,,,,,-0.0007633152410296937,-1.2696933933404322,-0.00037604384735888223,-0.5473774135318407,1.5839999999999999,-0.04086858350788745,,,,,,,,
48,240628_101032,FalseCHOICE,9.0,49,2.0,1068.0,,,,,,,,,,,50.0,49.0,,,B,,,,,,False,cue1.png,Hard,cue2.png,Easy,Right,Easy,Mid,0.0162337999790906,,,,,,,,,,,,,32,22,Female,0.2857142857142857,0.5,0.2,1.25,1.5,2.0,2.888888888888889,3.0,2.625,1.6666666666666667,2.25,2.25,2.75,1.25,0.84375,0.875,0.5821498818272217,-0.15165492173483375,,,,,,,,,,,,,,,,,,,4.727475341679719e-05,-0.10555484261905233,,,2.772,2.198019034750292,,,,,,,,
49,240628_101052,FalseCHOICE,9.0,50,2.0,1068.0,,,,,,,,,,,51.0,50.0,,,B,,,,,,False,cue2.png,Easy,cue1.png,Hard,Left,Easy,Mid,0.0164961998816579,,,,,,,,,,,,,32,22,Female,0.2857142857142857,0.5,0.2,1.25,1.5,2.0,2.888888888888889,3.0,2.625,1.6666666666666667,2.25,2.25,2.75,1.25,1.0,1.0,0.4362096182197671,-1.6725607816263006,,,,,,,,,,,,,,,,,,,,,,,1.6840000000000002,0.14758997021754913,,,,,,,,
0,240628_092707,OFFLINERATING,9.0,1,1.0,,,,,,,,,,,,,,,,,T0,cue2.png,Easy,53.0,1.240315099945292,,,,,,,,,,,,,,,,,,,,,,32,22,Female,0.2857142857142857,0.5,0.2,1.25,1.5,2.0,2.888888888888889,3.0,2.625,1.6666666666666667,2.25,2.25,2.75,1.25,,,,,,,,,,,,,,,,,,,,,,,,,,,,,0.17805208235600942,-5.342972384116433e-05,-0.11780294842573051,,,1.407,-0.07405070625768621,
1,240628_092715,OFFLINERATING,9.0,2,3.0,,,,,,,,,,,,,,,,,T0,cue1.png,Hard,47.0,1.9520807000808416,,,,,,,,,,,,,,,,,,,,,,32,22,Female,0.2857142857142857,0.5,0.2,1.25,1.5,2.0,2.888888888888889,3.0,2.625,1.6666666666666667,2.25,2.25,2.75,1.25,,,,,,,,,,,,,,,,,,,,,,,,,,,,,-0.296753470593349,6.661047150133574e-05,1.667062526055912,,,1.107,-1.6061342840029231,
2,240628_094734,OFFLINERATING,9.0,3,1.0,,,,,,,,,,,,,,,,,T1,cue2.png,Easy,59.0,1.22802529996261,,,,,,,,,,,,,,,,,,,,,,32,22,Female,0.2857142857142857,0.5,0.2,1.25,1.5,2.0,2.888888888888889,3.0,2.625,1.6666666666666667,2.25,2.25,2.75,1.25,,,,,,,,,,,,,,,,,,,,,,,,,,,,,0.6528576353053678,,,-0.0001816456862946663,-0.8090990391738854,1.5779999999999998,0.7992369330570978,
3,240628_094742,OFFLINERATING,9.0,4,3.0,,,,,,,,,,,,,,,,,T1,cue1.png,Hard,30.0,1.8355348000768568,,,,,,,,,,,,,,,,,,,,,,32,22,Female,0.2857142857142857,0.5,0.2,1.25,1.5,2.0,2.888888888888889,3.0,2.625,1.6666666666666667,2.25,2.25,2.75,1.25,,,,,,,,,,,,,,,,,,,,,,,,,,,,,-1.6420358706165312,,,-0.00025786702181250683,-1.0103227234554606,1.5939999999999999,0.8809480572035104,
4,240628_095147,OFFLINERATING,9.0,5,1.0,,,,,,,,,,,,,,,,,T2,cue2.png,Easy,77.0,1.3186069000512362,,,,,,,,,,,,,,,,,,,,,,32,22,Female,0.2857142857142857,0.5,0.2,1.25,1.5,2.0,2.888888888888889,3.0,2.625,1.6666666666666667,2.25,2.25,2.75,1.25,,,,,,,,,,,,,,,,,,,,,,,,,,,,,2.077274294153443,-9.364756262455294e-05,-0.7157979091797163,0.0002502692566940185,0.33115277528175313,,,
5,240628_095154,OFFLINERATING,9.0,6,3.0,,,,,,,,,,,,,,,,,T2,cue1.png,Hard,43.0,0.9849153000395744,,,,,,,,,,,,,,,,,,,,,,32,22,Female,0.2857142857142857,0.5,0.2,1.25,1.5,2.0,2.888888888888889,3.0,2.625,1.6666666666666667,2.25,2.25,2.75,1.25,,,,,,,,,,,,,,,,,,,,,,,,,,,,,-0.6132905058929213,-0.00010156097730455596,-0.8334616684504652,0.0006885722494450498,1.4882689873475927,,,
6,240628_101106,OFFLINERATING,9.0,7,1.0,,,,,,,,,,,,,,,,,T3,cue2.png,Easy,49.0,1.3417992999311537,,,,,,,,,,,,,,,,,,,,,,32,22,Female,0.2857142857142857,0.5,0.2,1.25,1.5,2.0,2.888888888888889,3.0,2.625,1.6666666666666667,2.25,2.25,2.75,1.25,,,,,,,,,,,,,,,,,,,,,,,,,,,,,-0.13848495294356286,,,,,,,
7,240628_101115,OFFLINERATING,9.0,8,3.0,,,,,,,,,,,,,,,,,T3,cue1.png,Hard,48.0,2.252409800188616,,,,,,,,,,,,,,,,,,,,,,32,22,Female,0.2857142857142857,0.5,0.2,1.25,1.5,2.0,2.888888888888889,3.0,2.625,1.6666666666666667,2.25,2.25,2.75,1.25,,,,,,,,,,,,,,,,,,,,,,,,,,,,,-0.21761921176845594,,,,,,,
0,240628_095212,LEARNINGCHECK,9.0,1,,,,,,,,,,,,1.0,1.0,1.0,,,B,,,,,,,,,,,,,,,cue2.png,Easy,Left,Left,Easy,0.0162096000276505,1.0,,,,,,32,22,Female,0.2857142857142857,0.5,0.2,1.25,1.5,2.0,2.888888888888889,3.0,2.625,1.6666666666666667,2.25,2.25,2.75,1.25,,,,,,,,,,,,,,,,,,,,,,,,,,,,,,,,,,,,
1,240628_095216,LEARNINGCHECK,9.0,2,,,,,,,,,,,,2.0,2.0,2.0,,,B,,,,,,,,,,,,,,,cue1.png,Hard,Right,Right,Hard,0.0144789998885244,1.0,,,,,,32,22,Female,0.2857142857142857,0.5,0.2,1.25,1.5,2.0,2.888888888888889,3.0,2.625,1.6666666666666667,2.25,2.25,2.75,1.25,,,,,,,,,,,,,,,,,,,,,,,,,,,,,,,,,,,,
2,240628_101128,LEARNINGCHECK,9.0,1,,,,,,,,,,,,1.0,1.0,1.0,,,B,,,,,,,,,,,,,,,cue2.png,Easy,Middle,Middle,Mid,0.0160672001074999,1.0,,,,,,32,22,Female,0.2857142857142857,0.5,0.2,1.25,1.5,2.0,2.888888888888889,3.0,2.625,1.6666666666666667,2.25,2.25,2.75,1.25,,,,,,,,,,,,,,,,,,,,,,,,,,,,,,,,,,,,
3,240628_101132,LEARNINGCHECK,9.0,2,,,,,,,,,,,,2.0,2.0,2.0,,,B,,,,,,,,,,,,,,,cue1.png,Hard,Middle,Middle,Mid,0.0144454999826848,1.0,,,,,,32,22,Female,0.2857142857142857,0.5,0.2,1.25,1.5,2.0,2.888888888888889,3.0,2.625,1.6666666666666667,2.25,2.25,2.75,1.25,,,,,,,,,,,,,,,,,,,,,,,,,,,,,,,,,,,,
0,240628_101144,DEMANDRATING,9.0,-1,,,,,,,,,,,,,,,,,,,,,,,,,,,,,,,,,,,,,,,1.0,MentalDemand,1.0,100.0,2.3470638999715447,32,22,Female,0.2857142857142857,0.5,0.2,1.25,1.5,2.0,2.888888888888889,3.0,2.625,1.6666666666666667,2.25,2.25,2.75,1.25,,,,,,,,,,,,,,,,,,,,,,,,,,,,,,,,,,,,0.9943907463242057
1,240628_101151,DEMANDRATING,9.0,-1,,,,,,,,,,,,,,,,,,,,,,,,,,,,,,,,,,,,,,,2.0,Effort,1.0,6.0,5.238457800121978,32,22,Female,0.2857142857142857,0.5,0.2,1.25,1.5,2.0,2.888888888888889,3.0,2.625,1.6666666666666667,2.25,2.25,2.75,1.25,,,,,,,,,,,,,,,,,,,,,,,,,,,,,,,,,,,,-1.5940848579535725
2,240628_101156,DEMANDRATING,9.0,-1,,,,,,,,,,,,,,,,,,,,,,,,,,,,,,,,,,,,,,,3.0,Frustration,1.0,10.0,4.184109000023454,32,22,Female,0.2857142857142857,0.5,0.2,1.25,1.5,2.0,2.888888888888889,3.0,2.625,1.6666666666666667,2.25,2.25,2.75,1.25,,,,,,,,,,,,,,,,,,,,,,,,,,,,,,,,,,,,-1.483936959899199
3,240628_101202,DEMANDRATING,9.0,-1,,,,,,,,,,,,,,,,,,,,,,,,,,,,,,,,,,,,,,,4.0,MentalDemand,2.0,48.0,3.8444757000543177,32,22,Female,0.2857142857142857,0.5,0.2,1.25,1.5,2.0,2.888888888888889,3.0,2.625,1.6666666666666667,2.25,2.25,2.75,1.25,,,,,,,,,,,,,,,,,,,,,,,,,,,,,,,,,,,,-0.43753192838265037
4,240628_101207,DEMANDRATING,9.0,-1,,,,,,,,,,,,,,,,,,,,,,,,,,,,,,,,,,,,,,,5.0,Effort,2.0,54.0,3.2858394000213598,32,22,Female,0.2857142857142857,0.5,0.2,1.25,1.5,2.0,2.888888888888889,3.0,2.625,1.6666666666666667,2.25,2.25,2.75,1.25,,,,,,,,,,,,,,,,,,,,,,,,,,,,,,,,,,,,-0.2723100813010901
5,240628_101211,DEMANDRATING,9.0,-1,,,,,,,,,,,,,,,,,,,,,,,,,,,,,,,,,,,,,,,6.0,Frustration,2.0,57.0,2.5935935999732465,32,22,Female,0.2857142857142857,0.5,0.2,1.25,1.5,2.0,2.888888888888889,3.0,2.625,1.6666666666666667,2.25,2.25,2.75,1.25,,,,,,,,,,,,,,,,,,,,,,,,,,,,,,,,,,,,-0.1896991577603099
6,240628_101215,DEMANDRATING,9.0,-1,,,,,,,,,,,,,,,,,,,,,,,,,,,,,,,,,,,,,,,7.0,MentalDemand,3.0,100.0,2.821418199921027,32,22,Female,0.2857142857142857,0.5,0.2,1.25,1.5,2.0,2.888888888888889,3.0,2.625,1.6666666666666667,2.25,2.25,2.75,1.25,,,,,,,,,,,,,,,,,,,,,,,,,,,,,,,,,,,,0.9943907463242057
7,240628_101218,DEMANDRATING,9.0,-1,,,,,,,,,,,,,,,,,,,,,,,,,,,,,,,,,,,,,,,8.0,Effort,3.0,100.0,1.78744009998627,32,22,Female,0.2857142857142857,0.5,0.2,1.25,1.5,2.0,2.888888888888889,3.0,2.625,1.6666666666666667,2.25,2.25,2.75,1.25,,,,,,,,,,,,,,,,,,,,,,,,,,,,,,,,,,,,0.9943907463242057
8,240628_101222,DEMANDRATING,9.0,-1,,,,,,,,,,,,,,,,,,,,,,,,,,,,,,,,,,,,,,,9.0,Frustration,3.0,100.0,1.6459317000117153,32,22,Female,0.2857142857142857,0.5,0.2,1.25,1.5,2.0,2.888888888888889,3.0,2.625,1.6666666666666667,2.25,2.25,2.75,1.25,,,,,,,,,,,,,,,,,,,,,,,,,,,,,,,,,,,,0.9943907463242057
