,END,Phase,Block,TrialN,NbackLevel,ISI,Letter_Resp,Letter_RT,Letter_Accuracy,Trial_A_measure,Trial_ACC,Trial_RT,TrialCountCali,CaliEnd_A_measure,ISI_calibrated,TrialIndex,TrialNumber_total,TrialNumber_valid,CueLearning,TrialDemandLearning,CueMapping,OfflineRatingTimePoint,CueFigure,TrialDemand,OfflineRating,OfflineRatingRT,PhaseType,CueLeft,CueDemandLeft,CueRight,CueDemandRight,Choice,ChoiceDemand,TaskDemand,ChoiceRT,CueCheck,CueDemandCheck,CorrectAnswer,Answer,AnswerDemand,AnswerRT,AnswerACC,DemandRatingQuesIndex,QuesTLX,DemandLevel,DemandRating,DemandRatingRT,PID,Age,Gender,BAI_bis,BAI_bas_d,BAI_bas_rr,BAI_bas_fs,NFC,BFI_ext,BFI_agr,BFI_con,BFI_neu,BFI_open,UPPS_lps,UPPS_lpm,UPPS_pu,UPPS_ss,Task_A_measure,Task_ACC,Task_RT,Task_RT_z,Task_RT_log,Task_RT_log_z,cue_i_on_zyg_values,cue_i_on_zyg_zvalues,cue_e_on_zyg_values,cue_e_on_zyg_zvalues,cue_i_on_cor_values,cue_i_on_cor_zvalues,cue_e_on_cor_values,cue_e_on_cor_zvalues,cue_i_on_scr_values,cue_i_on_scr_zvalues,cue_e_on_scr_values,cue_e_on_scr_zvalues,cue_e_true_zyg_values,cue_e_true_zyg_zvalues,cue_e_true_cor_values,cue_e_true_cor_zvalues,cue_e_true_scr_values,cue_e_true_scr_zvalues,cue_e_false_zyg_values,cue_e_false_zyg_zvalues,cue_e_false_cor_values,cue_e_false_cor_zvalues,cue_e_false_scr_values,cue_e_false_scr_zvalues,OfflineRating_z,cue_i_off_zyg_values,cue_i_off_zyg_zvalues,cue_i_off_cor_values,cue_i_off_cor_zvalues,cue_i_off_scr_values,cue_i_off_scr_zvalues,DemandRating_z
0,240702_144707,PRACTICE,0.0,1,1.0,159.0,,,,,,,,,,29.0,1.0,1.0,cue1.png,Easy,A,,,,,,,,,,,,,,,,,,,,,,,,,,,33,20,Male,0.0,1.75,0.6,0.5,2.4444444444444446,3.0,2.7777777777777777,1.5555555555555556,2.0,2.4444444444444446,1.5,2.0,1.0,1.5,,,,,,,,,,,,,,,,,,,,,,,,,,,,,,,,,,,,,,
0,240702_145011,LEARNING,1.0,1,1.0,159.0,,,,,,,,,,1.0,1.0,1.0,cue1.png,Easy,A,,,,,,,,,,,,,,,,,,,,,,,,,,,33,20,Male,0.0,1.75,0.6,0.5,2.4444444444444446,3.0,2.7777777777777777,1.5555555555555556,2.0,2.4444444444444446,1.5,2.0,1.0,1.5,1.0,0.9090909090909092,0.4554150999640114,0.11570263476652078,-0.7865459683176322,0.14278108750265447,,,-5.807933502002729e-06,-0.5923659789813132,-9.79414129227904e-05,-0.3626396038392909,0.00021755341554570646,1.1036858351649048,,,,,,,,,,,,,,,,,,,,,,,,
1,240702_145044,LEARNING,1.0,2,3.0,159.0,,,,,,,,,,2.0,2.0,2.0,cue2.png,Hard,A,,,,,,,,,,,,,,,,,,,,,,,,,,,33,20,Male,0.0,1.75,0.6,0.5,2.4444444444444446,3.0,2.7777777777777777,1.5555555555555556,2.0,2.4444444444444446,1.5,2.0,1.0,1.5,0.84375,0.6022727272727273,0.4928919937519822,1.620107320794704,-0.7074652085514741,1.578374803028444,-1.9498323467165117e-05,-0.5930099735805343,9.55951579064496e-05,1.23097119135939,0.00018945963895151442,0.5787363507270263,-0.00035858868817941966,-0.5385004851629293,1.0879999999999999,-0.5569129192228774,1.4569999999999999,0.18486366863042628,,,,,,,,,,,,,,,,,,,,
2,240702_145116,LEARNING,1.0,3,1.0,159.0,,,,,,,,,,3.0,3.0,3.0,cue1.png,Easy,A,,,,,,,,,,,,,,,,,,,,,,,,,,,33,20,Male,0.0,1.75,0.6,0.5,2.4444444444444446,3.0,2.7777777777777777,1.5555555555555556,2.0,2.4444444444444446,1.5,2.0,1.0,1.5,1.0,0.9545454545454546,0.462972533323669,0.41907457975583323,-0.770087549930611,0.44155922359756056,1.7497484238617085e-05,0.017713223595608254,-4.4063480383448733e-07,-0.4958561479222999,7.230217896689664e-05,0.19498961421257618,8.514260645943114e-05,0.7262733566476905,1.588,0.2958175183641876,1.1529999999999998,-0.3796880280820364,,,,,,,,,,,,,,,,,,,,
3,240702_145150,LEARNING,1.0,4,3.0,159.0,,,,,,,,,,4.0,4.0,4.0,cue2.png,Hard,A,,,,,,,,,,,,,,,,,,,,,,,,,,,33,20,Male,0.0,1.75,0.6,0.5,2.4444444444444446,3.0,2.7777777777777777,1.5555555555555556,2.0,2.4444444444444446,1.5,2.0,1.0,1.5,0.828125,0.5738636363636364,0.494431621428313,1.6819113514092725,-0.7043464156842962,1.6349918544248472,-4.137433751174148e-05,-0.9541370868206047,0.000133178513494783,1.9067605413537856,0.00014376010578665346,0.4290485142499313,-0.00024808431155368214,-0.2235282335988973,1.5939999999999999,0.306050283615232,1.6019999999999999,0.4541399713386733,,,,,,,,,,,,,,,,,,,,
4,240702_145223,LEARNING,1.0,5,3.0,159.0,,,,,,,,,,5.0,5.0,5.0,cue2.png,Hard,A,,,,,,,,,,,,,,,,,,,,,,,,,,,33,20,Male,0.0,1.75,0.6,0.5,2.4444444444444446,3.0,2.7777777777777777,1.5555555555555556,2.0,2.4444444444444446,1.5,2.0,1.0,1.5,0.7708333333333334,0.4829545454545454,0.4372925416682847,-0.6117765895565263,-0.8271528761208164,-0.5943770002745091,-4.706871155572964e-05,-1.0481392599781256,6.121140364300729e-05,0.6127141310113335,,,-0.0005486898304665482,-1.0803485697312416,1.5370000000000001,0.20883901373030714,1.544,0.3464294502553748,,,,,,,,,,,,,,,,,,,,
5,240702_145256,LEARNING,1.0,6,1.0,159.0,,,,,,,,,,6.0,6.0,6.0,cue1.png,Easy,A,,,,,,,,,,,,,,,,,,,,,,,,,,,33,20,Male,0.0,1.75,0.6,0.5,2.4444444444444446,3.0,2.7777777777777777,1.5555555555555556,2.0,2.4444444444444446,1.5,2.0,1.0,1.5,0.9583333333333334,0.9545454545454546,0.476251042880384,0.952103066951428,-0.7418101627685394,0.9548931801933068,1.5170058582027364e-06,-0.2460909600164043,-0.0001039757366068754,-2.3575291692317646,4.008436864871888e-05,0.08946087051272505,-4.287308493762087e-05,0.36138834678587733,-0.0405000000000002,-2.4815255168568826,0.0039999999999997815,-2.5134705923011795,,,,,,,,,,,,,,,,,,,,
6,240702_145328,LEARNING,1.0,7,3.0,159.0,,,,,,,,,,7.0,7.0,7.0,cue2.png,Hard,A,,,,,,,,,,,,,,,,,,,,,,,,,,,33,20,Male,0.0,1.75,0.6,0.5,2.4444444444444446,3.0,2.7777777777777777,1.5555555555555556,2.0,2.4444444444444446,1.5,2.0,1.0,1.5,0.6458333333333334,0.6761363636363636,0.495498168441516,1.7247248869602632,-0.7021916216033538,1.674108939920742,5.110385050284766e-05,0.5724838509484897,1.4102057222188137e-05,-0.2343628289360291,0.00019529290554014473,0.5978430897848683,5.8749852686825095e-06,0.5003356889738131,1.437,0.03829292621289406,1.4569999999999999,0.18486366863042628,,,,,,,,,,,,,,,,,,,,
7,240702_145402,LEARNING,1.0,8,3.0,159.0,,,,,,,,,,8.0,8.0,8.0,cue2.png,Hard,A,,,,,,,,,,,,,,,,,,,,,,,,,,,33,20,Male,0.0,1.75,0.6,0.5,2.4444444444444446,3.0,2.7777777777777777,1.5555555555555556,2.0,2.4444444444444446,1.5,2.0,1.0,1.5,0.7083333333333334,0.5113636363636364,0.4610554785800299,0.3421197991376765,-0.7742368992348577,0.3662339510241548,2.5388061909697307e-06,-0.22922317945418744,7.079242214154359e-05,0.7849911978685572,0.00023925992823633016,0.7418561255414746,-0.0005647922609401364,-1.1262455643733351,,,,,,,,,,,,,,,,,,,,,,,,
8,240702_145434,LEARNING,1.0,9,1.0,159.0,,,,,,,,,,9.0,9.0,9.0,cue1.png,Easy,A,,,,,,,,,,,,,,,,,,,,,,,,,,,33,20,Male,0.0,1.75,0.6,0.5,2.4444444444444446,3.0,2.7777777777777777,1.5555555555555556,2.0,2.4444444444444446,1.5,2.0,1.0,1.5,0.9642857142857144,0.9545454545454546,0.4843213095085784,1.2760612637443929,-0.7250067299037896,1.2599345415968368,-3.4404052150363486e-05,-0.8390722936693118,-9.768767079779486e-05,-2.244462950441029,0.00010163199666895963,0.2910588003080086,-0.0002994765578875217,-0.37001230993124296,,,0.3540000000000001,-1.8634933099019622,,,,,,,,,,,,,,,,,,,,
9,240702_145505,LEARNING,1.0,10,1.0,159.0,,,,,,,,,,10.0,10.0,10.0,cue1.png,Easy,A,,,,,,,,,,,,,,,,,,,,,,,,,,,33,20,Male,0.0,1.75,0.6,0.5,2.4444444444444446,3.0,2.7777777777777777,1.5555555555555556,2.0,2.4444444444444446,1.5,2.0,1.0,1.5,0.9322916666666669,0.9375,0.4460456591120667,-0.26040726385196783,-0.8073339575112716,-0.2345939748140549,9.192646947971724e-05,1.2463796765763395,7.468439726781347e-05,0.8549731167154399,-0.00019283187594341597,-0.6734512714470655,-0.0002377213032317381,-0.1939903984125642,,,1.448,0.16814996708301805,,,,,,,,,,,,,,,,,,,,
10,240702_145538,LEARNING,1.0,11,3.0,159.0,,,,,,,,,,11.0,11.0,11.0,cue2.png,Hard,A,,,,,,,,,,,,,,,,,,,,,,,,,,,33,20,Male,0.0,1.75,0.6,0.5,2.4444444444444446,3.0,2.7777777777777777,1.5555555555555556,2.0,2.4444444444444446,1.5,2.0,1.0,1.5,0.734375,0.6761363636363636,0.5016435105231052,1.9714123919891993,-0.6898655499583075,1.8978704597022147,,,-4.939918728175639e-05,-1.3761838312223982,0.00014632980579933237,0.4374655112880725,0.00012608251021237454,0.842964967040215,1.543,0.21907177898135155,,,,,,,,,,,,,,,,,,,,,,
11,240702_145610,LEARNING,1.0,12,1.0,159.0,,,,,,,,,,12.0,12.0,12.0,cue1.png,Easy,A,,,,,,,,,,,,,,,,,,,,,,,,,,,33,20,Male,0.0,1.75,0.6,0.5,2.4444444444444446,3.0,2.7777777777777777,1.5555555555555556,2.0,2.4444444444444446,1.5,2.0,1.0,1.5,1.0,0.9545454545454546,0.4640126238089232,0.46082609226811116,-0.7678435206412232,0.482296241739862,,,7.170291115819825e-05,0.8013627743579405,0.0004935944263278662,1.5749232954722843,-0.0004144065673066617,-0.6975990078013674,,,,,,,,,,,,,,,,,,,,,,,,
12,240702_145642,LEARNING,1.0,13,1.0,159.0,,,,,,,,,,13.0,13.0,13.0,cue1.png,Easy,A,,,,,,,,,,,,,,,,,,,,,,,,,,,33,20,Male,0.0,1.75,0.6,0.5,2.4444444444444446,3.0,2.7777777777777777,1.5555555555555556,2.0,2.4444444444444446,1.5,2.0,1.0,1.5,1.0,1.0,0.4469733499943025,-0.22316771784484518,-0.8052563058454402,-0.19687729526597025,,,8.676394157027326e-05,1.0721763776962614,7.42523068231445e-05,0.20137721599840605,9.008797338882785e-05,0.7403692088132381,1.9190000000000003,0.8603250680468247,1.471,0.2108627599263954,,,,,,,,,,,,,,,,,,,,
13,240702_145713,LEARNING,1.0,14,1.0,159.0,,,,,,,,,,14.0,14.0,14.0,cue1.png,Easy,A,,,,,,,,,,,,,,,,,,,,,,,,,,,33,20,Male,0.0,1.75,0.6,0.5,2.4444444444444446,3.0,2.7777777777777777,1.5555555555555556,2.0,2.4444444444444446,1.5,2.0,1.0,1.5,1.0,1.0,0.4481917408675971,-0.17425883682689042,-0.8025341451220055,-0.1474605112243188,6.675213516406245e-05,0.830804212937122,7.124780826908272e-05,0.7931795325797255,0.0001018186698811905,0.29167024439358086,1.995933864545234e-05,0.5404805287563076,,,2.19,1.5461018057693576,,,,,,,,,,,,,,,,,,,,
14,240702_145745,LEARNING,1.0,15,3.0,159.0,,,,,,,,,,15.0,15.0,15.0,cue2.png,Hard,A,,,,,,,,,,,,,,,,,,,,,,,,,,,33,20,Male,0.0,1.75,0.6,0.5,2.4444444444444446,3.0,2.7777777777777777,1.5555555555555556,2.0,2.4444444444444446,1.5,2.0,1.0,1.5,0.6904761904761905,0.7090909090909091,0.4825900199939497,1.2065635067153706,-0.7285878056694555,1.1949254309204405,4.9591336453052356e-05,0.5475154160487578,-4.547938195486939e-05,-1.3057014952921857,-0.00022080081345816427,-0.7650629238033937,0.00032235149435563305,1.4023933420552648,,,,,,,,,,,,,,,,,,,,,,,,
15,240702_145817,LEARNING,1.0,16,1.0,159.0,,,,,,,,,,16.0,16.0,16.0,cue1.png,Easy,A,,,,,,,,,,,,,,,,,,,,,,,,,,,33,20,Male,0.0,1.75,0.6,0.5,2.4444444444444446,3.0,2.7777777777777777,1.5555555555555556,2.0,2.4444444444444446,1.5,2.0,1.0,1.5,1.0,0.9545454545454546,0.4539821999746242,0.05818288750999138,-0.7896972888137597,0.08557354532392897,0.00013795293195404063,2.006180044784903,,,-0.0002060276055597136,-0.7166735995587039,0.00038298568440408264,1.5752198666191206,,,,,,,,,,,,,,,,,,,,,,,,
16,240702_145849,LEARNING,1.0,17,1.0,159.0,,,,,,,,,,17.0,17.0,17.0,cue1.png,Easy,A,,,,,,,,,,,,,,,,,,,,,,,,,,,33,20,Male,0.0,1.75,0.6,0.5,2.4444444444444446,3.0,2.7777777777777777,1.5555555555555556,2.0,2.4444444444444446,1.5,2.0,1.0,1.5,1.0,1.0,0.455659163639542,0.12549988582032445,-0.7860101971052977,0.15250721795033126,3.856700601620987e-05,0.3655268408929189,2.397965950951507e-06,-0.4448150386615317,0.0003803492855638125,1.2039912762903142,0.00043775402059091466,1.7313268615629256,,,1.5879999999999999,0.42814088004270456,,,,,,,,,,,,,,,,,,,,
17,240702_145920,LEARNING,1.0,18,3.0,159.0,,,,,,,,,,18.0,18.0,18.0,cue2.png,Hard,A,,,,,,,,,,,,,,,,,,,,,,,,,,,33,20,Male,0.0,1.75,0.6,0.5,2.4444444444444446,3.0,2.7777777777777777,1.5555555555555556,2.0,2.4444444444444446,1.5,2.0,1.0,1.5,0.6458333333333334,0.7670454545454546,0.444804457127161,-0.3102318329041378,-0.8101205155762731,-0.285179796926702,1.2029684783789775e-05,-0.07254867826978045,2.7435021610907207e-05,0.005378279772950743,-0.0003417918105404075,-1.1613663285036684,-0.0006238344125871309,-1.2945342784432132,,,,,,,,,,,,,,,,,,,,,,,,
18,240702_145952,LEARNING,1.0,19,3.0,159.0,,,,,,,,,,19.0,19.0,19.0,cue2.png,Hard,A,,,,,,,,,,,,,,,,,,,,,,,,,,,33,20,Male,0.0,1.75,0.6,0.5,2.4444444444444446,3.0,2.7777777777777777,1.5555555555555556,2.0,2.4444444444444446,1.5,2.0,1.0,1.5,0.734375,0.7215909090909091,0.4712830599979497,0.7526773415771214,-0.752296388838779,0.7645313236490185,7.182730918182988e-05,0.9145846922553713,6.85460050369336e-05,0.7445981906137201,0.0001707374079606529,0.5174120864082531,0.00023561053750031187,1.1551543157127033,,,,,,,,,,,,,,,,,,,,,,,,
19,240702_150023,LEARNING,1.0,20,3.0,159.0,,,,,,,,,,20.0,20.0,20.0,cue2.png,Hard,A,,,,,,,,,,,,,,,,,,,,,,,,,,,33,20,Male,0.0,1.75,0.6,0.5,2.4444444444444446,3.0,2.7777777777777777,1.5555555555555556,2.0,2.4444444444444446,1.5,2.0,1.0,1.5,0.7571428571428571,0.8,0.4340294454648921,-0.7427644256113991,-0.8346429004899153,-0.7303472659271011,-4.1157932744505764e-05,-0.9505646979601852,,,0.0003300345392228442,1.0391864084702538,0.00016802113295544176,0.9625032408736314,,,,,,,,,,,,,,,,,,,,,,,,
20,240702_150054,LEARNING,1.0,21,1.0,159.0,,,,,,,,,,21.0,21.0,21.0,cue1.png,Easy,A,,,,,,,,,,,,,,,,,,,,,,,,,,,33,20,Male,0.0,1.75,0.6,0.5,2.4444444444444446,3.0,2.7777777777777777,1.5555555555555556,2.0,2.4444444444444446,1.5,2.0,1.0,1.5,1.0,1.0,0.4376568818274377,-0.5971511767397889,-0.8263200504272896,-0.5792582870085907,-2.4850118710814922e-05,-0.6813568892047888,4.790784162020693e-05,0.37350170861685267,-0.00011328334041494411,-0.4128917568624812,-0.00035909514102016454,-0.5399440351510051,1.9980000000000002,0.9950564771855809,0.8080000000000003,-1.020379920732692,,,,,,,,,,,,,,,,,,,,
21,240702_150127,LEARNING,1.0,22,3.0,159.0,,,,,,,,,,22.0,22.0,22.0,cue2.png,Hard,A,,,,,,,,,,,,,,,,,,,,,,,,,,,33,20,Male,0.0,1.75,0.6,0.5,2.4444444444444446,3.0,2.7777777777777777,1.5555555555555556,2.0,2.4444444444444446,1.5,2.0,1.0,1.5,0.0952380952380952,0.5757575757575758,0.4951337699661963,1.7100971332047354,-0.7029273105663828,1.6607535996960257,0.00010644416094521486,1.4860363159971288,6.1102093627807275e-09,-0.4878231897854927,-0.00019046512836190434,-0.6656990407254555,-0.0003095112614575771,-0.39861437324989923,1.8399999999999999,0.7255936589080678,0.7230000000000001,-1.1782315464582165,,,,,,,,,,,,,,,,,,,,
22,240702_150200,LEARNING,1.0,23,3.0,159.0,,,,,,,,,,23.0,23.0,23.0,cue2.png,Hard,A,,,,,,,,,,,,,,,,,,,,,,,,,,,33,20,Male,0.0,1.75,0.6,0.5,2.4444444444444446,3.0,2.7777777777777777,1.5555555555555556,2.0,2.4444444444444446,1.5,2.0,1.0,1.5,0.5964285714285714,0.5727272727272728,0.4711921588408158,0.7490283698258502,-0.7524892876134075,0.7610295329554526,,,2.201322417345582e-05,-0.09211149751542758,,,,,2.148,1.2508756084617,1.097,-0.48368439326591073,,,,,,,,,,,,,,,,,,,,
23,240702_150233,LEARNING,1.0,24,3.0,159.0,,,,,,,,,,24.0,24.0,24.0,cue2.png,Hard,A,,,,,,,,,,,,,,,,,,,,,,,,,,,33,20,Male,0.0,1.75,0.6,0.5,2.4444444444444446,3.0,2.7777777777777777,1.5555555555555556,2.0,2.4444444444444446,1.5,2.0,1.0,1.5,0.84375,0.7386363636363636,0.4714153526522415,0.757987858776589,-0.7520157208045808,0.7696264348648872,-6.7485638711793465e-06,-0.38253818159771885,,,-1.710461672304979e-05,-0.09786041917612852,-0.0008620625255303799,-1.9735593760076224,1.629,0.3657414142463268,1.0430000000000001,-0.583966602550361,,,,,,,,,,,,,,,,,,,,
24,240702_150303,LEARNING,1.0,25,1.0,159.0,,,,,,,,,,25.0,25.0,25.0,cue1.png,Easy,A,,,,,,,,,,,,,,,,,,,,,,,,,,,33,20,Male,0.0,1.75,0.6,0.5,2.4444444444444446,3.0,2.7777777777777777,1.5555555555555556,2.0,2.4444444444444446,1.5,2.0,1.0,1.5,1.0,1.0,0.4236599727512591,-1.1590177957623167,-0.8588240965433023,-1.1693209580209782,-0.00015456412702721583,-2.8226631287532133,-7.232020150685185e-06,-0.6179725959420285,0.00016726214085161124,0.5060289238526134,1.4434876781221212e-05,0.5247340737724493,,,,,,,,,,,,,,,,,,,,,,,,
25,240702_150335,LEARNING,1.0,26,1.0,159.0,,,,,,,,,,26.0,26.0,26.0,cue1.png,Easy,A,,,,,,,,,,,,,,,,,,,,,,,,,,,33,20,Male,0.0,1.75,0.6,0.5,2.4444444444444446,3.0,2.7777777777777777,1.5555555555555556,2.0,2.4444444444444446,1.5,2.0,1.0,1.5,1.0,1.0,0.4567137454340065,0.1678331112569968,-0.7836984619504558,0.1944733354998412,-2.9475960399297577e-05,-0.757719834111632,6.071103056242734e-05,0.6037168822668711,0.0001812558528612616,0.5518650261045013,-9.180085196585763e-05,0.2219288121008521,1.903,0.8330376940440383,,,,,,,,,,,,,,,,,,,,,,
26,240702_150407,LEARNING,1.0,27,3.0,159.0,,,,,,,,,,27.0,27.0,27.0,cue2.png,Hard,A,,,,,,,,,,,,,,,,,,,,,,,,,,,33,20,Male,0.0,1.75,0.6,0.5,2.4444444444444446,3.0,2.7777777777777777,1.5555555555555556,2.0,2.4444444444444446,1.5,2.0,1.0,1.5,0.6458333333333334,0.6761363636363636,0.4442134579324996,-0.33395583636391335,-0.8114500709692747,-0.309315899972254,-3.47894995500757e-05,-0.8454352218737062,0.00010288100735926162,1.3619786383740802,-0.0004850654427186211,-1.6306560244750548,,,1.553,0.23612638773309286,,,,,,,,,,,,,,,,,,,,,,
27,240702_150437,LEARNING,1.0,28,1.0,159.0,,,,,,,,,,28.0,28.0,28.0,cue1.png,Easy,A,,,,,,,,,,,,,,,,,,,,,,,,,,,33,20,Male,0.0,1.75,0.6,0.5,2.4444444444444446,3.0,2.7777777777777777,1.5555555555555556,2.0,2.4444444444444446,1.5,2.0,1.0,1.5,1.0,1.0,0.4227803545390171,-1.1943275993949054,-0.860902491205098,-1.2070511255570409,,,1.9895995699500523e-05,-0.13018155357630853,-0.0007754737463396199,-2.5818821673590664,,,2.136,1.2304100779596105,2.1060000000000003,1.3901072579935463,,,,,,,,,,,,,,,,,,,,
28,240702_150508,LEARNING,1.0,29,1.0,159.0,,,,,,,,,,29.0,29.0,29.0,cue1.png,Easy,A,,,,,,,,,,,,,,,,,,,,,,,,,,,33,20,Male,0.0,1.75,0.6,0.5,2.4444444444444446,3.0,2.7777777777777777,1.5555555555555556,2.0,2.4444444444444446,1.5,2.0,1.0,1.5,1.0,1.0,0.4207467636389827,-1.2759603968402993,-0.8657241378267634,-1.2945809572002513,5.523951601923158e-05,0.6407550152572595,-3.5048521038353285e-05,-1.1181433433308285,-0.00039850917564430034,-1.3471428361641713,,,1.2230000000000003,-0.32667570107436916,1.045,-0.5802524466509373,,,,,,,,,,,,,,,,,,,,
29,240702_150539,LEARNING,1.0,30,3.0,159.0,,,,,,,,,,30.0,30.0,30.0,cue2.png,Hard,A,,,,,,,,,,,,,,,,,,,,,,,,,,,33,20,Male,0.0,1.75,0.6,0.5,2.4444444444444446,3.0,2.7777777777777777,1.5555555555555556,2.0,2.4444444444444446,1.5,2.0,1.0,1.5,0.8802083333333333,0.8920454545454546,0.4358858571698268,-0.6682439895287857,-0.8303748653895706,-0.6528674290386299,-2.020004101561338e-05,-0.6045938586550572,0.00010202246212897333,1.3465410672994684,0.00042846206194561325,1.3615836389413112,-0.0004498535144634875,-0.7986339631395643,0.931,-0.8246702766252154,1.2990000000000002,-0.10855464742407672,,,,,,,,,,,,,,,,,,,,
30,240702_150611,LEARNING,1.0,31,3.0,159.0,,,,,,,,,,31.0,31.0,31.0,cue2.png,Hard,A,,,,,,,,,,,,,,,,,,,,,,,,,,,33,20,Male,0.0,1.75,0.6,0.5,2.4444444444444446,3.0,2.7777777777777777,1.5555555555555556,2.0,2.4444444444444446,1.5,2.0,1.0,1.5,0.5214285714285714,0.6424242424242425,0.4384982600109651,-0.5633764117023853,-0.8243994352257422,-0.5443923711848447,1.7930697359930855e-05,0.02486466368880699,0.00010825500374176235,1.458608901035612,-0.0005330596286077594,-1.7878599465218696,,,,,,,,,,,,,,,,,,,,,,,,,,
31,240702_150642,LEARNING,1.0,32,1.0,159.0,,,,,,,,,,32.0,32.0,32.0,cue1.png,Easy,A,,,,,,,,,,,,,,,,,,,,,,,,,,,33,20,Male,0.0,1.75,0.6,0.5,2.4444444444444446,3.0,2.7777777777777777,1.5555555555555556,2.0,2.4444444444444446,1.5,2.0,1.0,1.5,0.8802083333333333,0.8465909090909091,0.4442258299794048,-0.33345919527500073,-0.8114222197765724,-0.308810302942944,,,-4.296596547955899e-05,-1.2605075508046297,-8.701784406831004e-06,-0.0703371229280664,0.0004297582589512937,1.7085364244463004,1.076,-0.5773784497249667,1.3539999999999999,-0.0064153601899146154,,,,,,,,,,,,,,,,,,,,
32,240702_150713,LEARNING,1.0,33,1.0,159.0,,,,,,,,,,33.0,33.0,33.0,cue1.png,Easy,A,,,,,,,,,,,,,,,,,,,,,,,,,,,33,20,Male,0.0,1.75,0.6,0.5,2.4444444444444446,3.0,2.7777777777777777,1.5555555555555556,2.0,2.4444444444444446,1.5,2.0,1.0,1.5,1.0,1.0,0.4340840045637874,-0.7405743037590407,-0.8345172047091038,-0.7280654457532103,-3.338457323736645e-05,-0.8222428348789879,,,,,,,2.08,1.1349042689498592,1.308,-0.09184094587666848,,,,,,,,,,,,,,,,,,,,
33,240702_150744,LEARNING,1.0,34,1.0,159.0,,,,,,,,,,34.0,34.0,34.0,cue1.png,Easy,A,,,,,,,,,,,,,,,,,,,,,,,,,,,33,20,Male,0.0,1.75,0.6,0.5,2.4444444444444446,3.0,2.7777777777777777,1.5555555555555556,2.0,2.4444444444444446,1.5,2.0,1.0,1.5,1.0,1.0,0.4130524863510139,-1.5848255571470466,-0.8841806085001193,-1.6296307643569403,-3.632069129674625e-05,-0.8707119863777613,,,,,0.00020999698274253627,1.0821476234987029,1.2239999999999998,-0.324970240199196,0.9619999999999997,-0.7343899164770377,,,,,,,,,,,,,,,,,,,,
34,240702_150816,LEARNING,1.0,35,3.0,159.0,,,,,,,,,,35.0,35.0,35.0,cue2.png,Hard,A,,,,,,,,,,,,,,,,,,,,,,,,,,,33,20,Male,0.0,1.75,0.6,0.5,2.4444444444444446,3.0,2.7777777777777777,1.5555555555555556,2.0,2.4444444444444446,1.5,2.0,1.0,1.5,0.8571428571428572,0.8666666666666667,0.4744343226987191,0.8791759356378958,-0.7456320842135444,0.8855118739956079,,,,,0.00018061735407637856,0.5497736370883901,-0.00021552576724849504,-0.1307261354323748,0.8739999999999999,-0.9218815465101411,1.8899999999999997,0.9889784208557427,,,,,,,,,,,,,,,,,,,,
35,240702_150848,LEARNING,1.0,36,3.0,159.0,,,,,,,,,,36.0,36.0,36.0,cue2.png,Hard,A,,,,,,,,,,,,,,,,,,,,,,,,,,,33,20,Male,0.0,1.75,0.6,0.5,2.4444444444444446,3.0,2.7777777777777777,1.5555555555555556,2.0,2.4444444444444446,1.5,2.0,1.0,1.5,0.6349206349206349,0.7333333333333334,0.4647155318578536,0.48904236250225697,-0.7663298200414185,0.5097752274589294,,,,,-4.332592355740968e-06,-0.05602592848060385,-0.000447403011526795,-0.7916492585423118,0.7839999999999998,-1.075373025275813,1.1010000000000002,-0.47625608146706216,,,,,,,,,,,,,,,,,,,,
36,240702_150919,LEARNING,1.0,37,1.0,159.0,,,,,,,,,,37.0,37.0,37.0,cue1.png,Easy,A,,,,,,,,,,,,,,,,,,,,,,,,,,,33,20,Male,0.0,1.75,0.6,0.5,2.4444444444444446,3.0,2.7777777777777777,1.5555555555555556,2.0,2.4444444444444446,1.5,2.0,1.0,1.5,1.0,0.9545454545454546,0.4333471952316661,-0.7701514458301997,-0.8362160357161031,-0.7589051989953411,0.00015370637909722495,2.2662364188028485,8.513584659058373e-05,1.0429014704712383,0.0003254057003014557,1.0240247462921293,-0.0002017014227584926,-0.09132240280773649,1.135,-0.4767562580896931,1.318,-0.07327016637954799,,,,,,,,,,,,,,,,,,,,
37,240702_150952,LEARNING,1.0,38,3.0,159.0,,,,,,,,,,38.0,38.0,38.0,cue2.png,Hard,A,,,,,,,,,,,,,,,,,,,,,,,,,,,33,20,Male,0.0,1.75,0.6,0.5,2.4444444444444446,3.0,2.7777777777777777,1.5555555555555556,2.0,2.4444444444444446,1.5,2.0,1.0,1.5,0.84375,0.7386363636363636,0.4931786473546373,1.6316142249031647,-0.7068838027195182,1.5889293622030647,3.4775232925359466e-05,0.3029326193144375,-1.2058954867310342e-05,-0.7047660986389,-0.0003422124340770579,-1.1627440718374,-0.0009288346712621634,-2.1638810060199045,1.1210000000000002,-0.5006327103421305,1.004,-0.6563926425891311,,,,,,,,,,,,,,,,,,,,
38,240702_151023,LEARNING,1.0,39,3.0,159.0,,,,,,,,,,39.0,39.0,39.0,cue2.png,Hard,A,,,,,,,,,,,,,,,,,,,,,,,,,,,33,20,Male,0.0,1.75,0.6,0.5,2.4444444444444446,3.0,2.7777777777777777,1.5555555555555556,2.0,2.4444444444444446,1.5,2.0,1.0,1.5,0.5833333333333334,0.7045454545454546,0.4555940476379224,0.12288598674623881,-0.7861531123804915,0.1499128034362645,-6.114100405800677e-05,-1.2804432966121284,2.385902135264165e-05,-0.05892206947162917,-0.0003500567397895357,-1.1884379262260172,-0.0005132010917748642,-0.979194495365975,,,,,,,,,,,,,,,,,,,,,,,,
39,240702_151056,LEARNING,1.0,40,3.0,159.0,,,,,,,,,,40.0,40.0,40.0,cue2.png,Hard,A,,,,,,,,,,,,,,,,,,,,,,,,,,,33,20,Male,0.0,1.75,0.6,0.5,2.4444444444444446,3.0,2.7777777777777777,1.5555555555555556,2.0,2.4444444444444446,1.5,2.0,1.0,1.5,0.6904761904761905,0.7090909090909091,0.4720196049893275,0.7822438724312595,-0.7507347582648393,0.7928804068463735,,,-3.2963028922601296e-05,-1.0806439412880806,-0.0003266169503523108,-1.1116614008361536,,,1.38,-0.05891834367203159,2.34,1.8246634982261647,,,,,,,,,,,,,,,,,,,,
40,240702_151127,LEARNING,1.0,41,1.0,159.0,,,,,,,,,,41.0,41.0,41.0,cue1.png,Easy,A,,,,,,,,,,,,,,,,,,,,,,,,,,,33,20,Male,0.0,1.75,0.6,0.5,2.4444444444444446,3.0,2.7777777777777777,1.5555555555555556,2.0,2.4444444444444446,1.5,2.0,1.0,1.5,0.9642857142857144,0.9545454545454546,0.4318388809693888,-0.8306984873489233,-0.8397027210241808,-0.822200791135496,6.0075183960677566e-05,0.7205817515504233,,,0.00026975677557863637,0.8417478920847741,-0.00036484977103783643,-0.5563465418111976,1.545,0.22248270073169982,1.743,0.7159879622480725,,,,,,,,,,,,,,,,,,,,
41,240702_151159,LEARNING,1.0,42,3.0,159.0,,,,,,,,,,42.0,42.0,42.0,cue2.png,Hard,A,,,,,,,,,,,,,,,,,,,,,,,,,,,33,20,Male,0.0,1.75,0.6,0.5,2.4444444444444446,3.0,2.7777777777777777,1.5555555555555556,2.0,2.4444444444444446,1.5,2.0,1.0,1.5,0.8802083333333333,0.7556818181818181,0.4627360055326587,0.40957983562936023,-0.7705985699465866,0.4322824143507635,-1.826399044350382e-05,-0.5726337240177304,,,-0.0001247318544121464,-0.45039111785019126,-0.00025757613375430085,-0.25058291415783923,,,,,,,,,,,,,,,,,,,,,,,,
42,240702_151231,LEARNING,1.0,43,3.0,159.0,,,,,,,,,,43.0,43.0,43.0,cue2.png,Hard,A,,,,,,,,,,,,,,,,,,,,,,,,,,,33,20,Male,0.0,1.75,0.6,0.5,2.4444444444444446,3.0,2.7777777777777777,1.5555555555555556,2.0,2.4444444444444446,1.5,2.0,1.0,1.5,0.8571428571428572,0.8666666666666667,0.4450267318064685,-0.3013092399318521,-0.8096209271449055,-0.27611051111633017,-1.1479173070551817e-05,-0.4606306183896876,,,,,-0.0007649972505263869,-1.69689279364921,2.296,1.5032838179874708,1.621,0.4894244523832024,,,,,,,,,,,,,,,,,,,,
43,240702_151301,LEARNING,1.0,44,1.0,159.0,,,,,,,,,,44.0,44.0,44.0,cue1.png,Easy,A,,,,,,,,,,,,,,,,,,,,,,,,,,,33,20,Male,0.0,1.75,0.6,0.5,2.4444444444444446,3.0,2.7777777777777777,1.5555555555555556,2.0,2.4444444444444446,1.5,2.0,1.0,1.5,1.0,0.9545454545454546,0.4032624142820991,-1.9778205150631285,-0.9081677768782135,-2.0650821722427244,4.964145793811192e-05,0.5483428166517188,3.1106188176368513e-05,0.07138982206760375,,,,,2.11,1.1860680952050828,2.235,1.6296703135063997,,,,,,,,,,,,,,,,,,,,
44,240702_151332,LEARNING,1.0,45,1.0,159.0,,,,,,,,,,45.0,45.0,45.0,cue1.png,Easy,A,,,,,,,,,,,,,,,,,,,,,,,,,,,33,20,Male,0.0,1.75,0.6,0.5,2.4444444444444446,3.0,2.7777777777777777,1.5555555555555556,2.0,2.4444444444444446,1.5,2.0,1.0,1.5,1.0,1.0,0.4049512772630392,-1.9100258521180005,-0.9039885221668149,-1.989214011428305,8.87503098935035e-05,1.1939479428874724,4.988326027273362e-05,0.4090218708338798,0.00016146246376041225,0.4870322064700631,,,,,,,,,,,,,,,,,,,,,,,,,,
45,240702_151402,LEARNING,1.0,46,1.0,159.0,,,,,,,,,,46.0,46.0,46.0,cue1.png,Easy,A,,,,,,,,,,,,,,,,,,,,,,,,,,,33,20,Male,0.0,1.75,0.6,0.5,2.4444444444444446,3.0,2.7777777777777777,1.5555555555555556,2.0,2.4444444444444446,1.5,2.0,1.0,1.5,1.0,1.0,0.4324079636505551,-0.8078542607935505,-0.8383857760634728,-0.7982936117548697,,,1.1068421232052206e-05,-0.2889108825039217,,,,,0.40400000000000014,-1.7234481578419814,0.813,-1.0110945309841324,,,,,,,,,,,,,,,,,,,,
46,240702_151433,LEARNING,1.0,47,3.0,159.0,,,,,,,,,,47.0,47.0,47.0,cue2.png,Hard,A,,,,,,,,,,,,,,,,,,,,,,,,,,,33,20,Male,0.0,1.75,0.6,0.5,2.4444444444444446,3.0,2.7777777777777777,1.5555555555555556,2.0,2.4444444444444446,1.5,2.0,1.0,1.5,0.78125,0.8295454545454546,0.4252774714314866,-1.0940878523164785,-0.8550134491307668,-1.100144315134682,-7.259306342060571e-06,-0.39096946865680565,-1.405560276400604e-05,-0.7406679856086339,0.0008160721695351595,2.631192196919887,-0.0001807137311223327,-0.031500876352166,1.198,-0.369312222953723,1.66,0.5618504924219722,,,,,,,,,,,,,,,,,,,,
47,240702_151505,LEARNING,1.0,48,3.0,159.0,,,,,,,,,,48.0,48.0,48.0,cue2.png,Hard,A,,,,,,,,,,,,,,,,,,,,,,,,,,,33,20,Male,0.0,1.75,0.6,0.5,2.4444444444444446,3.0,2.7777777777777777,1.5555555555555556,2.0,2.4444444444444446,1.5,2.0,1.0,1.5,0.84375,0.8295454545454546,0.4475980000016057,-0.19809289698506172,-0.803859770826008,-0.1715252766038222,9.759424002953997e-05,1.3399426818383524,-2.5657754633575357e-06,-0.5340684736304266,,,,,2.0420000000000003,1.0700967556932426,0.742,-1.1429470654136877,,,,,,,,,,,,,,,,,,,,
48,240702_151535,LEARNING,1.0,49,1.0,159.0,,,,,,,,,,49.0,49.0,49.0,cue1.png,Easy,A,,,,,,,,,,,,,,,,,,,,,,,,,,,33,20,Male,0.0,1.75,0.6,0.5,2.4444444444444446,3.0,2.7777777777777777,1.5555555555555556,2.0,2.4444444444444446,1.5,2.0,1.0,1.5,1.0,1.0,0.4077200045470487,-1.7988830684080295,-0.8971746035295443,-1.8655174409515514,4.0649048078036584e-05,0.3998969888503937,6.557803759385007e-05,0.6912309284901496,,,9.282287050164321e-05,0.7481645263176019,,,,,,,,,,,,,,,,,,,,,,,,
49,240702_151607,LEARNING,1.0,50,1.0,159.0,,,,,,,,,,50.0,50.0,50.0,cue1.png,Easy,A,,,,,,,,,,,,,,,,,,,,,,,,,,,33,20,Male,0.0,1.75,0.6,0.5,2.4444444444444446,3.0,2.7777777777777777,1.5555555555555556,2.0,2.4444444444444446,1.5,2.0,1.0,1.5,0.9583333333333334,0.9545454545454546,0.4539269952192193,0.0559668475897139,-0.789818897352951,0.08336592294987069,,,,,4.3459431195552387e-05,0.10051581518333806,,,-0.030000000000000027,-2.463618177667554,2.316,1.7800936274330754,,,,,,,,,,,,,,,,,,,,
0,240702_151733,TrueCHOICE,9.0,1,3.0,159.0,,,,,,,,,,,1.0,1.0,,,A,,,,,,True,cue1.png,Easy,cue2.png,Hard,Right,Hard,Hard,0.0164588000625371,,,,,,,,,,,,,33,20,Male,0.0,1.75,0.6,0.5,2.4444444444444446,3.0,2.7777777777777777,1.5555555555555556,2.0,2.4444444444444446,1.5,2.0,1.0,1.5,0.84375,0.875,0.4779327954377301,1.2641276620337998,-0.7382851516936857,1.2523573516704147,,,,,,,,,,,,,,,-0.0011754829882054487,-1.6223342788463944,1.5429999999999997,0.539921406048632,,,,,,,,,,,,,,
1,240702_151802,TrueCHOICE,9.0,2,1.0,159.0,,,,,,,,,,,2.0,2.0,,,A,,,,,,True,cue1.png,Easy,cue2.png,Hard,Left,Easy,Easy,0.0145736001431941,,,,,,,,,,,,,33,20,Male,0.0,1.75,0.6,0.5,2.4444444444444446,3.0,2.7777777777777777,1.5555555555555556,2.0,2.4444444444444446,1.5,2.0,1.0,1.5,,,,,,,,,,,,,,,,,,,-4.663814151998442e-05,-1.1149101195321744,,,1.4519999999999997,-0.04153241584989597,,,,,,,,,,,,,,
2,240702_151831,TrueCHOICE,9.0,3,1.0,159.0,,,,,,,,,,,3.0,3.0,,,A,,,,,,True,cue2.png,Hard,cue1.png,Easy,Right,Easy,Easy,0.0165109999943524,,,,,,,,,,,,,33,20,Male,0.0,1.75,0.6,0.5,2.4444444444444446,3.0,2.7777777777777777,1.5555555555555556,2.0,2.4444444444444446,1.5,2.0,1.0,1.5,1.0,0.9545454545454546,0.4009444333635093,-1.0449433198731257,-0.9139324314431124,-1.0576863823570772,,,,,,,,,,,,,-1.4590596005359738e-06,-0.5131986851451822,,,1.457,-0.00958440365766699,,,,,,,,,,,,,,
3,240702_151859,TrueCHOICE,9.0,4,1.0,159.0,,,,,,,,,,,4.0,4.0,,,A,,,,,,True,cue1.png,Easy,cue2.png,Hard,Left,Easy,Easy,0.0173466000705957,,,,,,,,,,,,,33,20,Male,0.0,1.75,0.6,0.5,2.4444444444444446,3.0,2.7777777777777777,1.5555555555555556,2.0,2.4444444444444446,1.5,2.0,1.0,1.5,1.0,1.0,0.421421400017359,-0.4307885538281355,-0.8641219957563357,-0.40259918139634976,,,,,,,,,,,,,,,-0.001105694869558764,-1.491031115169929,1.1300000000000001,-2.098984401029301,,,,,,,,,,,,,,
4,240702_151929,TrueCHOICE,9.0,5,1.0,159.0,,,,,,,,,,,5.0,5.0,,,A,,,,,,True,cue2.png,Hard,cue1.png,Easy,Right,Easy,Easy,0.0192470999900251,,,,,,,,,,,,,33,20,Male,0.0,1.75,0.6,0.5,2.4444444444444446,3.0,2.7777777777777777,1.5555555555555556,2.0,2.4444444444444446,1.5,2.0,1.0,1.5,0.938095238095238,0.9333333333333332,0.4847651908957315,1.4690480638183496,-0.7240906477624941,1.4390378679337745,,,,,,,,,,,,,5.266464178578425e-05,0.20764044243073215,-6.429586475491592e-05,0.46831363622728545,1.577,0.757167888955776,,,,,,,,,,,,,,
5,240702_151958,TrueCHOICE,9.0,6,1.0,159.0,,,,,,,,,,,6.0,6.0,,,A,,,,,,True,cue2.png,Hard,cue1.png,Easy,Right,Easy,Easy,0.0173762999475002,,,,,,,,,,,,,33,20,Male,0.0,1.75,0.6,0.5,2.4444444444444446,3.0,2.7777777777777777,1.5555555555555556,2.0,2.4444444444444446,1.5,2.0,1.0,1.5,1.0,1.0,0.4653654318112372,0.8872014112709687,-0.7649323071698652,0.9019044746021285,,,,,,,,,,,,,8.869157623252319e-05,0.687460250216195,0.0004843772269391604,1.5006170448964338,1.5919999999999999,0.8530119255324559,,,,,,,,,,,,,,
6,240702_152027,TrueCHOICE,9.0,7,1.0,159.0,,,,,,,,,,,7.0,7.0,,,A,,,,,,True,cue1.png,Easy,cue2.png,Hard,Left,Easy,Easy,0.0159836001694202,,,,,,,,,,,,,33,20,Male,0.0,1.75,0.6,0.5,2.4444444444444446,3.0,2.7777777777777777,1.5555555555555556,2.0,2.4444444444444446,1.5,2.0,1.0,1.5,,,,,,,,,,,,,,,,,,,0.00012301241599959462,1.1445576689382173,-0.00042285870201178716,-0.2063059956185047,,,,,,,,,,,,,,,,
7,240702_152055,TrueCHOICE,9.0,8,1.0,159.0,,,,,,,,,,,8.0,8.0,,,A,,,,,,True,cue2.png,Hard,cue1.png,Easy,Right,Easy,Easy,0.0167492998298257,,,,,,,,,,,,,33,20,Male,0.0,1.75,0.6,0.5,2.4444444444444446,3.0,2.7777777777777777,1.5555555555555556,2.0,2.4444444444444446,1.5,2.0,1.0,1.5,1.0,1.0,0.4193417273080823,-0.49316307090417305,-0.8690691131623478,-0.46766171798421735,,,,,,,,,,,,,0.00012212430905551158,1.13272953785388,-8.233216224899642e-05,0.43437916474551014,,,,,,,,,,,,,,,,
8,240702_152124,TrueCHOICE,9.0,9,1.0,159.0,,,,,,,,,,,9.0,9.0,,,A,,,,,,True,cue1.png,Easy,cue2.png,Hard,Left,Easy,Easy,0.014384799869731,,,,,,,,,,,,,33,20,Male,0.0,1.75,0.6,0.5,2.4444444444444446,3.0,2.7777777777777777,1.5555555555555556,2.0,2.4444444444444446,1.5,2.0,1.0,1.5,1.0,1.0,0.426089431847107,-0.29078275879254717,-0.8531060208324103,-0.2577214247722761,,,,,,,,,,,,,-7.8877010514265e-05,-1.5442790947616676,-1.3204577351932055e-05,0.5644395642850123,,,,,,,,,,,,,,,,
9,240702_152152,TrueCHOICE,9.0,10,1.0,159.0,,,,,,,,,,,10.0,10.0,,,A,,,,,,True,cue2.png,Hard,cue1.png,Easy,Right,Easy,Easy,0.0163908000104129,,,,,,,,,,,,,33,20,Male,0.0,1.75,0.6,0.5,2.4444444444444446,3.0,2.7777777777777777,1.5555555555555556,2.0,2.4444444444444446,1.5,2.0,1.0,1.5,1.0,1.0,0.3904165863588621,-1.360699433725125,-0.940540939795321,-1.4076309876963942,,,,,,,,,,,,,,,-0.00012615846214470566,0.35192197948058634,,,,,,,,,,,,,,,,
0,240702_152329,FalseCHOICE,9.0,1,2.0,159.0,,,,,,,,,,,1.0,1.0,,,A,,,,,,False,cue1.png,Easy,cue2.png,Hard,Left,Easy,Mid,0.0163646999280899,,,,,,,,,,,,,33,20,Male,0.0,1.75,0.6,0.5,2.4444444444444446,3.0,2.7777777777777777,1.5555555555555556,2.0,2.4444444444444446,1.5,2.0,1.0,1.5,0.0802083333333333,0.6420454545454546,0.2629076380814825,-5.028774154681801,-1.3359524944865855,-5.497701313782327,,,,,,,,,,,,,,,,,,,,,0.0002611761797502443,1.3429767527660328,,,,,,,,,,
1,240702_152359,FalseCHOICE,9.0,2,2.0,159.0,,,,,,,,,,,2.0,2.0,,,A,,,,,,False,cue2.png,Hard,cue1.png,Easy,Right,Easy,Mid,0.0165919000282883,,,,,,,,,,,,,33,20,Male,0.0,1.75,0.6,0.5,2.4444444444444446,3.0,2.7777777777777777,1.5555555555555556,2.0,2.4444444444444446,1.5,2.0,1.0,1.5,,,,,,,,,,,,,,,,,,,,,,,,,1.2130056726999353e-05,-0.18327566125882228,0.00024035567019261867,1.3020554809406224,1.459,-0.5614242759922292,,,,,,,,
2,240702_152429,FalseCHOICE,9.0,3,2.0,159.0,,,,,,,,,,,3.0,3.0,,,A,,,,,,False,cue2.png,Hard,cue1.png,Easy,Left,Hard,Mid,0.0159054000396281,,,,,,,,,,,,,33,20,Male,0.0,1.75,0.6,0.5,2.4444444444444446,3.0,2.7777777777777777,1.5555555555555556,2.0,2.4444444444444446,1.5,2.0,1.0,1.5,,,,,,,,,,,,,,,,,,,,,,,,,7.488460209730376e-05,0.7251800102694191,,,1.132,-1.2573373619120487,,,,,,,,
3,240702_152501,FalseCHOICE,9.0,4,2.0,159.0,,,,,,,,,,,4.0,4.0,,,A,,,,,,False,cue2.png,Hard,cue1.png,Easy,Right,Easy,Mid,0.0177223999053239,,,,,,,,,,,,,33,20,Male,0.0,1.75,0.6,0.5,2.4444444444444446,3.0,2.7777777777777777,1.5555555555555556,2.0,2.4444444444444446,1.5,2.0,1.0,1.5,0.8571428571428572,0.7303030303030303,0.5224682263000623,2.2112034778626484,-0.6491911079012009,1.7880118195809227,,,,,,,,,,,,,,,,,,,9.54322743755647e-05,1.022634948517173,0.0009361060410699798,2.669504724702042,1.6019999999999999,-0.25709531181322626,,,,,,,,
4,240702_152531,FalseCHOICE,9.0,5,2.0,159.0,,,,,,,,,,,5.0,5.0,,,A,,,,,,False,cue1.png,Easy,cue2.png,Hard,Right,Hard,Mid,0.0165579000022262,,,,,,,,,,,,,33,20,Male,0.0,1.75,0.6,0.5,2.4444444444444446,3.0,2.7777777777777777,1.5555555555555556,2.0,2.4444444444444446,1.5,2.0,1.0,1.5,,,,,,,,,,,,,,,,,,,,,,,,,-8.41648927018485e-05,-1.5772733777900874,-0.0005217649638126305,-0.19583992558464647,1.5630000000000002,-0.34009412022568114,,,,,,,,
5,240702_152600,FalseCHOICE,9.0,6,2.0,159.0,,,,,,,,,,,6.0,6.0,,,A,,,,,,False,cue2.png,Hard,cue1.png,Easy,Right,Easy,Mid,0.0155959001276642,,,,,,,,,,,,,33,20,Male,0.0,1.75,0.6,0.5,2.4444444444444446,3.0,2.7777777777777777,1.5555555555555556,2.0,2.4444444444444446,1.5,2.0,1.0,1.5,0.8571428571428572,0.8212121212121213,0.4667758285844077,0.6577638107258243,-0.7619061610063794,0.5922405389338931,,,,,,,,,,,,,,,,,,,4.3073178148779825e-05,0.2646672564139655,,,,,,,,,,,,
6,240702_152630,FalseCHOICE,9.0,7,2.0,159.0,,,,,,,,,,,7.0,7.0,,,A,,,,,,False,cue2.png,Hard,cue1.png,Easy,Right,Easy,Mid,0.016565800178796,,,,,,,,,,,,,33,20,Male,0.0,1.75,0.6,0.5,2.4444444444444446,3.0,2.7777777777777777,1.5555555555555556,2.0,2.4444444444444446,1.5,2.0,1.0,1.5,1.0,0.9545454545454546,0.4154170904796393,-0.7747961848660437,-0.8784722261629494,-0.6443853523939524,,,,,,,,,,,,,,,,,,,,,-0.0002274435607273525,0.3826284402521372,2.2270000000000003,1.0730137973607408,,,,,,,,
7,240702_152700,FalseCHOICE,9.0,8,2.0,159.0,,,,,,,,,,,8.0,8.0,,,A,,,,,,False,cue1.png,Easy,cue2.png,Hard,Right,Hard,Mid,0.0166554998140782,,,,,,,,,,,,,33,20,Male,0.0,1.75,0.6,0.5,2.4444444444444446,3.0,2.7777777777777777,1.5555555555555556,2.0,2.4444444444444446,1.5,2.0,1.0,1.5,,,,,,,,,,,,,,,,,,,,,,,,,2.6874600518901615e-05,0.030171258845686433,,,2.042,0.6793015010452457,,,,,,,,
8,240702_152730,FalseCHOICE,9.0,9,2.0,159.0,,,,,,,,,,,9.0,9.0,,,A,,,,,,False,cue1.png,Easy,cue2.png,Hard,Right,Hard,Mid,0.0153820000123232,,,,,,,,,,,,,33,20,Male,0.0,1.75,0.6,0.5,2.4444444444444446,3.0,2.7777777777777777,1.5555555555555556,2.0,2.4444444444444446,1.5,2.0,1.0,1.5,0.7571428571428571,0.7545454545454546,0.4507639047889305,0.21113988014805127,-0.7968115692570761,0.2219360979956017,,,,,,,,,,,,,,,,,,,,,-0.0002357638143290746,0.36627555713224647,,,,,,,,,,
9,240702_152800,FalseCHOICE,9.0,10,2.0,159.0,,,,,,,,,,,10.0,10.0,,,A,,,,,,False,cue2.png,Hard,cue1.png,Easy,Right,Easy,Mid,0.0169957000762224,,,,,,,,,,,,,33,20,Male,0.0,1.75,0.6,0.5,2.4444444444444446,3.0,2.7777777777777777,1.5555555555555556,2.0,2.4444444444444446,1.5,2.0,1.0,1.5,,,,,,,,,,,,,,,,,,,,,,,,,-0.00014070797583297986,-2.395809855953724,-0.0006356252183133898,-0.4196243825231406,1.57,-0.3251968982029329,,,,,,,,
10,240702_152830,FalseCHOICE,9.0,11,2.0,159.0,,,,,,,,,,,11.0,11.0,,,A,,,,,,False,cue1.png,Easy,cue2.png,Hard,Right,Hard,Mid,0.0164432998280972,,,,,,,,,,,,,33,20,Male,0.0,1.75,0.6,0.5,2.4444444444444446,3.0,2.7777777777777777,1.5555555555555556,2.0,2.4444444444444446,1.5,2.0,1.0,1.5,0.938095238095238,0.9333333333333332,0.4743137863379987,0.86802163879449,-0.7458861798164149,0.7621932905472008,,,,,,,,,,,,,,,,,,,4.499328646484892e-05,0.2924633830433352,0.00016404391791330006,1.1520700086901778,1.0170000000000001,-1.5020774380000579,,,,,,,,
11,240702_152859,FalseCHOICE,9.0,12,2.0,159.0,,,,,,,,,,,12.0,12.0,,,A,,,,,,False,cue2.png,Hard,cue1.png,Easy,Right,Easy,Mid,0.0166141001973301,,,,,,,,,,,,,33,20,Male,0.0,1.75,0.6,0.5,2.4444444444444446,3.0,2.7777777777777777,1.5555555555555556,2.0,2.4444444444444446,1.5,2.0,1.0,1.5,,,,,,,,,,,,,,,,,,,,,,,,,-1.887933603632666e-05,-0.6321779449142902,-0.0018312045244129739,-2.7694528359683477,2.564,1.7902086290273427,,,,,,,,
12,240702_152928,FalseCHOICE,9.0,13,2.0,159.0,,,,,,,,,,,13.0,13.0,,,A,,,,,,False,cue1.png,Easy,cue2.png,Hard,Right,Hard,Mid,0.017699799966067,,,,,,,,,,,,,33,20,Male,0.0,1.75,0.6,0.5,2.4444444444444446,3.0,2.7777777777777777,1.5555555555555556,2.0,2.4444444444444446,1.5,2.0,1.0,1.5,0.9583333333333334,0.9545454545454546,0.4329650571591975,-0.2853270896979888,-0.8370982536374106,-0.20545721680453205,,,,,,,,,,,,,,,,,,,,,-0.0009941776110067684,-1.1243343169485045,,,,,,,,,,
13,240702_152958,FalseCHOICE,9.0,14,2.0,159.0,,,,,,,,,,,14.0,14.0,,,A,,,,,,False,cue2.png,Hard,cue1.png,Easy,Right,Easy,Mid,0.0166864001657813,,,,,,,,,,,,,33,20,Male,0.0,1.75,0.6,0.5,2.4444444444444446,3.0,2.7777777777777777,1.5555555555555556,2.0,2.4444444444444446,1.5,2.0,1.0,1.5,0.8023809523809524,0.7757575757575758,0.4447110099950805,0.042305223005438285,-0.8103306235190311,0.0785151760991288,,,,,,,,,,,,,,,,,,,4.119145970493416e-06,-0.29924426987371583,,,2.994,2.7053236961390317,,,,,,,,
14,240702_153027,FalseCHOICE,9.0,15,2.0,159.0,,,,,,,,,,,15.0,15.0,,,A,,,,,,False,cue1.png,Easy,cue2.png,Hard,Right,Hard,Mid,0.0165655999444425,,,,,,,,,,,,,33,20,Male,0.0,1.75,0.6,0.5,2.4444444444444446,3.0,2.7777777777777777,1.5555555555555556,2.0,2.4444444444444446,1.5,2.0,1.0,1.5,,,,,,,,,,,,,,,,,,,,,,,,,0.00010663243238382292,1.184772161121846,0.0005016693887414077,1.8156495252577223,,,,,,,,,,
15,240702_153057,FalseCHOICE,9.0,16,2.0,159.0,,,,,,,,,,,16.0,16.0,,,A,,,,,,False,cue1.png,Easy,cue2.png,Hard,Right,Hard,Mid,0.0142726998310536,,,,,,,,,,,,,33,20,Male,0.0,1.75,0.6,0.5,2.4444444444444446,3.0,2.7777777777777777,1.5555555555555556,2.0,2.4444444444444446,1.5,2.0,1.0,1.5,0.734375,0.7670454545454546,0.4705887999984303,0.7641198177780494,-0.7537706023804358,0.6785490406727495,,,,,,,,,,,,,,,,,,,0.00011103957002933,1.2485713515333359,-0.0007730223077386366,-0.6896688609653832,,,,,,,,,,
16,240702_153126,FalseCHOICE,9.0,17,2.0,159.0,,,,,,,,,,,17.0,17.0,,,A,,,,,,False,cue2.png,Hard,cue1.png,Easy,Right,Easy,Mid,0.0166282998397946,,,,,,,,,,,,,33,20,Male,0.0,1.75,0.6,0.5,2.4444444444444446,3.0,2.7777777777777777,1.5555555555555556,2.0,2.4444444444444446,1.5,2.0,1.0,1.5,0.5214285714285714,0.6424242424242425,0.4361258600256406,-0.19716215598833267,-0.8298244075066288,-0.12829044924848806,,,,,,,,,,,,,,,,,,,-4.512418024531315e-05,-1.0121070389638047,-0.0004968436008593443,-0.1468587099785365,,,,,,,,,,
17,240702_153156,FalseCHOICE,9.0,18,2.0,159.0,,,,,,,,,,,18.0,18.0,,,A,,,,,,False,cue2.png,Hard,cue1.png,Easy,Right,Easy,Mid,0.0165454000234603,,,,,,,,,,,,,33,20,Male,0.0,1.75,0.6,0.5,2.4444444444444446,3.0,2.7777777777777777,1.5555555555555556,2.0,2.4444444444444446,1.5,2.0,1.0,1.5,0.9642857142857144,0.7727272727272727,0.4264573588392095,-0.46684767646897957,-0.8522428963236711,-0.3661236786567277,,,,,,,,,,,,,,,,,,,-2.7817270163350317e-06,-0.39914360252583175,-0.0009198136163177965,-0.978177027557081,,,,,,,,,,
18,240702_153225,FalseCHOICE,9.0,19,2.0,159.0,,,,,,,,,,,19.0,19.0,,,A,,,,,,False,cue1.png,Easy,cue2.png,Hard,Right,Hard,Mid,0.0165409001056104,,,,,,,,,,,,,33,20,Male,0.0,1.75,0.6,0.5,2.4444444444444446,3.0,2.7777777777777777,1.5555555555555556,2.0,2.4444444444444446,1.5,2.0,1.0,1.5,0.8802083333333333,0.8920454545454546,0.4630467142532801,0.5537468467797079,-0.7699273352699247,0.5071455178415247,,,,,,,,,,,,,,,,,,,,,-0.00018878419869446973,0.458610743085121,,,,,,,,,,
19,240702_153255,FalseCHOICE,9.0,20,2.0,159.0,,,,,,,,,,,20.0,20.0,,,A,,,,,,False,cue1.png,Easy,cue2.png,Hard,Right,Hard,Mid,0.0166389001533389,,,,,,,,,,,,,33,20,Male,0.0,1.75,0.6,0.5,2.4444444444444446,3.0,2.7777777777777777,1.5555555555555556,2.0,2.4444444444444446,1.5,2.0,1.0,1.5,0.84375,0.7840909090909091,0.4609948149998672,0.49651279286997624,-0.774368483337531,0.4600302731067405,,,,,,,,,,,,,,,,,,,-5.7161929135091365e-05,-1.1863694957599085,-0.00022341987272838986,0.39053672078151,,,,,,,,,,
20,240702_153325,FalseCHOICE,9.0,21,2.0,159.0,,,,,,,,,,,21.0,21.0,,,A,,,,,,False,cue1.png,Easy,cue2.png,Hard,Right,Hard,Mid,0.0166931001003831,,,,,,,,,,,,,33,20,Male,0.0,1.75,0.6,0.5,2.4444444444444446,3.0,2.7777777777777777,1.5555555555555556,2.0,2.4444444444444446,1.5,2.0,1.0,1.5,0.84375,0.875,0.5024255091028119,1.652147786089796,-0.6883078906290477,1.3730297556180748,,,,,,,,,,,,,,,,,,,3.0443031819588854e-05,0.08182905724800313,-0.0001916529244752026,0.45297246093160204,1.7579999999999998,0.07489992183659545,,,,,,,,
21,240702_153355,FalseCHOICE,9.0,22,2.0,159.0,,,,,,,,,,,22.0,22.0,,,A,,,,,,False,cue2.png,Hard,cue1.png,Easy,Right,Easy,Mid,0.016554299974814,,,,,,,,,,,,,33,20,Male,0.0,1.75,0.6,0.5,2.4444444444444446,3.0,2.7777777777777777,1.5555555555555556,2.0,2.4444444444444446,1.5,2.0,1.0,1.5,0.938095238095238,0.8878787878787879,0.4706803000465567,0.7666720477077108,-0.7535761839119867,0.6806115870194378,,,,,,,,,,,,,,,,,,,-5.155687158450023e-05,-1.1052288183630767,-0.0012536888129020367,-1.6343856394247003,1.5330000000000001,-0.40393935746603155,,,,,,,,
22,240702_153423,FalseCHOICE,9.0,23,2.0,159.0,,,,,,,,,,,23.0,23.0,,,A,,,,,,False,cue1.png,Easy,cue2.png,Hard,Right,Hard,Mid,0.0165611999109387,,,,,,,,,,,,,33,20,Male,0.0,1.75,0.6,0.5,2.4444444444444446,3.0,2.7777777777777777,1.5555555555555556,2.0,2.4444444444444446,1.5,2.0,1.0,1.5,0.8023809523809524,0.7757575757575758,0.4027546850033104,-1.1279913022450672,-0.9094276244581101,-0.9727849338394104,,,,,,,,,,,,,,,,,,,7.146327932860746e-05,0.6756518039058745,-0.0005401403736121292,-0.23195552291080285,1.5030000000000001,-0.46778459470638195,,,,,,,,
23,240702_153453,FalseCHOICE,9.0,24,2.0,159.0,,,,,,,,,,,24.0,24.0,,,A,,,,,,False,cue2.png,Hard,cue1.png,Easy,Right,Easy,Mid,0.0173122000414878,,,,,,,,,,,,,33,20,Male,0.0,1.75,0.6,0.5,2.4444444444444446,3.0,2.7777777777777777,1.5555555555555556,2.0,2.4444444444444446,1.5,2.0,1.0,1.5,0.9642857142857144,0.8636363636363636,0.4603197579149549,0.4776832847809431,-0.7758339050850271,0.4444839091436569,,,,,,,,,,,,,,,,,,,7.86865448541103e-06,-0.2449651374902281,-0.00016863915265803026,0.4982044380670298,1.6039999999999999,-0.25283896266386957,,,,,,,,
24,240702_153522,FalseCHOICE,9.0,25,2.0,159.0,,,,,,,,,,,25.0,25.0,,,A,,,,,,False,cue2.png,Hard,cue1.png,Easy,Right,Easy,Mid,0.0170785000082105,,,,,,,,,,,,,33,20,Male,0.0,1.75,0.6,0.5,2.4444444444444446,3.0,2.7777777777777777,1.5555555555555556,2.0,2.4444444444444446,1.5,2.0,1.0,1.5,0.734375,0.7670454545454546,0.4262382381240882,-0.47295965628530473,-0.852756844608909,-0.37157605242841696,,,,,,,,,,,,,,,,,,,-4.8616104166487525e-06,-0.4292526864174115,-0.00042393248230412385,-0.003556948163579731,,,,,,,,,,
25,240702_153551,FalseCHOICE,9.0,26,2.0,159.0,,,,,,,,,,,26.0,26.0,,,A,,,,,,False,cue1.png,Easy,cue2.png,Hard,Right,Hard,Mid,0.0165801998227834,,,,,,,,,,,,,33,20,Male,0.0,1.75,0.6,0.5,2.4444444444444446,3.0,2.7777777777777777,1.5555555555555556,2.0,2.4444444444444446,1.5,2.0,1.0,1.5,0.734375,0.7670454545454546,0.4231824666771683,-0.5581949267002306,-0.8599518296432638,-0.4479061985069389,,,,,,,,,,,,,,,,,,,-3.842392084899265e-05,-0.915111855373835,-0.0008047681040408237,-0.7520630284184131,1.7360000000000002,0.02808008119367275,,,,,,,,
26,240702_153620,FalseCHOICE,9.0,27,2.0,159.0,,,,,,,,,,,27.0,27.0,,,A,,,,,,False,cue1.png,Easy,cue2.png,Hard,Right,Hard,Mid,0.0167499999515712,,,,,,,,,,,,,33,20,Male,0.0,1.75,0.6,0.5,2.4444444444444446,3.0,2.7777777777777777,1.5555555555555556,2.0,2.4444444444444446,1.5,2.0,1.0,1.5,1.0,0.9545454545454546,0.4521924428242658,0.25098638956633285,-0.7936474312985567,0.25550379986477384,,,,,,,,,,,,,,,,,,,3.2318446559288175e-05,0.10897818480034324,-0.0003010097078419531,0.2380392650980586,1.5490000000000002,-0.369888564271178,,,,,,,,
27,240702_153649,FalseCHOICE,9.0,28,2.0,159.0,,,,,,,,,,,28.0,28.0,,,A,,,,,,False,cue2.png,Hard,cue1.png,Easy,Right,Easy,Mid,0.0165252999868243,,,,,,,,,,,,,33,20,Male,0.0,1.75,0.6,0.5,2.4444444444444446,3.0,2.7777777777777777,1.5555555555555556,2.0,2.4444444444444446,1.5,2.0,1.0,1.5,0.938095238095238,0.9333333333333332,0.4444413545266302,0.034783666772758196,-0.8109371685555783,0.07208046205569592,,,,,,,,,,,,,,,,,,,4.8561988757276926e-05,0.34412510441222566,-0.00024864879864405776,0.340951011440402,1.5819999999999999,-0.29965880330679323,,,,,,,,
28,240702_153718,FalseCHOICE,9.0,29,2.0,159.0,,,,,,,,,,,29.0,29.0,,,A,,,,,,False,cue1.png,Easy,cue2.png,Hard,Right,Hard,Mid,0.0155547999311238,,,,,,,,,,,,,33,20,Male,0.0,1.75,0.6,0.5,2.4444444444444446,3.0,2.7777777777777777,1.5555555555555556,2.0,2.4444444444444446,1.5,2.0,1.0,1.5,0.84375,0.8295454545454546,0.4519034523982554,0.24292551932908124,-0.7942867228546402,0.24872168459565006,,,,,,,,,,,,,,,,,,,-7.193883741362121e-05,-1.4002849349375686,0.00010931185455778213,1.0444979228131333,2.366,1.3688300632410302,,,,,,,,
29,240702_153748,FalseCHOICE,9.0,30,2.0,159.0,,,,,,,,,,,30.0,30.0,,,A,,,,,,False,cue1.png,Easy,cue2.png,Hard,Right,Hard,Mid,0.0154418998863548,,,,,,,,,,,,,33,20,Male,0.0,1.75,0.6,0.5,2.4444444444444446,3.0,2.7777777777777777,1.5555555555555556,2.0,2.4444444444444446,1.5,2.0,1.0,1.5,0.8928571428571428,0.8878787878787879,0.4658400428348354,0.6316617436044013,-0.7639129595014578,0.5709508181703217,,,,,,,,,,,,,,,,,,,,,-0.001030491253146245,-1.1957062695343597,1.554,-0.3592476913977865,,,,,,,,
30,240702_153817,FalseCHOICE,9.0,31,2.0,159.0,,,,,,,,,,,31.0,31.0,,,A,,,,,,False,cue2.png,Hard,cue1.png,Easy,Right,Easy,Mid,0.0165647000540047,,,,,,,,,,,,,33,20,Male,0.0,1.75,0.6,0.5,2.4444444444444446,3.0,2.7777777777777777,1.5555555555555556,2.0,2.4444444444444446,1.5,2.0,1.0,1.5,0.9322916666666669,0.8920454545454546,0.4516158762188362,0.2349040969670146,-0.7949232918355614,0.24196845257768643,,,,,,,,,,,,,,,,,,,6.634643312307658e-05,0.6015786363237867,7.710636835681853e-05,0.9812002666509935,,,,,,,,,,
31,240702_153847,FalseCHOICE,9.0,32,2.0,159.0,,,,,,,,,,,32.0,32.0,,,A,,,,,,False,cue1.png,Easy,cue2.png,Hard,Right,Hard,Mid,0.0165192999411374,,,,,,,,,,,,,33,20,Male,0.0,1.75,0.6,0.5,2.4444444444444446,3.0,2.7777777777777777,1.5555555555555556,2.0,2.4444444444444446,1.5,2.0,1.0,1.5,0.84375,0.8295454545454546,0.4531702904496342,0.2782616973636094,-0.7914873070308762,0.27842012284703577,,,,,,,,,,,,,,,,,,,0.00018637282917612812,2.3391206674877467,-0.000388731761822996,0.06562763385981978,1.3749999999999998,-0.7401909402652109,,,,,,,,
32,240702_153916,FalseCHOICE,9.0,33,2.0,159.0,,,,,,,,,,,33.0,33.0,,,A,,,,,,False,cue2.png,Hard,cue1.png,Easy,Right,Easy,Mid,0.0166737001854926,,,,,,,,,,,,,33,20,Male,0.0,1.75,0.6,0.5,2.4444444444444446,3.0,2.7777777777777777,1.5555555555555556,2.0,2.4444444444444446,1.5,2.0,1.0,1.5,0.84375,0.875,0.424612577274357,-0.5183045534861296,-0.8565781086859394,-0.41211507284494764,,,,,,,,,,,,,,,,,,,0.00017287097236305367,2.1436632974180414,,,1.7089999999999999,-0.02938063232264334,,,,,,,,
33,240702_153945,FalseCHOICE,9.0,34,2.0,159.0,,,,,,,,,,,34.0,34.0,,,A,,,,,,False,cue2.png,Hard,cue1.png,Easy,Right,Easy,Mid,0.0165748000144958,,,,,,,,,,,,,33,20,Male,0.0,1.75,0.6,0.5,2.4444444444444446,3.0,2.7777777777777777,1.5555555555555556,2.0,2.4444444444444446,1.5,2.0,1.0,1.5,0.9322916666666669,0.8920454545454546,0.4304700047775571,-0.3549221062568628,-0.8428776328552452,-0.26676948609128054,,,,,,,,,,,,,,,,,,,,,-0.0005030851940065551,-0.15912612971164686,1.5410000000000001,-0.38691396086860474,,,,,,,,
34,240702_154014,FalseCHOICE,9.0,35,2.0,159.0,,,,,,,,,,,35.0,35.0,,,A,,,,,,False,cue2.png,Hard,cue1.png,Easy,Right,Easy,Mid,0.0164664001204073,,,,,,,,,,,,,33,20,Male,0.0,1.75,0.6,0.5,2.4444444444444446,3.0,2.7777777777777777,1.5555555555555556,2.0,2.4444444444444446,1.5,2.0,1.0,1.5,0.7571428571428571,0.8,0.4598640363599935,0.46497174838308963,-0.7768244063197923,0.4339758811797929,,,,,,,,,,,,,,,,,,,,,-0.0001209082144565431,0.5920162965721713,0.7969999999999999,-1.9702758444292943,,,,,,,,
35,240702_154043,FalseCHOICE,9.0,36,2.0,159.0,,,,,,,,,,,36.0,36.0,,,A,,,,,,False,cue1.png,Easy,cue2.png,Hard,Right,Hard,Mid,0.0155376999173313,,,,,,,,,,,,,33,20,Male,0.0,1.75,0.6,0.5,2.4444444444444446,3.0,2.7777777777777777,1.5555555555555556,2.0,2.4444444444444446,1.5,2.0,1.0,1.5,0.7571428571428571,0.8,0.4408322226954624,-0.06588660027315595,-0.8190909233263443,-0.014421078916143427,,,,,,,,,,,,,,,,,,,5.591193693500144e-06,-0.2779344174186536,-0.0005180721796461708,-0.18858201365650537,1.3489999999999998,-0.795523479206848,,,,,,,,
36,240702_154112,FalseCHOICE,9.0,37,2.0,159.0,,,,,,,,,,,37.0,37.0,,,A,,,,,,False,cue2.png,Hard,cue1.png,Easy,Right,Easy,Mid,0.0165548000950366,,,,,,,,,,,,,33,20,Male,0.0,1.75,0.6,0.5,2.4444444444444446,3.0,2.7777777777777777,1.5555555555555556,2.0,2.4444444444444446,1.5,2.0,1.0,1.5,0.78125,0.8295454545454546,0.457309304758729,0.3937120869019189,-0.7823953013597468,0.3748753785161388,,,,,,,,,,,,,,,,,,,2.349298576790216e-05,-0.018782121046421213,-0.000548568433531323,-0.2485202918930229,1.004,-1.5297437074708766,,,,,,,,
37,240702_154141,FalseCHOICE,9.0,38,2.0,159.0,,,,,,,,,,,38.0,38.0,,,A,,,,,,False,cue1.png,Easy,cue2.png,Hard,Right,Hard,Mid,0.0165673999581486,,,,,,,,,,,,,33,20,Male,0.0,1.75,0.6,0.5,2.4444444444444446,3.0,2.7777777777777777,1.5555555555555556,2.0,2.4444444444444446,1.5,2.0,1.0,1.5,0.734375,0.8125,0.41525620453864,-0.7792838099797808,-0.8788595889058616,-0.6484948056604547,,,,,,,,,,,,,,,,,,,-3.661391319231648e-05,-0.8889095825103446,-0.000773110151440692,-0.6898415116874997,2.282,1.1900633989680491,,,,,,,,
38,240702_154209,FalseCHOICE,9.0,39,2.0,159.0,,,,,,,,,,,39.0,39.0,,,A,,,,,,False,cue1.png,Easy,cue2.png,Hard,Right,Hard,Mid,0.0155476001091301,,,,,,,,,,,,,33,20,Male,0.0,1.75,0.6,0.5,2.4444444444444446,3.0,2.7777777777777777,1.5555555555555556,2.0,2.4444444444444446,1.5,2.0,1.0,1.5,0.7571428571428571,0.8,0.4019542545270683,-1.1503178764918465,-0.9114169915470104,-0.9938897283281429,,,,,,,,,,,,,,,,,,,9.09336031099002e-05,0.9575106869753478,,,1.1940000000000002,-1.1253905382819906,,,,,,,,
39,240702_154238,FalseCHOICE,9.0,40,2.0,159.0,,,,,,,,,,,40.0,40.0,,,A,,,,,,False,cue2.png,Hard,cue1.png,Easy,Right,Easy,Mid,0.0162833000067621,,,,,,,,,,,,,33,20,Male,0.0,1.75,0.6,0.5,2.4444444444444446,3.0,2.7777777777777777,1.5555555555555556,2.0,2.4444444444444446,1.5,2.0,1.0,1.5,0.7571428571428571,0.8,0.4243724408813498,-0.5250027279896787,-0.8571438110111297,-0.4181164947954527,,,,,,,,,,,,,,,,,,,-1.0342069686817505e-05,-0.5085896376642973,,,2.011,0.6133280892302176,,,,,,,,
40,240702_154306,FalseCHOICE,9.0,41,2.0,159.0,,,,,,,,,,,41.0,41.0,,,A,,,,,,False,cue2.png,Hard,cue1.png,Easy,Right,Easy,Mid,0.0168991000391542,,,,,,,,,,,,,33,20,Male,0.0,1.75,0.6,0.5,2.4444444444444446,3.0,2.7777777777777777,1.5555555555555556,2.0,2.4444444444444446,1.5,2.0,1.0,1.5,0.6349206349206349,0.7333333333333334,0.4417305454738777,-0.04082949562113974,-0.8170552084264069,0.007175410158469005,,,,,,,,,,,,,,,,,,,,,,,2.652,1.977487991599037,,,,,,,,
41,240702_154336,FalseCHOICE,9.0,42,2.0,159.0,,,,,,,,,,,42.0,42.0,,,A,,,,,,False,cue1.png,Easy,cue2.png,Hard,Right,Hard,Mid,0.0165085999760776,,,,,,,,,,,,,33,20,Male,0.0,1.75,0.6,0.5,2.4444444444444446,3.0,2.7777777777777777,1.5555555555555556,2.0,2.4444444444444446,1.5,2.0,1.0,1.5,0.84375,0.7840909090909091,0.4396788900136016,-0.09805674935805064,-0.8217106139237774,-0.04221284846504781,,,,,,,,,,,,,,,,,,,0.00011953160617271703,1.371504891275516,-0.00045558711106715843,-0.06577193212251761,2.2830000000000004,1.1921915735427282,,,,,,,,
42,240702_154405,FalseCHOICE,9.0,43,2.0,159.0,,,,,,,,,,,43.0,43.0,,,A,,,,,,False,cue2.png,Hard,cue1.png,Easy,Right,Easy,Mid,0.0169653999619185,,,,,,,,,,,,,33,20,Male,0.0,1.75,0.6,0.5,2.4444444444444446,3.0,2.7777777777777777,1.5555555555555556,2.0,2.4444444444444446,1.5,2.0,1.0,1.5,0.8802083333333333,0.8465909090909091,0.4369766249437816,-0.1734315926537042,-0.8278755751483423,-0.10761567954705306,,,,,,,,,,,,,,,,,,,3.269298202056769e-05,0.11440008471181691,-0.0006261946948611704,-0.40108934078575725,2.036,0.6665324535971761,,,,,,,,
43,240702_154434,FalseCHOICE,9.0,44,2.0,159.0,,,,,,,,,,,44.0,44.0,,,A,,,,,,False,cue1.png,Easy,cue2.png,Hard,Right,Hard,Mid,0.016851200023666,,,,,,,,,,,,,33,20,Male,0.0,1.75,0.6,0.5,2.4444444444444446,3.0,2.7777777777777777,1.5555555555555556,2.0,2.4444444444444446,1.5,2.0,1.0,1.5,0.8571428571428572,0.8666666666666667,0.4560240318321369,0.35786170104747833,-0.7852097694701551,0.3450172535895353,,,,,,,,,,,,,,,,,,,1.517715429412295e-05,-0.13916486338404022,-0.0009616049550393081,-1.0603150139996087,1.814,0.19407769801858338,,,,,,,,
44,240702_154503,FalseCHOICE,9.0,45,2.0,159.0,,,,,,,,,,,45.0,45.0,,,A,,,,,,False,cue2.png,Hard,cue1.png,Easy,Right,Easy,Mid,0.0167765000369399,,,,,,,,,,,,,33,20,Male,0.0,1.75,0.6,0.5,2.4444444444444446,3.0,2.7777777777777777,1.5555555555555556,2.0,2.4444444444444446,1.5,2.0,1.0,1.5,0.8476190476190476,0.8424242424242424,0.4485115400049835,0.14831419937722926,-0.801820867591374,0.1687934615923073,,,,,,,,,,,,,,,,,,,-4.245660334985073e-05,-0.9734903085641086,-0.0013545719345872853,-1.8326644391655074,1.527,-0.4167084049141021,,,,,,,,
45,240702_154533,FalseCHOICE,9.0,46,2.0,159.0,,,,,,,,,,,46.0,46.0,,,A,,,,,,False,cue2.png,Hard,cue1.png,Easy,Right,Easy,Mid,0.0159271000884473,,,,,,,,,,,,,33,20,Male,0.0,1.75,0.6,0.5,2.4444444444444446,3.0,2.7777777777777777,1.5555555555555556,2.0,2.4444444444444446,1.5,2.0,1.0,1.5,0.8571428571428572,0.7757575757575758,0.4381502450327389,-0.14069556269063274,-0.8251934022364787,-0.07916104771768191,,,,,,,,,,,,,,,,,,,0.00011624550931319151,1.3239342601505275,,,1.5879999999999999,-0.28688975585872317,,,,,,,,
46,240702_154602,FalseCHOICE,9.0,47,2.0,159.0,,,,,,,,,,,47.0,47.0,,,A,,,,,,False,cue1.png,Easy,cue2.png,Hard,Right,Hard,Mid,0.0176315999124199,,,,,,,,,,,,,33,20,Male,0.0,1.75,0.6,0.5,2.4444444444444446,3.0,2.7777777777777777,1.5555555555555556,2.0,2.4444444444444446,1.5,2.0,1.0,1.5,0.84375,0.875,0.4468172591137276,0.10105526904374464,-0.8056055842571199,0.1286421652959551,,,,,,,,,,,,,,,,,,,-4.1707661182287074e-05,-0.9626483726412995,-0.0005854146979688973,-0.3209390767756769,,,,,,,,,,
47,240702_154631,FalseCHOICE,9.0,48,2.0,159.0,,,,,,,,,,,48.0,48.0,,,A,,,,,,False,cue1.png,Easy,cue2.png,Hard,Right,Hard,Mid,0.0140637999866157,,,,,,,,,,,,,33,20,Male,0.0,1.75,0.6,0.5,2.4444444444444446,3.0,2.7777777777777777,1.5555555555555556,2.0,2.4444444444444446,1.5,2.0,1.0,1.5,0.734375,0.8125,0.4531890409257771,0.27878470830608704,-0.7914459316613146,0.27885906580349934,,,,,,,,,,,,,,,,,,,,,8.310138639578205e-05,0.9929830600591795,1.8280000000000003,0.2238721420640807,,,,,,,,
48,240702_154700,FalseCHOICE,9.0,49,2.0,159.0,,,,,,,,,,,49.0,49.0,,,A,,,,,,False,cue2.png,Hard,cue1.png,Easy,Right,Easy,Mid,0.0166617999784648,,,,,,,,,,,,,33,20,Male,0.0,1.75,0.6,0.5,2.4444444444444446,3.0,2.7777777777777777,1.5555555555555556,2.0,2.4444444444444446,1.5,2.0,1.0,1.5,0.734375,0.8125,0.4505531408887526,0.2052609987142063,-0.7972792490930013,0.21697457687725344,,,,,,,,,,,,,,,,,,,4.883134445880875e-06,-0.2881845185943069,-0.0001851195256360131,0.46581340457432735,,,,,,,,,,
49,240702_154729,FalseCHOICE,9.0,50,2.0,159.0,,,,,,,,,,,50.0,50.0,,,A,,,,,,False,cue1.png,Easy,cue2.png,Hard,Right,Hard,Mid,0.014891600003466,,,,,,,,,,,,,33,20,Male,0.0,1.75,0.6,0.5,2.4444444444444446,3.0,2.7777777777777777,1.5555555555555556,2.0,2.4444444444444446,1.5,2.0,1.0,1.5,0.8571428571428572,0.8666666666666667,0.4587530864148654,0.4339837898150859,-0.7792431517561735,0.40831589834394366,,,,,,,,,,,,,,,,,,,9.436546471167052e-05,1.0071914569917861,-0.0006480988768799555,-0.4441404958990902,1.6759999999999997,-0.09961039328702904,,,,,,,,
0,240702_144917,OFFLINERATING,9.0,1,1.0,,,,,,,,,,,,,,,,,T0,cue1.png,Easy,41.0,1.807457699906081,,,,,,,,,,,,,,,,,,,,,,33,20,Male,0.0,1.75,0.6,0.5,2.4444444444444446,3.0,2.7777777777777777,1.5555555555555556,2.0,2.4444444444444446,1.5,2.0,1.0,1.5,,,,,,,,,,,,,,,,,,,,,,,,,,,,,,,-0.6790322940348782,-2.1039062865572163e-05,-0.7205733047142523,,,,,
1,240702_144925,OFFLINERATING,9.0,2,3.0,,,,,,,,,,,,,,,,,T0,cue2.png,Hard,55.0,1.7689536001998931,,,,,,,,,,,,,,,,,,,,,,33,20,Male,0.0,1.75,0.6,0.5,2.4444444444444446,3.0,2.7777777777777777,1.5555555555555556,2.0,2.4444444444444446,1.5,2.0,1.0,1.5,,,,,,,,,,,,,,,,,,,,,,,,,,,,,,,0.04526881960232521,3.077534557049998e-05,1.4141275247851632,,,,,
2,240702_151627,OFFLINERATING,9.0,3,1.0,,,,,,,,,,,,,,,,,T1,cue1.png,Easy,84.0,1.3666078001260755,,,,,,,,,,,,,,,,,,,,,,33,20,Male,0.0,1.75,0.6,0.5,2.4444444444444446,3.0,2.7777777777777777,1.5555555555555556,2.0,2.4444444444444446,1.5,2.0,1.0,1.5,,,,,,,,,,,,,,,,,,,,,,,,,,,,,,,1.5456068407079608,,,4.123919848604118e-05,-1.0738643037715812,1.4699999999999998,0.2639874743832334,
3,240702_151635,OFFLINERATING,9.0,4,3.0,,,,,,,,,,,,,,,,,T1,cue2.png,Hard,35.0,1.0851157000288367,,,,,,,,,,,,,,,,,,,,,,33,20,Male,0.0,1.75,0.6,0.5,2.4444444444444446,3.0,2.7777777777777777,1.5555555555555556,2.0,2.4444444444444446,1.5,2.0,1.0,1.5,,,,,,,,,,,,,,,,,,,,,,,,,,,,,,,-0.9894470570222511,,,0.00026360158426441595,-0.2600067371225717,2.005,0.9781887325123358,
4,240702_152208,OFFLINERATING,9.0,5,1.0,,,,,,,,,,,,,,,,,T2,cue1.png,Easy,86.0,2.1528407000005245,,,,,,,,,,,,,,,,,,,,,,33,20,Male,0.0,1.75,0.6,0.5,2.4444444444444446,3.0,2.7777777777777777,1.5555555555555556,2.0,2.4444444444444446,1.5,2.0,1.0,1.5,,,,,,,,,,,,,,,,,,,,,,,,,,,,,,,1.6490784283704185,,,,,1.593,0.42818701597179365,
5,240702_152216,OFFLINERATING,9.0,6,3.0,,,,,,,,,,,,,,,,,T2,cue2.png,Hard,32.0,2.6529191001318395,,,,,,,,,,,,,,,,,,,,,,33,20,Male,0.0,1.75,0.6,0.5,2.4444444444444446,3.0,2.7777777777777777,1.5555555555555556,2.0,2.4444444444444446,1.5,2.0,1.0,1.5,,,,,,,,,,,,,,,,,,,,,,,,,,,,,,,-1.1446544385159376,,,,,0.020999999999999908,-1.6703632228673628,
6,240702_154744,OFFLINERATING,9.0,7,1.0,,,,,,,,,,,,,,,,,T3,cue1.png,Easy,53.0,1.2820270999800414,,,,,,,,,,,,,,,,,,,,,,33,20,Male,0.0,1.75,0.6,0.5,2.4444444444444446,3.0,2.7777777777777777,1.5555555555555556,2.0,2.4444444444444446,1.5,2.0,1.0,1.5,,,,,,,,,,,,,,,,,,,,,,,,,,,,,,,-0.058202768060132415,,,0.0006990813044054009,1.3338710408941528,,,
7,240702_154751,OFFLINERATING,9.0,8,3.0,,,,,,,,,,,,,,,,,T3,cue2.png,Hard,47.0,1.1851208000443876,,,,,,,,,,,,,,,,,,,,,,33,20,Male,0.0,1.75,0.6,0.5,2.4444444444444446,3.0,2.7777777777777777,1.5555555555555556,2.0,2.4444444444444446,1.5,2.0,1.0,1.5,,,,,,,,,,,,,,,,,,,,,,,,,,,,,,,-0.36861753104750533,-2.0383243620115087e-05,-0.6935542200709108,,,,,
0,240702_152236,LEARNINGCHECK,9.0,1,,,,,,,,,,,,1.0,1.0,1.0,,,A,,,,,,,,,,,,,,,cue1.png,Easy,Left,Left,Easy,0.0143730998970568,1.0,,,,,,33,20,Male,0.0,1.75,0.6,0.5,2.4444444444444446,3.0,2.7777777777777777,1.5555555555555556,2.0,2.4444444444444446,1.5,2.0,1.0,1.5,,,,,,,,,,,,,,,,,,,,,,,,,,,,,,,,,,,,,,
1,240702_154804,LEARNINGCHECK,9.0,1,,,,,,,,,,,,1.0,1.0,1.0,,,A,,,,,,,,,,,,,,,cue1.png,Easy,Middle,Middle,Mid,0.0129070000257343,1.0,,,,,,33,20,Male,0.0,1.75,0.6,0.5,2.4444444444444446,3.0,2.7777777777777777,1.5555555555555556,2.0,2.4444444444444446,1.5,2.0,1.0,1.5,,,,,,,,,,,,,,,,,,,,,,,,,,,,,,,,,,,,,,
2,240702_152241,LEARNINGCHECK,9.0,2,,,,,,,,,,,,2.0,2.0,2.0,,,A,,,,,,,,,,,,,,,cue2.png,Hard,Right,Right,Hard,0.0143995999824255,1.0,,,,,,33,20,Male,0.0,1.75,0.6,0.5,2.4444444444444446,3.0,2.7777777777777777,1.5555555555555556,2.0,2.4444444444444446,1.5,2.0,1.0,1.5,,,,,,,,,,,,,,,,,,,,,,,,,,,,,,,,,,,,,,
3,240702_154808,LEARNINGCHECK,9.0,2,,,,,,,,,,,,2.0,2.0,2.0,,,A,,,,,,,,,,,,,,,cue2.png,Hard,Middle,Middle,Mid,0.0160280000418424,1.0,,,,,,33,20,Male,0.0,1.75,0.6,0.5,2.4444444444444446,3.0,2.7777777777777777,1.5555555555555556,2.0,2.4444444444444446,1.5,2.0,1.0,1.5,,,,,,,,,,,,,,,,,,,,,,,,,,,,,,,,,,,,,,
0,240702_154822,DEMANDRATING,9.0,-1,,,,,,,,,,,,,,,,,,,,,,,,,,,,,,,,,,,,,,,1.0,MentalDemand,1.0,25.0,4.7697616999503225,33,20,Male,0.0,1.75,0.6,0.5,2.4444444444444446,3.0,2.7777777777777777,1.5555555555555556,2.0,2.4444444444444446,1.5,2.0,1.0,1.5,,,,,,,,,,,,,,,,,,,,,,,,,,,,,,,,,,,,,,-1.2209345466653314
1,240702_154828,DEMANDRATING,9.0,-1,,,,,,,,,,,,,,,,,,,,,,,,,,,,,,,,,,,,,,,2.0,Effort,1.0,57.0,4.213798499898985,33,20,Male,0.0,1.75,0.6,0.5,2.4444444444444446,3.0,2.7777777777777777,1.5555555555555556,2.0,2.4444444444444446,1.5,2.0,1.0,1.5,,,,,,,,,,,,,,,,,,,,,,,,,,,,,,,,,,,,,,0.09111451840786051
2,240702_154913,DEMANDRATING,9.0,-1,,,,,,,,,,,,,,,,,,,,,,,,,,,,,,,,,,,,,,,3.0,Frustration,1.0,11.0,44.21143490006216,33,20,Male,0.0,1.75,0.6,0.5,2.4444444444444446,3.0,2.7777777777777777,1.5555555555555556,2.0,2.4444444444444446,1.5,2.0,1.0,1.5,,,,,,,,,,,,,,,,,,,,,,,,,,,,,,,,,,,,,,-1.794956012634853
3,240702_154919,DEMANDRATING,9.0,-1,,,,,,,,,,,,,,,,,,,,,,,,,,,,,,,,,,,,,,,4.0,MentalDemand,2.0,47.0,3.9337209002114832,33,20,Male,0.0,1.75,0.6,0.5,2.4444444444444446,3.0,2.7777777777777777,1.5555555555555556,2.0,2.4444444444444446,1.5,2.0,1.0,1.5,,,,,,,,,,,,,,,,,,,,,,,,,,,,,,,,,,,,,,-0.31890081442751195
4,240702_154930,DEMANDRATING,9.0,-1,,,,,,,,,,,,,,,,,,,,,,,,,,,,,,,,,,,,,,,5.0,Effort,2.0,68.0,9.957863399991766,33,20,Male,0.0,1.75,0.6,0.5,2.4444444444444446,3.0,2.7777777777777777,1.5555555555555556,2.0,2.4444444444444446,1.5,2.0,1.0,1.5,,,,,,,,,,,,,,,,,,,,,,,,,,,,,,,,,,,,,,0.5421313845267702
5,240702_154937,DEMANDRATING,9.0,-1,,,,,,,,,,,,,,,,,,,,,,,,,,,,,,,,,,,,,,,6.0,Frustration,2.0,41.0,4.965632300125435,33,20,Male,0.0,1.75,0.6,0.5,2.4444444444444446,3.0,2.7777777777777777,1.5555555555555556,2.0,2.4444444444444446,1.5,2.0,1.0,1.5,,,,,,,,,,,,,,,,,,,,,,,,,,,,,,,,,,,,,,-0.5649100141287354
6,240702_154953,DEMANDRATING,9.0,-1,,,,,,,,,,,,,,,,,,,,,,,,,,,,,,,,,,,,,,,7.0,MentalDemand,3.0,83.0,14.94668829999864,33,20,Male,0.0,1.75,0.6,0.5,2.4444444444444446,3.0,2.7777777777777777,1.5555555555555556,2.0,2.4444444444444446,1.5,2.0,1.0,1.5,,,,,,,,,,,,,,,,,,,,,,,,,,,,,,,,,,,,,,1.157154383779829
7,240702_154958,DEMANDRATING,9.0,-1,,,,,,,,,,,,,,,,,,,,,,,,,,,,,,,,,,,,,,,8.0,Effort,3.0,81.0,3.242261900100857,33,20,Male,0.0,1.75,0.6,0.5,2.4444444444444446,3.0,2.7777777777777777,1.5555555555555556,2.0,2.4444444444444446,1.5,2.0,1.0,1.5,,,,,,,,,,,,,,,,,,,,,,,,,,,,,,,,,,,,,,1.0751513172127545
8,240702_155003,DEMANDRATING,9.0,-1,,,,,,,,,,,,,,,,,,,,,,,,,,,,,,,,,,,,,,,9.0,Frustration,3.0,80.0,3.4031216998118907,33,20,Male,0.0,1.75,0.6,0.5,2.4444444444444446,3.0,2.7777777777777777,1.5555555555555556,2.0,2.4444444444444446,1.5,2.0,1.0,1.5,,,,,,,,,,,,,,,,,,,,,,,,,,,,,,,,,,,,,,1.0341497839292173
