,END,Phase,Block,TrialN,NbackLevel,ISI,Letter_Resp,Letter_RT,Letter_Accuracy,Trial_A_measure,Trial_ACC,Trial_RT,TrialCountCali,CaliEnd_A_measure,ISI_calibrated,TrialIndex,TrialNumber_total,TrialNumber_valid,CueLearning,TrialDemandLearning,CueMapping,OfflineRatingTimePoint,CueFigure,TrialDemand,OfflineRating,OfflineRatingRT,PhaseType,CueLeft,CueDemandLeft,CueRight,CueDemandRight,Choice,ChoiceDemand,TaskDemand,ChoiceRT,CueCheck,CueDemandCheck,CorrectAnswer,Answer,AnswerDemand,AnswerRT,AnswerACC,DemandRatingQuesIndex,QuesTLX,DemandLevel,DemandRating,DemandRatingRT,PID,Age,Gender,BAI_bis,BAI_bas_d,BAI_bas_rr,BAI_bas_fs,NFC,BFI_ext,BFI_agr,BFI_con,BFI_neu,BFI_open,UPPS_lps,UPPS_lpm,UPPS_pu,UPPS_ss,Task_A_measure,Task_ACC,Task_RT,Task_RT_z,cue_i_on_zyg_values,cue_i_on_zyg_zvalues,cue_e_on_zyg_values,cue_e_on_zyg_zvalues,cue_i_on_cor_values,cue_i_on_cor_zvalues,cue_e_on_cor_values,cue_e_on_cor_zvalues,cue_i_on_scr_values,cue_i_on_scr_zvalues,cue_e_on_scr_values,cue_e_on_scr_zvalues,cue_e_true_zyg_values,cue_e_true_zyg_zvalues,cue_e_true_cor_values,cue_e_true_cor_zvalues,cue_e_true_scr_values,cue_e_true_scr_zvalues,cue_e_false_zyg_values,cue_e_false_zyg_zvalues,cue_e_false_cor_values,cue_e_false_cor_zvalues,cue_e_false_scr_values,cue_e_false_scr_zvalues,OfflineRating_z,cue_i_off_zyg_values,cue_i_off_zyg_zvalues,cue_i_off_cor_values,cue_i_off_cor_zvalues,cue_i_off_scr_values,cue_i_off_scr_zvalues,DemandRating_z
0,240704_143337,PRACTICE,0.0,1,1.0,2583.0,,,,,,,,,,25.0,1.0,1.0,cue1.png,Easy,A,,,,,,,,,,,,,,,,,,,,,,,,,,,35,31,Female,0.5714285714285714,1.5,0.8,1.0,3.2777777777777777,1.0,2.6666666666666665,3.3333333333333335,1.5,3.0,2.5,2.25,1.75,1.0,,,,,,,,,,,,,,,,,,,,,,,,,,,,,,,,,,,,
0,240704_143544,LEARNING,1.0,1,1.0,2583.0,,,,,,,,,,1.0,1.0,1.0,cue1.png,Easy,A,,,,,,,,,,,,,,,,,,,,,,,,,,,35,31,Female,0.5714285714285714,1.5,0.8,1.0,3.2777777777777777,1.0,2.6666666666666665,3.3333333333333335,1.5,3.0,2.5,2.25,1.75,1.0,1.0,1.0,0.4268713333488752,-0.8317942582775996,0.04006801083499239,1.360531341780524,0.07841656028693826,1.5146354606174302,,,,,,,6.027823284419458e+45,5.677610387791068,,,,,,,,,,,,,,,,,,,,
1,240704_143604,LEARNING,1.0,2,3.0,2583.0,,,,,,,,,,2.0,2.0,2.0,cue2.png,Hard,A,,,,,,,,,,,,,,,,,,,,,,,,,,,35,31,Female,0.5714285714285714,1.5,0.8,1.0,3.2777777777777777,1.0,2.6666666666666665,3.3333333333333335,1.5,3.0,2.5,2.25,1.75,1.0,1.0,1.0,0.8257035500137135,3.3281400623281283,0.010151024249373935,-0.5708057919225075,,,,,,,9.398977534038038e+44,-0.1888661621465372,7.875686399828689e+44,0.6057071969139249,,,,,,,,,,,,,,,,,,,,
2,240704_143622,LEARNING,1.0,3,1.0,2583.0,,,,,,,,,,3.0,3.0,3.0,cue1.png,Easy,A,,,,,,,,,,,,,,,,,,,,,,,,,,,35,31,Female,0.5714285714285714,1.5,0.8,1.0,3.2777777777777777,1.0,2.6666666666666665,3.3333333333333335,1.5,3.0,2.5,2.25,1.75,1.0,1.0,1.0,0.5396655667573214,0.3446819217209636,0.009214146660256595,-0.6312873672448799,0.05761918990206419,0.9215938816327371,,,,,-3.055376121389506e+45,-0.18943082214695545,-9.463021966803404e+44,-1.07246030175473,,,,,,,,,,,,,,,,,,,,
3,240704_143642,LEARNING,1.0,4,3.0,2583.0,,,,,,,,,,4.0,4.0,4.0,cue2.png,Hard,A,,,,,,,,,,,,,,,,,,,,,,,,,,,35,31,Female,0.5714285714285714,1.5,0.8,1.0,3.2777777777777777,1.0,2.6666666666666665,3.3333333333333335,1.5,3.0,2.5,2.25,1.75,1.0,1.0,1.0,0.8734757999967163,3.826418320636066,0.03719332653301991,1.1749516703726575,0.012999179034307515,-0.3507555168553548,,,,,,,-9.661550625878647e+44,-1.091675363002055,,,,,,,,,,,,,,,,,,,,
4,240704_143700,LEARNING,1.0,5,3.0,2583.0,,,,,,,,,,5.0,5.0,5.0,cue2.png,Hard,A,,,,,,,,,,,,,,,,,,,,,,,,,,,35,31,Female,0.5714285714285714,1.5,0.8,1.0,3.2777777777777777,1.0,2.6666666666666665,3.3333333333333335,1.5,3.0,2.5,2.25,1.75,1.0,1.0,1.0,0.5227585166382293,0.16833654360995554,0.021421393649933895,0.1567702582775316,0.024089346246773086,-0.03451696586680018,,,0.04505020997851055,3.1461070418987864,4.288349408062086e+49,5.87181048272689,,,,,,,,,,,,,,,,,,,,,,
5,240704_143717,LEARNING,1.0,6,1.0,2583.0,,,,,,,,,,6.0,6.0,6.0,cue1.png,Easy,A,,,,,,,,,,,,,,,,,,,,,,,,,,,35,31,Female,0.5714285714285714,1.5,0.8,1.0,3.2777777777777777,1.0,2.6666666666666665,3.3333333333333335,1.5,3.0,2.5,2.25,1.75,1.0,1.0,1.0,0.4913905499658237,-0.15884033848684265,,,,,0.01790944775846314,-0.6889951110340982,,,-4.5372698874259475e+44,-0.1890631259022507,-6.546094311608419e+43,-0.219917464098583,,,,,,,,,,,,,,,,,,,,
6,240704_143735,LEARNING,1.0,7,3.0,2583.0,,,,,,,,,,7.0,7.0,7.0,cue2.png,Hard,A,,,,,,,,,,,,,,,,,,,,,,,,,,,35,31,Female,0.5714285714285714,1.5,0.8,1.0,3.2777777777777777,1.0,2.6666666666666665,3.3333333333333335,1.5,3.0,2.5,2.25,1.75,1.0,1.0,1.0,0.4546763666439801,-0.541779792402358,,,0.008998435245912973,-0.46483760365168836,0.04913922519321177,1.2899540937851417,0.01964677381769065,-0.7069183100656746,,,9.49541319856206e+43,-0.06465597654150095,,,,,,,,,,,,,,,,,,,,
7,240704_143753,LEARNING,1.0,8,3.0,2583.0,,,,,,,,,,8.0,8.0,8.0,cue2.png,Hard,A,,,,,,,,,,,,,,,,,,,,,,,,,,,35,31,Female,0.5714285714285714,1.5,0.8,1.0,3.2777777777777777,1.0,2.6666666666666665,3.3333333333333335,1.5,3.0,2.5,2.25,1.75,1.0,1.0,1.0,0.6713361166184768,1.7180434920595666,,,,,0.01569987088982383,-0.8290102102872685,0.014635023392852047,-1.4670675010008962,,,3.453205279335536e+44,0.17766700366803406,,,,,,,,,,,,,,,,,,,,
8,240704_143811,LEARNING,1.0,9,1.0,2583.0,,,,,,,,,,9.0,9.0,9.0,cue1.png,Easy,A,,,,,,,,,,,,,,,,,,,,,,,,,,,35,31,Female,0.5714285714285714,1.5,0.8,1.0,3.2777777777777777,1.0,2.6666666666666665,3.3333333333333335,1.5,3.0,2.5,2.25,1.75,1.0,1.0,1.0,0.4759633666447674,-0.3197502817812913,0.08507608307269741,4.266096746247253,,,0.08884883187732653,3.806247869346153,0.037526581974092935,2.00497285610385,5.2594178291162676e+48,0.5543249791807208,,,,,,,,,,,,,,,,,,,,,,
9,240704_143829,LEARNING,1.0,10,1.0,2583.0,,,,,,,,,,10.0,10.0,10.0,cue1.png,Easy,A,,,,,,,,,,,,,,,,,,,,,,,,,,,35,31,Female,0.5714285714285714,1.5,0.8,1.0,3.2777777777777777,1.0,2.6666666666666665,3.3333333333333335,1.5,3.0,2.5,2.25,1.75,1.0,1.0,1.0,0.5311052166701605,0.2553950170125957,0.011908034314086737,-0.45737930183941033,,,0.024549123982431677,-0.26825621812544587,0.02063331590698252,-0.5572861242165743,,,4.686808319312255e+44,0.29706416314340844,,,,,,,,,,,,,,,,,,,,
10,240704_143847,LEARNING,1.0,11,3.0,2583.0,,,,,,,,,,11.0,11.0,11.0,cue2.png,Hard,A,,,,,,,,,,,,,,,,,,,,,,,,,,,35,31,Female,0.5714285714285714,1.5,0.8,1.0,3.2777777777777777,1.0,2.6666666666666665,3.3333333333333335,1.5,3.0,2.5,2.25,1.75,1.0,1.0,1.0,0.5067607832994933,0.0014756001179413766,0.03141649415092679,0.8020193610712277,,,0.07236443424434331,2.761674764210321,,,9.09861209455083e+44,-0.18887040727101434,,,,,,,,,,,,,,,,,,,,,,
11,240704_143905,LEARNING,1.0,12,1.0,2583.0,,,,,,,,,,12.0,12.0,12.0,cue1.png,Easy,A,,,,,,,,,,,,,,,,,,,,,,,,,,,35,31,Female,0.5714285714285714,1.5,0.8,1.0,3.2777777777777777,1.0,2.6666666666666665,3.3333333333333335,1.5,3.0,2.5,2.25,1.75,1.0,1.0,1.0,0.559543333404387,0.5520127245924116,0.01163468819581208,-0.4750255813892098,0.009505245408854668,-0.4503858006730277,,,0.019001028365746075,-0.8048607136644284,3.290492844817079e+43,-0.18899434924583722,,,,,,,,,,,,,,,,,,,,,,
12,240704_143922,LEARNING,1.0,13,1.0,2583.0,,,,,,,,,,13.0,13.0,13.0,cue1.png,Easy,A,,,,,,,,,,,,,,,,,,,,,,,,,,,35,31,Female,0.5714285714285714,1.5,0.8,1.0,3.2777777777777777,1.0,2.6666666666666665,3.3333333333333335,1.5,3.0,2.5,2.25,1.75,1.0,1.0,1.0,0.5388967166654766,0.336662594919303,,,0.011390712713853937,-0.39662128684323994,0.01416056950506836,-0.9265517075875201,0.01920607837405002,-0.7737600832058547,,,2.6517753813359115e+44,0.10009873394198023,,,,,,,,,,,,,,,,,,,,
13,240704_143940,LEARNING,1.0,14,1.0,2583.0,,,,,,,,,,14.0,14.0,14.0,cue1.png,Easy,A,,,,,,,,,,,,,,,,,,,,,,,,,,,35,31,Female,0.5714285714285714,1.5,0.8,1.0,3.2777777777777777,1.0,2.6666666666666665,3.3333333333333335,1.5,3.0,2.5,2.25,1.75,1.0,1.0,1.0,0.4098496999746809,-1.0093347725775856,0.03882768031734967,1.2804598954156674,0.01573299765921262,-0.27280007902987685,,,0.023322878892182725,-0.14935098103052974,,,5.717449001411263e+43,-0.10122188786966867,,,,,,,,,,,,,,,,,,,,
14,240704_143958,LEARNING,1.0,15,3.0,2583.0,,,,,,,,,,15.0,15.0,15.0,cue2.png,Hard,A,,,,,,,,,,,,,,,,,,,,,,,,,,,35,31,Female,0.5714285714285714,1.5,0.8,1.0,3.2777777777777777,1.0,2.6666666666666665,3.3333333333333335,1.5,3.0,2.5,2.25,1.75,1.0,1.0,1.0,0.5450572666789716,0.40091889710384365,0.012480583988622328,-0.4204174760166271,0.012320676723198278,-0.3701031591042824,0.016272600538969565,-0.7927178324078078,0.01676596521556873,-1.143860324833444,,,,,,,,,,,,,,,,,,,,,,,,
15,240704_144015,LEARNING,1.0,16,1.0,2583.0,,,,,,,,,,16.0,16.0,16.0,cue1.png,Easy,A,,,,,,,,,,,,,,,,,,,,,,,,,,,35,31,Female,0.5714285714285714,1.5,0.8,1.0,3.2777777777777777,1.0,2.6666666666666665,3.3333333333333335,1.5,3.0,2.5,2.25,1.75,1.0,1.0,1.0,0.4395442999278505,-0.699611584930348,0.01716070660997851,-0.11828495397799706,0.00910704165779185,-0.4617406679912379,0.01959897866651502,-0.5819339622957608,0.021681486994578687,-0.39830645909815887,,,,,,,,,,,,,,,,,,,,,,,,
16,240704_144032,LEARNING,1.0,17,1.0,2583.0,,,,,,,,,,17.0,17.0,17.0,cue1.png,Easy,A,,,,,,,,,,,,,,,,,,,,,,,,,,,35,31,Female,0.5714285714285714,1.5,0.8,1.0,3.2777777777777777,1.0,2.6666666666666665,3.3333333333333335,1.5,3.0,2.5,2.25,1.75,1.0,1.0,1.0,0.4065678333475565,-1.04356558204426,0.010161683014691766,-0.5701176989155851,0.023771622123489926,-0.04357693894351246,0.041021446310229456,0.7755517065461764,0.01999584383801959,-0.6539736757483482,,,,,,,,,,,,,,,,,,,,,,,,
17,240704_144050,LEARNING,1.0,18,3.0,2583.0,,,,,,,,,,18.0,18.0,18.0,cue2.png,Hard,A,,,,,,,,,,,,,,,,,,,,,,,,,,,35,31,Female,0.5714285714285714,1.5,0.8,1.0,3.2777777777777777,1.0,2.6666666666666665,3.3333333333333335,1.5,3.0,2.5,2.25,1.75,1.0,1.0,1.0,0.6129367666241402,1.1089215350270407,0.010103517248977649,-0.5738726794819751,0.01270869254321621,-0.35903880287481243,0.017463991398130443,-0.7172225139319875,0.022468465836468228,-0.2789427080660557,,,,,,,,,,,,,,,,,,,,,,,,
18,240704_144108,LEARNING,1.0,19,3.0,2583.0,,,,,,,,,,19.0,19.0,19.0,cue2.png,Hard,A,,,,,,,,,,,,,,,,,,,,,,,,,,,35,31,Female,0.5714285714285714,1.5,0.8,1.0,3.2777777777777777,1.0,2.6666666666666665,3.3333333333333335,1.5,3.0,2.5,2.25,1.75,1.0,1.0,1.0,0.566736966643172,0.6270443808866659,0.013791508740686005,-0.33578871015128053,0.014989118203135907,-0.29401196490977916,0.018490923334528318,-0.6521485266714564,0.017329088487438152,-1.058449507609416,4.983959253505038e+44,-0.188928560477722,,,,,,,,,,,,,,,,,,,,,,
19,240704_144127,LEARNING,1.0,20,3.0,2583.0,,,,,,,,,,20.0,20.0,20.0,cue2.png,Hard,A,,,,,,,,,,,,,,,,,,,,,,,,,,,35,31,Female,0.5714285714285714,1.5,0.8,1.0,3.2777777777777777,1.0,2.6666666666666665,3.3333333333333335,1.5,3.0,2.5,2.25,1.75,1.0,1.0,1.0,0.6313085500150919,1.3005445009394931,0.01053049974703998,-0.5463081668734263,0.009150760502164014,-0.46049401555306674,0.02024595828326289,-0.5409365584310489,0.017192561649686463,-1.0791569963030958,3.595530048090624e+44,-0.1889481834237397,,,,,,,,,,,,,,,,,,,,,,
20,240704_144144,LEARNING,1.0,21,1.0,2583.0,,,,,,,,,,21.0,21.0,21.0,cue1.png,Easy,A,,,,,,,,,,,,,,,,,,,,,,,,,,,35,31,Female,0.5714285714285714,1.5,0.8,1.0,3.2777777777777777,1.0,2.6666666666666665,3.3333333333333335,1.5,3.0,2.5,2.25,1.75,1.0,1.0,1.0,0.4830410999323551,-0.24592749519363633,0.009358132271427098,-0.6219921544139795,0.008252565475327229,-0.48610624378644446,0.017131916609253957,-0.738265223594607,0.01830311663432755,-0.9107153538621345,1.399167313218402e+44,-0.18897922505496845,1.6101702926195714e+44,-0.0007154541376579088,,,,,,,,,,,,,,,,,,,,
21,240704_144202,LEARNING,1.0,22,3.0,2583.0,,,,,,,,,,22.0,22.0,22.0,cue2.png,Hard,A,,,,,,,,,,,,,,,,,,,,,,,,,,,35,31,Female,0.5714285714285714,1.5,0.8,1.0,3.2777777777777777,1.0,2.6666666666666665,3.3333333333333335,1.5,3.0,2.5,2.25,1.75,1.0,1.0,1.0,0.504035516603229,-0.026949712554631935,0.03582031093738634,1.0863145344963043,0.012630385834684841,-0.36127173584725747,0.0643001665352373,2.2506632399133895,,,-8.521826224361399e+43,-0.1890110438312388,1.0447345369161456e+44,-0.055442478074040916,,,,,,,,,,,,,,,,,,,,
22,240704_144220,LEARNING,1.0,23,3.0,2583.0,,,,,,,,,,23.0,23.0,23.0,cue2.png,Hard,A,,,,,,,,,,,,,,,,,,,,,,,,,,,35,31,Female,0.5714285714285714,1.5,0.8,1.0,3.2777777777777777,1.0,2.6666666666666665,3.3333333333333335,1.5,3.0,2.5,2.25,1.75,1.0,1.0,1.0,0.5851618166392049,0.8192208466984028,0.008486032487928966,-0.6782918987530031,0.009335454295739008,-0.4552274315117472,0.018843463095871454,-0.6298090053016724,0.024938269443947995,0.09566078469567663,-2.6597512447216092e+44,-0.18903659055797148,,,,,,,,,,,,,,,,,,,,,,
23,240704_144238,LEARNING,1.0,24,3.0,2583.0,,,,,,,,,,24.0,24.0,24.0,cue2.png,Hard,A,,,,,,,,,,,,,,,,,,,,,,,,,,,35,31,Female,0.5714285714285714,1.5,0.8,1.0,3.2777777777777777,1.0,2.6666666666666665,3.3333333333333335,1.5,3.0,2.5,2.25,1.75,1.0,1.0,1.0,0.5581762000607947,0.5377531320138279,0.008071568930301589,-0.7050482318857396,0.009492083294147748,-0.4507611212613578,0.01964275429336513,-0.579160015471244,0.020466477364614905,-0.5825910919917082,-3.8453457628848936e+44,-0.18905334680102517,-5.451927208771492e+43,-0.20932731152627787,,,,,,,,,,,,,,,,,,,,
24,240704_144256,LEARNING,1.0,25,1.0,2583.0,,,,,,,,,,25.0,25.0,25.0,cue1.png,Easy,A,,,,,,,,,,,,,,,,,,,,,,,,,,,35,31,Female,0.5714285714285714,1.5,0.8,1.0,3.2777777777777777,1.0,2.6666666666666665,3.3333333333333335,1.5,3.0,2.5,2.25,1.75,1.0,0.6875,0.75,0.4427619499231999,-0.6660505733368458,0.009740300736609366,-0.5973206807003929,0.01296112697417669,-0.35184057969772337,0.020537889911198974,-0.5224376157417269,0.021114691591363224,-0.4842742409423459,-3.591253536036211e+44,-0.18904975566506266,-1.1113843481282808e+44,-0.2641274942607505,,,,,,,,,,,,,,,,,,,,
25,240704_144313,LEARNING,1.0,26,1.0,2583.0,,,,,,,,,,26.0,26.0,26.0,cue1.png,Easy,A,,,,,,,,,,,,,,,,,,,,,,,,,,,35,31,Female,0.5714285714285714,1.5,0.8,1.0,3.2777777777777777,1.0,2.6666666666666665,3.3333333333333335,1.5,3.0,2.5,2.25,1.75,1.0,1.0,1.0,0.4386881999671459,-0.7085409528690393,,,0.01155535029425479,-0.39192661012044844,0.03626624623430616,0.4742271316699501,0.029556605341316725,0.7961394594622846,-2.5951475955921004e+44,-0.18903567750175337,-1.2629242809465077e+44,-0.2787946415838689,,,,,,,,,,,,,,,,,,,,
26,240704_144331,LEARNING,1.0,27,3.0,2583.0,,,,,,,,,,27.0,27.0,27.0,cue2.png,Hard,A,,,,,,,,,,,,,,,,,,,,,,,,,,,35,31,Female,0.5714285714285714,1.5,0.8,1.0,3.2777777777777777,1.0,2.6666666666666665,3.3333333333333335,1.5,3.0,2.5,2.25,1.75,1.0,1.0,1.0,0.5702259000002717,0.6634349556899602,,,0.022522077392684973,-0.07920798106350688,0.0423610879868437,0.860441291053067,0.023056292966247876,-0.18978497289687823,6.352993364476944e+44,-0.18890921164643032,-9.228766091583498e+43,-0.24588233123605502,,,,,,,,,,,,,,,,,,,,
27,240704_144350,LEARNING,1.0,28,1.0,2583.0,,,,,,,,,,28.0,28.0,28.0,cue1.png,Easy,A,,,,,,,,,,,,,,,,,,,,,,,,,,,35,31,Female,0.5714285714285714,1.5,0.8,1.0,3.2777777777777777,1.0,2.6666666666666665,3.3333333333333335,1.5,3.0,2.5,2.25,1.75,1.0,1.0,1.0,0.661679433270668,1.617321517245958,0.016050065367581284,-0.18998410949037,0.08221788330983673,1.6230310205373593,0.03066020212430081,0.11898679872628475,0.02587450595066864,0.23766295215808267,9.308434006702259e+43,-0.18898584396994003,-3.639074507319743e+43,-0.19178119206270375,,,,,,,,,,,,,,,,,,,,
28,240704_144407,LEARNING,1.0,29,1.0,2583.0,,,,,,,,,,29.0,29.0,29.0,cue1.png,Easy,A,,,,,,,,,,,,,,,,,,,,,,,,,,,35,31,Female,0.5714285714285714,1.5,0.8,1.0,3.2777777777777777,1.0,2.6666666666666665,3.3333333333333335,1.5,3.0,2.5,2.25,1.75,1.0,0.6875,0.75,0.4396558666679387,-0.6984479118574651,0.021676439533206672,0.17323513797900505,0.017162924250248963,-0.2320254085937939,0.03600587184768311,0.45772788871378195,0.02398204717088287,-0.04937269175643574,2.5101597076308375e+44,-0.18896352317856263,1.0961075906092468e+43,-0.14595062308955697,,,,,,,,,,,,,,,,,,,,
29,240704_144425,LEARNING,1.0,30,3.0,2583.0,,,,,,,,,,30.0,30.0,30.0,cue2.png,Hard,A,,,,,,,,,,,,,,,,,,,,,,,,,,,35,31,Female,0.5714285714285714,1.5,0.8,1.0,3.2777777777777777,1.0,2.6666666666666665,3.3333333333333335,1.5,3.0,2.5,2.25,1.75,1.0,1.0,1.0,0.4834456167106206,-0.24170826926640507,0.007550700725020215,-0.7386736808842947,0.010814388945165478,-0.4130552855394401,,,0.027146819127958337,0.43063900849555087,3.234901056689368e+44,-0.18895328026497804,7.128047941913131e+43,-0.08756907564426475,,,,,,,,,,,,,,,,,,,,
30,240704_144442,LEARNING,1.0,31,3.0,2583.0,,,,,,,,,,31.0,31.0,31.0,cue2.png,Hard,A,,,,,,,,,,,,,,,,,,,,,,,,,,,35,31,Female,0.5714285714285714,1.5,0.8,1.0,3.2777777777777777,1.0,2.6666666666666665,3.3333333333333335,1.5,3.0,2.5,2.25,1.75,1.0,1.0,1.0,0.4924660999871169,-0.14762204352431302,0.009605803517885722,-0.6060033557471378,0.010630187057417457,-0.4183078427781907,0.02159828980107266,-0.45524285192246844,0.028446449522729622,0.6277583598910325,,,1.0289182494444197e+44,-0.05697329450069763,,,,,,,,,,,,,,,,,,,,
31,240704_144500,LEARNING,1.0,32,1.0,2583.0,,,,,,,,,,32.0,32.0,32.0,cue1.png,Easy,A,,,,,,,,,,,,,,,,,,,,,,,,,,,35,31,Female,0.5714285714285714,1.5,0.8,1.0,3.2777777777777777,1.0,2.6666666666666665,3.3333333333333335,1.5,3.0,2.5,2.25,1.75,1.0,1.0,1.0,0.4807696667655061,-0.2696191940908645,0.01333318195654888,-0.3653767014097398,0.07400913633598863,1.3889567997696564,0.02640671086376592,-0.1505458025011329,0.022158173411348632,-0.32600581295232595,2.4459719512918917e+44,-0.18896443035688523,,,,,,,,,,,,,,,,,,,,,,
32,240704_144517,LEARNING,1.0,33,1.0,2583.0,,,,,,,,,,33.0,33.0,33.0,cue1.png,Easy,A,,,,,,,,,,,,,,,,,,,,,,,,,,,35,31,Female,0.5714285714285714,1.5,0.8,1.0,3.2777777777777777,1.0,2.6666666666666665,3.3333333333333335,1.5,3.0,2.5,2.25,1.75,1.0,1.0,1.0,0.489283166709356,-0.18082094980394922,0.03390065513528519,0.9623881984023914,0.027011056565047063,0.04879624481416454,0.02530206551678945,-0.22054428505752816,0.020401911343247304,-0.5923840395138443,1.0796190644510042e+44,-0.1889837412939032,7.789441556258519e+43,-0.0811676226412403,,,,,,,,,,,,,,,,,,,,
33,240704_144534,LEARNING,1.0,34,1.0,2583.0,,,,,,,,,,34.0,34.0,34.0,cue1.png,Easy,A,,,,,,,,,,,,,,,,,,,,,,,,,,,35,31,Female,0.5714285714285714,1.5,0.8,1.0,3.2777777777777777,1.0,2.6666666666666665,3.3333333333333335,1.5,3.0,2.5,2.25,1.75,1.0,1.0,1.0,0.4162101833305011,-0.9429931083339644,0.010143583695245357,-0.5712861283508681,0.007282012704169472,-0.5137817689727432,0.024202949035728578,-0.2901924178610286,0.02164826360045276,-0.40334556400645194,-8.040833492506133e+43,-0.1890103640346474,2.8706196680510823e+43,-0.12877559233531213,,,,,,,,,,,,,,,,,,,,
34,240704_144552,LEARNING,1.0,35,3.0,2583.0,,,,,,,,,,35.0,35.0,35.0,cue2.png,Hard,A,,,,,,,,,,,,,,,,,,,,,,,,,,,35,31,Female,0.5714285714285714,1.5,0.8,1.0,3.2777777777777777,1.0,2.6666666666666665,3.3333333333333335,1.5,3.0,2.5,2.25,1.75,1.0,1.0,1.0,0.5147646833599234,0.0849585715752397,0.00816743820012678,-0.6988592435575035,,,0.024863174912364082,-0.248355633199376,0.021879721488144994,-0.3682395608837022,-2.0732678027001575e+44,-0.18902830167087648,-2.33234593617838e+43,-0.17913371353488347,,,,,,,,,,,,,,,,,,,,
35,240704_144609,LEARNING,1.0,36,3.0,2583.0,,,,,,,,,,36.0,36.0,36.0,cue2.png,Hard,A,,,,,,,,,,,,,,,,,,,,,,,,,,,35,31,Female,0.5714285714285714,1.5,0.8,1.0,3.2777777777777777,1.0,2.6666666666666665,3.3333333333333335,1.5,3.0,2.5,2.25,1.75,1.0,1.0,1.0,0.4111326666704069,-0.9959530622574545,0.00989895294572488,-0.5870786430562638,0.010112938147978746,-0.4330573089032323,0.02405885169854094,-0.29932348872568215,0.02569232312589413,0.2100306650098064,-2.843198126737649e+44,-0.18903918324922925,-7.307091082151372e+43,-0.2272829495771594,,,,,,,,,,,,,,,,,,,,
36,240704_144627,LEARNING,1.0,37,1.0,2583.0,,,,,,,,,,37.0,37.0,37.0,cue1.png,Easy,A,,,,,,,,,,,,,,,,,,,,,,,,,,,35,31,Female,0.5714285714285714,1.5,0.8,1.0,3.2777777777777777,1.0,2.6666666666666665,3.3333333333333335,1.5,3.0,2.5,2.25,1.75,1.0,1.0,1.0,0.4807750666514039,-0.2695628717334042,,,0.010117525343907488,-0.432926504005,0.024022691993332828,-0.3016148345419501,0.026429071187227933,0.3217757431306942,-2.9002714339273306e+44,-0.18903998987762746,-9.603647531886958e+43,-0.24951070905791212,,,,,,,,,,,,,,,,,,,,
37,240704_144644,LEARNING,1.0,38,3.0,2583.0,,,,,,,,,,38.0,38.0,38.0,cue2.png,Hard,A,,,,,,,,,,,,,,,,,,,,,,,,,,,35,31,Female,0.5714285714285714,1.5,0.8,1.0,3.2777777777777777,1.0,2.6666666666666665,3.3333333333333335,1.5,3.0,2.5,2.25,1.75,1.0,1.0,1.0,0.488850549988759,-0.18533326618282342,0.046434027710313304,1.7714993632388678,0.009215988536671337,-0.45863402383957463,0.026767582261942938,-0.12767832712585842,0.0222958320038542,-0.3051266671752777,-1.9258136251620358e+44,-0.18902621767166744,-8.656517196102318e+43,-0.24034368627335598,,,,,,,,,,,,,,,,,,,,
38,240704_144702,LEARNING,1.0,39,3.0,2583.0,,,,,,,,,,39.0,39.0,39.0,cue2.png,Hard,A,,,,,,,,,,,,,,,,,,,,,,,,,,,35,31,Female,0.5714285714285714,1.5,0.8,1.0,3.2777777777777777,1.0,2.6666666666666665,3.3333333333333335,1.5,3.0,2.5,2.25,1.75,1.0,1.0,1.0,0.4041870666745429,-1.0683976607445276,,,,,,,0.03597319774097443,1.7693657991034837,,,-4.1961125056364126e+43,-0.19717261479461543,,,,,,,,,,,,,,,,,,,,
39,240704_144719,LEARNING,1.0,40,3.0,2583.0,,,,,,,,,,40.0,40.0,40.0,cue2.png,Hard,A,,,,,,,,,,,,,,,,,,,,,,,,,,,35,31,Female,0.5714285714285714,1.5,0.8,1.0,3.2777777777777777,1.0,2.6666666666666665,3.3333333333333335,1.5,3.0,2.5,2.25,1.75,1.0,1.0,1.0,0.4284077500148366,-0.8157689921320253,0.013114413710642842,-0.3794996223725255,0.015314378548178723,-0.28473709481631826,0.023369827227613514,-0.34298516488369546,0.024804697441808195,0.0754014659444966,1.3358543342443856e+44,-0.18898011986988864,1.7766155805184496e+43,-0.13936416712581445,,,,,,,,,,,,,,,,,,,,
40,240704_144736,LEARNING,1.0,41,1.0,2583.0,,,,,,,,,,41.0,41.0,41.0,cue1.png,Easy,A,,,,,,,,,,,,,,,,,,,,,,,,,,,35,31,Female,0.5714285714285714,1.5,0.8,1.0,3.2777777777777777,1.0,2.6666666666666665,3.3333333333333335,1.5,3.0,2.5,2.25,1.75,1.0,1.0,1.0,0.497350350022316,-0.09667791588650239,0.008413363227683183,-0.6829831747406346,0.011210092347310623,-0.40177171621913577,,,,,2.6778116103815097e+44,-0.1889611537208873,6.839312965304759e+43,-0.09036366474067935,,,,,,,,,,,,,,,,,,,,
41,240704_144754,LEARNING,1.0,42,3.0,2583.0,,,,,,,,,,42.0,42.0,42.0,cue2.png,Hard,A,,,,,,,,,,,,,,,,,,,,,,,,,,,35,31,Female,0.5714285714285714,1.5,0.8,1.0,3.2777777777777777,1.0,2.6666666666666665,3.3333333333333335,1.5,3.0,2.5,2.25,1.75,1.0,1.0,1.0,0.467881283412377,-0.4040487261285455,0.016576041780459783,-0.1560288922850218,0.008651071945250806,-0.47474274437351016,0.03983175291703241,0.7001639520427976,0.022524653403359823,-0.27042054916093816,3.0009384167210065e+44,-0.18895658690548686,,,,,,,,,,,,,,,,,,,,,,
42,240704_144811,LEARNING,1.0,43,3.0,2583.0,,,,,,,,,,43.0,43.0,43.0,cue2.png,Hard,A,,,,,,,,,,,,,,,,,,,,,,,,,,,35,31,Female,0.5714285714285714,1.5,0.8,1.0,3.2777777777777777,1.0,2.6666666666666665,3.3333333333333335,1.5,3.0,2.5,2.25,1.75,1.0,0.6875,0.75,0.477971133387958,-0.29880869924662823,,,0.04919225908371433,0.6812981006745988,0.023145992886060056,-0.35716896088268923,0.045015715465091255,3.1408751420145804,2.24064444123673e+44,-0.18896733229140955,8.874501468314331e+43,-0.07066561614792716,,,,,,,,,,,,,,,,,,,,
43,240704_144829,LEARNING,1.0,44,1.0,2583.0,,,,,,,,,,44.0,44.0,44.0,cue1.png,Easy,A,,,,,,,,,,,,,,,,,,,,,,,,,,,35,31,Female,0.5714285714285714,1.5,0.8,1.0,3.2777777777777777,1.0,2.6666666666666665,3.3333333333333335,1.5,3.0,2.5,2.25,1.75,1.0,1.0,1.0,0.4375012999710937,-0.7209206599799459,0.008999950073146436,-0.6451151577348877,0.20164226432044768,5.0284434439902945,0.026819020352810686,-0.1244188300246435,0.024156489431066512,-0.02291444230204927,3.4034762117425616e+43,-0.1889941895641983,3.6916788449366804e+43,-0.12082877878958843,,,,,,,,,,,,,,,,,,,,
44,240704_144846,LEARNING,1.0,45,1.0,2583.0,,,,,,,,,,45.0,45.0,45.0,cue1.png,Easy,A,,,,,,,,,,,,,,,,,,,,,,,,,,,35,31,Female,0.5714285714285714,1.5,0.8,1.0,3.2777777777777777,1.0,2.6666666666666665,3.3333333333333335,1.5,3.0,2.5,2.25,1.75,1.0,1.0,1.0,0.4645052500224362,-0.43926172191852125,0.007565769509461997,-0.7377008923025006,,,0.0247752895952087,-0.2539246955746464,0.02316376602260599,-0.1734841698016032,-1.877577195052666e+44,-0.18902553593660998,-3.749022552206517e+43,-0.19284534996633532,,,,,,,,,,,,,,,,,,,,
45,240704_144903,LEARNING,1.0,46,1.0,2583.0,,,,,,,,,,46.0,46.0,46.0,cue1.png,Easy,A,,,,,,,,,,,,,,,,,,,,,,,,,,,35,31,Female,0.5714285714285714,1.5,0.8,1.0,3.2777777777777777,1.0,2.6666666666666665,3.3333333333333335,1.5,3.0,2.5,2.25,1.75,1.0,1.0,1.0,0.430205100060751,-0.7970221160529926,0.03829024898062858,1.245765187963946,0.018498886503260883,-0.19393015187007062,0.01613873069788012,-0.8012008136306732,0.029356834683047152,0.7658395659353434,-3.2204920028410567e+44,-0.18904451561859653,-9.76106269818992e+43,-0.2510342886135585,,,,,,,,,,,,,,,,,,,,
46,240704_144920,LEARNING,1.0,47,3.0,2583.0,,,,,,,,,,47.0,47.0,47.0,cue2.png,Hard,A,,,,,,,,,,,,,,,,,,,,,,,,,,,35,31,Female,0.5714285714285714,1.5,0.8,1.0,3.2777777777777777,1.0,2.6666666666666665,3.3333333333333335,1.5,3.0,2.5,2.25,1.75,1.0,1.0,1.0,0.4057837999813879,-1.0517432747484716,,,0.010761599205737691,-0.41456059654006616,,,,,-2.3818062401409887e+44,-0.1890326623059587,-8.918062290045148e+43,-0.24287511172218457,,,,,,,,,,,,,,,,,,,,
47,240704_144938,LEARNING,1.0,48,3.0,2583.0,,,,,,,,,,48.0,48.0,48.0,cue2.png,Hard,A,,,,,,,,,,,,,,,,,,,,,,,,,,,35,31,Female,0.5714285714285714,1.5,0.8,1.0,3.2777777777777777,1.0,2.6666666666666665,3.3333333333333335,1.5,3.0,2.5,2.25,1.75,1.0,0.6875,0.75,0.4165548166492954,-0.939398484050938,0.02009038148573739,0.0708447185923652,,,0.022085985843236382,-0.42433883101326025,,,8.308525167146369e+43,-0.1889872571609839,1.1257633443717303e+43,-0.14566359293102166,,,,,,,,,,,,,,,,,,,,
48,240704_144955,LEARNING,1.0,49,1.0,2583.0,,,,,,,,,,49.0,49.0,49.0,cue1.png,Easy,A,,,,,,,,,,,,,,,,,,,,,,,,,,,35,31,Female,0.5714285714285714,1.5,0.8,1.0,3.2777777777777777,1.0,2.6666666666666665,3.3333333333333335,1.5,3.0,2.5,2.25,1.75,1.0,1.0,1.0,0.4520546500183021,-0.5691250481624404,,,,,0.02093210241362248,-0.4974574019111674,0.026688070618515417,0.36105906561421625,,,,,,,,,,,,,,,,,,,,,,,,
49,240704_145013,LEARNING,1.0,50,1.0,2583.0,,,,,,,,,,50.0,50.0,50.0,cue1.png,Easy,A,,,,,,,,,,,,,,,,,,,,,,,,,,,35,31,Female,0.5714285714285714,1.5,0.8,1.0,3.2777777777777777,1.0,2.6666666666666665,3.3333333333333335,1.5,3.0,2.5,2.25,1.75,1.0,1.0,1.0,0.4772907499379168,-0.30590529362074054,0.008299309041571154,-0.6903461183399853,,,0.02668041487301518,-0.13320189626960832,0.02277337983512339,-0.23269536736971422,-1.1159206180556723e+44,-0.18901477129276917,-5.999294889490691e+43,-0.21462513782441425,,,,,,,,,,,,,,,,,,,,
0,240704_145144,TrueCHOICE,9.0,1,1.0,2583.0,,,,,,,,,,,1.0,1.0,,,A,,,,,,True,cue1.png,Easy,cue2.png,Hard,Left,Easy,Easy,0.0161284999921917,,,,,,,,,,,,,35,31,Female,0.5714285714285714,1.5,0.8,1.0,3.2777777777777777,1.0,2.6666666666666665,3.3333333333333335,1.5,3.0,2.5,2.25,1.75,1.0,1.0,1.0,0.4706807334441691,1.4671200342469317,,,,,,,,,,,,,0.009147003209120059,-1.8127241101388176,,,,,,,,,,,,,,,,,,
1,240704_145159,TrueCHOICE,9.0,2,1.0,2583.0,,,,,,,,,,,2.0,2.0,,,A,,,,,,True,cue1.png,Easy,cue2.png,Hard,Left,Easy,Easy,0.0174220998305827,,,,,,,,,,,,,35,31,Female,0.5714285714285714,1.5,0.8,1.0,3.2777777777777777,1.0,2.6666666666666665,3.3333333333333335,1.5,3.0,2.5,2.25,1.75,1.0,1.0,1.0,0.4299621000730743,0.3554504458166631,,,,,,,,,,,,,0.0233305771192061,0.8819174067942075,,,25076889.299672168,-0.4473718085837587,,,,,,,,,,,,,,
2,240704_145214,TrueCHOICE,9.0,3,1.0,2583.0,,,,,,,,,,,3.0,3.0,,,A,,,,,,True,cue2.png,Hard,cue1.png,Easy,Right,Easy,Easy,0.0181052000261843,,,,,,,,,,,,,35,31,Female,0.5714285714285714,1.5,0.8,1.0,3.2777777777777777,1.0,2.6666666666666665,3.3333333333333335,1.5,3.0,2.5,2.25,1.75,1.0,1.0,1.0,0.4043195999693125,-0.34462185957921754,,,,,,,,,,,,,,,0.02623309566824024,-0.4640426676889661,12409632.654369932,-0.44748145167708075,,,,,,,,,,,,,,
3,240704_145229,TrueCHOICE,9.0,4,1.0,2583.0,,,,,,,,,,,4.0,4.0,,,A,,,,,,True,cue1.png,Easy,cue2.png,Hard,Left,Easy,Easy,0.0151239000260829,,,,,,,,,,,,,35,31,Female,0.5714285714285714,1.5,0.8,1.0,3.2777777777777777,1.0,2.6666666666666665,3.3333333333333335,1.5,3.0,2.5,2.25,1.75,1.0,1.0,1.0,0.415484166626508,-0.03981523437412607,,,,,,,,,,,,,0.014272550570283937,-0.8389559467722328,0.03317828106852623,0.17700418514828192,,,,,,,,,,,,,,,,
4,240704_145243,TrueCHOICE,9.0,5,1.0,2583.0,,,,,,,,,,,5.0,5.0,,,A,,,,,,True,cue2.png,Hard,cue1.png,Easy,Right,Easy,Easy,0.0156000000424683,,,,,,,,,,,,,35,31,Female,0.5714285714285714,1.5,0.8,1.0,3.2777777777777777,1.0,2.6666666666666665,3.3333333333333335,1.5,3.0,2.5,2.25,1.75,1.0,1.0,1.0,0.3661350833329682,-1.3871068935604132,,,,,,,,,,,,,0.015571066816355433,-0.5922596056908018,0.021354801247070516,-0.9143136260100473,310047491497.8791,2.2360676675922226,,,,,,,,,,,,,,
5,240704_145258,TrueCHOICE,9.0,6,1.0,2583.0,,,,,,,,,,,6.0,6.0,,,A,,,,,,True,cue2.png,Hard,cue1.png,Easy,Right,Easy,Easy,0.0165812000632286,,,,,,,,,,,,,35,31,Female,0.5714285714285714,1.5,0.8,1.0,3.2777777777777777,1.0,2.6666666666666665,3.3333333333333335,1.5,3.0,2.5,2.25,1.75,1.0,1.0,1.0,0.3843091666931286,-0.890931700622112,,,,,,,,,,,,,,,0.055910237452567305,2.275184184522101,124702.79411720026,-0.4475877854910105,,,,,,,,,,,,,,
6,240704_145313,TrueCHOICE,9.0,7,1.0,2583.0,,,,,,,,,,,7.0,7.0,,,A,,,,,,True,cue1.png,Easy,cue2.png,Hard,Left,Easy,Easy,0.0161780000198632,,,,,,,,,,,,,35,31,Female,0.5714285714285714,1.5,0.8,1.0,3.2777777777777777,1.0,2.6666666666666665,3.3333333333333335,1.5,3.0,2.5,2.25,1.75,1.0,1.0,1.0,0.3616732833130906,-1.5089196112553165,,,,,,,,,,,,,0.02266152444080226,0.7548086022241406,0.02688400339121659,-0.4039633000043731,3691518.332306698,-0.44755691245355134,,,,,,,,,,,,,,
7,240704_145328,TrueCHOICE,9.0,8,1.0,2583.0,,,,,,,,,,,8.0,8.0,,,A,,,,,,True,cue2.png,Hard,cue1.png,Easy,Right,Easy,Easy,0.0166668999008834,,,,,,,,,,,,,35,31,Female,0.5714285714285714,1.5,0.8,1.0,3.2777777777777777,1.0,2.6666666666666665,3.3333333333333335,1.5,3.0,2.5,2.25,1.75,1.0,1.0,1.0,0.4199716500006616,0.08269867099614367,,,,,,,,,,,,,,,0.03218577141670256,0.08539465249477565,175510666.79987705,-0.44606970938682167,,,,,,,,,,,,,,
8,240704_145343,TrueCHOICE,9.0,9,1.0,2583.0,,,,,,,,,,,9.0,9.0,,,A,,,,,,True,cue1.png,Easy,cue2.png,Hard,Left,Easy,Easy,0.015867100097239,,,,,,,,,,,,,35,31,Female,0.5714285714285714,1.5,0.8,1.0,3.2777777777777777,1.0,2.6666666666666665,3.3333333333333335,1.5,3.0,2.5,2.25,1.75,1.0,1.0,1.0,0.4538335166483496,1.0071699570692647,,,,,,,,,,,,,0.022387685407761575,0.702783771806505,0.023077971878102857,-0.755263428461776,,,,,,,,,,,,,,,,
9,240704_145359,TrueCHOICE,9.0,10,1.0,2583.0,,,,,,,,,,,10.0,10.0,,,A,,,,,,True,cue2.png,Hard,cue1.png,Easy,Right,Easy,Easy,0.0165735001210123,,,,,,,,,,,,,35,31,Female,0.5714285714285714,1.5,0.8,1.0,3.2777777777777777,1.0,2.6666666666666665,3.3333333333333335,1.5,3.0,2.5,2.25,1.75,1.0,1.0,1.0,0.4630560333607718,1.258956191262173,,,,,,,,,,,,,0.023449074273952236,0.904429881776998,,,,,,,,,,,,,,,,,,
0,240704_145536,FalseCHOICE,9.0,1,2.0,2583.0,,,,,,,,,,,1.0,1.0,,,A,,,,,,False,cue1.png,Easy,cue2.png,Hard,Left,Easy,Mid,0.0165144999045878,,,,,,,,,,,,,35,31,Female,0.5714285714285714,1.5,0.8,1.0,3.2777777777777777,1.0,2.6666666666666665,3.3333333333333335,1.5,3.0,2.5,2.25,1.75,1.0,1.0,1.0,0.6268048333004117,2.4995819811164246,,,,,,,,,,,,,,,,,,,,,0.024311562131117414,-0.6525212202974706,3.564449504936088e+45,-0.1743077911160287,,,,,,,,
1,240704_145553,FalseCHOICE,9.0,2,2.0,2583.0,,,,,,,,,,,2.0,2.0,,,A,,,,,,False,cue2.png,Hard,cue1.png,Easy,Left,Hard,Mid,0.0151189998723566,,,,,,,,,,,,,35,31,Female,0.5714285714285714,1.5,0.8,1.0,3.2777777777777777,1.0,2.6666666666666665,3.3333333333333335,1.5,3.0,2.5,2.25,1.75,1.0,1.0,1.0,0.575742750040566,1.781651751859371,,,,,,,,,,,,,,,,,,,0.01642680567381259,-0.25116388217479513,0.025550681807282778,-0.48592837261948435,5.336902496609906e+44,-0.17647286001149984,,,,,,,,
2,240704_145610,FalseCHOICE,9.0,3,2.0,2583.0,,,,,,,,,,,3.0,3.0,,,A,,,,,,False,cue2.png,Hard,cue1.png,Easy,Right,Easy,Mid,0.0167481999378651,,,,,,,,,,,,,35,31,Female,0.5714285714285714,1.5,0.8,1.0,3.2777777777777777,1.0,2.6666666666666665,3.3333333333333335,1.5,3.0,2.5,2.25,1.75,1.0,1.0,1.0,0.5013518000487238,0.7357188722603929,,,,,,,,,,,,,,,,,,,0.016092010776089655,-0.2710885585359259,0.019526858792060762,-1.295798354766476,-2.738783582051159e+44,-0.17704975890929472,,,,,,,,
3,240704_145627,FalseCHOICE,9.0,4,2.0,2583.0,,,,,,,,,,,4.0,4.0,,,A,,,,,,False,cue2.png,Hard,cue1.png,Easy,Left,Hard,Mid,0.0161936001386493,,,,,,,,,,,,,35,31,Female,0.5714285714285714,1.5,0.8,1.0,3.2777777777777777,1.0,2.6666666666666665,3.3333333333333335,1.5,3.0,2.5,2.25,1.75,1.0,1.0,1.0,0.5937079500484591,2.0342415276168775,,,,,,,,,,,,,,,,,,,0.01711654022846857,-0.21011565273617935,0.029400730237462376,0.03168953307519114,-3.948383491543277e+44,-0.17713616851558225,,,,,,,,
4,240704_145643,FalseCHOICE,9.0,5,2.0,2583.0,,,,,,,,,,,5.0,5.0,,,A,,,,,,False,cue1.png,Easy,cue2.png,Hard,Left,Easy,Mid,0.0163970000576227,,,,,,,,,,,,,35,31,Female,0.5714285714285714,1.5,0.8,1.0,3.2777777777777777,1.0,2.6666666666666665,3.3333333333333335,1.5,3.0,2.5,2.25,1.75,1.0,1.0,1.0,0.5683754666630799,1.6780681315576988,,,,,,,,,,,,,,,,,,,0.01581899209177088,-0.2873367420136057,0.025140404895843845,-0.5410878542481332,8.166282343401857e+48,5.656853685607004,,,,,,,,
5,240704_145659,FalseCHOICE,9.0,6,2.0,2583.0,,,,,,,,,,,6.0,6.0,,,A,,,,,,False,cue2.png,Hard,cue1.png,Easy,Right,Easy,Mid,0.0166038000024855,,,,,,,,,,,,,35,31,Female,0.5714285714285714,1.5,0.8,1.0,3.2777777777777777,1.0,2.6666666666666665,3.3333333333333335,1.5,3.0,2.5,2.25,1.75,1.0,0.6875,0.75,0.5077216166925306,0.8252781622749029,,,,,,,,,,,,,,,,,,,0.015502335749251353,-0.3061819370428987,0.03773614407088441,1.1523402287219136,-5.772491102785265e+43,-0.17689534641205734,,,,,,,,
6,240704_145716,FalseCHOICE,9.0,7,2.0,2583.0,,,,,,,,,,,7.0,7.0,,,A,,,,,,False,cue2.png,Hard,cue1.png,Easy,Left,Hard,Mid,0.0160880999173969,,,,,,,,,,,,,35,31,Female,0.5714285714285714,1.5,0.8,1.0,3.2777777777777777,1.0,2.6666666666666665,3.3333333333333335,1.5,3.0,2.5,2.25,1.75,1.0,1.0,1.0,0.4750572333189969,0.3660186345238575,,,,,,,,,,,,,,,,,,,0.014621078361093214,-0.3586282806679955,0.028805325471894273,-0.04835937368092827,,,,,,,,,,
7,240704_145732,FalseCHOICE,9.0,8,2.0,2583.0,,,,,,,,,,,8.0,8.0,,,A,,,,,,False,cue1.png,Easy,cue2.png,Hard,Left,Easy,Mid,0.016687799943611,,,,,,,,,,,,,35,31,Female,0.5714285714285714,1.5,0.8,1.0,3.2777777777777777,1.0,2.6666666666666665,3.3333333333333335,1.5,3.0,2.5,2.25,1.75,1.0,0.6875,0.75,0.6001404833514243,2.124682610590338,,,,,,,,,,,,,,,,,,,0.01828997178802524,-0.14028112355093422,0.028413558422562046,-0.10103030581932486,,,,,,,,,,
8,240704_145748,FalseCHOICE,9.0,9,2.0,2583.0,,,,,,,,,,,9.0,9.0,,,A,,,,,,False,cue1.png,Easy,cue2.png,Hard,Left,Easy,Mid,0.0162158999592065,,,,,,,,,,,,,35,31,Female,0.5714285714285714,1.5,0.8,1.0,3.2777777777777777,1.0,2.6666666666666665,3.3333333333333335,1.5,3.0,2.5,2.25,1.75,1.0,1.0,1.0,0.467281649975727,0.25669433798402336,,,,,,,,,,,,,,,,,,,0.01744669746823558,-0.19046697769548077,0.02600348099301238,-0.4250520043171049,,,,,,,,,,
9,240704_145803,FalseCHOICE,9.0,10,2.0,2583.0,,,,,,,,,,,10.0,10.0,,,A,,,,,,False,cue2.png,Hard,cue1.png,Easy,Right,Easy,Mid,0.0167955998331308,,,,,,,,,,,,,35,31,Female,0.5714285714285714,1.5,0.8,1.0,3.2777777777777777,1.0,2.6666666666666665,3.3333333333333335,1.5,3.0,2.5,2.25,1.75,1.0,1.0,1.0,0.5167418000055477,0.9521014695203307,,,,,,,,,,,,,,,,,,,0.042500594327782706,1.300567652482,0.02847946240534122,-0.09216987661648955,1.6334564105773452e+44,-0.17673742130626344,,,,,,,,
10,240704_145818,FalseCHOICE,9.0,11,2.0,2583.0,,,,,,,,,,,11.0,11.0,,,A,,,,,,False,cue1.png,Easy,cue2.png,Hard,Left,Easy,Mid,0.0163577001076191,,,,,,,,,,,,,35,31,Female,0.5714285714285714,1.5,0.8,1.0,3.2777777777777777,1.0,2.6666666666666665,3.3333333333333335,1.5,3.0,2.5,2.25,1.75,1.0,1.0,1.0,0.4640845167062555,0.2117428108511295,,,,,,,,,,,,,,,,,,,0.05321668750669194,1.9383153896717813,0.06294344822446689,4.5413240871866245,,,,,,,,,,
11,240704_145834,FalseCHOICE,9.0,12,2.0,2583.0,,,,,,,,,,,12.0,12.0,,,A,,,,,,False,cue2.png,Hard,cue1.png,Easy,Right,Easy,Mid,0.0163880998734384,,,,,,,,,,,,,35,31,Female,0.5714285714285714,1.5,0.8,1.0,3.2777777777777777,1.0,2.6666666666666665,3.3333333333333335,1.5,3.0,2.5,2.25,1.75,1.0,0.125,0.5,0.4729820333110789,0.336841430572792,,,,,,,,,,,,,,,,,,,,,0.031158604798184077,0.26802613119748253,,,,,,,,,,
12,240704_145849,FalseCHOICE,9.0,13,2.0,2583.0,,,,,,,,,,,13.0,13.0,,,A,,,,,,False,cue1.png,Easy,cue2.png,Hard,Left,Easy,Mid,0.0160762998275458,,,,,,,,,,,,,35,31,Female,0.5714285714285714,1.5,0.8,1.0,3.2777777777777777,1.0,2.6666666666666665,3.3333333333333335,1.5,3.0,2.5,2.25,1.75,1.0,1.0,1.0,0.4757448333936433,0.37568625573539277,,,,,,,,,,,,,,,,,,,,,0.033927296737562375,0.6402615846377061,,,,,,,,,,
13,240704_145904,FalseCHOICE,9.0,14,2.0,2583.0,,,,,,,,,,,14.0,14.0,,,A,,,,,,False,cue2.png,Hard,cue1.png,Easy,Right,Easy,Mid,0.017245199996978,,,,,,,,,,,,,35,31,Female,0.5714285714285714,1.5,0.8,1.0,3.2777777777777777,1.0,2.6666666666666665,3.3333333333333335,1.5,3.0,2.5,2.25,1.75,1.0,1.0,1.0,0.4376311500091105,-0.16019014615058566,,,,,,,,,,,,,,,,,,,0.07795175314164669,3.4103753908837895,0.04672664443697677,2.3610637175396523,,,,,,,,,,
14,240704_145920,FalseCHOICE,9.0,15,2.0,2583.0,,,,,,,,,,,15.0,15.0,,,A,,,,,,False,cue1.png,Easy,cue2.png,Hard,Left,Easy,Mid,0.0166603000834584,,,,,,,,,,,,,35,31,Female,0.5714285714285714,1.5,0.8,1.0,3.2777777777777777,1.0,2.6666666666666665,3.3333333333333335,1.5,3.0,2.5,2.25,1.75,1.0,1.0,1.0,0.4762423499875391,0.38268131311480214,,,,,,,,,,,,,,,,,,,0.009931203273804251,-0.6377372035455873,,,,,,,,,,,,
15,240704_145935,FalseCHOICE,9.0,16,2.0,2583.0,,,,,,,,,,,16.0,16.0,,,A,,,,,,False,cue1.png,Easy,cue2.png,Hard,Left,Easy,Mid,0.0163528001867234,,,,,,,,,,,,,35,31,Female,0.5714285714285714,1.5,0.8,1.0,3.2777777777777777,1.0,2.6666666666666665,3.3333333333333335,1.5,3.0,2.5,2.25,1.75,1.0,0.125,0.5,0.40964285004884,-0.553704184830505,,,,,,,,,,,,,,,,,,,,,0.035408086278510734,0.8393456208155352,,,,,,,,,,
16,240704_145949,FalseCHOICE,9.0,17,2.0,2583.0,,,,,,,,,,,17.0,17.0,,,A,,,,,,False,cue2.png,Hard,cue1.png,Easy,Right,Easy,Mid,0.0156032000668346,,,,,,,,,,,,,35,31,Female,0.5714285714285714,1.5,0.8,1.0,3.2777777777777777,1.0,2.6666666666666665,3.3333333333333335,1.5,3.0,2.5,2.25,1.75,1.0,1.0,1.0,0.3948514166598518,-0.761670967344204,,,,,,,,,,,,,,,,,,,0.009612661141248927,-0.6566946277528154,0.03195790156245879,0.37548719945555337,,,,,,,,,,
17,240704_150004,FalseCHOICE,9.0,18,2.0,2583.0,,,,,,,,,,,18.0,18.0,,,A,,,,,,False,cue2.png,Hard,cue1.png,Easy,Right,Easy,Mid,0.0164838000200688,,,,,,,,,,,,,35,31,Female,0.5714285714285714,1.5,0.8,1.0,3.2777777777777777,1.0,2.6666666666666665,3.3333333333333335,1.5,3.0,2.5,2.25,1.75,1.0,1.0,1.0,0.3773481167154386,-1.0077664522835996,,,,,,,,,,,,,,,,,,,0.03746730373068881,1.0010210140454374,,,,,,,,,,,,
18,240704_150020,FalseCHOICE,9.0,19,2.0,2583.0,,,,,,,,,,,19.0,19.0,,,A,,,,,,False,cue1.png,Easy,cue2.png,Hard,Left,Easy,Mid,0.0152099002152681,,,,,,,,,,,,,35,31,Female,0.5714285714285714,1.5,0.8,1.0,3.2777777777777777,1.0,2.6666666666666665,3.3333333333333335,1.5,3.0,2.5,2.25,1.75,1.0,1.0,1.0,0.5617593499676635,1.5850458756548154,,,,,,,,,,,,,,,,,,,,,0.02867886713068999,-0.06536100441852659,,,,,,,,,,
19,240704_150035,FalseCHOICE,9.0,20,2.0,2583.0,,,,,,,,,,,20.0,20.0,,,A,,,,,,False,cue1.png,Easy,cue2.png,Hard,Left,Easy,Mid,0.0157747999764978,,,,,,,,,,,,,35,31,Female,0.5714285714285714,1.5,0.8,1.0,3.2777777777777777,1.0,2.6666666666666665,3.3333333333333335,1.5,3.0,2.5,2.25,1.75,1.0,1.0,1.0,0.3890969665953889,-0.8425782353262938,,,,,,,,,,,,,,,,,,,,,0.027548661647976785,-0.21731093584818367,4.241590302865908e+43,-0.1768238093009181,,,,,,,,
20,240704_150050,FalseCHOICE,9.0,21,2.0,2583.0,,,,,,,,,,,21.0,21.0,,,A,,,,,,False,cue1.png,Easy,cue2.png,Hard,Left,Easy,Mid,0.0159897000994533,,,,,,,,,,,,,35,31,Female,0.5714285714285714,1.5,0.8,1.0,3.2777777777777777,1.0,2.6666666666666665,3.3333333333333335,1.5,3.0,2.5,2.25,1.75,1.0,1.0,1.0,0.3985899499384686,-0.7091073843007146,,,,,,,,,,,,,,,,,,,,,,,1.940717628687136e+43,-0.17684024593424894,,,,,,,,
21,240704_150104,FalseCHOICE,9.0,22,2.0,2583.0,,,,,,,,,,,22.0,22.0,,,A,,,,,,False,cue2.png,Hard,cue1.png,Easy,Right,Easy,Mid,0.0157818000297993,,,,,,,,,,,,,35,31,Female,0.5714285714285714,1.5,0.8,1.0,3.2777777777777777,1.0,2.6666666666666665,3.3333333333333335,1.5,3.0,2.5,2.25,1.75,1.0,0.6875,0.75,0.3882863000423337,-0.8539761648099817,,,,,,,,,,,,,,,,,,,,,0.028070124420461987,-0.14720312471632796,-8.474793346302051e+42,-0.17686016384263845,,,,,,,,
22,240704_150119,FalseCHOICE,9.0,23,2.0,2583.0,,,,,,,,,,,23.0,23.0,,,A,,,,,,False,cue1.png,Easy,cue2.png,Hard,Left,Easy,Mid,0.0161137001123279,,,,,,,,,,,,,35,31,Female,0.5714285714285714,1.5,0.8,1.0,3.2777777777777777,1.0,2.6666666666666665,3.3333333333333335,1.5,3.0,2.5,2.25,1.75,1.0,1.0,1.0,0.4308712833638613,-0.25523351885581286,,,,,,,,,,,,,,,,,,,0.054737639235075256,2.0288319153268968,0.029893358550678106,0.09792070922710555,-3.1272597312863997e+43,-0.176876449800082,,,,,,,,
23,240704_150134,FalseCHOICE,9.0,24,2.0,2583.0,,,,,,,,,,,24.0,24.0,,,A,,,,,,False,cue2.png,Hard,cue1.png,Easy,Right,Easy,Mid,0.0150968001689761,,,,,,,,,,,,,35,31,Female,0.5714285714285714,1.5,0.8,1.0,3.2777777777777777,1.0,2.6666666666666665,3.3333333333333335,1.5,3.0,2.5,2.25,1.75,1.0,1.0,1.0,0.3911280333219717,-0.8140215430105565,,,,,,,,,,,,,,,,,,,0.021636543119577793,0.058883652119584566,,,-4.2813783279372587e+43,-0.17688469442152774,,,,,,,,
24,240704_150149,FalseCHOICE,9.0,25,2.0,2583.0,,,,,,,,,,,25.0,25.0,,,A,,,,,,False,cue2.png,Hard,cue1.png,Easy,Right,Easy,Mid,0.01656059990637,,,,,,,,,,,,,35,31,Female,0.5714285714285714,1.5,0.8,1.0,3.2777777777777777,1.0,2.6666666666666665,3.3333333333333335,1.5,3.0,2.5,2.25,1.75,1.0,1.0,1.0,0.3635335333722954,-1.201998774066537,,,,,,,,,,,,,,,,,,,0.03960938472770106,1.1285028570934694,,,-4.2607216931098475e+43,-0.1768845468577202,,,,,,,,
25,240704_150205,FalseCHOICE,9.0,26,2.0,2583.0,,,,,,,,,,,26.0,26.0,,,A,,,,,,False,cue1.png,Easy,cue2.png,Hard,Left,Easy,Mid,0.0163674000650644,,,,,,,,,,,,,35,31,Female,0.5714285714285714,1.5,0.8,1.0,3.2777777777777777,1.0,2.6666666666666665,3.3333333333333335,1.5,3.0,2.5,2.25,1.75,1.0,0.6875,0.75,0.531287349993363,1.1566111442290812,,,,,,,,,,,,,,,,,,,,,,,-2.9543193343732887e+43,-0.176875214374096,,,,,,,,
26,240704_150220,FalseCHOICE,9.0,27,2.0,2583.0,,,,,,,,,,,27.0,27.0,,,A,,,,,,False,cue1.png,Easy,cue2.png,Hard,Left,Easy,Mid,0.0160370001103729,,,,,,,,,,,,,35,31,Female,0.5714285714285714,1.5,0.8,1.0,3.2777777777777777,1.0,2.6666666666666665,3.3333333333333335,1.5,3.0,2.5,2.25,1.75,1.0,1.0,1.0,0.4057483166689053,-0.6084611211677358,,,,,,,,,,,,,,,,,,,0.010244374746191179,-0.619099403879918,0.027906778869488315,-0.16916403859386864,,,,,,,,,,
27,240704_150235,FalseCHOICE,9.0,28,2.0,2583.0,,,,,,,,,,,28.0,28.0,,,A,,,,,,False,cue2.png,Hard,cue1.png,Easy,Right,Easy,Mid,0.0166933999862521,,,,,,,,,,,,,35,31,Female,0.5714285714285714,1.5,0.8,1.0,3.2777777777777777,1.0,2.6666666666666665,3.3333333333333335,1.5,3.0,2.5,2.25,1.75,1.0,0.6875,0.75,0.4015076666449507,-0.668084439480148,,,,,,,,,,,,,,,,,,,0.03466846998290273,0.834453790373475,,,1.1213671704391114e+43,-0.17684609908866414,,,,,,,,
28,240704_150249,FalseCHOICE,9.0,29,2.0,2583.0,,,,,,,,,,,29.0,29.0,,,A,,,,,,False,cue1.png,Easy,cue2.png,Hard,Left,Easy,Mid,0.0149710001423954,,,,,,,,,,,,,35,31,Female,0.5714285714285714,1.5,0.8,1.0,3.2777777777777777,1.0,2.6666666666666665,3.3333333333333335,1.5,3.0,2.5,2.25,1.75,1.0,0.125,0.5,0.3386324333647887,-1.5521069423167033,,,,,,,,,,,,,,,,,,,0.00921629054536705,-0.6802838637170703,0.02141848823705078,-1.041479145690854,2.748763654417773e+43,-0.17683447353476398,,,,,,,,
29,240704_150304,FalseCHOICE,9.0,30,2.0,2583.0,,,,,,,,,,,30.0,30.0,,,A,,,,,,False,cue1.png,Easy,cue2.png,Hard,Left,Easy,Mid,0.0160038000904023,,,,,,,,,,,,,35,31,Female,0.5714285714285714,1.5,0.8,1.0,3.2777777777777777,1.0,2.6666666666666665,3.3333333333333335,1.5,3.0,2.5,2.25,1.75,1.0,0.6875,0.75,0.4775908500499402,0.4016411537077938,,,,,,,,,,,,,,,,,,,0.019868013877160903,-0.046366974547711166,0.03248560154870778,0.44643356978590537,3.593934968339891e+43,-0.17682843592514544,,,,,,,,
30,240704_150319,FalseCHOICE,9.0,31,2.0,2583.0,,,,,,,,,,,31.0,31.0,,,A,,,,,,False,cue2.png,Hard,cue1.png,Easy,Right,Easy,Mid,0.0166008998639881,,,,,,,,,,,,,35,31,Female,0.5714285714285714,1.5,0.8,1.0,3.2777777777777777,1.0,2.6666666666666665,3.3333333333333335,1.5,3.0,2.5,2.25,1.75,1.0,1.0,1.0,0.3753417499052981,-1.0359758650615274,,,,,,,,,,,,,,,,,,,0.008615151060143515,-0.7160595274814798,0.025802695161740052,-0.45204655863534715,,,,,,,,,,
31,240704_150334,FalseCHOICE,9.0,32,2.0,2583.0,,,,,,,,,,,32.0,32.0,,,A,,,,,,False,cue1.png,Easy,cue2.png,Hard,Left,Easy,Mid,0.0161349000409245,,,,,,,,,,,,,35,31,Female,0.5714285714285714,1.5,0.8,1.0,3.2777777777777777,1.0,2.6666666666666665,3.3333333333333335,1.5,3.0,2.5,2.25,1.75,1.0,1.0,1.0,0.4792021666265403,0.4242961807923217,,,,,,,,,,,,,,,,,,,0.007867611978731044,-0.7605478824885102,0.024751623119259904,-0.5933574328306154,2.785520074535082e+43,-0.17683421095969548,,,,,,,,
32,240704_150350,FalseCHOICE,9.0,33,2.0,2583.0,,,,,,,,,,,33.0,33.0,,,A,,,,,,False,cue2.png,Hard,cue1.png,Easy,Right,Easy,Mid,0.0165254999883472,,,,,,,,,,,,,35,31,Female,0.5714285714285714,1.5,0.8,1.0,3.2777777777777777,1.0,2.6666666666666665,3.3333333333333335,1.5,3.0,2.5,2.25,1.75,1.0,1.0,1.0,0.5159170500313243,0.9405055278690506,,,,,,,,,,,,,,,,,,,0.009790643755362417,-0.6461023337595717,0.02401363135250957,-0.6925763802419864,1.0989452490338194e+43,-0.1768462592630644,,,,,,,,
33,240704_150405,FalseCHOICE,9.0,34,2.0,2583.0,,,,,,,,,,,34.0,34.0,,,A,,,,,,False,cue2.png,Hard,cue1.png,Easy,Right,Easy,Mid,0.0155241000466048,,,,,,,,,,,,,35,31,Female,0.5714285714285714,1.5,0.8,1.0,3.2777777777777777,1.0,2.6666666666666665,3.3333333333333335,1.5,3.0,2.5,2.25,1.75,1.0,1.0,1.0,0.3922970666317269,-0.7975849956058859,,,,,,,,,,,,,,,,,,,0.01145730589363297,-0.5469141324630503,0.02405440467234685,-0.687094630906847,-6.885582804272398e+42,-0.17685902856595592,,,,,,,,
34,240704_150420,FalseCHOICE,9.0,35,2.0,2583.0,,,,,,,,,,,35.0,35.0,,,A,,,,,,False,cue2.png,Hard,cue1.png,Easy,Right,Easy,Mid,0.0166421001777052,,,,,,,,,,,,,35,31,Female,0.5714285714285714,1.5,0.8,1.0,3.2777777777777777,1.0,2.6666666666666665,3.3333333333333335,1.5,3.0,2.5,2.25,1.75,1.0,1.0,1.0,0.4738468165742233,0.3490002381797494,,,,,,,,,,,,,,,,,,,0.00997298357024196,-0.635250729317768,0.02807659809129516,-0.1463327751610971,-2.256802442379395e+43,-0.17687023155626153,,,,,,,,
35,240704_150434,FalseCHOICE,9.0,36,2.0,2583.0,,,,,,,,,,,36.0,36.0,,,A,,,,,,False,cue1.png,Easy,cue2.png,Hard,Left,Easy,Mid,0.0163288998883217,,,,,,,,,,,,,35,31,Female,0.5714285714285714,1.5,0.8,1.0,3.2777777777777777,1.0,2.6666666666666665,3.3333333333333335,1.5,3.0,2.5,2.25,1.75,1.0,0.6875,0.75,0.3777435166606058,-1.0022071496629537,,,,,,,,,,,,,,,,,,,0.00978749973398143,-0.6462894441633285,0.03025283838524654,0.14625080233715546,-3.2136666114349695e+43,-0.17687706706075107,,,,,,,,
36,240704_150449,FalseCHOICE,9.0,37,2.0,2583.0,,,,,,,,,,,37.0,37.0,,,A,,,,,,False,cue2.png,Hard,cue1.png,Easy,Right,Easy,Mid,0.0169365000911057,,,,,,,,,,,,,35,31,Female,0.5714285714285714,1.5,0.8,1.0,3.2777777777777777,1.0,2.6666666666666665,3.3333333333333335,1.5,3.0,2.5,2.25,1.75,1.0,1.0,1.0,0.3813821999744202,-0.9510474519203654,,,,,,,,,,,,,,,,,,,0.010790599980525265,-0.5865918564578659,0.026683390225523275,-0.33364193522913066,-3.235195486885942e+43,-0.17687722085554197,,,,,,,,
37,240704_150503,FalseCHOICE,9.0,38,2.0,2583.0,,,,,,,,,,,38.0,38.0,,,A,,,,,,False,cue1.png,Easy,cue2.png,Hard,Left,Easy,Mid,0.0158891999162733,,,,,,,,,,,,,35,31,Female,0.5714285714285714,1.5,0.8,1.0,3.2777777777777777,1.0,2.6666666666666665,3.3333333333333335,1.5,3.0,2.5,2.25,1.75,1.0,1.0,1.0,0.3590062500055258,-1.2656521422394822,,,,,,,,,,,,,,,,,,,,,,,-2.1944424857696504e+43,-0.17686978607844225,,,,,,,,
38,240704_150519,FalseCHOICE,9.0,39,2.0,2583.0,,,,,,,,,,,39.0,39.0,,,A,,,,,,False,cue1.png,Easy,cue2.png,Hard,Left,Easy,Mid,0.0161447999998927,,,,,,,,,,,,,35,31,Female,0.5714285714285714,1.5,0.8,1.0,3.2777777777777777,1.0,2.6666666666666665,3.3333333333333335,1.5,3.0,2.5,2.25,1.75,1.0,1.0,1.0,0.4972727499747028,0.6783676408213923,,,,,,,,,,,,,,,,,,,,,0.029311921459591432,0.019749679735030088,-1.639868579876277e+42,-0.1768552812103446,,,,,,,,
39,240704_150533,FalseCHOICE,9.0,40,2.0,2583.0,,,,,,,,,,,40.0,40.0,,,A,,,,,,False,cue2.png,Hard,cue1.png,Easy,Right,Easy,Mid,0.0165460999123752,,,,,,,,,,,,,35,31,Female,0.5714285714285714,1.5,0.8,1.0,3.2777777777777777,1.0,2.6666666666666665,3.3333333333333335,1.5,3.0,2.5,2.25,1.75,1.0,1.0,1.0,0.3789472500405584,-0.9852827210798893,,,,,,,,,,,,,,,,,,,0.02307268508339956,0.14435288726147685,0.041314311960109096,1.6334052861186128,1.5997875313302957e+43,-0.17684268142016893,,,,,,,,
40,240704_150548,FalseCHOICE,9.0,41,2.0,2583.0,,,,,,,,,,,41.0,41.0,,,A,,,,,,False,cue2.png,Hard,cue1.png,Easy,Right,Easy,Mid,0.0165526000782847,,,,,,,,,,,,,35,31,Female,0.5714285714285714,1.5,0.8,1.0,3.2777777777777777,1.0,2.6666666666666665,3.3333333333333335,1.5,3.0,2.5,2.25,1.75,1.0,1.0,1.0,0.4749090000599001,0.3639344826269338,,,,,,,,,,,,,,,,,,,0.06259882276426024,2.4966751790676858,0.027418726600120544,-0.2347799907360328,2.90600355982173e+43,-0.17683335026762315,,,,,,,,
41,240704_150603,FalseCHOICE,9.0,42,2.0,2583.0,,,,,,,,,,,42.0,42.0,,,A,,,,,,False,cue1.png,Easy,cue2.png,Hard,Left,Easy,Mid,0.0149089000187814,,,,,,,,,,,,,35,31,Female,0.5714285714285714,1.5,0.8,1.0,3.2777777777777777,1.0,2.6666666666666665,3.3333333333333335,1.5,3.0,2.5,2.25,1.75,1.0,1.0,1.0,0.4093516667295868,-0.5577982071226131,,,,,,,,,,,,,,,,,,,0.01873042739017864,-0.11406825297243435,0.024204019231263675,-0.6669797736388445,,,,,,,,,,
42,240704_150618,FalseCHOICE,9.0,43,2.0,2583.0,,,,,,,,,,,43.0,43.0,,,A,,,,,,False,cue2.png,Hard,cue1.png,Easy,Right,Easy,Mid,0.0178165999241173,,,,,,,,,,,,,35,31,Female,0.5714285714285714,1.5,0.8,1.0,3.2777777777777777,1.0,2.6666666666666665,3.3333333333333335,1.5,3.0,2.5,2.25,1.75,1.0,1.0,1.0,0.4149810500675812,-0.4786493707961423,,,,,,,,,,,,,,,,,,,0.015998200241857684,-0.27667151259690337,0.02451650772932283,-0.6249674081186762,2.324901484874705e+43,-0.17683750145853472,,,,,,,,
43,240704_150633,FalseCHOICE,9.0,44,2.0,2583.0,,,,,,,,,,,44.0,44.0,,,A,,,,,,False,cue1.png,Easy,cue2.png,Hard,Left,Easy,Mid,0.0169811998493969,,,,,,,,,,,,,35,31,Female,0.5714285714285714,1.5,0.8,1.0,3.2777777777777777,1.0,2.6666666666666665,3.3333333333333335,1.5,3.0,2.5,2.25,1.75,1.0,0.6875,0.75,0.4156170332571491,-0.46970748029851767,,,,,,,,,,,,,,,,,,,0.00762443244555408,-0.7750202461032378,0.02418922696719618,-0.6689685124523828,3.5842010971103833e+42,-0.17685154931684444,,,,,,,,
44,240704_150648,FalseCHOICE,9.0,45,2.0,2583.0,,,,,,,,,,,45.0,45.0,,,A,,,,,,False,cue2.png,Hard,cue1.png,Easy,Right,Easy,Mid,0.0162906998302787,,,,,,,,,,,,,35,31,Female,0.5714285714285714,1.5,0.8,1.0,3.2777777777777777,1.0,2.6666666666666665,3.3333333333333335,1.5,3.0,2.5,2.25,1.75,1.0,0.6875,0.75,0.3810592000372708,-0.955588814201799,,,,,,,,,,,,,,,,,,,0.007752880482531213,-0.7673759074845833,0.028874973361245546,-0.03899559676335367,-2.2211006934348837e+43,-0.17686997651539668,,,,,,,,
45,240704_150703,FalseCHOICE,9.0,46,2.0,2583.0,,,,,,,,,,,46.0,46.0,,,A,,,,,,False,cue2.png,Hard,cue1.png,Easy,Right,Easy,Mid,0.0158094998914748,,,,,,,,,,,,,35,31,Female,0.5714285714285714,1.5,0.8,1.0,3.2777777777777777,1.0,2.6666666666666665,3.3333333333333335,1.5,3.0,2.5,2.25,1.75,1.0,1.0,1.0,0.5148882333111638,0.9260404184059375,,,,,,,,,,,,,,,,,,,0.01116745305813763,-0.5641641681681347,,,,,,,,,,,,
46,240704_150719,FalseCHOICE,9.0,47,2.0,2583.0,,,,,,,,,,,47.0,47.0,,,A,,,,,,False,cue1.png,Easy,cue2.png,Hard,Left,Easy,Mid,0.0164926000870764,,,,,,,,,,,,,35,31,Female,0.5714285714285714,1.5,0.8,1.0,3.2777777777777777,1.0,2.6666666666666665,3.3333333333333335,1.5,3.0,2.5,2.25,1.75,1.0,1.0,1.0,0.4351673500301937,-0.19483104543990745,,,,,,,,,,,,,,,,,,,0.009146596671098602,-0.684431561004564,0.019550666319488395,-1.2925975632153202,-2.5914306164987884e+43,-0.17687262202343595,,,,,,,,
47,240704_150733,FalseCHOICE,9.0,48,2.0,2583.0,,,,,,,,,,,48.0,48.0,,,A,,,,,,False,cue1.png,Easy,cue2.png,Hard,Left,Easy,Mid,0.0161224999465048,,,,,,,,,,,,,35,31,Female,0.5714285714285714,1.5,0.8,1.0,3.2777777777777777,1.0,2.6666666666666665,3.3333333333333335,1.5,3.0,2.5,2.25,1.75,1.0,0.125,0.5,0.3949935500277206,-0.7596725796000174,,,,,,,,,,,,,,,,,,,0.00881982838584761,-0.7038785489156393,0.024324893243211056,-0.6507289253568664,1.0813229500577264e+43,-0.17684638515063306,,,,,,,,
48,240704_150748,FalseCHOICE,9.0,49,2.0,2583.0,,,,,,,,,,,49.0,49.0,,,A,,,,,,False,cue2.png,Hard,cue1.png,Easy,Right,Easy,Mid,0.0155394999310374,,,,,,,,,,,,,35,31,Female,0.5714285714285714,1.5,0.8,1.0,3.2777777777777777,1.0,2.6666666666666665,3.3333333333333335,1.5,3.0,2.5,2.25,1.75,1.0,1.0,1.0,0.3911509666359052,-0.8136991018119452,,,,,,,,,,,,,,,,,,,0.01149853239360317,-0.5444606163700776,0.0303816381449978,0.1635672239628738,,,,,,,,,,
49,240704_150803,FalseCHOICE,9.0,50,2.0,2583.0,,,,,,,,,,,50.0,50.0,,,A,,,,,,False,cue1.png,Easy,cue2.png,Hard,Left,Easy,Mid,0.0161768000107258,,,,,,,,,,,,,35,31,Female,0.5714285714285714,1.5,0.8,1.0,3.2777777777777777,1.0,2.6666666666666665,3.3333333333333335,1.5,3.0,2.5,2.25,1.75,1.0,1.0,1.0,0.3686661001217241,-1.1298351530810182,,,,,,,,,,,,,,,,,,,0.00857065238647672,-0.7187077807175378,0.026551809229115937,-0.35133227887667995,-4.122273198385775e+42,-0.17685705455377865,,,,,,,,
0,240704_143511,OFFLINERATING,9.0,1,1.0,,,,,,,,,,,,,,,,,T0,cue1.png,Easy,49.0,2.4928579998668283,,,,,,,,,,,,,,,,,,,,,,35,31,Female,0.5714285714285714,1.5,0.8,1.0,3.2777777777777777,1.0,2.6666666666666665,3.3333333333333335,1.5,3.0,2.5,2.25,1.75,1.0,,,,,,,,,,,,,,,,,,,,,,,,,,,,,0.4359924308340366,,,,,1124626907.8408928,-0.41989271965275765,
1,240704_143519,OFFLINERATING,9.0,2,3.0,,,,,,,,,,,,,,,,,T0,cue2.png,Hard,27.0,1.885586500167847,,,,,,,,,,,,,,,,,,,,,,35,31,Female,0.5714285714285714,1.5,0.8,1.0,3.2777777777777777,1.0,2.6666666666666665,3.3333333333333335,1.5,3.0,2.5,2.25,1.75,1.0,,,,,,,,,,,,,,,,,,,,,,,,,,,,,-0.1929802562708031,,,,,11206480.935792722,-0.6510282565711234,
2,240704_145038,OFFLINERATING,9.0,3,1.0,,,,,,,,,,,,,,,,,T1,cue1.png,Easy,73.0,1.3653851000126451,,,,,,,,,,,,,,,,,,,,,,35,31,Female,0.5714285714285714,1.5,0.8,1.0,3.2777777777777777,1.0,2.6666666666666665,3.3333333333333335,1.5,3.0,2.5,2.25,1.75,1.0,,,,,,,,,,,,,,,,,,,,,,,,,,,,,1.1221444531302254,0.008376253339445345,-0.5679801689536401,0.02850846062255559,0.22006159176234913,,,
3,240704_145045,OFFLINERATING,9.0,4,3.0,,,,,,,,,,,,,,,,,T1,cue2.png,Hard,21.0,0.8851083999034017,,,,,,,,,,,,,,,,,,,,,,35,31,Female,0.5714285714285714,1.5,0.8,1.0,3.2777777777777777,1.0,2.6666666666666665,3.3333333333333335,1.5,3.0,2.5,2.25,1.75,1.0,,,,,,,,,,,,,,,,,,,,,,,,,,,,,-0.36451826184485026,0.012196423941077845,1.6919282345775981,0.027287481521700623,-0.5767373034723965,,,
4,240704_145420,OFFLINERATING,9.0,5,1.0,,,,,,,,,,,,,,,,,T2,cue1.png,Easy,100.0,1.4353914000093937,,,,,,,,,,,,,,,,,,,,,,35,31,Female,0.5714285714285714,1.5,0.8,1.0,3.2777777777777777,1.0,2.6666666666666665,3.3333333333333335,1.5,3.0,2.5,2.25,1.75,1.0,,,,,,,,,,,,,,,,,,,,,,,,,,,,,1.8940654782134376,0.008897943951521303,-0.25936227692285146,,,11453313628.739153,1.7242448345075387,
5,240704_145427,OFFLINERATING,9.0,6,3.0,,,,,,,,,,,,,,,,,T2,cue2.png,Hard,0.0,0.5846829002257437,,,,,,,,,,,,,,,,,,,,,,35,31,Female,0.5714285714285714,1.5,0.8,1.0,3.2777777777777777,1.0,2.6666666666666665,3.3333333333333335,1.5,3.0,2.5,2.25,1.75,1.0,,,,,,,,,,,,,,,,,,,,,,,,,,,,,-0.9649012813540154,0.00787486838637921,-0.8645857887011105,,,,,
6,240704_150821,OFFLINERATING,9.0,7,1.0,,,,,,,,,,,,,,,,,T3,cue1.png,Easy,0.0,1.4484757999889553,,,,,,,,,,,,,,,,,,,,,,35,31,Female,0.5714285714285714,1.5,0.8,1.0,3.2777777777777777,1.0,2.6666666666666665,3.3333333333333335,1.5,3.0,2.5,2.25,1.75,1.0,,,,,,,,,,,,,,,,,,,,,,,,,,,,,-0.9649012813540154,,,0.030487603130041483,1.5116304338274056,,,
7,240704_150828,OFFLINERATING,9.0,8,3.0,,,,,,,,,,,,,,,,,T3,cue2.png,Hard,0.0,0.6682372998911887,,,,,,,,,,,,,,,,,,,,,,35,31,Female,0.5714285714285714,1.5,0.8,1.0,3.2777777777777777,1.0,2.6666666666666665,3.3333333333333335,1.5,3.0,2.5,2.25,1.75,1.0,,,,,,,,,,,,,,,,,,,,,,,,,,,,,-0.9649012813540154,,,0.02640144692986323,-1.1549547221173562,148164.79431347275,-0.6533238582836576,
0,240704_145445,LEARNINGCHECK,9.0,1,,,,,,,,,,,,1.0,1.0,1.0,,,A,,,,,,,,,,,,,,,cue1.png,Easy,Left,Left,Easy,0.0151573000475764,1.0,,,,,,35,31,Female,0.5714285714285714,1.5,0.8,1.0,3.2777777777777777,1.0,2.6666666666666665,3.3333333333333335,1.5,3.0,2.5,2.25,1.75,1.0,,,,,,,,,,,,,,,,,,,,,,,,,,,,,,,,,,,,
1,240704_145451,LEARNINGCHECK,9.0,2,,,,,,,,,,,,2.0,2.0,2.0,,,A,,,,,,,,,,,,,,,cue2.png,Hard,Right,Right,Hard,0.0135240000672638,1.0,,,,,,35,31,Female,0.5714285714285714,1.5,0.8,1.0,3.2777777777777777,1.0,2.6666666666666665,3.3333333333333335,1.5,3.0,2.5,2.25,1.75,1.0,,,,,,,,,,,,,,,,,,,,,,,,,,,,,,,,,,,,
2,240704_150843,LEARNINGCHECK,9.0,1,,,,,,,,,,,,1.0,1.0,1.0,,,A,,,,,,,,,,,,,,,cue1.png,Easy,Middle,Middle,Mid,0.0164193999953567,1.0,,,,,,35,31,Female,0.5714285714285714,1.5,0.8,1.0,3.2777777777777777,1.0,2.6666666666666665,3.3333333333333335,1.5,3.0,2.5,2.25,1.75,1.0,,,,,,,,,,,,,,,,,,,,,,,,,,,,,,,,,,,,
3,240704_150847,LEARNINGCHECK,9.0,2,,,,,,,,,,,,2.0,2.0,2.0,,,A,,,,,,,,,,,,,,,cue2.png,Hard,Middle,Middle,Mid,0.0164392997976392,1.0,,,,,,35,31,Female,0.5714285714285714,1.5,0.8,1.0,3.2777777777777777,1.0,2.6666666666666665,3.3333333333333335,1.5,3.0,2.5,2.25,1.75,1.0,,,,,,,,,,,,,,,,,,,,,,,,,,,,,,,,,,,,
0,240704_150904,DEMANDRATING,9.0,-1,,,,,,,,,,,,,,,,,,,,,,,,,,,,,,,,,,,,,,,1.0,MentalDemand,1.0,6.0,5.629624199820682,35,31,Female,0.5714285714285714,1.5,0.8,1.0,3.2777777777777777,1.0,2.6666666666666665,3.3333333333333335,1.5,3.0,2.5,2.25,1.75,1.0,,,,,,,,,,,,,,,,,,,,,,,,,,,,,,,,,,,,-1.335343722471056
1,240704_150913,DEMANDRATING,9.0,-1,,,,,,,,,,,,,,,,,,,,,,,,,,,,,,,,,,,,,,,2.0,Effort,1.0,12.0,8.246444399934262,35,31,Female,0.5714285714285714,1.5,0.8,1.0,3.2777777777777777,1.0,2.6666666666666665,3.3333333333333335,1.5,3.0,2.5,2.25,1.75,1.0,,,,,,,,,,,,,,,,,,,,,,,,,,,,,,,,,,,,-1.183215956619923
2,240704_150919,DEMANDRATING,9.0,-1,,,,,,,,,,,,,,,,,,,,,,,,,,,,,,,,,,,,,,,3.0,Frustration,1.0,0.0,4.1919233000371605,35,31,Female,0.5714285714285714,1.5,0.8,1.0,3.2777777777777777,1.0,2.6666666666666665,3.3333333333333335,1.5,3.0,2.5,2.25,1.75,1.0,,,,,,,,,,,,,,,,,,,,,,,,,,,,,,,,,,,,-1.487471488322189
3,240704_150925,DEMANDRATING,9.0,-1,,,,,,,,,,,,,,,,,,,,,,,,,,,,,,,,,,,,,,,4.0,MentalDemand,2.0,100.0,3.99905850016512,35,31,Female,0.5714285714285714,1.5,0.8,1.0,3.2777777777777777,1.0,2.6666666666666665,3.3333333333333335,1.5,3.0,2.5,2.25,1.75,1.0,,,,,,,,,,,,,,,,,,,,,,,,,,,,,,,,,,,,1.0479912758633605
4,240704_150928,DEMANDRATING,9.0,-1,,,,,,,,,,,,,,,,,,,,,,,,,,,,,,,,,,,,,,,5.0,Effort,2.0,100.0,2.009987599914893,35,31,Female,0.5714285714285714,1.5,0.8,1.0,3.2777777777777777,1.0,2.6666666666666665,3.3333333333333335,1.5,3.0,2.5,2.25,1.75,1.0,,,,,,,,,,,,,,,,,,,,,,,,,,,,,,,,,,,,1.0479912758633605
5,240704_150932,DEMANDRATING,9.0,-1,,,,,,,,,,,,,,,,,,,,,,,,,,,,,,,,,,,,,,,6.0,Frustration,2.0,100.0,2.189696399960667,35,31,Female,0.5714285714285714,1.5,0.8,1.0,3.2777777777777777,1.0,2.6666666666666665,3.3333333333333335,1.5,3.0,2.5,2.25,1.75,1.0,,,,,,,,,,,,,,,,,,,,,,,,,,,,,,,,,,,,1.0479912758633605
6,240704_150936,DEMANDRATING,9.0,-1,,,,,,,,,,,,,,,,,,,,,,,,,,,,,,,,,,,,,,,7.0,MentalDemand,3.0,74.0,2.8480078000575304,35,31,Female,0.5714285714285714,1.5,0.8,1.0,3.2777777777777777,1.0,2.6666666666666665,3.3333333333333335,1.5,3.0,2.5,2.25,1.75,1.0,,,,,,,,,,,,,,,,,,,,,,,,,,,,,,,,,,,,0.38877095717511767
7,240704_150940,DEMANDRATING,9.0,-1,,,,,,,,,,,,,,,,,,,,,,,,,,,,,,,,,,,,,,,8.0,Effort,3.0,74.0,1.916161100147292,35,31,Female,0.5714285714285714,1.5,0.8,1.0,3.2777777777777777,1.0,2.6666666666666665,3.3333333333333335,1.5,3.0,2.5,2.25,1.75,1.0,,,,,,,,,,,,,,,,,,,,,,,,,,,,,,,,,,,,0.38877095717511767
8,240704_150945,DEMANDRATING,9.0,-1,,,,,,,,,,,,,,,,,,,,,,,,,,,,,,,,,,,,,,,9.0,Frustration,3.0,62.0,4.228018499910832,35,31,Female,0.5714285714285714,1.5,0.8,1.0,3.2777777777777777,1.0,2.6666666666666665,3.3333333333333335,1.5,3.0,2.5,2.25,1.75,1.0,,,,,,,,,,,,,,,,,,,,,,,,,,,,,,,,,,,,0.08451542547285171
