,END,Phase,Block,TrialN,NbackLevel,ISI,Letter_Resp,Letter_RT,Letter_Accuracy,Trial_A_measure,Trial_ACC,Trial_RT,TrialCountCali,CaliEnd_A_measure,ISI_calibrated,TrialIndex,TrialNumber_total,TrialNumber_valid,CueLearning,TrialDemandLearning,CueMapping,OfflineRatingTimePoint,CueFigure,TrialDemand,OfflineRating,OfflineRatingRT,PhaseType,CueLeft,CueDemandLeft,CueRight,CueDemandRight,Choice,ChoiceDemand,TaskDemand,ChoiceRT,CueCheck,CueDemandCheck,CorrectAnswer,Answer,AnswerDemand,AnswerRT,AnswerACC,DemandRatingQuesIndex,QuesTLX,DemandLevel,DemandRating,DemandRatingRT,PID,Age,Gender,BAI_bis,BAI_bas_d,BAI_bas_rr,BAI_bas_fs,NFC,BFI_ext,BFI_agr,BFI_con,BFI_neu,BFI_open,UPPS_lps,UPPS_lpm,UPPS_pu,UPPS_ss,Task_A_measure,Task_ACC,Task_RT,Task_RT_z,Task_RT_log,Task_RT_log_z,cue_i_on_zyg_values,cue_i_on_zyg_zvalues,cue_e_on_zyg_values,cue_e_on_zyg_zvalues,cue_i_on_cor_values,cue_i_on_cor_zvalues,cue_e_on_cor_values,cue_e_on_cor_zvalues,cue_i_on_scr_values,cue_i_on_scr_zvalues,cue_e_on_scr_values,cue_e_on_scr_zvalues,cue_e_true_zyg_values,cue_e_true_zyg_zvalues,cue_e_true_cor_values,cue_e_true_cor_zvalues,cue_e_true_scr_values,cue_e_true_scr_zvalues,cue_e_false_zyg_values,cue_e_false_zyg_zvalues,cue_e_false_cor_values,cue_e_false_cor_zvalues,cue_e_false_scr_values,cue_e_false_scr_zvalues,OfflineRating_z,cue_i_off_zyg_values,cue_i_off_zyg_zvalues,cue_i_off_cor_values,cue_i_off_cor_zvalues,cue_i_off_scr_values,cue_i_off_scr_zvalues,DemandRating_z
0,240704_143337,PRACTICE,0.0,1,1.0,2583.0,,,,,,,,,,25.0,1.0,1.0,cue1.png,Easy,A,,,,,,,,,,,,,,,,,,,,,,,,,,,35,31,Female,0.5714285714285714,1.5,0.8,1.0,3.2777777777777777,1.0,2.6666666666666665,3.3333333333333335,1.5,3.0,2.5,2.25,1.75,1.0,,,,,,,,,,,,,,,,,,,,,,,,,,,,,,,,,,,,,,
0,240704_143544,LEARNING,1.0,1,1.0,2583.0,,,,,,,,,,1.0,1.0,1.0,cue1.png,Easy,A,,,,,,,,,,,,,,,,,,,,,,,,,,,35,31,Female,0.5714285714285714,1.5,0.8,1.0,3.2777777777777777,1.0,2.6666666666666665,3.3333333333333335,1.5,3.0,2.5,2.25,1.75,1.0,1.0,1.0,0.4268713333488752,-0.8317942582775996,-0.851272638213445,-0.9312792689614752,0.0026693487098718347,1.7653081566136746,0.006780989897465891,2.2568823491279812,,,,,,,1.37,-0.09389389195527408,,,,,,,,,,,,,,,,,,,,
1,240704_143604,LEARNING,1.0,2,3.0,2583.0,,,,,,,,,,2.0,2.0,2.0,cue2.png,Hard,A,,,,,,,,,,,,,,,,,,,,,,,,,,,35,31,Female,0.5714285714285714,1.5,0.8,1.0,3.2777777777777777,1.0,2.6666666666666665,3.3333333333333335,1.5,3.0,2.5,2.25,1.75,1.0,1.0,1.0,0.8257035500137135,3.3281400623281283,-0.19151946816904591,3.0040765916629764,1.8799731925101155e-05,0.13865966418106587,,,,,,,1.9869999999999999,0.6399737081956393,1.46,0.06710965921439414,,,,,,,,,,,,,,,,,,,,
2,240704_143622,LEARNING,1.0,3,1.0,2583.0,,,,,,,,,,3.0,3.0,3.0,cue1.png,Easy,A,,,,,,,,,,,,,,,,,,,,,,,,,,,35,31,Female,0.5714285714285714,1.5,0.8,1.0,3.2777777777777777,1.0,2.6666666666666665,3.3333333333333335,1.5,3.0,2.5,2.25,1.75,1.0,1.0,1.0,0.5396655667573214,0.3446819217209636,-0.6168056521019498,0.4672907869500854,-6.803365812626866e-05,0.08536979698936746,0.0074561263935824145,2.505215768017001,,,,,1.5859999999999999,-0.040891532537816175,1.1620000000000001,-0.4659909879918412,,,,,,,,,,,,,,,,,,,,
3,240704_143642,LEARNING,1.0,4,3.0,2583.0,,,,,,,,,,4.0,4.0,4.0,cue2.png,Hard,A,,,,,,,,,,,,,,,,,,,,,,,,,,,35,31,Female,0.5714285714285714,1.5,0.8,1.0,3.2777777777777777,1.0,2.6666666666666665,3.3333333333333335,1.5,3.0,2.5,2.25,1.75,1.0,1.0,1.0,0.8734757999967163,3.826418320636066,-0.1352748544320854,3.339569591694201,0.0014966541990130292,1.0456226220154126,0.00010717023546759309,-0.19792858650651848,,,,,,,1.6029999999999998,0.3229264127395337,,,,,,,,,,,,,,,,,,,,
4,240704_143700,LEARNING,1.0,5,3.0,2583.0,,,,,,,,,,5.0,5.0,5.0,cue2.png,Hard,A,,,,,,,,,,,,,,,,,,,,,,,,,,,35,31,Female,0.5714285714285714,1.5,0.8,1.0,3.2777777777777777,1.0,2.6666666666666665,3.3333333333333335,1.5,3.0,2.5,2.25,1.75,1.0,1.0,1.0,0.5227585166382293,0.16833654360995554,-0.6486356488152334,0.27742832050547883,0.000756913525013721,0.5916419326699928,0.0004675825619074375,-0.06535920868531916,,,0.0008232311463554944,1.1985626471956103,1.4659999999999997,-0.24464172926603242,,,,,,,,,,,,,,,,,,,,,,
5,240704_143717,LEARNING,1.0,6,1.0,2583.0,,,,,,,,,,6.0,6.0,6.0,cue1.png,Easy,A,,,,,,,,,,,,,,,,,,,,,,,,,,,35,31,Female,0.5714285714285714,1.5,0.8,1.0,3.2777777777777777,1.0,2.6666666666666665,3.3333333333333335,1.5,3.0,2.5,2.25,1.75,1.0,1.0,1.0,0.4913905499658237,-0.15884033848684265,-0.7105160499187528,-0.09168153784372611,,,,,0.00047705005807965536,0.3097647866507093,,,1.757,0.2494524977998918,0.0014999999999998348,-2.5420423339074003,,,,,,,,,,,,,,,,,,,,
6,240704_143735,LEARNING,1.0,7,3.0,2583.0,,,,,,,,,,7.0,7.0,7.0,cue2.png,Hard,A,,,,,,,,,,,,,,,,,,,,,,,,,,,35,31,Female,0.5714285714285714,1.5,0.8,1.0,3.2777777777777777,1.0,2.6666666666666665,3.3333333333333335,1.5,3.0,2.5,2.25,1.75,1.0,1.0,1.0,0.4546763666439801,-0.541779792402358,-0.7881693952134582,-0.554875291777561,,,-0.0022061845063432554,-1.0488428763449729,0.0013061441158381494,0.8407782414276789,-0.0014101939720536846,-3.0810965656563916,,,1.468,0.08142108598503135,,,,,,,,,,,,,,,,,,,,
7,240704_143753,LEARNING,1.0,8,3.0,2583.0,,,,,,,,,,8.0,8.0,8.0,cue2.png,Hard,A,,,,,,,,,,,,,,,,,,,,,,,,,,,35,31,Female,0.5714285714285714,1.5,0.8,1.0,3.2777777777777777,1.0,2.6666666666666665,3.3333333333333335,1.5,3.0,2.5,2.25,1.75,1.0,1.0,1.0,0.6713361166184768,1.7180434920595666,-0.3984853484739628,1.7695476390359792,,,,,-0.00014604756016001023,-0.08931323812645758,0.0005715634808839748,0.7163204469828245,,,2.039,1.1028991717392618,,,,,,,,,,,,,,,,,,,,
8,240704_143811,LEARNING,1.0,9,1.0,2583.0,,,,,,,,,,9.0,9.0,9.0,cue1.png,Easy,A,,,,,,,,,,,,,,,,,,,,,,,,,,,35,31,Female,0.5714285714285714,1.5,0.8,1.0,3.2777777777777777,1.0,2.6666666666666665,3.3333333333333335,1.5,3.0,2.5,2.25,1.75,1.0,1.0,1.0,0.4759633666447674,-0.3197502817812913,-0.7424143885426743,-0.2819516563478702,0.005393589874963226,3.437181727367899,,,0.0006987370128687092,0.45174958878495824,0.001686470013809574,2.8526893701113085,2.875,2.1477251639844384,,,,,,,,,,,,,,,,,,,,,,
9,240704_143829,LEARNING,1.0,10,1.0,2583.0,,,,,,,,,,10.0,10.0,10.0,cue1.png,Easy,A,,,,,,,,,,,,,,,,,,,,,,,,,,,35,31,Female,0.5714285714285714,1.5,0.8,1.0,3.2777777777777777,1.0,2.6666666666666665,3.3333333333333335,1.5,3.0,2.5,2.25,1.75,1.0,1.0,1.0,0.5311052166701605,0.2553950170125957,-0.632795129214223,0.3719152960557102,-0.0010560706853101555,-0.5209909811394284,,,0.00011179282287356734,0.0758269064620102,-0.00017965682470278029,-0.7231578122998529,,,0.7439999999999998,-1.2137630367576355,,,,,,,,,,,,,,,,,,,,
10,240704_143847,LEARNING,1.0,11,3.0,2583.0,,,,,,,,,,11.0,11.0,11.0,cue2.png,Hard,A,,,,,,,,,,,,,,,,,,,,,,,,,,,35,31,Female,0.5714285714285714,1.5,0.8,1.0,3.2777777777777777,1.0,2.6666666666666665,3.3333333333333335,1.5,3.0,2.5,2.25,1.75,1.0,1.0,1.0,0.5067607832994933,0.0014756001179413766,-0.6797162145483716,0.09203612829941822,-8.939636433498346e-05,0.07225945111845067,,,-0.0007943485517680864,-0.5045333763817698,,,1.5510000000000002,-0.10031867325021201,,,,,,,,,,,,,,,,,,,,,,
11,240704_143905,LEARNING,1.0,12,1.0,2583.0,,,,,,,,,,12.0,12.0,12.0,cue1.png,Easy,A,,,,,,,,,,,,,,,,,,,,,,,,,,,35,31,Female,0.5714285714285714,1.5,0.8,1.0,3.2777777777777777,1.0,2.6666666666666665,3.3333333333333335,1.5,3.0,2.5,2.25,1.75,1.0,1.0,1.0,0.559543333404387,0.5520127245924116,-0.5806343039980167,0.683048941985431,0.0005534055641237949,0.4667485915040913,-0.0002216410547677041,-0.3188742505953817,,,4.891302020552414e-05,-0.2851753456037095,1.4369999999999998,-0.2938813601420178,,,,,,,,,,,,,,,,,,,,,,
12,240704_143922,LEARNING,1.0,13,1.0,2583.0,,,,,,,,,,13.0,13.0,13.0,cue1.png,Easy,A,,,,,,,,,,,,,,,,,,,,,,,,,,,35,31,Female,0.5714285714285714,1.5,0.8,1.0,3.2777777777777777,1.0,2.6666666666666665,3.3333333333333335,1.5,3.0,2.5,2.25,1.75,1.0,1.0,1.0,0.5388967166654766,0.336662594919303,-0.6182313467213381,0.45878667369892406,,,-0.00037979084182436333,-0.37704600925790305,0.0004065858158381983,0.2646342488537822,-5.4714370865332346e-05,-0.48374476046553244,,,1.347,-0.13503924392085626,,,,,,,,,,,,,,,,,,,,
13,240704_143940,LEARNING,1.0,14,1.0,2583.0,,,,,,,,,,14.0,14.0,14.0,cue1.png,Easy,A,,,,,,,,,,,,,,,,,,,,,,,,,,,35,31,Female,0.5714285714285714,1.5,0.8,1.0,3.2777777777777777,1.0,2.6666666666666665,3.3333333333333335,1.5,3.0,2.5,2.25,1.75,1.0,1.0,1.0,0.4098496999746809,-1.0093347725775856,-0.8919647719202547,-1.1740034181362804,-0.0003937996403725885,-0.1145535956043058,0.00026859374768860994,-0.13855266340133368,,,0.00030538729363046874,0.2062772122077656,,,1.4989999999999999,0.13687786472125035,,,,,,,,,,,,,,,,,,,,
14,240704_143958,LEARNING,1.0,15,3.0,2583.0,,,,,,,,,,15.0,15.0,15.0,cue2.png,Hard,A,,,,,,,,,,,,,,,,,,,,,,,,,,,35,31,Female,0.5714285714285714,1.5,0.8,1.0,3.2777777777777777,1.0,2.6666666666666665,3.3333333333333335,1.5,3.0,2.5,2.25,1.75,1.0,1.0,1.0,0.5450572666789716,0.40091889710384365,-0.6068644133638619,0.5265891941516277,-6.163632109755426e-05,0.08929585861657151,-0.00016253921645648182,-0.2971349998588629,-0.00024886565945687455,-0.1551655905951725,-0.00012354470107539626,-0.6156365146950011,,,,,,,,,,,,,,,,,,,,,,,,
15,240704_144015,LEARNING,1.0,16,1.0,2583.0,,,,,,,,,,16.0,16.0,16.0,cue1.png,Easy,A,,,,,,,,,,,,,,,,,,,,,,,,,,,35,31,Female,0.5714285714285714,1.5,0.8,1.0,3.2777777777777777,1.0,2.6666666666666665,3.3333333333333335,1.5,3.0,2.5,2.25,1.75,1.0,1.0,1.0,0.4395442999278505,-0.699611584930348,-0.8220167707411637,-0.7567712033057296,0.00015633129948447585,0.2230631288571471,4.573676415481126e-05,-0.2205254747699706,0.0001940489326073061,0.12850983259986629,9.943705446439476e-05,-0.1883618697883937,,,,,,,,,,,,,,,,,,,,,,,,
16,240704_144032,LEARNING,1.0,17,1.0,2583.0,,,,,,,,,,17.0,17.0,17.0,cue1.png,Easy,A,,,,,,,,,,,,,,,,,,,,,,,,,,,35,31,Female,0.5714285714285714,1.5,0.8,1.0,3.2777777777777777,1.0,2.6666666666666665,3.3333333333333335,1.5,3.0,2.5,2.25,1.75,1.0,1.0,1.0,0.4065678333475565,-1.04356558204426,-0.9000044922120999,-1.2219594747417606,0.0001410432700159666,0.21368082719280274,0.0006668151721917312,0.007923920801348615,0.0007915471374771834,0.5111920904473964,8.027344448230389e-05,-0.22508292183323433,,,,,,,,,,,,,,,,,,,,,,,,
17,240704_144050,LEARNING,1.0,18,3.0,2583.0,,,,,,,,,,18.0,18.0,18.0,cue2.png,Hard,A,,,,,,,,,,,,,,,,,,,,,,,,,,,35,31,Female,0.5714285714285714,1.5,0.8,1.0,3.2777777777777777,1.0,2.6666666666666665,3.3333333333333335,1.5,3.0,2.5,2.25,1.75,1.0,1.0,1.0,0.6129367666241402,1.1089215350270407,-0.48949350232401795,1.2266939054278116,-0.0009184774558942724,-0.4365496744288236,-3.995357906995574e-05,-0.25204469498867316,-0.0005729129867610575,-0.36270958294779976,0.00029728435194785376,0.1907504641930813,,,,,,,,,,,,,,,,,,,,,,,,
18,240704_144108,LEARNING,1.0,19,3.0,2583.0,,,,,,,,,,19.0,19.0,19.0,cue2.png,Hard,A,,,,,,,,,,,,,,,,,,,,,,,,,,,35,31,Female,0.5714285714285714,1.5,0.8,1.0,3.2777777777777777,1.0,2.6666666666666665,3.3333333333333335,1.5,3.0,2.5,2.25,1.75,1.0,1.0,1.0,0.566736966643172,0.6270443808866659,-0.5678599865185254,0.7592463555651345,-0.0015772158732339486,-0.8408190776311367,-0.00010593868291113766,-0.2763157965020471,0.00022795033699268743,0.1502228115990672,0.0005668053106604376,0.7072029051115379,1.3039999999999998,-0.519704494849124,,,,,,,,,,,,,,,,,,,,,,
19,240704_144127,LEARNING,1.0,20,3.0,2583.0,,,,,,,,,,20.0,20.0,20.0,cue2.png,Hard,A,,,,,,,,,,,,,,,,,,,,,,,,,,,35,31,Female,0.5714285714285714,1.5,0.8,1.0,3.2777777777777777,1.0,2.6666666666666665,3.3333333333333335,1.5,3.0,2.5,2.25,1.75,1.0,1.0,1.0,0.6313085500150919,1.3005445009394931,-0.4599605501946591,1.4028547509088456,2.6596103781028734e-05,0.14344431695730422,6.068699435624091e-05,-0.21502637673504799,0.0003065293131046783,0.20055062807247834,0.0005831698539054608,0.7385604230714697,0.7839999999999998,-1.402622014004727,,,,,,,,,,,,,,,,,,,,,,
20,240704_144144,LEARNING,1.0,21,1.0,2583.0,,,,,,,,,,21.0,21.0,21.0,cue1.png,Easy,A,,,,,,,,,,,,,,,,,,,,,,,,,,,35,31,Female,0.5714285714285714,1.5,0.8,1.0,3.2777777777777777,1.0,2.6666666666666665,3.3333333333333335,1.5,3.0,2.5,2.25,1.75,1.0,1.0,1.0,0.4830410999323551,-0.24592749519363633,-0.7276535359221203,-0.19390477683958152,3.468083297168169e-06,0.1292505933302216,1.7038908811579413e-05,-0.23108132025182598,-2.9585046649199635e-05,-0.014721988710701588,0.0006180933546203722,0.8054803660539647,2.159,0.9320156568394155,0.5070000000000001,-1.6377390548377617,,,,,,,,,,,,,,,,,,,,
21,240704_144202,LEARNING,1.0,22,3.0,2583.0,,,,,,,,,,22.0,22.0,22.0,cue2.png,Hard,A,,,,,,,,,,,,,,,,,,,,,,,,,,,35,31,Female,0.5714285714285714,1.5,0.8,1.0,3.2777777777777777,1.0,2.6666666666666665,3.3333333333333335,1.5,3.0,2.5,2.25,1.75,1.0,1.0,1.0,0.504035516603229,-0.026949712554631935,-0.6851085439427724,0.059871470290659146,-0.0020256835303997106,-1.1160447929463777,-0.0035477325464523934,-1.5423004413270127,-0.0012599331269499674,-0.8027283416509747,,,1.6350000000000002,0.04230646445953936,1.6230000000000002,0.3587049796661275,,,,,,,,,,,,,,,,,,,,
22,240704_144220,LEARNING,1.0,23,3.0,2583.0,,,,,,,,,,23.0,23.0,23.0,cue2.png,Hard,A,,,,,,,,,,,,,,,,,,,,,,,,,,,35,31,Female,0.5714285714285714,1.5,0.8,1.0,3.2777777777777777,1.0,2.6666666666666665,3.3333333333333335,1.5,3.0,2.5,2.25,1.75,1.0,1.0,1.0,0.5851618166392049,0.8192208466984028,-0.5358668603600072,0.9500818713977439,-3.5999944431266365e-05,0.10502896666423187,5.2389518564939595e-05,-0.2180784122023279,-8.995765898153589e-05,-0.05338909668054654,0.0007608662688096046,1.0790599065182056,1.896,0.48546314234340876,,,,,,,,,,,,,,,,,,,,,,
23,240704_144238,LEARNING,1.0,24,3.0,2583.0,,,,,,,,,,24.0,24.0,24.0,cue2.png,Hard,A,,,,,,,,,,,,,,,,,,,,,,,,,,,35,31,Female,0.5714285714285714,1.5,0.8,1.0,3.2777777777777777,1.0,2.6666666666666665,3.3333333333333335,1.5,3.0,2.5,2.25,1.75,1.0,1.0,1.0,0.5581762000607947,0.5377531320138279,-0.5830805957276365,0.6684570780398461,-7.697896602238677e-05,0.07988003931100228,5.7919746224010995e-05,-0.21604424526021848,0.0012042795616258265,0.775536610100781,-8.768485892034043e-05,-0.5469223668217046,1.2140000000000002,-0.6725171423952854,1.344,-0.14040602895984503,,,,,,,,,,,,,,,,,,,,
24,240704_144256,LEARNING,1.0,25,1.0,2583.0,,,,,,,,,,25.0,25.0,25.0,cue1.png,Easy,A,,,,,,,,,,,,,,,,,,,,,,,,,,,35,31,Female,0.5714285714285714,1.5,0.8,1.0,3.2777777777777777,1.0,2.6666666666666665,3.3333333333333335,1.5,3.0,2.5,2.25,1.75,1.0,0.6875,0.75,0.4427619499231999,-0.6660505733368458,-0.8147230124559819,-0.7132647288894916,-0.0003052096152796409,-0.0601856771236437,0.00018912695015959116,-0.16778269559787007,0.0005924228394212456,0.38365809059388073,-0.00010612093464012606,-0.582249327485251,1.3869999999999998,-0.37877727544544126,1.339,-0.14935067069149346,,,,,,,,,,,,,,,,,,,,
25,240704_144313,LEARNING,1.0,26,1.0,2583.0,,,,,,,,,,26.0,26.0,26.0,cue1.png,Easy,A,,,,,,,,,,,,,,,,,,,,,,,,,,,35,31,Female,0.5714285714285714,1.5,0.8,1.0,3.2777777777777777,1.0,2.6666666666666665,3.3333333333333335,1.5,3.0,2.5,2.25,1.75,1.0,1.0,1.0,0.4386881999671459,-0.7085409528690393,-0.8239663688987628,-0.768400344147681,,,-0.002470040941345526,-1.1458963921553125,0.00020595923501226954,0.13613807546123335,0.00032919539674499104,0.2518979796088102,1.242,-0.6249754298253687,0.96,-0.8273545139504308,,,,,,,,,,,,,,,,,,,,
26,240704_144331,LEARNING,1.0,27,3.0,2583.0,,,,,,,,,,27.0,27.0,27.0,cue2.png,Hard,A,,,,,,,,,,,,,,,,,,,,,,,,,,,35,31,Female,0.5714285714285714,1.5,0.8,1.0,3.2777777777777777,1.0,2.6666666666666665,3.3333333333333335,1.5,3.0,2.5,2.25,1.75,1.0,1.0,1.0,0.5702259000002717,0.6634349556899602,-0.5617226808759503,0.7958547158210254,,,-0.00366276038558764,-1.5846107840861192,0.0011976780558157953,0.7713085151408531,9.681474045800283e-05,-0.19338671266489887,0.236,-2.3330812457302468,2.091,1.1959234457484036,,,,,,,,,,,,,,,,,,,,
27,240704_144350,LEARNING,1.0,28,1.0,2583.0,,,,,,,,,,28.0,28.0,28.0,cue1.png,Easy,A,,,,,,,,,,,,,,,,,,,,,,,,,,,35,31,Female,0.5714285714285714,1.5,0.8,1.0,3.2777777777777777,1.0,2.6666666666666665,3.3333333333333335,1.5,3.0,2.5,2.25,1.75,1.0,1.0,1.0,0.661679433270668,1.617321517245958,-0.41297408009947545,1.6831239316491107,2.0698060849855954e-05,0.13982467335814044,0.005095115170710169,1.6367721386416216,0.0007161048399584686,0.4628732360703289,-0.0002814735778352267,-0.9182577070643217,1.9989999999999999,0.6603487278684609,1.375,-0.08494925022362602,,,,,,,,,,,,,,,,,,,,
28,240704_144407,LEARNING,1.0,29,1.0,2583.0,,,,,,,,,,29.0,29.0,29.0,cue1.png,Easy,A,,,,,,,,,,,,,,,,,,,,,,,,,,,35,31,Female,0.5714285714285714,1.5,0.8,1.0,3.2777777777777777,1.0,2.6666666666666665,3.3333333333333335,1.5,3.0,2.5,2.25,1.75,1.0,0.6875,0.75,0.4396558666679387,-0.6984479118574651,-0.8217629792954251,-0.755257364951157,-0.0014323143894098998,-0.7518926770345982,0.0001476654905548892,-0.18303333909735522,-0.0005684182275411797,-0.35983080508248644,0.00036197333450696447,0.3147066236797771,1.332,-0.4721627822792065,0.619,-1.4373790800488413,,,,,,,,,,,,,,,,,,,,
29,240704_144425,LEARNING,1.0,30,3.0,2583.0,,,,,,,,,,30.0,30.0,30.0,cue2.png,Hard,A,,,,,,,,,,,,,,,,,,,,,,,,,,,35,31,Female,0.5714285714285714,1.5,0.8,1.0,3.2777777777777777,1.0,2.6666666666666665,3.3333333333333335,1.5,3.0,2.5,2.25,1.75,1.0,1.0,1.0,0.4834456167106206,-0.24170826926640507,-0.7268164487797508,-0.18891164313268993,-0.004347405154712294,-2.540891121559343,9.533625361649598e-05,-0.20228144431980186,,,-0.000487780900824057,-1.3135810282853484,1.924,0.5330048549133259,2.422,1.7880587283835176,,,,,,,,,,,,,,,,,,,,
30,240704_144442,LEARNING,1.0,31,3.0,2583.0,,,,,,,,,,31.0,31.0,31.0,cue2.png,Hard,A,,,,,,,,,,,,,,,,,,,,,,,,,,,35,31,Female,0.5714285714285714,1.5,0.8,1.0,3.2777777777777777,1.0,2.6666666666666665,3.3333333333333335,1.5,3.0,2.5,2.25,1.75,1.0,1.0,1.0,0.4924660999871169,-0.14762204352431302,-0.708329653252528,-0.07863991966779701,-0.00010555961432178775,0.06234002444774874,0.00012654342591617452,-0.1908026043583782,0.00022925462099191492,0.15105817200957666,0.00014455997795784215,-0.1018979298748421,,,1.1520000000000001,-0.4838802714551377,,,,,,,,,,,,,,,,,,,,
31,240704_144500,LEARNING,1.0,32,1.0,2583.0,,,,,,,,,,32.0,32.0,32.0,cue1.png,Easy,A,,,,,,,,,,,,,,,,,,,,,,,,,,,35,31,Female,0.5714285714285714,1.5,0.8,1.0,3.2777777777777777,1.0,2.6666666666666665,3.3333333333333335,1.5,3.0,2.5,2.25,1.75,1.0,1.0,1.0,0.4807696667655061,-0.2696191940908645,-0.7323669868413851,-0.22201999862418634,-0.0007875088588589906,-0.3561739210675377,0.005964375157267419,1.956509414891502,0.00021869999867630066,0.14429820743470934,-5.930487361877762e-06,-0.3902657381542912,1.41,-0.3397251544058663,,,,,,,,,,,,,,,,,,,,,,
32,240704_144517,LEARNING,1.0,33,1.0,2583.0,,,,,,,,,,33.0,33.0,33.0,cue1.png,Easy,A,,,,,,,,,,,,,,,,,,,,,,,,,,,35,31,Female,0.5714285714285714,1.5,0.8,1.0,3.2777777777777777,1.0,2.6666666666666665,3.3333333333333335,1.5,3.0,2.5,2.25,1.75,1.0,1.0,1.0,0.489283166709356,-0.18082094980394922,-0.7148138840800835,-0.11731765089741013,0.0008568038887666858,0.6529448970593459,0.0009232357764535574,0.10224233744185174,0.0011032751995756485,0.7108459097659922,-0.00046045030072464424,-1.2612104994755275,1.0099999999999998,-1.0188924768332535,1.337,-0.15292852738415277,,,,,,,,,,,,,,,,,,,,
33,240704_144534,LEARNING,1.0,34,1.0,2583.0,,,,,,,,,,34.0,34.0,34.0,cue1.png,Easy,A,,,,,,,,,,,,,,,,,,,,,,,,,,,35,31,Female,0.5714285714285714,1.5,0.8,1.0,3.2777777777777777,1.0,2.6666666666666665,3.3333333333333335,1.5,3.0,2.5,2.25,1.75,1.0,1.0,1.0,0.4162101833305011,-0.9429931083339644,-0.876564897925238,-1.0821448456718408,7.620556775983413e-05,0.17388976824416416,-0.0001222887031435034,-0.2823297750775843,8.692421303878317e-05,0.05989920043119951,-0.000486339289239952,-1.310818631531405,0.7570000000000001,-1.448465808268575,2.3470000000000004,1.6538891024087943,,,,,,,,,,,,,,,,,,,,
34,240704_144552,LEARNING,1.0,35,3.0,2583.0,,,,,,,,,,35.0,35.0,35.0,cue2.png,Hard,A,,,,,,,,,,,,,,,,,,,,,,,,,,,35,31,Female,0.5714285714285714,1.5,0.8,1.0,3.2777777777777777,1.0,2.6666666666666665,3.3333333333333335,1.5,3.0,2.5,2.25,1.75,1.0,1.0,1.0,0.5147646833599234,0.0849585715752397,-0.6640454082553857,0.1855107824366047,0.00018313507831214893,0.23951267451138616,,,0.0005161381693089126,0.3347997182007801,0.00019976794569966875,0.003890836366595792,2.764,1.9592562320108382,2.2270000000000003,1.4392177008492362,,,,,,,,,,,,,,,,,,,,
35,240704_144609,LEARNING,1.0,36,3.0,2583.0,,,,,,,,,,36.0,36.0,36.0,cue2.png,Hard,A,,,,,,,,,,,,,,,,,,,,,,,,,,,35,31,Female,0.5714285714285714,1.5,0.8,1.0,3.2777777777777777,1.0,2.6666666666666665,3.3333333333333335,1.5,3.0,2.5,2.25,1.75,1.0,1.0,1.0,0.4111326666704069,-0.9959530622574545,-0.8888393266190427,-1.155360477046118,-0.0031049575537555308,-1.7783979422827876,1.4648207678358803e-05,-0.2319606846312804,-0.007160573159558691,-4.581936767751587,0.0003737830143408314,0.3373361735515188,1.952,0.580546567483243,0.976,-0.7987316604091563,,,,,,,,,,,,,,,,,,,,
36,240704_144627,LEARNING,1.0,37,1.0,2583.0,,,,,,,,,,37.0,37.0,37.0,cue1.png,Easy,A,,,,,,,,,,,,,,,,,,,,,,,,,,,35,31,Female,0.5714285714285714,1.5,0.8,1.0,3.2777777777777777,1.0,2.6666666666666665,3.3333333333333335,1.5,3.0,2.5,2.25,1.75,1.0,1.0,1.0,0.4807750666514039,-0.2695628717334042,-0.7323557551519791,-0.22195300281918617,,,0.00014083042780259087,-0.18554745959204447,0.0001418214643450072,0.09505948025842381,0.00016772178973488514,-0.057515577253783354,1.6139999999999999,0.006650180032100952,0.8939999999999999,-0.9454237848081878,,,,,,,,,,,,,,,,,,,,
37,240704_144644,LEARNING,1.0,38,3.0,2583.0,,,,,,,,,,38.0,38.0,38.0,cue2.png,Hard,A,,,,,,,,,,,,,,,,,,,,,,,,,,,35,31,Female,0.5714285714285714,1.5,0.8,1.0,3.2777777777777777,1.0,2.6666666666666665,3.3333333333333335,1.5,3.0,2.5,2.25,1.75,1.0,1.0,1.0,0.488850549988759,-0.18533326618282342,-0.7156984599645888,-0.12259404978310359,0.002427958802910526,1.6171665710349636,-4.381993360189204e-05,-0.25346684450225404,0.0017113250899485968,1.1002862512353662,-0.0001297906265400545,-0.6276048731760104,1.1910000000000003,-0.71156926343486,0.5549999999999999,-1.551870494213939,,,,,,,,,,,,,,,,,,,,
38,240704_144702,LEARNING,1.0,39,3.0,2583.0,,,,,,,,,,39.0,39.0,39.0,cue2.png,Hard,A,,,,,,,,,,,,,,,,,,,,,,,,,,,35,31,Female,0.5714285714285714,1.5,0.8,1.0,3.2777777777777777,1.0,2.6666666666666665,3.3333333333333335,1.5,3.0,2.5,2.25,1.75,1.0,1.0,1.0,0.4041870666745429,-1.0683976607445276,-0.9058774718660987,-1.256991159241491,,,,,,,0.0014477639338150335,2.3952839858913655,,,1.617,0.3479714095881492,,,,,,,,,,,,,,,,,,,,
39,240704_144719,LEARNING,1.0,40,3.0,2583.0,,,,,,,,,,40.0,40.0,40.0,cue2.png,Hard,A,,,,,,,,,,,,,,,,,,,,,,,,,,,35,31,Female,0.5714285714285714,1.5,0.8,1.0,3.2777777777777777,1.0,2.6666666666666665,3.3333333333333335,1.5,3.0,2.5,2.25,1.75,1.0,1.0,1.0,0.4284077500148366,-0.8157689921320253,-0.8476798499679826,-0.9098486780681999,2.74590979208629e-05,0.14397393860482682,-0.0005204495573394767,-0.4287840798870717,0.00031998868017454017,0.2091710070753159,0.00047614984279905487,0.5334901152667093,2.253,1.0916199776098519,1.4070000000000003,-0.02770354314107678,,,,,,,,,,,,,,,,,,,,
40,240704_144736,LEARNING,1.0,41,1.0,2583.0,,,,,,,,,,41.0,41.0,41.0,cue1.png,Easy,A,,,,,,,,,,,,,,,,,,,,,,,,,,,35,31,Female,0.5714285714285714,1.5,0.8,1.0,3.2777777777777777,1.0,2.6666666666666665,3.3333333333333335,1.5,3.0,2.5,2.25,1.75,1.0,1.0,1.0,0.497350350022316,-0.09667791588650239,-0.6984605716093242,-0.01977192168462784,-0.003981316589944585,-2.3162216599003034,-0.0001245884615044021,-0.28317568825168415,,,,,1.1050000000000002,-0.8575902377567484,1.412,-0.018758901409429117,,,,,,,,,,,,,,,,,,,,
41,240704_144754,LEARNING,1.0,42,3.0,2583.0,,,,,,,,,,42.0,42.0,42.0,cue2.png,Hard,A,,,,,,,,,,,,,,,,,,,,,,,,,,,35,31,Female,0.5714285714285714,1.5,0.8,1.0,3.2777777777777777,1.0,2.6666666666666665,3.3333333333333335,1.5,3.0,2.5,2.25,1.75,1.0,1.0,1.0,0.467881283412377,-0.4040487261285455,-0.7595406831659111,-0.38410813997916565,0.0002609140404371724,0.28724581679108524,-0.0006152868881256039,-0.4636678089224564,0.0008333653970177893,0.5379756118869934,0.000572930183066026,0.7189393033467248,2.4270000000000005,1.3870577628657659,,,,,,,,,,,,,,,,,,,,,,
42,240704_144811,LEARNING,1.0,43,3.0,2583.0,,,,,,,,,,43.0,43.0,43.0,cue2.png,Hard,A,,,,,,,,,,,,,,,,,,,,,,,,,,,35,31,Female,0.5714285714285714,1.5,0.8,1.0,3.2777777777777777,1.0,2.6666666666666665,3.3333333333333335,1.5,3.0,2.5,2.25,1.75,1.0,0.6875,0.75,0.477971133387958,-0.29880869924662823,-0.7382049387160163,-0.2568427462319429,,,0.0005548652286924815,-0.03325428889923179,0.0005091901919077072,0.330349717083294,0.000670375361441742,0.9056624452807076,1.9890000000000003,0.643369544807777,2.729,2.33725973070672,,,,,,,,,,,,,,,,,,,,
43,240704_144829,LEARNING,1.0,44,1.0,2583.0,,,,,,,,,,44.0,44.0,44.0,cue1.png,Easy,A,,,,,,,,,,,,,,,,,,,,,,,,,,,35,31,Female,0.5714285714285714,1.5,0.8,1.0,3.2777777777777777,1.0,2.6666666666666665,3.3333333333333335,1.5,3.0,2.5,2.25,1.75,1.0,1.0,1.0,0.4375012999710937,-0.7209206599799459,-0.8266756018263824,-0.78456062372434,-0.0016105845663170288,-0.8612975274729074,0.009677428117360913,3.3222704741734606,0.0008929003166359495,0.5761061991834197,-6.804699766121795e-06,-0.39194089222100886,2.5210000000000004,1.5466620836362015,1.5560000000000003,0.23884678046204108,,,,,,,,,,,,,,,,,,,,
44,240704_144846,LEARNING,1.0,45,1.0,2583.0,,,,,,,,,,45.0,45.0,45.0,cue1.png,Easy,A,,,,,,,,,,,,,,,,,,,,,,,,,,,35,31,Female,0.5714285714285714,1.5,0.8,1.0,3.2777777777777777,1.0,2.6666666666666665,3.3333333333333335,1.5,3.0,2.5,2.25,1.75,1.0,1.0,1.0,0.4645052500224362,-0.43926172191852125,-0.7667824182680346,-0.4273043017699667,-0.0005912069593032804,-0.23570295764421234,,,-0.0008448705214490282,-0.536891400675111,0.0005236896407570359,0.6245852375660915,1.3929999999999998,-0.36858976560903045,1.8359999999999999,0.7397467174343423,,,,,,,,,,,,,,,,,,,,
45,240704_144903,LEARNING,1.0,46,1.0,2583.0,,,,,,,,,,46.0,46.0,46.0,cue1.png,Easy,A,,,,,,,,,,,,,,,,,,,,,,,,,,,35,31,Female,0.5714285714285714,1.5,0.8,1.0,3.2777777777777777,1.0,2.6666666666666665,3.3333333333333335,1.5,3.0,2.5,2.25,1.75,1.0,1.0,1.0,0.430205100060751,-0.7970221160529926,-0.8434932071263772,-0.8848758091361044,-0.00013597438055523887,0.04367440685193318,-0.0001243422604046895,-0.2830851288445457,-0.005021647666989145,-3.2120099124191714,0.00018710517202326533,-0.020373400467581012,1.6560000000000001,0.07796274888697702,1.232,-0.340766003748766,,,,,,,,,,,,,,,,,,,,
46,240704_144920,LEARNING,1.0,47,3.0,2583.0,,,,,,,,,,47.0,47.0,47.0,cue2.png,Hard,A,,,,,,,,,,,,,,,,,,,,,,,,,,,35,31,Female,0.5714285714285714,1.5,0.8,1.0,3.2777777777777777,1.0,2.6666666666666665,3.3333333333333335,1.5,3.0,2.5,2.25,1.75,1.0,1.0,1.0,0.4057837999813879,-1.0517432747484716,-0.9019347735765801,-1.233473393014939,,,-4.250187825683392e-05,-0.2529820281843598,,,,,0.4900000000000002,-1.9018099959888557,1.7970000000000002,0.6699785119274865,,,,,,,,,,,,,,,,,,,,
47,240704_144938,LEARNING,1.0,48,3.0,2583.0,,,,,,,,,,48.0,48.0,48.0,cue2.png,Hard,A,,,,,,,,,,,,,,,,,,,,,,,,,,,35,31,Female,0.5714285714285714,1.5,0.8,1.0,3.2777777777777777,1.0,2.6666666666666665,3.3333333333333335,1.5,3.0,2.5,2.25,1.75,1.0,0.6875,0.75,0.4165548166492954,-0.939398484050938,-0.8757372134320682,-1.0772077977441676,-0.0004937371911891437,-0.17588551881180955,,,0.0008999502107639055,0.5806214753474037,,,1.335,-0.46706902736100125,1.802,0.6789231536591345,,,,,,,,,,,,,,,,,,,,
48,240704_144955,LEARNING,1.0,49,1.0,2583.0,,,,,,,,,,49.0,49.0,49.0,cue1.png,Easy,A,,,,,,,,,,,,,,,,,,,,,,,,,,,35,31,Female,0.5714285714285714,1.5,0.8,1.0,3.2777777777777777,1.0,2.6666666666666665,3.3333333333333335,1.5,3.0,2.5,2.25,1.75,1.0,1.0,1.0,0.4520546500183021,-0.5691250481624404,-0.7939521993384453,-0.5893690890602323,,,,,-0.00012006985520336341,-0.07267518514909077,-0.00024162779014600799,-0.841905743897107,,,,,,,,,,,,,,,,,,,,,,,,
49,240704_145013,LEARNING,1.0,50,1.0,2583.0,,,,,,,,,,50.0,50.0,50.0,cue1.png,Easy,A,,,,,,,,,,,,,,,,,,,,,,,,,,,35,31,Female,0.5714285714285714,1.5,0.8,1.0,3.2777777777777777,1.0,2.6666666666666665,3.3333333333333335,1.5,3.0,2.5,2.25,1.75,1.0,1.0,1.0,0.4772907499379168,-0.30590529362074054,-0.7396294351331132,-0.2653397123368324,5.1289442631084065e-05,0.1585986803543866,,,0.0007002063695245916,0.45269067399337126,-2.171417233148322e-05,-0.42051022328887194,2.325,1.2138700956467816,1.36,-0.1117831754185706,,,,,,,,,,,,,,,,,,,,
0,240704_145144,TrueCHOICE,9.0,1,1.0,2583.0,,,,,,,,,,,1.0,1.0,,,A,,,,,,True,cue1.png,Easy,cue2.png,Hard,Left,Easy,Easy,0.0161284999921917,,,,,,,,,,,,,35,31,Female,0.5714285714285714,1.5,0.8,1.0,3.2777777777777777,1.0,2.6666666666666665,3.3333333333333335,1.5,3.0,2.5,2.25,1.75,1.0,1.0,1.0,0.6268048333004117,1.9557115395758666,-0.4671200574572323,1.8596858084079393,,,,,,,,,,,,,-0.00020073875637265396,-0.18092071776505528,,,,,,,,,,,,,,,,,,
1,240704_145159,TrueCHOICE,9.0,2,1.0,2583.0,,,,,,,,,,,2.0,2.0,,,A,,,,,,True,cue1.png,Easy,cue2.png,Hard,Left,Easy,Easy,0.0174220998305827,,,,,,,,,,,,,35,31,Female,0.5714285714285714,1.5,0.8,1.0,3.2777777777777777,1.0,2.6666666666666665,3.3333333333333335,1.5,3.0,2.5,2.25,1.75,1.0,,,,,,,,,,,,,,,,,,,0.00019007067350378798,0.273012957827678,,,1.9770000000000003,1.7032890420449194,,,,,,,,,,,,,,
2,240704_145214,TrueCHOICE,9.0,3,1.0,2583.0,,,,,,,,,,,3.0,3.0,,,A,,,,,,True,cue2.png,Hard,cue1.png,Easy,Right,Easy,Easy,0.0181052000261843,,,,,,,,,,,,,35,31,Female,0.5714285714285714,1.5,0.8,1.0,3.2777777777777777,1.0,2.6666666666666665,3.3333333333333335,1.5,3.0,2.5,2.25,1.75,1.0,1.0,1.0,0.4043195999693125,-0.7292459799847524,-0.9055496247340352,-0.7377218848245888,,,,,,,,,,,,,,,4.574995021036556e-05,-0.6399750256301374,1.5979999999999999,0.24112245782062822,,,,,,,,,,,,,,
3,240704_145229,TrueCHOICE,9.0,4,1.0,2583.0,,,,,,,,,,,4.0,4.0,,,A,,,,,,True,cue1.png,Easy,cue2.png,Hard,Left,Easy,Easy,0.0151239000260829,,,,,,,,,,,,,35,31,Female,0.5714285714285714,1.5,0.8,1.0,3.2777777777777777,1.0,2.6666666666666665,3.3333333333333335,1.5,3.0,2.5,2.25,1.75,1.0,1.0,1.0,0.415484166626508,-0.5945117023427732,-0.8783107722081245,-0.5763495450321895,,,,,,,,,,,,,-0.0016220888767358096,-1.8318498794401117,0.0007135355834187,1.0063936903329798,,,,,,,,,,,,,,,,
4,240704_145243,TrueCHOICE,9.0,5,1.0,2583.0,,,,,,,,,,,5.0,5.0,,,A,,,,,,True,cue2.png,Hard,cue1.png,Easy,Right,Easy,Easy,0.0156000000424683,,,,,,,,,,,,,35,31,Female,0.5714285714285714,1.5,0.8,1.0,3.2777777777777777,1.0,2.6666666666666665,3.3333333333333335,1.5,3.0,2.5,2.25,1.75,1.0,1.0,1.0,0.5683754666630799,1.2505844398253798,-0.5649730457894351,1.2799710180060648,,,,,,,,,,,,,-1.0285920421994332e-05,0.04029440459643862,0.0004474555602159867,0.3503960103005005,1.467,-0.2642702137714077,,,,,,,,,,,,,,
5,240704_145258,TrueCHOICE,9.0,6,1.0,2583.0,,,,,,,,,,,6.0,6.0,,,A,,,,,,True,cue2.png,Hard,cue1.png,Easy,Right,Easy,Easy,0.0165812000632286,,,,,,,,,,,,,35,31,Female,0.5714285714285714,1.5,0.8,1.0,3.2777777777777777,1.0,2.6666666666666665,3.3333333333333335,1.5,3.0,2.5,2.25,1.75,1.0,1.0,1.0,0.3661350833329682,-1.1900577090983238,-1.0047529335293715,-1.3254364385203876,,,,,,,,,,,,,,,0.0007576164033022675,1.1150712048246236,1.4649999999999999,-0.27198613242166864,,,,,,,,,,,,,,
6,240704_145313,TrueCHOICE,9.0,7,1.0,2583.0,,,,,,,,,,,7.0,7.0,,,A,,,,,,True,cue1.png,Easy,cue2.png,Hard,Left,Easy,Easy,0.0161780000198632,,,,,,,,,,,,,35,31,Female,0.5714285714285714,1.5,0.8,1.0,3.2777777777777777,1.0,2.6666666666666665,3.3333333333333335,1.5,3.0,2.5,2.25,1.75,1.0,,,,,,,,,,,,,,,,,,,0.0003686837264377414,0.48047591401269796,0.0006399838006924813,0.8250580220258055,1.1,-1.6801412860941365,,,,,,,,,,,,,,
7,240704_145328,TrueCHOICE,9.0,8,1.0,2583.0,,,,,,,,,,,8.0,8.0,,,A,,,,,,True,cue2.png,Hard,cue1.png,Easy,Right,Easy,Easy,0.0166668999008834,,,,,,,,,,,,,35,31,Female,0.5714285714285714,1.5,0.8,1.0,3.2777777777777777,1.0,2.6666666666666665,3.3333333333333335,1.5,3.0,2.5,2.25,1.75,1.0,1.0,1.0,0.4199716500006616,-0.5403566375371629,-0.8675680699813753,-0.5127060786866637,,,,,,,,,,,,,,,-0.00024278973933342975,-1.351345103923529,1.606,0.2719861324216695,,,,,,,,,,,,,,
8,240704_145343,TrueCHOICE,9.0,9,1.0,2583.0,,,,,,,,,,,9.0,9.0,,,A,,,,,,True,cue1.png,Easy,cue2.png,Hard,Left,Easy,Easy,0.015867100097239,,,,,,,,,,,,,35,31,Female,0.5714285714285714,1.5,0.8,1.0,3.2777777777777777,1.0,2.6666666666666665,3.3333333333333335,1.5,3.0,2.5,2.25,1.75,1.0,1.0,1.0,0.4538335166483496,-0.13171075969246823,-0.790024851610661,-0.05331335751340914,,,,,,,,,,,,,-0.0004945882436755665,-0.5222333055514432,-0.0002242345240778985,-1.3055987979302437,,,,,,,,,,,,,,,,
9,240704_145359,TrueCHOICE,9.0,10,1.0,2583.0,,,,,,,,,,,10.0,10.0,,,A,,,,,,True,cue2.png,Hard,cue1.png,Easy,Right,Easy,Easy,0.0165735001210123,,,,,,,,,,,,,35,31,Female,0.5714285714285714,1.5,0.8,1.0,3.2777777777777777,1.0,2.6666666666666665,3.3333333333333335,1.5,3.0,2.5,2.25,1.75,1.0,1.0,1.0,0.4630560333607718,-0.02041319074576468,-0.7699072098410432,0.06587047816323667,,,,,,,,,,,,,0.0014541086436199889,1.7412206263197956,,,,,,,,,,,,,,,,,,
0,240704_145536,FalseCHOICE,9.0,1,2.0,2583.0,,,,,,,,,,,1.0,1.0,,,A,,,,,,False,cue1.png,Easy,cue2.png,Hard,Left,Easy,Mid,0.0165144999045878,,,,,,,,,,,,,35,31,Female,0.5714285714285714,1.5,0.8,1.0,3.2777777777777777,1.0,2.6666666666666665,3.3333333333333335,1.5,3.0,2.5,2.25,1.75,1.0,1.0,1.0,0.4706807334441691,0.5929697339835318,-0.7535752631226253,0.6696359074909156,,,,,,,,,,,,,,,,,,,,,0.00023705090518725755,0.5351486248030489,1.5150000000000001,0.18403722298193934,,,,,,,,
1,240704_145553,FalseCHOICE,9.0,2,2.0,2583.0,,,,,,,,,,,2.0,2.0,,,A,,,,,,False,cue2.png,Hard,cue1.png,Easy,Left,Hard,Mid,0.0151189998723566,,,,,,,,,,,,,35,31,Female,0.5714285714285714,1.5,0.8,1.0,3.2777777777777777,1.0,2.6666666666666665,3.3333333333333335,1.5,3.0,2.5,2.25,1.75,1.0,,,,,,,,,,,,,,,,,,,,,,,,,-0.0003164786006174475,-0.400856638233645,-0.00014493814666439054,-0.1632317110072285,1.454,0.057121522446603804,,,,,,,,
2,240704_145610,FalseCHOICE,9.0,3,2.0,2583.0,,,,,,,,,,,3.0,3.0,,,A,,,,,,False,cue2.png,Hard,cue1.png,Easy,Right,Easy,Mid,0.0167481999378651,,,,,,,,,,,,,35,31,Female,0.5714285714285714,1.5,0.8,1.0,3.2777777777777777,1.0,2.6666666666666665,3.3333333333333335,1.5,3.0,2.5,2.25,1.75,1.0,,,,,,,,,,,,,,,,,,,,,,,,,-0.00013279981409708777,-0.23159365496789125,-0.0006091819153052442,-1.0119961388608938,1.457,0.06336327821063692,,,,,,,,
3,240704_145627,FalseCHOICE,9.0,4,2.0,2583.0,,,,,,,,,,,4.0,4.0,,,A,,,,,,False,cue2.png,Hard,cue1.png,Easy,Left,Hard,Mid,0.0161936001386493,,,,,,,,,,,,,35,31,Female,0.5714285714285714,1.5,0.8,1.0,3.2777777777777777,1.0,2.6666666666666665,3.3333333333333335,1.5,3.0,2.5,2.25,1.75,1.0,1.0,1.0,0.5937079500484591,2.5068471408359456,-0.5213677471122257,2.3101315665996505,,,,,,,,,,,,,,,,,,,0.00010131279748266248,-0.015855083264442016,0.0002924892549729611,0.6365050724615114,1.9409999999999998,1.0703665414746075,,,,,,,,
4,240704_145643,FalseCHOICE,9.0,5,2.0,2583.0,,,,,,,,,,,5.0,5.0,,,A,,,,,,False,cue1.png,Easy,cue2.png,Hard,Left,Easy,Mid,0.0163970000576227,,,,,,,,,,,,,35,31,Female,0.5714285714285714,1.5,0.8,1.0,3.2777777777777777,1.0,2.6666666666666665,3.3333333333333335,1.5,3.0,2.5,2.25,1.75,1.0,,,,,,,,,,,,,,,,,,,,,,,,,-0.0001901097092353336,-0.2844056535961148,-0.0006408435639504518,-1.0698822816860933,1.5870000000000002,0.33383936131872854,,,,,,,,
5,240704_145659,FalseCHOICE,9.0,6,2.0,2583.0,,,,,,,,,,,6.0,6.0,,,A,,,,,,False,cue2.png,Hard,cue1.png,Easy,Right,Easy,Mid,0.0166038000024855,,,,,,,,,,,,,35,31,Female,0.5714285714285714,1.5,0.8,1.0,3.2777777777777777,1.0,2.6666666666666665,3.3333333333333335,1.5,3.0,2.5,2.25,1.75,1.0,0.6875,0.75,0.5077216166925306,1.169197592628145,-0.6778219802465366,1.2048163954295312,,,,,,,,,,,,,,,,,,,0.00017470510054161652,0.05177711531351349,-0.00043464864659782665,-0.6929016459190125,1.5930000000000002,0.34632287284679436,,,,,,,,
6,240704_145716,FalseCHOICE,9.0,7,2.0,2583.0,,,,,,,,,,,7.0,7.0,,,A,,,,,,False,cue2.png,Hard,cue1.png,Easy,Left,Hard,Mid,0.0160880999173969,,,,,,,,,,,,,35,31,Female,0.5714285714285714,1.5,0.8,1.0,3.2777777777777777,1.0,2.6666666666666665,3.3333333333333335,1.5,3.0,2.5,2.25,1.75,1.0,1.0,1.0,0.3616732833130906,-1.1028086615848145,-1.017014006968131,-1.1915015920388359,,,,,,,,,,,,,,,,,,,-0.0008178326859704949,-0.8628625659019652,0.0009518906692594477,1.8420709883192685,,,,,,,,,,
7,240704_145732,FalseCHOICE,9.0,8,2.0,2583.0,,,,,,,,,,,8.0,8.0,,,A,,,,,,False,cue1.png,Easy,cue2.png,Hard,Left,Easy,Mid,0.016687799943611,,,,,,,,,,,,,35,31,Female,0.5714285714285714,1.5,0.8,1.0,3.2777777777777777,1.0,2.6666666666666665,3.3333333333333335,1.5,3.0,2.5,2.25,1.75,1.0,,,,,,,,,,,,,,,,,,,,,,,,,-0.000381385259927417,-0.46066917835733306,0.0006019310854239405,1.2022492696225107,,,,,,,,,,
8,240704_145748,FalseCHOICE,9.0,9,2.0,2583.0,,,,,,,,,,,9.0,9.0,,,A,,,,,,False,cue1.png,Easy,cue2.png,Hard,Left,Easy,Mid,0.0162158999592065,,,,,,,,,,,,,35,31,Female,0.5714285714285714,1.5,0.8,1.0,3.2777777777777777,1.0,2.6666666666666665,3.3333333333333335,1.5,3.0,2.5,2.25,1.75,1.0,0.6875,0.75,0.6001404833514243,2.606915081062284,-0.510591512253189,2.386263325000589,,,,,,,,,,,,,,,,,,,-0.00012118747444071504,-0.22089269548221324,0.00012942167109117157,0.338372983494304,,,,,,,,,,
9,240704_145803,FalseCHOICE,9.0,10,2.0,2583.0,,,,,,,,,,,10.0,10.0,,,A,,,,,,False,cue2.png,Hard,cue1.png,Easy,Right,Easy,Mid,0.0167955998331308,,,,,,,,,,,,,35,31,Female,0.5714285714285714,1.5,0.8,1.0,3.2777777777777777,1.0,2.6666666666666665,3.3333333333333335,1.5,3.0,2.5,2.25,1.75,1.0,,,,,,,,,,,,,,,,,,,,,,,,,0.0010924713656869905,0.8975136258928437,-0.0006025510499806045,-0.9998731056752906,1.421,-0.011537790957757692,,,,,,,,
10,240704_145818,FalseCHOICE,9.0,11,2.0,2583.0,,,,,,,,,,,11.0,11.0,,,A,,,,,,False,cue1.png,Easy,cue2.png,Hard,Left,Easy,Mid,0.0163577001076191,,,,,,,,,,,,,35,31,Female,0.5714285714285714,1.5,0.8,1.0,3.2777777777777777,1.0,2.6666666666666665,3.3333333333333335,1.5,3.0,2.5,2.25,1.75,1.0,1.0,1.0,0.4640845167062555,0.49035544639869527,-0.7676885952690016,0.5699282816591443,,,,,,,,,,,,,,,,,,,0.002018430332555509,1.750799844094574,0.00037179463148248083,0.7814969647940401,,,,,,,,,,
11,240704_145834,FalseCHOICE,9.0,12,2.0,2583.0,,,,,,,,,,,12.0,12.0,,,A,,,,,,False,cue2.png,Hard,cue1.png,Easy,Right,Easy,Mid,0.0163880998734384,,,,,,,,,,,,,35,31,Female,0.5714285714285714,1.5,0.8,1.0,3.2777777777777777,1.0,2.6666666666666665,3.3333333333333335,1.5,3.0,2.5,2.25,1.75,1.0,,,,,,,,,,,,,,,,,,,,,,,,,,,-0.0005212383701275556,-0.8512113144900811,,,,,,,,,,
12,240704_145849,FalseCHOICE,9.0,13,2.0,2583.0,,,,,,,,,,,13.0,13.0,,,A,,,,,,False,cue1.png,Easy,cue2.png,Hard,Left,Easy,Mid,0.0160762998275458,,,,,,,,,,,,,35,31,Female,0.5714285714285714,1.5,0.8,1.0,3.2777777777777777,1.0,2.6666666666666665,3.3333333333333335,1.5,3.0,2.5,2.25,1.75,1.0,0.125,0.5,0.4729820333110789,0.6287699897581353,-0.7486978757548086,0.7040935897493003,,,,,,,,,,,,,,,,,,,,,0.0003003617671042125,0.6508981751937569,,,,,,,,,,
13,240704_145904,FalseCHOICE,9.0,14,2.0,2583.0,,,,,,,,,,,14.0,14.0,,,A,,,,,,False,cue2.png,Hard,cue1.png,Easy,Right,Easy,Mid,0.017245199996978,,,,,,,,,,,,,35,31,Female,0.5714285714285714,1.5,0.8,1.0,3.2777777777777777,1.0,2.6666666666666665,3.3333333333333335,1.5,3.0,2.5,2.25,1.75,1.0,1.0,1.0,0.4376311500091105,0.07883267725655076,-0.826378846657556,0.15529440464625782,,,,,,,,,,,,,,,,,,,0.002278370443742898,1.9903388759202887,0.0012453288858581407,2.3785562076060054,,,,,,,,,,
14,240704_145920,FalseCHOICE,9.0,15,2.0,2583.0,,,,,,,,,,,15.0,15.0,,,A,,,,,,False,cue1.png,Easy,cue2.png,Hard,Left,Easy,Mid,0.0166603000834584,,,,,,,,,,,,,35,31,Female,0.5714285714285714,1.5,0.8,1.0,3.2777777777777777,1.0,2.6666666666666665,3.3333333333333335,1.5,3.0,2.5,2.25,1.75,1.0,,,,,,,,,,,,,,,,,,,,,,,,,-0.0035944674995755264,-3.4215766171745274,,,,,,,,,,,,
15,240704_145935,FalseCHOICE,9.0,16,2.0,2583.0,,,,,,,,,,,16.0,16.0,,,A,,,,,,False,cue1.png,Easy,cue2.png,Hard,Left,Easy,Mid,0.0163528001867234,,,,,,,,,,,,,35,31,Female,0.5714285714285714,1.5,0.8,1.0,3.2777777777777777,1.0,2.6666666666666665,3.3333333333333335,1.5,3.0,2.5,2.25,1.75,1.0,0.125,0.5,0.40964285004884,-0.35656833748364775,-0.8924695963514906,-0.3116223853136582,,,,,,,,,,,,,,,,,,,,,0.0005785635405505434,1.1595270142158747,,,,,,,,,,
16,240704_145949,FalseCHOICE,9.0,17,2.0,2583.0,,,,,,,,,,,17.0,17.0,,,A,,,,,,False,cue2.png,Hard,cue1.png,Easy,Right,Easy,Mid,0.0156032000668346,,,,,,,,,,,,,35,31,Female,0.5714285714285714,1.5,0.8,1.0,3.2777777777777777,1.0,2.6666666666666665,3.3333333333333335,1.5,3.0,2.5,2.25,1.75,1.0,1.0,1.0,0.3948514166598518,-0.5866718134421519,-0.9292457452018739,-0.5714378882067189,,,,,,,,,,,,,,,,,,,5.668487753713279e-05,-0.05698043589784635,-0.0003019476601045495,-0.4502879923069654,,,,,,,,,,
17,240704_150004,FalseCHOICE,9.0,18,2.0,2583.0,,,,,,,,,,,18.0,18.0,,,A,,,,,,False,cue2.png,Hard,cue1.png,Easy,Right,Easy,Mid,0.0164838000200688,,,,,,,,,,,,,35,31,Female,0.5714285714285714,1.5,0.8,1.0,3.2777777777777777,1.0,2.6666666666666665,3.3333333333333335,1.5,3.0,2.5,2.25,1.75,1.0,1.0,1.0,0.3773481167154386,-0.8589625409217605,-0.9745871310800949,-0.891764930109464,,,,,,,,,,,,,,,,,,,0.0011822090680436155,0.9802083752432973,,,,,,,,,,,,
18,240704_150020,FalseCHOICE,9.0,19,2.0,2583.0,,,,,,,,,,,19.0,19.0,,,A,,,,,,False,cue1.png,Easy,cue2.png,Hard,Left,Easy,Mid,0.0152099002152681,,,,,,,,,,,,,35,31,Female,0.5714285714285714,1.5,0.8,1.0,3.2777777777777777,1.0,2.6666666666666665,3.3333333333333335,1.5,3.0,2.5,2.25,1.75,1.0,1.0,1.0,0.5617593499676635,2.0098375720356567,-0.5766817236980029,1.9193503376537895,,,,,,,,,,,,,,,,,,,,,0.0007882759922074253,1.5429386635858928,,,,,,,,,,
19,240704_150035,FalseCHOICE,9.0,20,2.0,2583.0,,,,,,,,,,,20.0,20.0,,,A,,,,,,False,cue1.png,Easy,cue2.png,Hard,Left,Easy,Mid,0.0157747999764978,,,,,,,,,,,,,35,31,Female,0.5714285714285714,1.5,0.8,1.0,3.2777777777777777,1.0,2.6666666666666665,3.3333333333333335,1.5,3.0,2.5,2.25,1.75,1.0,1.0,1.0,0.3890969665953889,-0.676191126901544,-0.9439266949732157,-0.6751556092575784,,,,,,,,,,,,,,,,,,,,,-0.0005107555732739109,-0.8320458982264691,1.259,-0.34859260221553345,,,,,,,,
20,240704_150050,FalseCHOICE,9.0,21,2.0,2583.0,,,,,,,,,,,21.0,21.0,,,A,,,,,,False,cue1.png,Easy,cue2.png,Hard,Left,Easy,Mid,0.0159897000994533,,,,,,,,,,,,,35,31,Female,0.5714285714285714,1.5,0.8,1.0,3.2777777777777777,1.0,2.6666666666666665,3.3333333333333335,1.5,3.0,2.5,2.25,1.75,1.0,1.0,1.0,0.3985899499384686,-0.5285131833910105,-0.919822084922037,-0.504861775393491,,,,,,,,,,,,,,,,,,,,,,,1.9780000000000002,1.1473481958976803,,,,,,,,
21,240704_150104,FalseCHOICE,9.0,22,2.0,2583.0,,,,,,,,,,,22.0,22.0,,,A,,,,,,False,cue2.png,Hard,cue1.png,Easy,Right,Easy,Mid,0.0157818000297993,,,,,,,,,,,,,35,31,Female,0.5714285714285714,1.5,0.8,1.0,3.2777777777777777,1.0,2.6666666666666665,3.3333333333333335,1.5,3.0,2.5,2.25,1.75,1.0,0.6875,0.75,0.3882863000423337,-0.688802290863528,-0.9460123247563675,-0.6898901306225772,,,,,,,,,,,,,,,,,,,,,-0.0003565215332483676,-0.5500639405125416,1.28,-0.30490031186730304,,,,,,,,
22,240704_150119,FalseCHOICE,9.0,23,2.0,2583.0,,,,,,,,,,,23.0,23.0,,,A,,,,,,False,cue1.png,Easy,cue2.png,Hard,Left,Easy,Mid,0.0161137001123279,,,,,,,,,,,,,35,31,Female,0.5714285714285714,1.5,0.8,1.0,3.2777777777777777,1.0,2.6666666666666665,3.3333333333333335,1.5,3.0,2.5,2.25,1.75,1.0,1.0,1.0,0.4308712833638613,-0.02632743611324573,-0.841945879969693,0.04531669586004445,,,,,,,,,,,,,,,,,,,0.002117180614555904,1.841799831879601,0.00037259896875712576,0.7829675130551704,0.9239999999999999,-1.0455886625325381,,,,,,,,
23,240704_150134,FalseCHOICE,9.0,24,2.0,2583.0,,,,,,,,,,,24.0,24.0,,,A,,,,,,False,cue2.png,Hard,cue1.png,Easy,Right,Easy,Mid,0.0150968001689761,,,,,,,,,,,,,35,31,Female,0.5714285714285714,1.5,0.8,1.0,3.2777777777777777,1.0,2.6666666666666665,3.3333333333333335,1.5,3.0,2.5,2.25,1.75,1.0,1.0,1.0,0.3911280333219717,-0.6445947628846327,-0.9387203216457991,-0.6383737126589176,,,,,,,,,,,,,,,,,,,0.0004048270729236519,0.2638382482199267,,,0.9470000000000001,-0.9977352016749524,,,,,,,,
24,240704_150149,FalseCHOICE,9.0,25,2.0,2583.0,,,,,,,,,,,25.0,25.0,,,A,,,,,,False,cue2.png,Hard,cue1.png,Easy,Right,Easy,Mid,0.01656059990637,,,,,,,,,,,,,35,31,Female,0.5714285714285714,1.5,0.8,1.0,3.2777777777777777,1.0,2.6666666666666665,3.3333333333333335,1.5,3.0,2.5,2.25,1.75,1.0,1.0,1.0,0.3635335333722954,-1.0738696133182888,-1.0118837348953835,-1.1552573342732426,,,,,,,,,,,,,,,,,,,0.0013486643610137227,1.13359962962951,,,1.423,-0.007376620448402436,,,,,,,,
25,240704_150205,FalseCHOICE,9.0,26,2.0,2583.0,,,,,,,,,,,26.0,26.0,,,A,,,,,,False,cue1.png,Easy,cue2.png,Hard,Left,Easy,Mid,0.0163674000650644,,,,,,,,,,,,,35,31,Female,0.5714285714285714,1.5,0.8,1.0,3.2777777777777777,1.0,2.6666666666666665,3.3333333333333335,1.5,3.0,2.5,2.25,1.75,1.0,0.6875,0.75,0.531287349993363,1.5357987869430627,-0.6324522553449925,1.525343646376082,,,,,,,,,,,,,,,,,,,,,,,0.863,-1.1725043630678733,,,,,,,,
26,240704_150220,FalseCHOICE,9.0,27,2.0,2583.0,,,,,,,,,,,27.0,27.0,,,A,,,,,,False,cue1.png,Easy,cue2.png,Hard,Left,Easy,Mid,0.0160370001103729,,,,,,,,,,,,,35,31,Female,0.5714285714285714,1.5,0.8,1.0,3.2777777777777777,1.0,2.6666666666666665,3.3333333333333335,1.5,3.0,2.5,2.25,1.75,1.0,1.0,1.0,0.4057483166689053,-0.41715378883189536,-0.9020222212863558,-0.3791096054001879,,,,,,,,,,,,,,,,,,,6.951038241710542e-05,-0.0451615249664361,0.0007168333066198719,1.4123219181321491,,,,,,,,,,
27,240704_150235,FalseCHOICE,9.0,28,2.0,2583.0,,,,,,,,,,,28.0,28.0,,,A,,,,,,False,cue2.png,Hard,cue1.png,Easy,Right,Easy,Mid,0.0166933999862521,,,,,,,,,,,,,35,31,Female,0.5714285714285714,1.5,0.8,1.0,3.2777777777777777,1.0,2.6666666666666665,3.3333333333333335,1.5,3.0,2.5,2.25,1.75,1.0,0.6875,0.75,0.4015076666449507,-0.48312361644589263,-0.9125286507715241,-0.45333524744348314,,,,,,,,,,,,,,,,,,,0.0012269046875710405,1.0213961141403225,,,1.6749999999999998,0.5169308637303589,,,,,,,,
28,240704_150249,FalseCHOICE,9.0,29,2.0,2583.0,,,,,,,,,,,29.0,29.0,,,A,,,,,,False,cue1.png,Easy,cue2.png,Hard,Left,Easy,Mid,0.0149710001423954,,,,,,,,,,,,,35,31,Female,0.5714285714285714,1.5,0.8,1.0,3.2777777777777777,1.0,2.6666666666666665,3.3333333333333335,1.5,3.0,2.5,2.25,1.75,1.0,0.125,0.5,0.3386324333647887,-1.4612444887771687,-1.0828400272052936,-1.6565481258927728,,,,,,,,,,,,,,,,,,,2.7062540647339837e-05,-0.08427790017368844,-0.00025381147238072877,-0.36228189164980745,2.154,1.513531200720942,,,,,,,,
29,240704_150304,FalseCHOICE,9.0,30,2.0,2583.0,,,,,,,,,,,30.0,30.0,,,A,,,,,,False,cue1.png,Easy,cue2.png,Hard,Left,Easy,Mid,0.0160038000904023,,,,,,,,,,,,,35,31,Female,0.5714285714285714,1.5,0.8,1.0,3.2777777777777777,1.0,2.6666666666666665,3.3333333333333335,1.5,3.0,2.5,2.25,1.75,1.0,0.6875,0.75,0.4775908500499402,0.7004672163742678,-0.7390008752741576,0.7726007917046878,,,,,,,,,,,,,,,,,,,-0.0010209707791573128,-1.0500576161257222,0.00031102944943797034,0.6704016126207032,0.947,-0.9977352016749527,,,,,,,,
30,240704_150319,FalseCHOICE,9.0,31,2.0,2583.0,,,,,,,,,,,31.0,31.0,,,A,,,,,,False,cue2.png,Hard,cue1.png,Easy,Right,Easy,Mid,0.0166008998639881,,,,,,,,,,,,,35,31,Female,0.5714285714285714,1.5,0.8,1.0,3.2777777777777777,1.0,2.6666666666666665,3.3333333333333335,1.5,3.0,2.5,2.25,1.75,1.0,1.0,1.0,0.3753417499052981,-0.8901746597827227,-0.9799183349427998,-0.9294287273235018,,,,,,,,,,,,,,,,,,,-0.00024827675475502494,-0.3380075302141669,-0.00010402795801853128,-0.0884367106111099,,,,,,,,,,
31,240704_150334,FalseCHOICE,9.0,32,2.0,2583.0,,,,,,,,,,,32.0,32.0,,,A,,,,,,False,cue1.png,Easy,cue2.png,Hard,Left,Easy,Mid,0.0161349000409245,,,,,,,,,,,,,35,31,Female,0.5714285714285714,1.5,0.8,1.0,3.2777777777777777,1.0,2.6666666666666665,3.3333333333333335,1.5,3.0,2.5,2.25,1.75,1.0,1.0,1.0,0.4792021666265403,0.7255337217895763,-0.7356327108502583,0.7963961417067258,,,,,,,,,,,,,,,,,,,-0.00012189433472782011,-0.22154407871058748,0.00019114589598728544,0.4512217279848095,1.864,0.9101614768644308,,,,,,,,
32,240704_150350,FalseCHOICE,9.0,33,2.0,2583.0,,,,,,,,,,,33.0,33.0,,,A,,,,,,False,cue2.png,Hard,cue1.png,Easy,Right,Easy,Mid,0.0165254999883472,,,,,,,,,,,,,35,31,Female,0.5714285714285714,1.5,0.8,1.0,3.2777777777777777,1.0,2.6666666666666665,3.3333333333333335,1.5,3.0,2.5,2.25,1.75,1.0,1.0,1.0,0.5159170500313243,1.2966901519122616,-0.6618092821764129,1.3179426289209586,,,,,,,,,,,,,,,,,,,0.00012992472488174579,0.010511272264671781,-1.4390152942130724e-05,0.07544568368029791,1.8579999999999999,0.8976779653363646,,,,,,,,
33,240704_150405,FalseCHOICE,9.0,34,2.0,2583.0,,,,,,,,,,,34.0,34.0,,,A,,,,,,False,cue2.png,Hard,cue1.png,Easy,Right,Easy,Mid,0.0155241000466048,,,,,,,,,,,,,35,31,Female,0.5714285714285714,1.5,0.8,1.0,3.2777777777777777,1.0,2.6666666666666665,3.3333333333333335,1.5,3.0,2.5,2.25,1.75,1.0,1.0,1.0,0.3922970666317269,-0.626408653329746,-0.9357359031544458,-0.6172894443107315,,,,,,,,,,,,,,,,,,,-5.77759269018872e-05,-0.1624579251243938,9.311338443263387e-05,0.2719915170455399,1.381,-0.09476120114486282,,,,,,,,
34,240704_150420,FalseCHOICE,9.0,35,2.0,2583.0,,,,,,,,,,,35.0,35.0,,,A,,,,,,False,cue2.png,Hard,cue1.png,Easy,Right,Easy,Mid,0.0166421001777052,,,,,,,,,,,,,35,31,Female,0.5714285714285714,1.5,0.8,1.0,3.2777777777777777,1.0,2.6666666666666665,3.3333333333333335,1.5,3.0,2.5,2.25,1.75,1.0,1.0,1.0,0.4738468165742233,0.6422230223052312,-0.7468711813026542,0.7169987892482828,,,,,,,,,,,,,,,,,,,-0.00015883476726585594,-0.255585286914139,9.35785965693707e-05,0.2728420519148049,1.4260000000000002,-0.0011348646843693214,,,,,,,,
35,240704_150434,FalseCHOICE,9.0,36,2.0,2583.0,,,,,,,,,,,36.0,36.0,,,A,,,,,,False,cue1.png,Easy,cue2.png,Hard,Left,Easy,Mid,0.0163288998883217,,,,,,,,,,,,,35,31,Female,0.5714285714285714,1.5,0.8,1.0,3.2777777777777777,1.0,2.6666666666666665,3.3333333333333335,1.5,3.0,2.5,2.25,1.75,1.0,0.6875,0.75,0.3777435166606058,-0.8528114871743593,-0.9735398410193126,-0.8843660533286447,,,,,,,,,,,,,,,,,,,-0.00010741190657514088,-0.20819828608808064,0.00035991172006223735,0.7597717566294448,0.6140000000000001,-1.6905700914826018,,,,,,,,
36,240704_150449,FalseCHOICE,9.0,37,2.0,2583.0,,,,,,,,,,,37.0,37.0,,,A,,,,,,False,cue2.png,Hard,cue1.png,Easy,Right,Easy,Mid,0.0169365000911057,,,,,,,,,,,,,35,31,Female,0.5714285714285714,1.5,0.8,1.0,3.2777777777777777,1.0,2.6666666666666665,3.3333333333333335,1.5,3.0,2.5,2.25,1.75,1.0,1.0,1.0,0.3813821999744202,-0.7962061767624402,-0.9639532571345346,-0.8166389206377475,,,,,,,,,,,,,,,,,,,7.858388691209988e-05,-0.036800143292522694,9.278450313072572e-05,0.27139023218422004,2.695,2.639127823501538,,,,,,,,
37,240704_150503,FalseCHOICE,9.0,38,2.0,2583.0,,,,,,,,,,,38.0,38.0,,,A,,,,,,False,cue1.png,Easy,cue2.png,Hard,Left,Easy,Mid,0.0158891999162733,,,,,,,,,,,,,35,31,Female,0.5714285714285714,1.5,0.8,1.0,3.2777777777777777,1.0,2.6666666666666665,3.3333333333333335,1.5,3.0,2.5,2.25,1.75,1.0,1.0,1.0,0.3590062500055258,-1.1442984630414235,-1.0244154811592574,-1.2437913994066747,,,,,,,,,,,,,,,,,,,,,,,1.2209999999999999,-0.4276548418932833,,,,,,,,
38,240704_150519,FalseCHOICE,9.0,39,2.0,2583.0,,,,,,,,,,,39.0,39.0,,,A,,,,,,False,cue1.png,Easy,cue2.png,Hard,Left,Easy,Mid,0.0161447999998927,,,,,,,,,,,,,35,31,Female,0.5714285714285714,1.5,0.8,1.0,3.2777777777777777,1.0,2.6666666666666665,3.3333333333333335,1.5,3.0,2.5,2.25,1.75,1.0,1.0,1.0,0.4972727499747028,1.0066494143434597,-0.6986166107115146,1.0579068483283995,,,,,,,,,,,,,,,,,,,,,-0.0011721968136875205,-2.041341173469657,1.4249999999999998,-0.003215449939047642,,,,,,,,
39,240704_150533,FalseCHOICE,9.0,40,2.0,2583.0,,,,,,,,,,,40.0,40.0,,,A,,,,,,False,cue2.png,Hard,cue1.png,Easy,Right,Easy,Mid,0.0165460999123752,,,,,,,,,,,,,35,31,Female,0.5714285714285714,1.5,0.8,1.0,3.2777777777777777,1.0,2.6666666666666665,3.3333333333333335,1.5,3.0,2.5,2.25,1.75,1.0,1.0,1.0,0.3789472500405584,-0.8340855647048994,-0.9703582655374505,-0.8618889136701346,,,,,,,,,,,,,,,,,,,0.00029802083652110106,0.16541456768848317,-0.0003831253365342265,-0.5987029603549856,1.649,0.46283564710874103,,,,,,,,
40,240704_150548,FalseCHOICE,9.0,41,2.0,2583.0,,,,,,,,,,,41.0,41.0,,,A,,,,,,False,cue2.png,Hard,cue1.png,Easy,Right,Easy,Mid,0.0165526000782847,,,,,,,,,,,,,35,31,Female,0.5714285714285714,1.5,0.8,1.0,3.2777777777777777,1.0,2.6666666666666665,3.3333333333333335,1.5,3.0,2.5,2.25,1.75,1.0,1.0,1.0,0.4749090000599001,0.6587469186533644,-0.7446320721223253,0.732817609214625,,,,,,,,,,,,,,,,,,,0.0026407179496005916,2.324247984218868,-0.000675932005293609,-1.1340335376697606,0.9639999999999999,-0.9623652523454332,,,,,,,,
41,240704_150603,FalseCHOICE,9.0,42,2.0,2583.0,,,,,,,,,,,42.0,42.0,,,A,,,,,,False,cue1.png,Easy,cue2.png,Hard,Left,Easy,Mid,0.0149089000187814,,,,,,,,,,,,,35,31,Female,0.5714285714285714,1.5,0.8,1.0,3.2777777777777777,1.0,2.6666666666666665,3.3333333333333335,1.5,3.0,2.5,2.25,1.75,1.0,1.0,1.0,0.4093516667295868,-0.36109814146810665,-0.8931806715188013,-0.3166459769067099,,,,,,,,,,,,,,,,,,,-0.0014602594322698091,-1.454869240533825,0.0004069814974507176,0.8458281678792847,,,,,,,,,,
42,240704_150618,FalseCHOICE,9.0,43,2.0,2583.0,,,,,,,,,,,43.0,43.0,,,A,,,,,,False,cue2.png,Hard,cue1.png,Easy,Right,Easy,Mid,0.0178165999241173,,,,,,,,,,,,,35,31,Female,0.5714285714285714,1.5,0.8,1.0,3.2777777777777777,1.0,2.6666666666666665,3.3333333333333335,1.5,3.0,2.5,2.25,1.75,1.0,1.0,1.0,0.4149810500675812,-0.2735244331255641,-0.879522422281758,-0.2201534129735459,,,,,,,,,,,,,,,,,,,0.0007262180072639167,0.5600052110551875,-0.0009926865402622269,-1.713147356321098,0.665,-1.5844602434940431,,,,,,,,
43,240704_150633,FalseCHOICE,9.0,44,2.0,2583.0,,,,,,,,,,,44.0,44.0,,,A,,,,,,False,cue1.png,Easy,cue2.png,Hard,Left,Easy,Mid,0.0169811998493969,,,,,,,,,,,,,35,31,Female,0.5714285714285714,1.5,0.8,1.0,3.2777777777777777,1.0,2.6666666666666665,3.3333333333333335,1.5,3.0,2.5,2.25,1.75,1.0,0.6875,0.75,0.4156170332571491,-0.26363073731379083,-0.8779910358588288,-0.20933450055246383,,,,,,,,,,,,,,,,,,,-0.00022597308667870455,-0.3174543380470971,-0.0003087142722161115,-0.4626592077013948,2.418,2.0628057079558357,,,,,,,,
44,240704_150648,FalseCHOICE,9.0,45,2.0,2583.0,,,,,,,,,,,45.0,45.0,,,A,,,,,,False,cue2.png,Hard,cue1.png,Easy,Right,Easy,Mid,0.0162906998302787,,,,,,,,,,,,,35,31,Female,0.5714285714285714,1.5,0.8,1.0,3.2777777777777777,1.0,2.6666666666666665,3.3333333333333335,1.5,3.0,2.5,2.25,1.75,1.0,0.6875,0.75,0.3810592000372708,-0.8012309371300046,-0.9648005352505115,-0.8226247564763065,,,,,,,,,,,,,,,,,,,-0.00024200208171170018,-0.33222531715380005,-0.0005670032181020581,-0.9348819582999253,1.464,0.07792737499338008,,,,,,,,
45,240704_150703,FalseCHOICE,9.0,46,2.0,2583.0,,,,,,,,,,,46.0,46.0,,,A,,,,,,False,cue2.png,Hard,cue1.png,Easy,Right,Easy,Mid,0.0158094998914748,,,,,,,,,,,,,35,31,Female,0.5714285714285714,1.5,0.8,1.0,3.2777777777777777,1.0,2.6666666666666665,3.3333333333333335,1.5,3.0,2.5,2.25,1.75,1.0,1.0,1.0,0.5148882333111638,1.2806853268755358,-0.6638054245680033,1.3038403165383554,,,,,,,,,,,,,,,,,,,-0.0009694187812332193,-1.0025516132429406,,,,,,,,,,,,
46,240704_150719,FalseCHOICE,9.0,47,2.0,2583.0,,,,,,,,,,,47.0,47.0,,,A,,,,,,False,cue1.png,Easy,cue2.png,Hard,Left,Easy,Mid,0.0164926000870764,,,,,,,,,,,,,35,31,Female,0.5714285714285714,1.5,0.8,1.0,3.2777777777777777,1.0,2.6666666666666665,3.3333333333333335,1.5,3.0,2.5,2.25,1.75,1.0,1.0,1.0,0.4351673500301937,0.04050448253018209,-0.8320246091633257,0.11540831894927651,,,,,,,,,,,,,,,,,,,1.6804223767001494e-05,-0.09373110569265589,-0.0003384426027431466,-0.5170107168766181,0.677,-1.5594932204379115,,,,,,,,
47,240704_150733,FalseCHOICE,9.0,48,2.0,2583.0,,,,,,,,,,,48.0,48.0,,,A,,,,,,False,cue1.png,Easy,cue2.png,Hard,Left,Easy,Mid,0.0161224999465048,,,,,,,,,,,,,35,31,Female,0.5714285714285714,1.5,0.8,1.0,3.2777777777777777,1.0,2.6666666666666665,3.3333333333333335,1.5,3.0,2.5,2.25,1.75,1.0,0.125,0.5,0.3949935500277206,-0.5844607104924782,-0.9288858432580809,-0.5688952591538732,,,,,,,,,,,,,,,,,,,-0.0002541235071227459,-0.3433954074259257,-8.56308667636467e-05,-0.054801802211933016,1.4000000000000001,-0.05523008130598765,,,,,,,,
48,240704_150748,FalseCHOICE,9.0,49,2.0,2583.0,,,,,,,,,,,49.0,49.0,,,A,,,,,,False,cue2.png,Hard,cue1.png,Easy,Right,Easy,Mid,0.0155394999310374,,,,,,,,,,,,,35,31,Female,0.5714285714285714,1.5,0.8,1.0,3.2777777777777777,1.0,2.6666666666666665,3.3333333333333335,1.5,3.0,2.5,2.25,1.75,1.0,1.0,1.0,0.3911509666359052,-0.6442379999453983,-0.9386616895875659,-0.6379594899039063,,,,,,,,,,,,,,,,,,,-0.00013384603761886502,-0.23255776692558425,-0.00021814152268265826,-0.29706747954108326,,,,,,,,,,
49,240704_150803,FalseCHOICE,9.0,50,2.0,2583.0,,,,,,,,,,,50.0,50.0,,,A,,,,,,False,cue1.png,Easy,cue2.png,Hard,Left,Easy,Mid,0.0161768000107258,,,,,,,,,,,,,35,31,Female,0.5714285714285714,1.5,0.8,1.0,3.2777777777777777,1.0,2.6666666666666665,3.3333333333333335,1.5,3.0,2.5,2.25,1.75,1.0,1.0,1.0,0.3686661001217241,-0.994024650455404,-0.9978639223094979,-1.0562104038214597,,,,,,,,,,,,,,,,,,,-0.0008113439518165895,-0.856883092053543,-0.0011802624291438312,-2.0560873218306903,0.9369999999999998,-1.0185410542217292,,,,,,,,
0,240704_143511,OFFLINERATING,9.0,1,1.0,,,,,,,,,,,,,,,,,T0,cue1.png,Easy,49.0,2.4928579998668283,,,,,,,,,,,,,,,,,,,,,,35,31,Female,0.5714285714285714,1.5,0.8,1.0,3.2777777777777777,1.0,2.6666666666666665,3.3333333333333335,1.5,3.0,2.5,2.25,1.75,1.0,,,,,,,,,,,,,,,,,,,,,,,,,,,,,,,0.4359924308340366,,,,,0.8219999999999998,-0.3127661229064651,
1,240704_143519,OFFLINERATING,9.0,2,3.0,,,,,,,,,,,,,,,,,T0,cue2.png,Hard,27.0,1.885586500167847,,,,,,,,,,,,,,,,,,,,,,35,31,Female,0.5714285714285714,1.5,0.8,1.0,3.2777777777777777,1.0,2.6666666666666665,3.3333333333333335,1.5,3.0,2.5,2.25,1.75,1.0,,,,,,,,,,,,,,,,,,,,,,,,,,,,,,,-0.1929802562708031,,,,,1.6050000000000002,1.0309698125435336,
2,240704_145038,OFFLINERATING,9.0,3,1.0,,,,,,,,,,,,,,,,,T1,cue1.png,Easy,73.0,1.3653851000126451,,,,,,,,,,,,,,,,,,,,,,35,31,Female,0.5714285714285714,1.5,0.8,1.0,3.2777777777777777,1.0,2.6666666666666665,3.3333333333333335,1.5,3.0,2.5,2.25,1.75,1.0,,,,,,,,,,,,,,,,,,,,,,,,,,,,,,,1.1221444531302254,-5.785414972564549e-05,-1.160977358329902,-0.00038783990216030573,-1.0745651609536304,,,
3,240704_145045,OFFLINERATING,9.0,4,3.0,,,,,,,,,,,,,,,,,T1,cue2.png,Hard,21.0,0.8851083999034017,,,,,,,,,,,,,,,,,,,,,,35,31,Female,0.5714285714285714,1.5,0.8,1.0,3.2777777777777777,1.0,2.6666666666666665,3.3333333333333335,1.5,3.0,2.5,2.25,1.75,1.0,,,,,,,,,,,,,,,,,,,,,,,,,,,,,,,-0.36451826184485026,0.0002132190171592989,1.163572114953732,-0.00012086747925057519,-0.487209512139639,,,
4,240704_145420,OFFLINERATING,9.0,5,1.0,,,,,,,,,,,,,,,,,T2,cue1.png,Easy,100.0,1.4353914000093937,,,,,,,,,,,,,,,,,,,,,,35,31,Female,0.5714285714285714,1.5,0.8,1.0,3.2777777777777777,1.0,2.6666666666666665,3.3333333333333335,1.5,3.0,2.5,2.25,1.75,1.0,,,,,,,,,,,,,,,,,,,,,,,,,,,,,,,1.8940654782134376,0.00017133233061348988,0.8043787788276806,,,1.4569999999999999,0.7769814109514516,
5,240704_145427,OFFLINERATING,9.0,6,3.0,,,,,,,,,,,,,,,,,T2,cue2.png,Hard,0.0,0.5846829002257437,,,,,,,,,,,,,,,,,,,,,,35,31,Female,0.5714285714285714,1.5,0.8,1.0,3.2777777777777777,1.0,2.6666666666666665,3.3333333333333335,1.5,3.0,2.5,2.25,1.75,1.0,,,,,,,,,,,,,,,,,,,,,,,,,,,,,,,-0.9649012813540154,-1.6572628957894735e-05,-0.8069735354515107,,,,,
6,240704_150821,OFFLINERATING,9.0,7,1.0,,,,,,,,,,,,,,,,,T3,cue1.png,Easy,0.0,1.4484757999889553,,,,,,,,,,,,,,,,,,,,,,35,31,Female,0.5714285714285714,1.5,0.8,1.0,3.2777777777777777,1.0,2.6666666666666665,3.3333333333333335,1.5,3.0,2.5,2.25,1.75,1.0,,,,,,,,,,,,,,,,,,,,,,,,,,,,,,,-0.9649012813540154,,,7.681804393905051e-05,-0.052289277799794864,,,
7,240704_150828,OFFLINERATING,9.0,8,3.0,,,,,,,,,,,,,,,,,T3,cue2.png,Hard,0.0,0.6682372998911887,,,,,,,,,,,,,,,,,,,,,,35,31,Female,0.5714285714285714,1.5,0.8,1.0,3.2777777777777777,1.0,2.6666666666666665,3.3333333333333335,1.5,3.0,2.5,2.25,1.75,1.0,,,,,,,,,,,,,,,,,,,,,,,,,,,,,,,-0.9649012813540154,,,0.0008342302860548491,1.6140639508930643,0.133,-1.4951851005885193,
0,240704_145445,LEARNINGCHECK,9.0,1,,,,,,,,,,,,1.0,1.0,1.0,,,A,,,,,,,,,,,,,,,cue1.png,Easy,Left,Left,Easy,0.0151573000475764,1.0,,,,,,35,31,Female,0.5714285714285714,1.5,0.8,1.0,3.2777777777777777,1.0,2.6666666666666665,3.3333333333333335,1.5,3.0,2.5,2.25,1.75,1.0,,,,,,,,,,,,,,,,,,,,,,,,,,,,,,,,,,,,,,
1,240704_150843,LEARNINGCHECK,9.0,1,,,,,,,,,,,,1.0,1.0,1.0,,,A,,,,,,,,,,,,,,,cue1.png,Easy,Middle,Middle,Mid,0.0164193999953567,1.0,,,,,,35,31,Female,0.5714285714285714,1.5,0.8,1.0,3.2777777777777777,1.0,2.6666666666666665,3.3333333333333335,1.5,3.0,2.5,2.25,1.75,1.0,,,,,,,,,,,,,,,,,,,,,,,,,,,,,,,,,,,,,,
2,240704_145451,LEARNINGCHECK,9.0,2,,,,,,,,,,,,2.0,2.0,2.0,,,A,,,,,,,,,,,,,,,cue2.png,Hard,Right,Right,Hard,0.0135240000672638,1.0,,,,,,35,31,Female,0.5714285714285714,1.5,0.8,1.0,3.2777777777777777,1.0,2.6666666666666665,3.3333333333333335,1.5,3.0,2.5,2.25,1.75,1.0,,,,,,,,,,,,,,,,,,,,,,,,,,,,,,,,,,,,,,
3,240704_150847,LEARNINGCHECK,9.0,2,,,,,,,,,,,,2.0,2.0,2.0,,,A,,,,,,,,,,,,,,,cue2.png,Hard,Middle,Middle,Mid,0.0164392997976392,1.0,,,,,,35,31,Female,0.5714285714285714,1.5,0.8,1.0,3.2777777777777777,1.0,2.6666666666666665,3.3333333333333335,1.5,3.0,2.5,2.25,1.75,1.0,,,,,,,,,,,,,,,,,,,,,,,,,,,,,,,,,,,,,,
0,240704_150904,DEMANDRATING,9.0,-1,,,,,,,,,,,,,,,,,,,,,,,,,,,,,,,,,,,,,,,1.0,MentalDemand,1.0,6.0,5.629624199820682,35,31,Female,0.5714285714285714,1.5,0.8,1.0,3.2777777777777777,1.0,2.6666666666666665,3.3333333333333335,1.5,3.0,2.5,2.25,1.75,1.0,,,,,,,,,,,,,,,,,,,,,,,,,,,,,,,,,,,,,,-1.335343722471056
1,240704_150913,DEMANDRATING,9.0,-1,,,,,,,,,,,,,,,,,,,,,,,,,,,,,,,,,,,,,,,2.0,Effort,1.0,12.0,8.246444399934262,35,31,Female,0.5714285714285714,1.5,0.8,1.0,3.2777777777777777,1.0,2.6666666666666665,3.3333333333333335,1.5,3.0,2.5,2.25,1.75,1.0,,,,,,,,,,,,,,,,,,,,,,,,,,,,,,,,,,,,,,-1.183215956619923
2,240704_150919,DEMANDRATING,9.0,-1,,,,,,,,,,,,,,,,,,,,,,,,,,,,,,,,,,,,,,,3.0,Frustration,1.0,0.0,4.1919233000371605,35,31,Female,0.5714285714285714,1.5,0.8,1.0,3.2777777777777777,1.0,2.6666666666666665,3.3333333333333335,1.5,3.0,2.5,2.25,1.75,1.0,,,,,,,,,,,,,,,,,,,,,,,,,,,,,,,,,,,,,,-1.487471488322189
3,240704_150925,DEMANDRATING,9.0,-1,,,,,,,,,,,,,,,,,,,,,,,,,,,,,,,,,,,,,,,4.0,MentalDemand,2.0,100.0,3.99905850016512,35,31,Female,0.5714285714285714,1.5,0.8,1.0,3.2777777777777777,1.0,2.6666666666666665,3.3333333333333335,1.5,3.0,2.5,2.25,1.75,1.0,,,,,,,,,,,,,,,,,,,,,,,,,,,,,,,,,,,,,,1.0479912758633605
4,240704_150928,DEMANDRATING,9.0,-1,,,,,,,,,,,,,,,,,,,,,,,,,,,,,,,,,,,,,,,5.0,Effort,2.0,100.0,2.009987599914893,35,31,Female,0.5714285714285714,1.5,0.8,1.0,3.2777777777777777,1.0,2.6666666666666665,3.3333333333333335,1.5,3.0,2.5,2.25,1.75,1.0,,,,,,,,,,,,,,,,,,,,,,,,,,,,,,,,,,,,,,1.0479912758633605
5,240704_150932,DEMANDRATING,9.0,-1,,,,,,,,,,,,,,,,,,,,,,,,,,,,,,,,,,,,,,,6.0,Frustration,2.0,100.0,2.189696399960667,35,31,Female,0.5714285714285714,1.5,0.8,1.0,3.2777777777777777,1.0,2.6666666666666665,3.3333333333333335,1.5,3.0,2.5,2.25,1.75,1.0,,,,,,,,,,,,,,,,,,,,,,,,,,,,,,,,,,,,,,1.0479912758633605
6,240704_150936,DEMANDRATING,9.0,-1,,,,,,,,,,,,,,,,,,,,,,,,,,,,,,,,,,,,,,,7.0,MentalDemand,3.0,74.0,2.8480078000575304,35,31,Female,0.5714285714285714,1.5,0.8,1.0,3.2777777777777777,1.0,2.6666666666666665,3.3333333333333335,1.5,3.0,2.5,2.25,1.75,1.0,,,,,,,,,,,,,,,,,,,,,,,,,,,,,,,,,,,,,,0.38877095717511767
7,240704_150940,DEMANDRATING,9.0,-1,,,,,,,,,,,,,,,,,,,,,,,,,,,,,,,,,,,,,,,8.0,Effort,3.0,74.0,1.916161100147292,35,31,Female,0.5714285714285714,1.5,0.8,1.0,3.2777777777777777,1.0,2.6666666666666665,3.3333333333333335,1.5,3.0,2.5,2.25,1.75,1.0,,,,,,,,,,,,,,,,,,,,,,,,,,,,,,,,,,,,,,0.38877095717511767
8,240704_150945,DEMANDRATING,9.0,-1,,,,,,,,,,,,,,,,,,,,,,,,,,,,,,,,,,,,,,,9.0,Frustration,3.0,62.0,4.228018499910832,35,31,Female,0.5714285714285714,1.5,0.8,1.0,3.2777777777777777,1.0,2.6666666666666665,3.3333333333333335,1.5,3.0,2.5,2.25,1.75,1.0,,,,,,,,,,,,,,,,,,,,,,,,,,,,,,,,,,,,,,0.08451542547285171
