,END,Phase,Block,TrialN,NbackLevel,ISI,Letter_Resp,Letter_RT,Letter_Accuracy,Trial_A_measure,Trial_ACC,Trial_RT,TrialCountCali,CaliEnd_A_measure,ISI_calibrated,TrialIndex,TrialNumber_total,TrialNumber_valid,CueLearning,TrialDemandLearning,CueMapping,OfflineRatingTimePoint,CueFigure,TrialDemand,OfflineRating,OfflineRatingRT,PhaseType,CueLeft,CueDemandLeft,CueRight,CueDemandRight,Choice,ChoiceDemand,TaskDemand,ChoiceRT,CueCheck,CueDemandCheck,CorrectAnswer,Answer,AnswerDemand,AnswerRT,AnswerACC,DemandRatingQuesIndex,QuesTLX,DemandLevel,DemandRating,DemandRatingRT,PID,Age,Gender,BAI_bis,BAI_bas_d,BAI_bas_rr,BAI_bas_fs,NFC,BFI_ext,BFI_agr,BFI_con,BFI_neu,BFI_open,UPPS_lps,UPPS_lpm,UPPS_pu,UPPS_ss,Task_A_measure,Task_ACC,Task_RT,Task_RT_z,Task_RT_log,Task_RT_log_z,cue_i_on_zyg_values,cue_i_on_zyg_zvalues,cue_e_on_zyg_values,cue_e_on_zyg_zvalues,cue_i_on_cor_values,cue_i_on_cor_zvalues,cue_e_on_cor_values,cue_e_on_cor_zvalues,cue_i_on_scr_values,cue_i_on_scr_zvalues,cue_e_on_scr_values,cue_e_on_scr_zvalues,cue_e_true_zyg_values,cue_e_true_zyg_zvalues,cue_e_true_cor_values,cue_e_true_cor_zvalues,cue_e_true_scr_values,cue_e_true_scr_zvalues,cue_e_false_zyg_values,cue_e_false_zyg_zvalues,cue_e_false_cor_values,cue_e_false_cor_zvalues,cue_e_false_scr_values,cue_e_false_scr_zvalues,OfflineRating_z,cue_i_off_zyg_values,cue_i_off_zyg_zvalues,cue_i_off_cor_values,cue_i_off_cor_zvalues,cue_i_off_scr_values,cue_i_off_scr_zvalues,DemandRating_z
0,240709_092027,PRACTICE,0.0,1,3.0,500.0,,,,,,,,,,22.0,1.0,1.0,cue1.png,Hard,B,,,,,,,,,,,,,,,,,,,,,,,,,,,38,21,Male,0.7142857142857143,1.75,1.0,1.5,1.8333333333333333,1.75,2.4444444444444446,2.3333333333333335,1.875,2.111111111111111,1.25,1.25,1.5,1.25,,,,,,,,,,,,,,,,,,,,,,,,,,,,,,,,,,,,,,
0,240709_092307,LEARNING,1.0,1,1.0,500.0,,,,,,,,,,1.0,1.0,1.0,cue2.png,Easy,B,,,,,,,,,,,,,,,,,,,,,,,,,,,38,21,Male,0.7142857142857143,1.75,1.0,1.5,1.8333333333333333,1.75,2.4444444444444446,2.3333333333333335,1.875,2.111111111111111,1.25,1.25,1.5,1.25,1.0,0.9375,0.4912826866532365,-0.5217035282734349,-0.7107355802956898,-0.48557298360288936,0.0002164649740352591,0.07367597050484005,0.0013213941057368065,0.8171210150015461,-4.925302783725851e-06,-0.3227112946158301,,,,,,,,,,,,,,,,,,,,,,,,,,
1,240709_092337,LEARNING,1.0,2,3.0,500.0,,,,,,,,,,2.0,2.0,2.0,cue1.png,Hard,B,,,,,,,,,,,,,,,,,,,,,,,,,,,38,21,Male,0.7142857142857143,1.75,1.0,1.5,1.8333333333333333,1.75,2.4444444444444446,2.3333333333333335,1.875,2.111111111111111,1.25,1.25,1.5,1.25,0.9,0.8125,0.6115787000252078,1.3256748713003137,-0.4917116321765826,1.3066570505229107,-6.837950851731542e-05,-0.16864054821772917,0.00021872385853857583,0.1513064892902366,-0.00045416003809757837,-0.49904763900307314,,,1.4499999999999997,-0.09702358019735563,1.064,-0.7208526212727143,,,,,,,,,,,,,,,,,,,,
2,240709_092404,LEARNING,1.0,3,1.0,500.0,,,,,,,,,,3.0,3.0,3.0,cue2.png,Easy,B,,,,,,,,,,,,,,,,,,,,,,,,,,,38,21,Male,0.7142857142857143,1.75,1.0,1.5,1.8333333333333333,1.75,2.4444444444444446,2.3333333333333335,1.875,2.111111111111111,1.25,1.25,1.5,1.25,1.0,1.0,0.5357276811846532,0.16083548997838112,-0.6241293045075913,0.2231091945067077,0.00018897557023264937,0.05029080056398335,-9.853320527400573e-05,-0.04025972192083121,0.00013342757760949515,-0.2684041824399614,4.668456881125804e-05,-0.09562599217394799,1.451,-0.09516351156029997,1.592,0.2699165879539824,,,,,,,,,,,,,,,,,,,,
3,240709_092433,LEARNING,1.0,4,3.0,500.0,,,,,,,,,,4.0,4.0,4.0,cue1.png,Hard,B,,,,,,,,,,,,,,,,,,,,,,,,,,,38,21,Male,0.7142857142857143,1.75,1.0,1.5,1.8333333333333333,1.75,2.4444444444444446,2.3333333333333335,1.875,2.111111111111111,1.25,1.25,1.5,1.25,0.8409090909090908,0.7840909090909091,0.5693386642461908,0.6769972675455764,-0.5632798299154906,0.7210285173080289,,,-0.00011413740323751483,-0.04968185124061454,0.0011062524227613765,0.11345492915193528,-0.004057632187378472,-1.4542991772591554,1.9789999999999996,0.8869527288047621,1.586,0.2586578469400426,,,,,,,,,,,,,,,,,,,,
4,240709_092504,LEARNING,1.0,5,3.0,500.0,,,,,,,,,,5.0,5.0,5.0,cue1.png,Hard,B,,,,,,,,,,,,,,,,,,,,,,,,,,,38,21,Male,0.7142857142857143,1.75,1.0,1.5,1.8333333333333333,1.75,2.4444444444444446,2.3333333333333335,1.875,2.111111111111111,1.25,1.25,1.5,1.25,0.8125,0.7291666666666666,0.661482723071598,2.0920478511152245,-0.41327141357379876,1.9485179834052464,-0.00027702316518146697,-0.3461332069602856,0.00012119886600731218,0.09241893264110089,-8.019111147937767e-05,-0.352255086578997,-0.0008562300632966027,-0.39452248870188694,1.5430000000000001,0.07596280304876415,1.544,0.17984665984246442,,,,,,,,,,,,,,,,,,,,
5,240709_092532,LEARNING,1.0,6,1.0,500.0,,,,,,,,,,6.0,6.0,6.0,cue2.png,Easy,B,,,,,,,,,,,,,,,,,,,,,,,,,,,38,21,Male,0.7142857142857143,1.75,1.0,1.5,1.8333333333333333,1.75,2.4444444444444446,2.3333333333333335,1.875,2.111111111111111,1.25,1.25,1.5,1.25,0.95,0.9375,0.5551172599817316,0.45860004627997575,-0.5885759083056561,0.5140356664084514,0.0003469060142459691,0.18464185083069798,-0.00013476308664408382,-0.062136054706891215,-4.906649632444374e-05,-0.3400378637655242,0.00016014470788779708,-0.05806669602390061,,,,,,,,,,,,,,,,,,,,,,,,
6,240709_092601,LEARNING,1.0,7,3.0,500.0,,,,,,,,,,7.0,7.0,7.0,cue1.png,Hard,B,,,,,,,,,,,,,,,,,,,,,,,,,,,38,21,Male,0.7142857142857143,1.75,1.0,1.5,1.8333333333333333,1.75,2.4444444444444446,2.3333333333333335,1.875,2.111111111111111,1.25,1.25,1.5,1.25,0.0484848484848484,0.4772727272727273,0.4956646749051288,-0.45440960708005057,-0.7018556395469303,-0.4129101691122579,0.0018529991748250712,1.4658716934204674,,,0.001604285114507385,0.3089457435175576,-0.0052206242143390275,-1.8392904377694965,2.213,1.322208789875643,1.452,0.007212630962054999,,,,,,,,,,,,,,,,,,,,
7,240709_092629,LEARNING,1.0,8,3.0,500.0,,,,,,,,,,8.0,8.0,8.0,cue1.png,Hard,B,,,,,,,,,,,,,,,,,,,,,,,,,,,38,21,Male,0.7142857142857143,1.75,1.0,1.5,1.8333333333333333,1.75,2.4444444444444446,2.3333333333333335,1.875,2.111111111111111,1.25,1.25,1.5,1.25,0.8958333333333333,0.8541666666666666,0.5270828866710265,0.028077918005937393,-0.6403974625973338,0.08999004576189737,-0.00208544872746798,-1.8845564991906019,,,0.00022445148655465689,-0.23267492534230316,-3.505982910364386e-05,-0.12268626263441296,,,,,,,,,,,,,,,,,,,,,,,,
8,240709_092657,LEARNING,1.0,9,1.0,500.0,,,,,,,,,,9.0,9.0,9.0,cue2.png,Easy,B,,,,,,,,,,,,,,,,,,,,,,,,,,,38,21,Male,0.7142857142857143,1.75,1.0,1.5,1.8333333333333333,1.75,2.4444444444444446,2.3333333333333335,1.875,2.111111111111111,1.25,1.25,1.5,1.25,0.5,0.75,0.5637303749972489,0.5908711181691992,-0.573179200305998,0.6400239098887766,0.0002354428279834099,0.08982038538109618,-0.002670639508147433,-1.5933493627070403,-0.00010091060160234309,-0.36038802657371666,0.0003576008911118809,0.0072982446745099,,,,,,,,,,,,,,,,,,,,,,,,
9,240709_092724,LEARNING,1.0,10,1.0,500.0,,,,,,,,,,10.0,10.0,10.0,cue2.png,Easy,B,,,,,,,,,,,,,,,,,,,,,,,,,,,38,21,Male,0.7142857142857143,1.75,1.0,1.5,1.8333333333333333,1.75,2.4444444444444446,2.3333333333333335,1.875,2.111111111111111,1.25,1.25,1.5,1.25,0.9090909090909092,0.9090909090909092,0.490306756197242,-0.5366908316208493,-0.7127240506988162,-0.5018442471293564,-0.0010946884165613348,-1.0417190769032427,,,7.552343523644376e-05,-0.2911330677827407,0.0035598989830663416,1.0673715301066058,,,1.373,-0.1410274590548181,,,,,,,,,,,,,,,,,,,,
10,240709_092753,LEARNING,1.0,11,3.0,500.0,,,,,,,,,,11.0,11.0,11.0,cue1.png,Hard,B,,,,,,,,,,,,,,,,,,,,,,,,,,,38,21,Male,0.7142857142857143,1.75,1.0,1.5,1.8333333333333333,1.75,2.4444444444444446,2.3333333333333335,1.875,2.111111111111111,1.25,1.25,1.5,1.25,0.6113636363636364,0.6647727272727273,0.6094086800391475,1.2923500092660654,-0.4952661689495132,1.2775709728745137,0.0008689424411504158,0.6287369882202958,-0.003116761570614022,-1.8627268580963254,0.004035895517847702,1.2634162147277996,-0.002881371927913568,-1.0649156651785745,0.758,-1.384191077039445,0.7870000000000001,-1.2406311647495984,,,,,,,,,,,,,,,,,,,,
11,240709_092821,LEARNING,1.0,12,1.0,500.0,,,,,,,,,,12.0,12.0,12.0,cue2.png,Easy,B,,,,,,,,,,,,,,,,,,,,,,,,,,,38,21,Male,0.7142857142857143,1.75,1.0,1.5,1.8333333333333333,1.75,2.4444444444444446,2.3333333333333335,1.875,2.111111111111111,1.25,1.25,1.5,1.25,0.8958333333333333,0.9166666666666666,0.5653509499097709,0.6157581863634457,-0.5703085903869043,0.6635135481563755,0.0006740374367823453,0.46293176806350067,-0.0015052054148060531,-0.8896367613400215,0.0020637033268234356,0.48927936809388634,-0.0026853341172242973,-1.0000202556698818,1.149,-0.6569042399509231,,,,,,,,,,,,,,,,,,,,,,
12,240709_092851,LEARNING,1.0,13,1.0,500.0,,,,,,,,,,13.0,13.0,13.0,cue2.png,Easy,B,,,,,,,,,,,,,,,,,,,,,,,,,,,38,21,Male,0.7142857142857143,1.75,1.0,1.5,1.8333333333333333,1.75,2.4444444444444446,2.3333333333333335,1.875,2.111111111111111,1.25,1.25,1.5,1.25,0.1666666666666666,0.5416666666666667,0.6165935714463038,1.402687939982198,-0.4835451893932202,1.3734814510234106,0.0020670592672446956,1.6479721010805701,,,0.0046911065393909265,1.520603620907432,,,,,,,,,,,,,,,,,,,,,,,,,,
13,240709_092917,LEARNING,1.0,14,1.0,500.0,,,,,,,,,,14.0,14.0,14.0,cue2.png,Easy,B,,,,,,,,,,,,,,,,,,,,,,,,,,,38,21,Male,0.7142857142857143,1.75,1.0,1.5,1.8333333333333333,1.75,2.4444444444444446,2.3333333333333335,1.875,2.111111111111111,1.25,1.25,1.5,1.25,1.0,1.0,0.4616979125421494,-0.9760350652637142,-0.7728444707223225,-0.9937978593060076,,,7.842568690782058e-05,0.06659162476945472,,,-0.003926720434790748,-1.410962783306323,,,1.4849999999999999,0.06913570653872339,,,,,,,,,,,,,,,,,,,,
14,240709_092948,LEARNING,1.0,15,3.0,500.0,,,,,,,,,,15.0,15.0,15.0,cue1.png,Hard,B,,,,,,,,,,,,,,,,,,,,,,,,,,,38,21,Male,0.7142857142857143,1.75,1.0,1.5,1.8333333333333333,1.75,2.4444444444444446,2.3333333333333335,1.875,2.111111111111111,1.25,1.25,1.5,1.25,0.5,0.6875,0.7073083666153253,2.795789410425891,-0.3462885460615819,2.4966256581969586,0.0014048724477550723,1.0846513605670882,0.0017884359682495297,1.0991303074136343,-0.00043902147965788193,-0.49310536017932255,0.004134363905461949,1.257539621946466,,,1.904,0.8553711206788482,,,,,,,,,,,,,,,,,,,,
15,240709_093015,LEARNING,1.0,16,1.0,500.0,,,,,,,,,,16.0,16.0,16.0,cue2.png,Easy,B,,,,,,,,,,,,,,,,,,,,,,,,,,,38,21,Male,0.7142857142857143,1.75,1.0,1.5,1.8333333333333333,1.75,2.4444444444444446,2.3333333333333335,1.875,2.111111111111111,1.25,1.25,1.5,1.25,0.8958333333333333,0.8541666666666666,0.4546056265942752,-1.0849508596981454,-0.7883249906181261,-1.1204719191035846,0.00031886818285345453,0.16079013485332952,0.0014494590222887977,0.8944491934764602,0.00014223185298691985,-0.26494827484201255,0.002257255621739602,0.6361507667250365,,,,,,,,,,,,,,,,,,,,,,,,
16,240709_093042,LEARNING,1.0,17,1.0,500.0,,,,,,,,,,17.0,17.0,17.0,cue2.png,Easy,B,,,,,,,,,,,,,,,,,,,,,,,,,,,38,21,Male,0.7142857142857143,1.75,1.0,1.5,1.8333333333333333,1.75,2.4444444444444446,2.3333333333333335,1.875,2.111111111111111,1.25,1.25,1.5,1.25,0.8958333333333333,0.8541666666666666,0.5095265867188573,-0.24153308903373502,-0.6742732457006968,-0.18720884700193016,0.00028398792328760813,0.13111758162570827,-5.3353933422172796e-05,-0.01297956673713675,0.001167730971035424,0.1375868619894669,,,,,,,,,,,,,,,,,,,,,,,,,,
17,240709_093112,LEARNING,1.0,18,3.0,500.0,,,,,,,,,,18.0,18.0,18.0,cue1.png,Hard,B,,,,,,,,,,,,,,,,,,,,,,,,,,,38,21,Male,0.7142857142857143,1.75,1.0,1.5,1.8333333333333333,1.75,2.4444444444444446,2.3333333333333335,1.875,2.111111111111111,1.25,1.25,1.5,1.25,0.9375,0.75,0.5668594000162557,0.6389233608812246,-0.5676439777570991,0.6853175509855585,0.0009090582228094418,0.6628633875464814,0.0023968395736326488,1.4664966701031943,0.00585877590317648,1.9789442853243786,,,,,,,,,,,,,,,,,,,,,,,,,,
18,240709_093141,LEARNING,1.0,19,3.0,500.0,,,,,,,,,,19.0,19.0,19.0,cue1.png,Hard,B,,,,,,,,,,,,,,,,,,,,,,,,,,,38,21,Male,0.7142857142857143,1.75,1.0,1.5,1.8333333333333333,1.75,2.4444444444444446,2.3333333333333335,1.875,2.111111111111111,1.25,1.25,1.5,1.25,0.75,0.8333333333333334,0.6085333625669591,1.2789078132567078,-0.49670354050295523,1.2658092432079662,0.0021401302544064686,1.7101334147559872,,,0.00640643818538555,2.1939160077047792,-0.00308474118013394,-1.1322380396629372,,,,,,,,,,,,,,,,,,,,,,,,
19,240709_093209,LEARNING,1.0,20,3.0,500.0,,,,,,,,,,20.0,20.0,20.0,cue1.png,Hard,B,,,,,,,,,,,,,,,,,,,,,,,,,,,38,21,Male,0.7142857142857143,1.75,1.0,1.5,1.8333333333333333,1.75,2.4444444444444446,2.3333333333333335,1.875,2.111111111111111,1.25,1.25,1.5,1.25,0.6041666666666667,0.7708333333333334,0.5405697000212968,0.23519407226560393,-0.6151316955058157,0.2967348652462998,,,7.890119353736944e-05,0.06687874525885769,0.004106573600231263,1.29115920451934,0.0016776459030559037,0.44427956638391003,2.239,1.3705705744390737,,,,,,,,,,,,,,,,,,,,,,
20,240709_093236,LEARNING,1.0,21,1.0,500.0,,,,,,,,,,21.0,21.0,21.0,cue2.png,Easy,B,,,,,,,,,,,,,,,,,,,,,,,,,,,38,21,Male,0.7142857142857143,1.75,1.0,1.5,1.8333333333333333,1.75,2.4444444444444446,2.3333333333333335,1.875,2.111111111111111,1.25,1.25,1.5,1.25,0.75,0.7708333333333334,0.4495314467077454,-1.1628747247969937,-0.7995494682121711,-1.212319619020307,,,-0.0006389118486972295,-0.36655124115747345,0.00038765813544692053,-0.16861206113558108,4.7919655061398354e-05,-0.09521713519018757,1.6230000000000002,0.22476829401316772,1.7710000000000001,0.6058023615365179,,,,,,,,,,,,,,,,,,,,
21,240709_093305,LEARNING,1.0,22,3.0,500.0,,,,,,,,,,22.0,22.0,22.0,cue1.png,Hard,B,,,,,,,,,,,,,,,,,,,,,,,,,,,38,21,Male,0.7142857142857143,1.75,1.0,1.5,1.8333333333333333,1.75,2.4444444444444446,2.3333333333333335,1.875,2.111111111111111,1.25,1.25,1.5,1.25,0.6041666666666667,0.6458333333333334,0.5083420539203172,-0.25972388558859044,-0.6766007235028014,-0.2062541416216061,,,0.0013756700694908522,0.849893936150227,,,0.000784754471170079,0.14870110162091288,1.9220000000000002,0.7809288164926255,2.362,1.7147883514095816,,,,,,,,,,,,,,,,,,,,
22,240709_093334,LEARNING,1.0,23,3.0,500.0,,,,,,,,,,23.0,23.0,23.0,cue1.png,Hard,B,,,,,,,,,,,,,,,,,,,,,,,,,,,38,21,Male,0.7142857142857143,1.75,1.0,1.5,1.8333333333333333,1.75,2.4444444444444446,2.3333333333333335,1.875,2.111111111111111,1.25,1.25,1.5,1.25,0.75,0.8333333333333334,0.6295561999431811,1.6017542200324222,-0.4627401523688296,1.5437249907660826,0.000779794946190346,0.5528994278856849,-0.0042288936129026115,-2.5342546064383096,0.0008347305873635667,0.006875530651250993,-0.003950257253354933,-1.418754297983436,2.382,1.6365603895379452,1.538,0.16858791882852467,,,,,,,,,,,,,,,,,,,,
23,240709_093402,LEARNING,1.0,24,3.0,500.0,,,,,,,,,,24.0,24.0,24.0,cue1.png,Hard,B,,,,,,,,,,,,,,,,,,,,,,,,,,,38,21,Male,0.7142857142857143,1.75,1.0,1.5,1.8333333333333333,1.75,2.4444444444444446,2.3333333333333335,1.875,2.111111111111111,1.25,1.25,1.5,1.25,0.7704545454545455,0.7215909090909091,0.4841631308126335,-0.6310381047553648,-0.7253333819195904,-0.6050239328129615,,,-0.0007536165572490112,-0.4358122566925456,0.006262282011918481,2.13733095171556,-0.001586243322277755,-0.6361825502062882,1.389,-0.21048776705771274,,,,,,,,,,,,,,,,,,,,,,
24,240709_093429,LEARNING,1.0,25,1.0,500.0,,,,,,,,,,25.0,25.0,25.0,cue2.png,Easy,B,,,,,,,,,,,,,,,,,,,,,,,,,,,38,21,Male,0.7142857142857143,1.75,1.0,1.5,1.8333333333333333,1.75,2.4444444444444446,2.3333333333333335,1.875,2.111111111111111,1.25,1.25,1.5,1.25,0.75,0.7083333333333334,0.4436095500630991,-1.2538169234548993,-0.8128104951914501,-1.3208320033495846,0.00022877043909678638,0.08414420014457384,0.00018781176294625258,0.13264114276634031,,,,,1.4000000000000001,-0.19002701205010705,-0.10699999999999998,-2.9181835758266192,,,,,,,,,,,,,,,,,,,,
25,240709_093457,LEARNING,1.0,26,1.0,500.0,,,,,,,,,,26.0,26.0,26.0,cue2.png,Easy,B,,,,,,,,,,,,,,,,,,,,,,,,,,,38,21,Male,0.7142857142857143,1.75,1.0,1.5,1.8333333333333333,1.75,2.4444444444444446,2.3333333333333335,1.875,2.111111111111111,1.25,1.25,1.5,1.25,0.75,0.8333333333333334,0.5147987062809989,-0.16056947664074225,-0.6639793163149958,-0.1029756406669288,0.0026790604486828275,2.1686000395656198,0.0003625980156387451,0.2381806059313311,0.0024632483419085695,0.6461112019658516,0.004700694326001516,1.4450149076014334,1.9339999999999997,0.8032496401372852,1.343,-0.1973211641245168,,,,,,,,,,,,,,,,,,,,
26,240709_093525,LEARNING,1.0,27,3.0,500.0,,,,,,,,,,27.0,27.0,27.0,cue1.png,Hard,B,,,,,,,,,,,,,,,,,,,,,,,,,,,38,21,Male,0.7142857142857143,1.75,1.0,1.5,1.8333333333333333,1.75,2.4444444444444446,2.3333333333333335,1.875,2.111111111111111,1.25,1.25,1.5,1.25,0.9375,0.8125,0.5285285230940924,0.050278466692043146,-0.6376585052244923,0.11240239705020169,-0.0003853316754270364,-0.4382709970819181,2.8771966903655584e-05,0.036609707583988176,-0.002666230923461293,-1.3673431263900246,0.002366936370271786,0.6724589516929762,1.2860000000000003,-0.40207483667438176,,,,,,,,,,,,,,,,,,,,,,
27,240709_093553,LEARNING,1.0,28,1.0,500.0,,,,,,,,,,28.0,28.0,28.0,cue2.png,Easy,B,,,,,,,,,,,,,,,,,,,,,,,,,,,38,21,Male,0.7142857142857143,1.75,1.0,1.5,1.8333333333333333,1.75,2.4444444444444446,2.3333333333333335,1.875,2.111111111111111,1.25,1.25,1.5,1.25,1.0,0.9375,0.4884598733236392,-0.5650532971057733,-0.7164979535064777,-0.5327253540395677,,,0.0007051230599979998,0.4450041332131946,0.001490418540562517,0.2642501449385432,,,0.766,-1.3693105279430047,1.5379999999999998,0.16858791882852425,,,,,,,,,,,,,,,,,,,,
28,240709_093619,LEARNING,1.0,29,1.0,500.0,,,,,,,,,,29.0,29.0,29.0,cue2.png,Easy,B,,,,,,,,,,,,,,,,,,,,,,,,,,,38,21,Male,0.7142857142857143,1.75,1.0,1.5,1.8333333333333333,1.75,2.4444444444444446,2.3333333333333335,1.875,2.111111111111111,1.25,1.25,1.5,1.25,0.8958333333333333,0.9166666666666666,0.4549936375115067,-1.0789922001615595,-0.7874718436201507,-1.113490784454033,-0.0010275140316710358,-0.9845739886498909,0.0002790695596604281,0.18774444023092193,-0.0021104524973397116,-1.1491856059500571,0.0034655649002589915,1.036143631198301,1.2930000000000001,-0.3890543562149966,0.9650000000000001,-0.9066218480027198,,,,,,,,,,,,,,,,,,,,
29,240709_093648,LEARNING,1.0,30,3.0,500.0,,,,,,,,,,30.0,30.0,30.0,cue1.png,Hard,B,,,,,,,,,,,,,,,,,,,,,,,,,,,38,21,Male,0.7142857142857143,1.75,1.0,1.5,1.8333333333333333,1.75,2.4444444444444446,2.3333333333333335,1.875,2.111111111111111,1.25,1.25,1.5,1.25,0.6909090909090909,0.7556818181818181,0.5852534600533545,0.921399797468745,-0.5357102605340105,0.9466248993371464,-0.0007928058789943336,-0.7849083256089141,0.0002758654014525519,0.1858097049073728,-0.0015078841570324453,-0.9126618244596567,0.0006039646935267397,0.0888533272864684,,,1.541,0.17421728933549432,,,,,,,,,,,,,,,,,,,,
30,240709_093716,LEARNING,1.0,31,3.0,500.0,,,,,,,,,,31.0,31.0,31.0,cue1.png,Hard,B,,,,,,,,,,,,,,,,,,,,,,,,,,,38,21,Male,0.7142857142857143,1.75,1.0,1.5,1.8333333333333333,1.75,2.4444444444444446,2.3333333333333335,1.875,2.111111111111111,1.25,1.25,1.5,1.25,0.7083333333333333,0.7291666666666666,0.5040449461756418,-0.3257143021089439,-0.6850898359670478,-0.2757188848706877,0.00038494526471819033,0.21700175005234848,-0.0020842148492366585,-1.2392543310054176,,,,,2.4530000000000003,1.7686252627688537,,,,,,,,,,,,,,,,,,,,,,
31,240709_093744,LEARNING,1.0,32,1.0,500.0,,,,,,,,,,32.0,32.0,32.0,cue2.png,Easy,B,,,,,,,,,,,,,,,,,,,,,,,,,,,38,21,Male,0.7142857142857143,1.75,1.0,1.5,1.8333333333333333,1.75,2.4444444444444446,2.3333333333333335,1.875,2.111111111111111,1.25,1.25,1.5,1.25,0.9090909090909092,0.9090909090909092,0.514660643733805,-0.1626896945958242,-0.6642475397237582,-0.1051704602433616,,,,,0.0001634167875491639,-0.25663263577154044,0.005532840596575755,1.7204845877114774,1.481,-0.03936145244864862,1.211,-0.4450134664311908,,,,,,,,,,,,,,,,,,,,
32,240709_093809,LEARNING,1.0,33,1.0,500.0,,,,,,,,,,33.0,33.0,33.0,cue2.png,Easy,B,,,,,,,,,,,,,,,,,,,,,,,,,,,38,21,Male,0.7142857142857143,1.75,1.0,1.5,1.8333333333333333,1.75,2.4444444444444446,2.3333333333333335,1.875,2.111111111111111,1.25,1.25,1.5,1.25,1.0,1.0,0.3918056812544819,-2.0493657165430825,-0.9369892731825388,-2.3369626019800163,-0.0015077345721677456,-1.3930964516776079,,,-0.002916112649033512,-1.4654282176637374,0.0027230847397022263,0.7903565868419217,0.6499999999999999,-1.5850784898413899,1.279,-0.3174144016065408,,,,,,,,,,,,,,,,,,,,
33,240709_093834,LEARNING,1.0,34,1.0,500.0,,,,,,,,,,34.0,34.0,34.0,cue2.png,Easy,B,,,,,,,,,,,,,,,,,,,,,,,,,,,38,21,Male,0.7142857142857143,1.75,1.0,1.5,1.8333333333333333,1.75,2.4444444444444446,2.3333333333333335,1.875,2.111111111111111,1.25,1.25,1.5,1.25,0.9090909090909092,0.9090909090909092,0.4176295312645379,-1.6527904571876857,-0.8731605282843705,-1.814664494264226,-0.0005515515787395944,-0.579673870510112,-0.0004314689678673097,-0.24129304754709419,,,0.00315416517913686,0.9330593723399688,,,,,,,,,,,,,,,,,,,,,,,,
34,240709_093903,LEARNING,1.0,35,3.0,500.0,,,,,,,,,,35.0,35.0,35.0,cue1.png,Hard,B,,,,,,,,,,,,,,,,,,,,,,,,,,,38,21,Male,0.7142857142857143,1.75,1.0,1.5,1.8333333333333333,1.75,2.4444444444444446,2.3333333333333335,1.875,2.111111111111111,1.25,1.25,1.5,1.25,0.8958333333333333,0.8541666666666666,0.582005300031354,0.871518005921354,-0.5412757247090815,0.901083796941398,-0.000628401267130394,-0.6450497162659998,,,0.00035111560312958874,-0.18295595767107295,,,,,1.376,-0.13539808854784843,,,,,,,,,,,,,,,,,,,,
35,240709_093932,LEARNING,1.0,36,3.0,500.0,,,,,,,,,,36.0,36.0,36.0,cue1.png,Hard,B,,,,,,,,,,,,,,,,,,,,,,,,,,,38,21,Male,0.7142857142857143,1.75,1.0,1.5,1.8333333333333333,1.75,2.4444444444444446,2.3333333333333335,1.875,2.111111111111111,1.25,1.25,1.5,1.25,0.75,0.6458333333333334,0.5115332769659849,-0.21071647164745477,-0.6703426380996015,-0.155045455484509,,,-0.0045490681206666606,-2.7275824291245865,0.0014486523352757064,0.24785582059036496,0.0006371835437120558,0.0998499349235582,0.7809999999999999,-1.3414094983871792,1.9540000000000002,0.9491939624616799,,,,,,,,,,,,,,,,,,,,
36,240709_093959,LEARNING,1.0,37,1.0,500.0,,,,,,,,,,37.0,37.0,37.0,cue2.png,Easy,B,,,,,,,,,,,,,,,,,,,,,,,,,,,38,21,Male,0.7142857142857143,1.75,1.0,1.5,1.8333333333333333,1.75,2.4444444444444446,2.3333333333333335,1.875,2.111111111111111,1.25,1.25,1.5,1.25,0.6113636363636364,0.6647727272727273,0.4924747666344046,-0.503396830104106,-0.7083120549426565,-0.4657417507013179,0.0006034428050973022,0.4028770840579425,,,,,-0.0028821147307869647,-1.06516155905223,1.898,0.7362871692033041,1.2200000000000002,-0.428125354910281,,,,,,,,,,,,,,,,,,,,
37,240709_094028,LEARNING,1.0,38,3.0,500.0,,,,,,,,,,38.0,38.0,38.0,cue1.png,Hard,B,,,,,,,,,,,,,,,,,,,,,,,,,,,38,21,Male,0.7142857142857143,1.75,1.0,1.5,1.8333333333333333,1.75,2.4444444444444446,2.3333333333333335,1.875,2.111111111111111,1.25,1.25,1.5,1.25,1.0,0.9375,0.553669420008858,0.4363656578164486,-0.5911874851254312,0.4926656452166029,0.00010382698578644076,-0.022144896179244603,-0.0008250771215825171,-0.4789615861223277,,,-0.0003456121437972379,-0.22549000016368667,1.809,0.5707410605054053,0.6760000000000002,-1.4489178735074837,,,,,,,,,,,,,,,,,,,,
38,240709_094056,LEARNING,1.0,39,3.0,500.0,,,,,,,,,,39.0,39.0,39.0,cue1.png,Hard,B,,,,,,,,,,,,,,,,,,,,,,,,,,,38,21,Male,0.7142857142857143,1.75,1.0,1.5,1.8333333333333333,1.75,2.4444444444444446,2.3333333333333335,1.875,2.111111111111111,1.25,1.25,1.5,1.25,0.75,0.8333333333333334,0.5592810311936773,0.5225428219555982,-0.5811031929922418,0.5751834310076439,,,,,-0.0003761750589297008,-0.4684365017454623,,,,,2.549,2.0656857796773695,,,,,,,,,,,,,,,,,,,,
39,240709_094123,LEARNING,1.0,40,3.0,500.0,,,,,,,,,,40.0,40.0,40.0,cue1.png,Hard,B,,,,,,,,,,,,,,,,,,,,,,,,,,,38,21,Male,0.7142857142857143,1.75,1.0,1.5,1.8333333333333333,1.75,2.4444444444444446,2.3333333333333335,1.875,2.111111111111111,1.25,1.25,1.5,1.25,0.8125,0.8541666666666666,0.5046582399557035,-0.31629598765179257,-0.683873831370125,-0.2657685576167255,-0.0007421834305684303,-0.7418439300417168,,,-0.0059057209977581,-2.638927428483601,,,1.784,0.5242393445790293,1.128,-0.6007593837906908,,,,,,,,,,,,,,,,,,,,
40,240709_094150,LEARNING,1.0,41,1.0,500.0,,,,,,,,,,41.0,41.0,41.0,cue2.png,Easy,B,,,,,,,,,,,,,,,,,,,,,,,,,,,38,21,Male,0.7142857142857143,1.75,1.0,1.5,1.8333333333333333,1.75,2.4444444444444446,2.3333333333333335,1.875,2.111111111111111,1.25,1.25,1.5,1.25,1.0,0.9375,0.4905578400629262,-0.532834952303285,-0.7122120863112222,-0.4976549429015389,-0.0009704843364997323,-0.9360589636303386,0.0013556896443172872,0.8378293526138075,-0.0023033896639008855,-1.2249184733652652,,,1.104,-0.7406073286183998,1.438,-0.019057764737137738,,,,,,,,,,,,,,,,,,,,
41,240709_094218,LEARNING,1.0,42,3.0,500.0,,,,,,,,,,42.0,42.0,42.0,cue1.png,Hard,B,,,,,,,,,,,,,,,,,,,,,,,,,,,38,21,Male,0.7142857142857143,1.75,1.0,1.5,1.8333333333333333,1.75,2.4444444444444446,2.3333333333333335,1.875,2.111111111111111,1.25,1.25,1.5,1.25,0.75,0.8333333333333334,0.5198634000553284,-0.0827912891772832,-0.6541891941175957,-0.022864989796913027,0.0006459715233412492,0.43905616275469816,0.0034132473460028916,2.080224174413304,0.003146743261880407,0.9144007755912787,,,,,,,,,,,,,,,,,,,,,,,,,,
42,240709_094245,LEARNING,1.0,43,3.0,500.0,,,,,,,,,,43.0,43.0,43.0,cue1.png,Hard,B,,,,,,,,,,,,,,,,,,,,,,,,,,,38,21,Male,0.7142857142857143,1.75,1.0,1.5,1.8333333333333333,1.75,2.4444444444444446,2.3333333333333335,1.875,2.111111111111111,1.25,1.25,1.5,1.25,0.9090909090909092,0.9090909090909092,0.4925897312059533,-0.5016313263252019,-0.7080786396235119,-0.46383175889910433,0.0010037509152036016,0.743418234050081,2.814981382437409e-07,0.019406588159541265,,,-0.00026514419175673433,-0.1988522781771284,1.886,0.7139663455586435,1.7610000000000001,0.5870377931799516,,,,,,,,,,,,,,,,,,,,
43,240709_094310,LEARNING,1.0,44,1.0,500.0,,,,,,,,,,44.0,44.0,44.0,cue2.png,Easy,B,,,,,,,,,,,,,,,,,,,,,,,,,,,38,21,Male,0.7142857142857143,1.75,1.0,1.5,1.8333333333333333,1.75,2.4444444444444446,2.3333333333333335,1.875,2.111111111111111,1.25,1.25,1.5,1.25,0.9090909090909092,0.9090909090909092,0.4353541249583941,-1.3805949736183165,-0.8315954987130203,-1.4745460049080288,0.00035268098976482323,0.1895546086657686,,,0.00048700481050227215,-0.1296159013794817,-0.00012883211806557875,-0.15372818802296914,0.3670000000000001,-2.111477914127967,,,,,,,,,,,,,,,,,,,,,,
44,240709_094338,LEARNING,1.0,45,1.0,500.0,,,,,,,,,,45.0,45.0,45.0,cue2.png,Easy,B,,,,,,,,,,,,,,,,,,,,,,,,,,,38,21,Male,0.7142857142857143,1.75,1.0,1.5,1.8333333333333333,1.75,2.4444444444444446,2.3333333333333335,1.875,2.111111111111111,1.25,1.25,1.5,1.25,0.1875,0.6875,0.5063927799463273,-0.289658764837376,-0.6804426658637496,-0.23769200285916803,-0.003600603858226377,-3.1734953380963145,0.0014755043266016545,0.9101758733085623,,,0.004714012331979009,1.449423635941695,1.403,-0.18444680613894213,1.996,1.0280051495592577,,,,,,,,,,,,,,,,,,,,
45,240709_094405,LEARNING,1.0,46,1.0,500.0,,,,,,,,,,46.0,46.0,46.0,cue2.png,Easy,B,,,,,,,,,,,,,,,,,,,,,,,,,,,38,21,Male,0.7142857142857143,1.75,1.0,1.5,1.8333333333333333,1.75,2.4444444444444446,2.3333333333333335,1.875,2.111111111111111,1.25,1.25,1.5,1.25,0.8958333333333333,0.9166666666666666,0.5145076687040273,-0.16503892261896486,-0.6645448186606542,-0.10760303551101359,,,0.0011562581486712024,0.7174085948914637,-0.0012865915682063883,-0.8257987146284145,-0.0010530352297228492,-0.45967191994554407,0.8119999999999998,-1.283747370638473,0.389,-1.9874609853409344,,,,,,,,,,,,,,,,,,,,
46,240709_094437,LEARNING,1.0,47,3.0,500.0,,,,,,,,,,47.0,47.0,47.0,cue1.png,Hard,B,,,,,,,,,,,,,,,,,,,,,,,,,,,38,21,Male,0.7142857142857143,1.75,1.0,1.5,1.8333333333333333,1.75,2.4444444444444446,2.3333333333333335,1.875,2.111111111111111,1.25,1.25,1.5,1.25,0.9375,0.625,0.6462227599695325,1.8577015463388704,-0.4366110049654243,1.75753468210183,,,,,0.003684795254094768,1.1256002086250319,-0.004523437353795866,-1.608497068572252,,,1.9629999999999999,0.9660820739825888,,,,,,,,,,,,,,,,,,,,
47,240709_094505,LEARNING,1.0,48,3.0,500.0,,,,,,,,,,48.0,48.0,48.0,cue1.png,Hard,B,,,,,,,,,,,,,,,,,,,,,,,,,,,38,21,Male,0.7142857142857143,1.75,1.0,1.5,1.8333333333333333,1.75,2.4444444444444446,2.3333333333333335,1.875,2.111111111111111,1.25,1.25,1.5,1.25,0.7083333333333333,0.7291666666666666,0.4861241076499797,-0.6009235053614843,-0.7212913221469339,-0.5719485500226416,,,0.0013809002972915672,0.853052053140636,,,0.0017663309691575502,0.4736374421005196,2.213,1.322208789875643,2.1670000000000003,1.3488792684565405,,,,,,,,,,,,,,,,,,,,
48,240709_094532,LEARNING,1.0,49,1.0,500.0,,,,,,,,,,49.0,49.0,49.0,cue2.png,Easy,B,,,,,,,,,,,,,,,,,,,,,,,,,,,38,21,Male,0.7142857142857143,1.75,1.0,1.5,1.8333333333333333,1.75,2.4444444444444446,2.3333333333333335,1.875,2.111111111111111,1.25,1.25,1.5,1.25,0.75,0.7708333333333334,0.4779443533470233,-0.7265394837262584,-0.7382609688595035,-0.7108078426614186,-0.00017890007165935994,-0.2626601264375568,0.0006075811965616492,0.3861063895714404,-0.0002642645259784879,-0.4245087002470805,0.00687129355358073,2.1635595865984785,,,,,,,,,,,,,,,,,,,,,,,,
49,240709_094559,LEARNING,1.0,50,1.0,500.0,,,,,,,,,,50.0,50.0,50.0,cue2.png,Easy,B,,,,,,,,,,,,,,,,,,,,,,,,,,,38,21,Male,0.7142857142857143,1.75,1.0,1.5,1.8333333333333333,1.75,2.4444444444444446,2.3333333333333335,1.875,2.111111111111111,1.25,1.25,1.5,1.25,0.8958333333333333,0.8541666666666666,0.4324038866596917,-1.4259015997802762,-0.8383952046828007,-1.530186665972351,0.00042582376332785197,0.25177699086070887,,,,,,,1.1490000000000002,-0.6569042399509226,1.496,0.08977673173094645,,,,,,,,,,,,,,,,,,,,
0,240709_094743,TrueCHOICE,9.0,1,1.0,500.0,,,,,,,,,,,1.0,1.0,,,B,,,,,,True,cue2.png,Easy,cue1.png,Hard,Left,Easy,Easy,0.0163862998597323,,,,,,,,,,,,,38,21,Male,0.7142857142857143,1.75,1.0,1.5,1.8333333333333333,1.75,2.4444444444444446,2.3333333333333335,1.875,2.111111111111111,1.25,1.25,1.5,1.25,0.7818181818181817,0.6931818181818181,0.4710266929385917,0.1232579197302939,-0.7528405136658529,0.1931301695206972,,,,,,,,,,,,,-0.00036792218492001736,-0.9328049186465635,,,1.471,-0.34811326951108973,,,,,,,,,,,,,,
1,240709_094806,TrueCHOICE,9.0,2,1.0,500.0,,,,,,,,,,,2.0,2.0,,,B,,,,,,True,cue2.png,Easy,cue1.png,Hard,Left,Easy,Easy,0.0163216996006667,,,,,,,,,,,,,38,21,Male,0.7142857142857143,1.75,1.0,1.5,1.8333333333333333,1.75,2.4444444444444446,2.3333333333333335,1.875,2.111111111111111,1.25,1.25,1.5,1.25,,,,,,,,,,,,,,,,,,,0.0004981866819791783,0.5183485859428104,0.0024384038690871764,0.4255019257047848,0.9850000000000001,-1.7923588096046585,,,,,,,,,,,,,,
2,240709_094829,TrueCHOICE,9.0,3,1.0,500.0,,,,,,,,,,,3.0,3.0,,,B,,,,,,True,cue1.png,Hard,cue2.png,Easy,Right,Easy,Easy,0.016612600069493,,,,,,,,,,,,,38,21,Male,0.7142857142857143,1.75,1.0,1.5,1.8333333333333333,1.75,2.4444444444444446,2.3333333333333335,1.875,2.111111111111111,1.25,1.25,1.5,1.25,1.0,1.0,0.3969772063137498,-1.0687313411352584,-0.9238764147700677,-1.1326173644787965,,,,,,,,,,,,,,,-0.00048056701833337073,-0.7930776873172148,1.574,-0.042028309367802545,,,,,,,,,,,,,,
3,240709_094852,TrueCHOICE,9.0,4,1.0,500.0,,,,,,,,,,,4.0,4.0,,,B,,,,,,True,cue2.png,Easy,cue1.png,Hard,Left,Easy,Easy,0.0158119997940957,,,,,,,,,,,,,38,21,Male,0.7142857142857143,1.75,1.0,1.5,1.8333333333333333,1.75,2.4444444444444446,2.3333333333333335,1.875,2.111111111111111,1.25,1.25,1.5,1.25,0.8958333333333333,0.9166666666666666,0.3905169188219588,-1.1727238691501047,-0.9402839845923924,-1.259797068216069,,,,,,,,,,,,,0.000970368993462015,1.3094835601944708,0.005647992931940167,1.7654055934756057,1.5319999999999998,-0.16683965233885248,,,,,,,,,,,,,,
4,240709_094916,TrueCHOICE,9.0,5,1.0,500.0,,,,,,,,,,,5.0,5.0,,,B,,,,,,True,cue1.png,Hard,cue2.png,Easy,Right,Easy,Easy,0.017295999918133,,,,,,,,,,,,,38,21,Male,0.7142857142857143,1.75,1.0,1.5,1.8333333333333333,1.75,2.4444444444444446,2.3333333333333335,1.875,2.111111111111111,1.25,1.25,1.5,1.25,0.7818181818181817,0.7556818181818181,0.5949827999807894,2.11860393963683,-0.5192227814496518,2.0039671364067706,,,,,,,,,,,,,-0.00013089863054867746,-0.535675210429141,,,1.5580000000000003,-0.08957548764248732,,,,,,,,,,,,,,
5,240709_094940,TrueCHOICE,9.0,6,1.0,500.0,,,,,,,,,,,6.0,6.0,,,B,,,,,,True,cue1.png,Hard,cue2.png,Easy,Right,Easy,Easy,0.0167597001418471,,,,,,,,,,,,,38,21,Male,0.7142857142857143,1.75,1.0,1.5,1.8333333333333333,1.75,2.4444444444444446,2.3333333333333335,1.875,2.111111111111111,1.25,1.25,1.5,1.25,0.8958333333333333,0.9166666666666666,0.4612734687398188,-0.033741663030502037,-0.7737642041850464,0.03094473986001283,,,,,,,,,,,,,0.0007871291592594244,1.0024677360343266,,,,,,,,,,,,,,,,,,
6,240709_095005,TrueCHOICE,9.0,7,1.0,500.0,,,,,,,,,,,7.0,7.0,,,B,,,,,,True,cue2.png,Easy,cue1.png,Hard,Left,Easy,Easy,0.0165436998941004,,,,,,,,,,,,,38,21,Male,0.7142857142857143,1.75,1.0,1.5,1.8333333333333333,1.75,2.4444444444444446,2.3333333333333335,1.875,2.111111111111111,1.25,1.25,1.5,1.25,,,,,,,,,,,,,,,,,,,,,-0.0011061449889249765,-1.0542370447482357,,,,,,,,,,,,,,,,
7,240709_095028,TrueCHOICE,9.0,8,1.0,500.0,,,,,,,,,,,8.0,8.0,,,B,,,,,,True,cue1.png,Hard,cue2.png,Easy,Right,Easy,Easy,0.0164133999496698,,,,,,,,,,,,,38,21,Male,0.7142857142857143,1.75,1.0,1.5,1.8333333333333333,1.75,2.4444444444444446,2.3333333333333335,1.875,2.111111111111111,1.25,1.25,1.5,1.25,1.0,1.0,0.4195583312539384,-0.7052384979865222,-0.8685527132683226,-0.7037877423693879,,,,,,,,,,,,,-0.0006239761109676318,-1.3618197530959038,-0.0014132641480611606,-1.1824497472813986,,,,,,,,,,,,,,,,
8,240709_095053,TrueCHOICE,9.0,9,1.0,500.0,,,,,,,,,,,9.0,9.0,,,B,,,,,,True,cue2.png,Easy,cue1.png,Hard,Left,Easy,Easy,0.0163447000086307,,,,,,,,,,,,,38,21,Male,0.7142857142857143,1.75,1.0,1.5,1.8333333333333333,1.75,2.4444444444444446,2.3333333333333335,1.875,2.111111111111111,1.25,1.25,1.5,1.25,0.8958333333333333,0.9166666666666666,0.5063258750597015,0.691475849705579,-0.680574795130634,0.7532821465164032,,,,,,,,,,,,,,,0.001644203146102001,0.09394781057200406,1.806,0.6474057756151357,,,,,,,,,,,,,,
9,240709_095118,TrueCHOICE,9.0,10,1.0,500.0,,,,,,,,,,,10.0,10.0,,,B,,,,,,True,cue1.png,Hard,cue2.png,Easy,Right,Easy,Easy,0.0166509998962283,,,,,,,,,,,,,38,21,Male,0.7142857142857143,1.75,1.0,1.5,1.8333333333333333,1.75,2.4444444444444446,2.3333333333333335,1.875,2.111111111111111,1.25,1.25,1.5,1.25,0.9090909090909092,0.9090909090909092,0.4662954187951982,0.04709766222968461,-0.762935899802874,0.11487798276036688,,,,,,,,,,,,,,,0.0032035080754948446,0.7449091495944539,2.191,1.7915097528497523,,,,,,,,,,,,,,
0,240709_095334,FalseCHOICE,9.0,1,2.0,500.0,,,,,,,,,,,1.0,1.0,,,B,,,,,,False,cue2.png,Easy,cue1.png,Hard,Left,Easy,Mid,0.0138131999410688,,,,,,,,,,,,,38,21,Male,0.7142857142857143,1.75,1.0,1.5,1.8333333333333333,1.75,2.4444444444444446,2.3333333333333335,1.875,2.111111111111111,1.25,1.25,1.5,1.25,1.0,1.0,0.4327242249564733,-0.8279540421152377,-0.837654647747659,-0.797939905354039,,,,,,,,,,,,,,,,,,,0.00047775275026395655,-0.07838184105474692,0.00035334189882063605,-0.20526038378806988,,,,,,,,,,
1,240709_095359,FalseCHOICE,9.0,2,2.0,500.0,,,,,,,,,,,2.0,2.0,,,B,,,,,,False,cue1.png,Hard,cue2.png,Easy,Right,Easy,Mid,0.0181542998179793,,,,,,,,,,,,,38,21,Male,0.7142857142857143,1.75,1.0,1.5,1.8333333333333333,1.75,2.4444444444444446,2.3333333333333335,1.875,2.111111111111111,1.25,1.25,1.5,1.25,,,,,,,,,,,,,,,,,,,,,,,,,0.001605591060647009,0.9271780661416464,-0.0021862766113845845,-1.0777635366860487,1.459,0.008669545095029764,,,,,,,,
2,240709_095423,FalseCHOICE,9.0,3,2.0,500.0,,,,,,,,,,,3.0,3.0,,,B,,,,,,False,cue1.png,Hard,cue2.png,Easy,Left,Hard,Mid,0.0169315999373793,,,,,,,,,,,,,38,21,Male,0.7142857142857143,1.75,1.0,1.5,1.8333333333333333,1.75,2.4444444444444446,2.3333333333333335,1.875,2.111111111111111,1.25,1.25,1.5,1.25,,,,,,,,,,,,,,,,,,,,,,,,,0.0006751631472626364,0.09762564038838265,,,1.1710000000000003,-0.6155377017471123,,,,,,,,
3,240709_095448,FalseCHOICE,9.0,4,2.0,500.0,,,,,,,,,,,4.0,4.0,,,B,,,,,,False,cue1.png,Hard,cue2.png,Easy,Right,Easy,Mid,0.0166775002144277,,,,,,,,,,,,,38,21,Male,0.7142857142857143,1.75,1.0,1.5,1.8333333333333333,1.75,2.4444444444444446,2.3333333333333335,1.875,2.111111111111111,1.25,1.25,1.5,1.25,0.7818181818181817,0.8181818181818181,0.5616831187799107,1.1741665727325752,-0.5768174336964949,1.1421179752878232,,,,,,,,,,,,,,,,,,,0.0008977083524194041,0.29604285479249115,0.0003451109808455962,-0.20808817144814903,1.5799999999999998,0.27092328421967937,,,,,,,,
4,240709_095514,FalseCHOICE,9.0,5,2.0,500.0,,,,,,,,,,,5.0,5.0,,,B,,,,,,False,cue2.png,Easy,cue1.png,Hard,Right,Hard,Mid,0.0164697002619504,,,,,,,,,,,,,38,21,Male,0.7142857142857143,1.75,1.0,1.5,1.8333333333333333,1.75,2.4444444444444446,2.3333333333333335,1.875,2.111111111111111,1.25,1.25,1.5,1.25,,,,,,,,,,,,,,,,,,,,,,,,,0.0002387260939749683,-0.2914936143494369,0.003520895967004992,0.8829742862460301,1.553,0.21240385482822874,,,,,,,,
5,240709_095542,FalseCHOICE,9.0,6,2.0,500.0,,,,,,,,,,,6.0,6.0,,,B,,,,,,False,cue1.png,Hard,cue2.png,Easy,Right,Easy,Mid,0.0168003002181649,,,,,,,,,,,,,38,21,Male,0.7142857142857143,1.75,1.0,1.5,1.8333333333333333,1.75,2.4444444444444446,2.3333333333333335,1.875,2.111111111111111,1.25,1.25,1.5,1.25,0.8958333333333333,0.6666666666666666,0.6155666249493758,2.010722123913633,-0.485212093968971,1.8234611720158689,,,,,,,,,,,,,,,,,,,0.0016782888181286117,0.9919940504840814,-0.0004992716250788419,-0.4981815389995419,,,,,,,,,,
6,240709_095609,FalseCHOICE,9.0,7,2.0,500.0,,,,,,,,,,,7.0,7.0,,,B,,,,,,False,cue1.png,Hard,cue2.png,Easy,Right,Easy,Mid,0.0160222998820245,,,,,,,,,,,,,38,21,Male,0.7142857142857143,1.75,1.0,1.5,1.8333333333333333,1.75,2.4444444444444446,2.3333333333333335,1.875,2.111111111111111,1.25,1.25,1.5,1.25,0.95,0.9375,0.4716406199149787,-0.2237668139845435,-0.7515379818928416,-0.157420427127022,,,,,,,,,,,,,,,,,,,0.004559713495118942,3.5610193301837247,0.006943826330751312,2.058945213579347,1.4549999999999998,-4.812564288764063e-16,,,,,,,,
7,240709_095635,FalseCHOICE,9.0,8,2.0,500.0,,,,,,,,,,,8.0,8.0,,,B,,,,,,False,cue2.png,Easy,cue1.png,Hard,Right,Hard,Mid,0.0158550003543496,,,,,,,,,,,,,38,21,Male,0.7142857142857143,1.75,1.0,1.5,1.8333333333333333,1.75,2.4444444444444446,2.3333333333333335,1.875,2.111111111111111,1.25,1.25,1.5,1.25,,,,,,,,,,,,,,,,,,,,,,,,,,,0.0049509597946803055,1.3742824073193942,2.548,2.368953197216881,,,,,,,,
8,240709_095701,FalseCHOICE,9.0,9,2.0,500.0,,,,,,,,,,,9.0,9.0,,,B,,,,,,False,cue2.png,Easy,cue1.png,Hard,Left,Easy,Mid,0.0151233999058604,,,,,,,,,,,,,38,21,Male,0.7142857142857143,1.75,1.0,1.5,1.8333333333333333,1.75,2.4444444444444446,2.3333333333333335,1.875,2.111111111111111,1.25,1.25,1.5,1.25,0.7818181818181817,0.7556818181818181,0.5410149999894202,0.8532886133014121,-0.6143082741070491,0.8632681928479788,,,,,,,,,,,,,,,,,,,0.0005595463603431609,-0.00545616172348861,0.005178515057303331,1.4524605601794762,,,,,,,,,,
9,240709_095726,FalseCHOICE,9.0,10,2.0,500.0,,,,,,,,,,,10.0,10.0,,,B,,,,,,False,cue1.png,Hard,cue2.png,Easy,Left,Hard,Mid,0.0151374000124633,,,,,,,,,,,,,38,21,Male,0.7142857142857143,1.75,1.0,1.5,1.8333333333333333,1.75,2.4444444444444446,2.3333333333333335,1.875,2.111111111111111,1.25,1.25,1.5,1.25,,,,,,,,,,,,,,,,,,,,,,,,,0.0013726944365092912,0.7195317168393804,,,2.786,2.884791130371151,,,,,,,,
10,240709_095752,FalseCHOICE,9.0,11,2.0,500.0,,,,,,,,,,,11.0,11.0,,,B,,,,,,False,cue2.png,Easy,cue1.png,Hard,Right,Hard,Mid,0.016651100013405,,,,,,,,,,,,,38,21,Male,0.7142857142857143,1.75,1.0,1.5,1.8333333333333333,1.75,2.4444444444444446,2.3333333333333335,1.875,2.111111111111111,1.25,1.25,1.5,1.25,0.75,0.8333333333333334,0.5237117313081399,0.5846508334327885,-0.6468138771300608,0.6214976635191396,,,,,,,,,,,,,,,,,,,,,0.0017310504961226235,0.2680607430230199,,,,,,,,,,
11,240709_095816,FalseCHOICE,9.0,12,2.0,500.0,,,,,,,,,,,12.0,12.0,,,B,,,,,,False,cue1.png,Hard,cue2.png,Easy,Left,Hard,Mid,0.0161024997942149,,,,,,,,,,,,,38,21,Male,0.7142857142857143,1.75,1.0,1.5,1.8333333333333333,1.75,2.4444444444444446,2.3333333333333335,1.875,2.111111111111111,1.25,1.25,1.5,1.25,,,,,,,,,,,,,,,,,,,,,,,,,0.0003535904356337721,-0.1890826786015877,-0.0002010393867758059,-0.3957218320909663,2.077,1.3481142622771267,,,,,,,,
12,240709_095843,FalseCHOICE,9.0,13,2.0,500.0,,,,,,,,,,,13.0,13.0,,,B,,,,,,False,cue2.png,Easy,cue1.png,Hard,Right,Hard,Mid,0.0155894001945853,,,,,,,,,,,,,38,21,Male,0.7142857142857143,1.75,1.0,1.5,1.8333333333333333,1.75,2.4444444444444446,2.3333333333333335,1.875,2.111111111111111,1.25,1.25,1.5,1.25,0.75,0.8333333333333334,0.4555032812641002,-0.4743032246483905,-0.7863523586547218,-0.41636317899705205,,,,,,,,,,,,,,,,,,,,,-0.0005073786704550319,-0.5009667693886688,1.4669999999999999,0.02600863528508881,,,,,,,,
13,240709_095907,FalseCHOICE,9.0,14,2.0,500.0,,,,,,,,,,,14.0,14.0,,,B,,,,,,False,cue1.png,Hard,cue2.png,Easy,Left,Hard,Mid,0.0163914998993277,,,,,,,,,,,,,38,21,Male,0.7142857142857143,1.75,1.0,1.5,1.8333333333333333,1.75,2.4444444444444446,2.3333333333333335,1.875,2.111111111111111,1.25,1.25,1.5,1.25,0.1666666666666666,0.6041666666666667,0.4396480733218292,-0.7204594821406544,-0.8217807054666731,-0.6798725240138911,,,,,,,,,,,,,,,,,,,0.0002731352192580387,-0.26081507070730625,-0.0007959311500612774,-0.6001009295868611,2.049,1.2874274466119184,,,,,,,,
14,240709_095930,FalseCHOICE,9.0,15,2.0,500.0,,,,,,,,,,,15.0,15.0,,,B,,,,,,False,cue2.png,Easy,cue1.png,Hard,Right,Hard,Mid,0.0161331999115645,,,,,,,,,,,,,38,21,Male,0.7142857142857143,1.75,1.0,1.5,1.8333333333333333,1.75,2.4444444444444446,2.3333333333333335,1.875,2.111111111111111,1.25,1.25,1.5,1.25,,,,,,,,,,,,,,,,,,,,,,,,,0.0007156603740922527,0.13373222346647434,0.0018893451624193425,0.3224439485618944,,,,,,,,,,
15,240709_095955,FalseCHOICE,9.0,16,2.0,500.0,,,,,,,,,,,16.0,16.0,,,B,,,,,,False,cue2.png,Easy,cue1.png,Hard,Right,Hard,Mid,0.0156503999605774,,,,,,,,,,,,,38,21,Male,0.7142857142857143,1.75,1.0,1.5,1.8333333333333333,1.75,2.4444444444444446,2.3333333333333335,1.875,2.111111111111111,1.25,1.25,1.5,1.25,0.9090909090909092,0.8465909090909091,0.480921113366882,-0.07968472158186499,-0.7320520278010021,-0.012487584874369281,,,,,,,,,,,,,,,,,,,9.109864194124101e-05,-0.42311553710204913,-0.0005437262306754805,-0.5134542200687822,,,,,,,,,,
16,240709_100021,FalseCHOICE,9.0,17,2.0,500.0,,,,,,,,,,,17.0,17.0,,,B,,,,,,False,cue1.png,Hard,cue2.png,Easy,Left,Hard,Mid,0.0170444999821484,,,,,,,,,,,,,38,21,Male,0.7142857142857143,1.75,1.0,1.5,1.8333333333333333,1.75,2.4444444444444446,2.3333333333333335,1.875,2.111111111111111,1.25,1.25,1.5,1.25,0.9375,0.9375,0.5389630001038312,0.8214307774376228,-0.6181083558767838,0.8350039031404101,,,,,,,,,,,,,,,,,,,0.0016266056121700522,0.9459142540195951,,,,,,,,,,,,
17,240709_100047,FalseCHOICE,9.0,18,2.0,500.0,,,,,,,,,,,18.0,18.0,,,B,,,,,,False,cue1.png,Hard,cue2.png,Easy,Left,Hard,Mid,0.015823199879378,,,,,,,,,,,,,38,21,Male,0.7142857142857143,1.75,1.0,1.5,1.8333333333333333,1.75,2.4444444444444446,2.3333333333333335,1.875,2.111111111111111,1.25,1.25,1.5,1.25,0.75,0.8333333333333334,0.5715723312750924,1.327699187771302,-0.5593642398448848,1.2719315312152544,,,,,,,,,,,,,,,,,,,,,,,,,,,,,,,,
18,240709_100119,FalseCHOICE,9.0,19,2.0,500.0,,,,,,,,,,,20.0,19.0,,,B,,,,,,False,cue2.png,Easy,cue1.png,Hard,Right,Hard,Mid,0.0171827999874949,,,,,,,,,,,,,38,21,Male,0.7142857142857143,1.75,1.0,1.5,1.8333333333333333,1.75,2.4444444444444446,2.3333333333333335,1.875,2.111111111111111,1.25,1.25,1.5,1.25,0.0484848484848484,0.6022727272727273,0.4501930357156588,-0.5567461781138164,-0.7980788199413313,-0.5035823808808222,,,,,,,,,,,,,,,,,,,0.0006853489683251749,0.10670713122627286,0.0015386791519074808,0.20197026381109637,,,,,,,,,,
19,240709_100145,FalseCHOICE,9.0,20,2.0,500.0,,,,,,,,,,,21.0,20.0,,,B,,,,,,False,cue2.png,Easy,cue1.png,Hard,Left,Easy,Mid,0.0160667998716235,,,,,,,,,,,,,38,21,Male,0.7142857142857143,1.75,1.0,1.5,1.8333333333333333,1.75,2.4444444444444446,2.3333333333333335,1.875,2.111111111111111,1.25,1.25,1.5,1.25,0.6041666666666667,0.7083333333333334,0.516548621468246,0.4734416763776254,-0.6605858584188353,0.519064270613408,,,,,,,,,,,,,,,,,,,0.00033483993882641675,-0.20580027690970581,0.0024752916411040944,0.5237498329014295,,,,,,,,,,
20,240709_100210,FalseCHOICE,9.0,21,2.0,500.0,,,,,,,,,,,22.0,21.0,,,B,,,,,,False,cue2.png,Easy,cue1.png,Hard,Left,Easy,Mid,0.0160269001498818,,,,,,,,,,,,,38,21,Male,0.7142857142857143,1.75,1.0,1.5,1.8333333333333333,1.75,2.4444444444444446,2.3333333333333335,1.875,2.111111111111111,1.25,1.25,1.5,1.25,1.0,0.9375,0.4711949200369417,-0.2306864213679224,-0.7524834276091952,-0.1644524736062911,,,,,,,,,,,,,,,,,,,0.0017704039608214261,1.0741222185777062,0.0031679008748141287,0.7617004296977278,2.003,1.1877276780190766,,,,,,,,
21,240709_100236,FalseCHOICE,9.0,22,2.0,500.0,,,,,,,,,,,23.0,22.0,,,B,,,,,,False,cue1.png,Hard,cue2.png,Easy,Right,Easy,Mid,0.0163970999419689,,,,,,,,,,,,,38,21,Male,0.7142857142857143,1.75,1.0,1.5,1.8333333333333333,1.75,2.4444444444444446,2.3333333333333335,1.875,2.111111111111111,1.25,1.25,1.5,1.25,0.6041666666666667,0.7708333333333334,0.4344571333068112,-0.8010501859406985,-0.8336579966653871,-0.7682135702659161,,,,,,,,,,,,,,,,,,,0.0012009638704249285,0.5664199006288405,0.0014137713454694337,0.15905734027520674,0.9029999999999998,-1.196397223114107,,,,,,,,
22,240709_100301,FalseCHOICE,9.0,23,2.0,500.0,,,,,,,,,,,24.0,23.0,,,B,,,,,,False,cue2.png,Easy,cue1.png,Hard,Right,Hard,Mid,0.0166564001701772,,,,,,,,,,,,,38,21,Male,0.7142857142857143,1.75,1.0,1.5,1.8333333333333333,1.75,2.4444444444444446,2.3333333333333335,1.875,2.111111111111111,1.25,1.25,1.5,1.25,0.75,0.7708333333333334,0.5214079266724487,0.5488836628488478,-0.6512225749276992,0.5887066028693387,,,,,,,,,,,,,,,,,,,-0.0014002217740488772,-1.7527494086397082,,,1.5460000000000003,0.19723215091192736,,,,,,,,
23,240709_100326,FalseCHOICE,9.0,24,2.0,500.0,,,,,,,,,,,25.0,24.0,,,B,,,,,,False,cue1.png,Hard,cue2.png,Easy,Right,Easy,Mid,0.0169504000805318,,,,,,,,,,,,,38,21,Male,0.7142857142857143,1.75,1.0,1.5,1.8333333333333333,1.75,2.4444444444444446,2.3333333333333335,1.875,2.111111111111111,1.25,1.25,1.5,1.25,0.7704545454545455,0.7215909090909091,0.392591815513487,-1.4510202137228048,-0.9349848442407054,-1.521863504283894,,,,,,,,,,,,,,,,,,,-0.0012534416150686584,-1.6218829167998523,-0.0020895411774700928,-1.0445294226849944,1.0010000000000001,-0.9839933682858772,,,,,,,,
24,240709_100352,FalseCHOICE,9.0,25,2.0,500.0,,,,,,,,,,,26.0,25.0,,,B,,,,,,False,cue1.png,Hard,cue2.png,Easy,Left,Hard,Mid,0.0161135997623205,,,,,,,,,,,,,38,21,Male,0.7142857142857143,1.75,1.0,1.5,1.8333333333333333,1.75,2.4444444444444446,2.3333333333333335,1.875,2.111111111111111,1.25,1.25,1.5,1.25,0.75,0.7083333333333334,0.5155834142517831,0.4584565814501984,-0.6624561762937273,0.5051531998879791,,,,,,,,,,,,,,,,,,,-0.0005498636317398942,-0.994585719047091,-0.0014042654072715568,-0.8090982869848148,1.2860000000000003,-0.3662882802650068,,,,,,,,
25,240709_100419,FalseCHOICE,9.0,26,2.0,500.0,,,,,,,,,,,27.0,26.0,,,B,,,,,,False,cue2.png,Easy,cue1.png,Hard,Right,Hard,Mid,0.0162708996795117,,,,,,,,,,,,,38,21,Male,0.7142857142857143,1.75,1.0,1.5,1.8333333333333333,1.75,2.4444444444444446,2.3333333333333335,1.875,2.111111111111111,1.25,1.25,1.5,1.25,0.0484848484848484,0.6647727272727273,0.5651889467611909,1.2285954706963051,-0.5705951846949262,1.1883978868975267,,,,,,,,,,,,,,,,,,,-0.0016379194270407299,-1.9646762670225457,,,0.8220000000000003,-1.3719555112884585,,,,,,,,
26,240709_100445,FalseCHOICE,9.0,27,2.0,500.0,,,,,,,,,,,28.0,27.0,,,B,,,,,,False,cue2.png,Easy,cue1.png,Hard,Right,Hard,Mid,0.0153699000366032,,,,,,,,,,,,,38,21,Male,0.7142857142857143,1.75,1.0,1.5,1.8333333333333333,1.75,2.4444444444444446,2.3333333333333335,1.875,2.111111111111111,1.25,1.25,1.5,1.25,0.7818181818181817,0.8181818181818181,0.4916348874976393,0.08664942889077155,-0.7100189365633186,0.1513903818722942,,,,,,,,,,,,,,,,,,,0.001395413389182724,0.7397875174551064,0.006562157821032271,1.9278204100887524,1.4480000000000002,-0.015171703916301847,,,,,,,,
27,240709_100510,FalseCHOICE,9.0,28,2.0,500.0,,,,,,,,,,,29.0,28.0,,,B,,,,,,False,cue1.png,Hard,cue2.png,Easy,Right,Easy,Mid,0.0159311001189053,,,,,,,,,,,,,38,21,Male,0.7142857142857143,1.75,1.0,1.5,1.8333333333333333,1.75,2.4444444444444446,2.3333333333333335,1.875,2.111111111111111,1.25,1.25,1.5,1.25,0.6041666666666667,0.7708333333333334,0.4433400466417272,-0.6631406290233479,-0.81341820374821,-0.617673817361537,,,,,,,,,,,,,,,,,,,0.0015648741995071547,0.8908756611495561,0.0026649930411187447,0.5889230346862,1.5190000000000001,0.13871272152047623,,,,,,,,
28,240709_100539,FalseCHOICE,9.0,29,2.0,500.0,,,,,,,,,,,31.0,29.0,,,B,,,,,,False,cue2.png,Easy,cue1.png,Hard,Right,Hard,Mid,0.0017078998498618,,,,,,,,,,,,,38,21,Male,0.7142857142857143,1.75,1.0,1.5,1.8333333333333333,1.75,2.4444444444444446,2.3333333333333335,1.875,2.111111111111111,1.25,1.25,1.5,1.25,0.7818181818181817,0.8181818181818181,0.4629866562318057,-0.35812186757198394,-0.770057045544895,-0.29516172110214844,,,,,,,,,,,,,,,,,,,0.0015578385952739427,0.8846028457338283,-0.0030538277902280274,-1.37581662450202,1.3719999999999999,-0.17989306072186784,,,,,,,,
29,240709_100606,FalseCHOICE,9.0,30,2.0,500.0,,,,,,,,,,,32.0,30.0,,,B,,,,,,False,cue2.png,Easy,cue1.png,Hard,Right,Hard,Mid,0.0165519001893699,,,,,,,,,,,,,38,21,Male,0.7142857142857143,1.75,1.0,1.5,1.8333333333333333,1.75,2.4444444444444446,2.3333333333333335,1.875,2.111111111111111,1.25,1.25,1.5,1.25,0.1590909090909091,0.5738636363636364,0.5671591866140564,1.2591839606302953,-0.5671152622522235,1.2142808920643566,,,,,,,,,,,,,,,,,,,-0.00042594610929998916,-0.8841031337176769,-0.0005515731022860022,-0.5161500659972372,1.0039999999999998,-0.9774912094646057,,,,,,,,
30,240709_100632,FalseCHOICE,9.0,31,2.0,500.0,,,,,,,,,,,33.0,31.0,,,B,,,,,,False,cue1.png,Hard,cue2.png,Easy,Left,Hard,Mid,0.015988599974662,,,,,,,,,,,,,38,21,Male,0.7142857142857143,1.75,1.0,1.5,1.8333333333333333,1.75,2.4444444444444446,2.3333333333333335,1.875,2.111111111111111,1.25,1.25,1.5,1.25,0.6041666666666667,0.7708333333333334,0.5377272200460236,0.8022449682561169,-0.6204038733382266,0.8179302782842979,,,,,,,,,,,,,,,,,,,7.884051557547483e-05,-0.4340446572580891,0.0023984927503883525,0.4973650534476298,,,,,,,,,,
31,240709_100657,FalseCHOICE,9.0,32,2.0,500.0,,,,,,,,,,,34.0,32.0,,,B,,,,,,False,cue2.png,Easy,cue1.png,Hard,Right,Hard,Mid,0.0163782997988164,,,,,,,,,,,,,38,21,Male,0.7142857142857143,1.75,1.0,1.5,1.8333333333333333,1.75,2.4444444444444446,2.3333333333333335,1.875,2.111111111111111,1.25,1.25,1.5,1.25,0.5,0.75,0.4158647124422714,-1.0897023912223818,-0.8773952820885772,-1.0935232296709512,,,,,,,,,,,,,,,,,,,,,0.0036945042249768596,0.942618580001528,0.8800000000000001,-1.2462471074105272,,,,,,,,
32,240709_100722,FalseCHOICE,9.0,33,2.0,500.0,,,,,,,,,,,35.0,33.0,,,B,,,,,,False,cue1.png,Hard,cue2.png,Easy,Right,Easy,Mid,0.0165257998742163,,,,,,,,,,,,,38,21,Male,0.7142857142857143,1.75,1.0,1.5,1.8333333333333333,1.75,2.4444444444444446,2.3333333333333335,1.875,2.111111111111111,1.25,1.25,1.5,1.25,0.6113636363636364,0.6647727272727273,0.4831388799784084,-0.04525331386571728,-0.7274511304729904,0.021733019542461977,,,,,,,,,,,,,,,,,,,-0.0004684152126960086,-0.9219678056981058,,,0.6040000000000001,-1.8444457189675805,,,,,,,,
33,240709_100748,FalseCHOICE,9.0,34,2.0,500.0,,,,,,,,,,,36.0,34.0,,,B,,,,,,False,cue1.png,Hard,cue2.png,Easy,Left,Hard,Mid,0.0151887997053563,,,,,,,,,,,,,38,21,Male,0.7142857142857143,1.75,1.0,1.5,1.8333333333333333,1.75,2.4444444444444446,2.3333333333333335,1.875,2.111111111111111,1.25,1.25,1.5,1.25,0.5,0.6875,0.4816600800181428,-0.06821207070599748,-0.7305166419000315,-0.0010676748441230512,,,,,,,,,,,,,,,,,,,0.0002626787938740894,-0.2701378273842974,0.0004424312715930259,-0.17465312591793714,1.46,0.010836931368786964,,,,,,,,
34,240709_100812,FalseCHOICE,9.0,35,2.0,500.0,,,,,,,,,,,37.0,35.0,,,B,,,,,,False,cue1.png,Hard,cue2.png,Easy,Left,Hard,Mid,0.0154442000202834,,,,,,,,,,,,,38,21,Male,0.7142857142857143,1.75,1.0,1.5,1.8333333333333333,1.75,2.4444444444444446,2.3333333333333335,1.875,2.111111111111111,1.25,1.25,1.5,1.25,0.7818181818181817,0.8181818181818181,0.4063728562323376,-1.2370659458221802,-0.9004841757153533,-1.2652540549631666,,,,,,,,,,,,,,,,,,,-0.0009696899368431726,-1.3688951360191721,0.003623376818116194,0.9181822772678653,1.6050000000000002,0.3251079410636161,,,,,,,,
35,240709_100839,FalseCHOICE,9.0,36,2.0,500.0,,,,,,,,,,,38.0,36.0,,,B,,,,,,False,cue2.png,Easy,cue1.png,Hard,Right,Hard,Mid,0.0155218997970223,,,,,,,,,,,,,38,21,Male,0.7142857142857143,1.75,1.0,1.5,1.8333333333333333,1.75,2.4444444444444446,2.3333333333333335,1.875,2.111111111111111,1.25,1.25,1.5,1.25,0.6113636363636364,0.6022727272727273,0.5520280499144324,1.0242690988924565,-0.5941564189337056,1.0131538814404424,,,,,,,,,,,,,,,,,,,,,0.003105241454524423,0.7401733611471407,1.808,0.7650873546363759,,,,,,,,
36,240709_100902,FalseCHOICE,9.0,37,2.0,500.0,,,,,,,,,,,39.0,37.0,,,B,,,,,,False,cue1.png,Hard,cue2.png,Easy,Right,Easy,Mid,0.0150423999875783,,,,,,,,,,,,,38,21,Male,0.7142857142857143,1.75,1.0,1.5,1.8333333333333333,1.75,2.4444444444444446,2.3333333333333335,1.875,2.111111111111111,1.25,1.25,1.5,1.25,1.0,1.0,0.4479611813148949,-0.5913963024489873,-0.8030486991720615,-0.5405474029252801,,,,,,,,,,,,,,,,,,,0.00016932026824013555,-0.35337457285412166,0.0014108796353823495,0.15806387367456992,1.419,-0.07802590585526788,,,,,,,,
37,240709_100927,FalseCHOICE,9.0,38,2.0,500.0,,,,,,,,,,,40.0,38.0,,,B,,,,,,False,cue2.png,Easy,cue1.png,Hard,Right,Hard,Mid,0.0168088995851576,,,,,,,,,,,,,38,21,Male,0.7142857142857143,1.75,1.0,1.5,1.8333333333333333,1.75,2.4444444444444446,2.3333333333333335,1.875,2.111111111111111,1.25,1.25,1.5,1.25,0.0715909090909091,0.6363636363636364,0.4962469937745482,0.15825358724770425,-0.7006815048841274,0.2208404332388777,,,,,,,,,,,,,,,,,,,,,-0.00460240455575758,-1.9078406686644271,1.674,0.4746575939528788,,,,,,,,
38,240709_100952,FalseCHOICE,9.0,39,2.0,500.0,,,,,,,,,,,41.0,39.0,,,B,,,,,,False,cue2.png,Easy,cue1.png,Hard,Right,Hard,Mid,0.0147416000254452,,,,,,,,,,,,,38,21,Male,0.7142857142857143,1.75,1.0,1.5,1.8333333333333333,1.75,2.4444444444444446,2.3333333333333335,1.875,2.111111111111111,1.25,1.25,1.5,1.25,0.6909090909090909,0.7556818181818181,0.4562094866298139,-0.46333920131435535,-0.7848031744558771,-0.40484063983611446,,,,,,,,,,,,,,,,,,,0.0017970397993277692,1.0978702426073559,,,1.4889999999999999,0.07369113330775251,,,,,,,,
39,240709_101016,FalseCHOICE,9.0,40,2.0,500.0,,,,,,,,,,,42.0,40.0,,,B,,,,,,False,cue1.png,Hard,cue2.png,Easy,Left,Hard,Mid,0.0165153997950255,,,,,,,,,,,,,38,21,Male,0.7142857142857143,1.75,1.0,1.5,1.8333333333333333,1.75,2.4444444444444446,2.3333333333333335,1.875,2.111111111111111,1.25,1.25,1.5,1.25,0.9090909090909092,0.9090909090909092,0.4658526187122334,-0.31362704915875544,-0.7638859637379022,-0.24926238141132676,,,,,,,,,,,,,,,,,,,0.000665460420909399,0.08897486791373622,0.00065114434455115,-0.1029483350309492,1.4620000000000002,0.015171703916302327,,,,,,,,
40,240709_101043,FalseCHOICE,9.0,41,2.0,500.0,,,,,,,,,,,43.0,41.0,,,B,,,,,,False,cue1.png,Hard,cue2.png,Easy,Left,Hard,Mid,0.0160427996888756,,,,,,,,,,,,,38,21,Male,0.7142857142857143,1.75,1.0,1.5,1.8333333333333333,1.75,2.4444444444444446,2.3333333333333335,1.875,2.111111111111111,1.25,1.25,1.5,1.25,0.8125,0.7291666666666666,0.5261509615139892,0.6225205214759941,-0.6421671083447587,0.6560594511622084,,,,,,,,,,,,,,,,,,,0.0022501637261404753,1.5018672070654067,-0.0008122787928512417,-0.6057172730728524,0.8879999999999999,-1.2289080172204683,,,,,,,,
41,240709_101110,FalseCHOICE,9.0,42,2.0,500.0,,,,,,,,,,,44.0,42.0,,,B,,,,,,False,cue2.png,Easy,cue1.png,Hard,Left,Easy,Mid,0.0160893001593649,,,,,,,,,,,,,38,21,Male,0.7142857142857143,1.75,1.0,1.5,1.8333333333333333,1.75,2.4444444444444446,2.3333333333333335,1.875,2.111111111111111,1.25,1.25,1.5,1.25,0.95,0.9375,0.6031169000392159,1.817436882758089,-0.505644236965862,1.6714907555869294,,,,,,,,,,,,,,,,,,,,,,,,,,,,,,,,
42,240709_101138,FalseCHOICE,9.0,43,2.0,500.0,,,,,,,,,,,45.0,43.0,,,B,,,,,,False,cue1.png,Hard,cue2.png,Easy,Left,Hard,Mid,0.0154706998728215,,,,,,,,,,,,,38,21,Male,0.7142857142857143,1.75,1.0,1.5,1.8333333333333333,1.75,2.4444444444444446,2.3333333333333335,1.875,2.111111111111111,1.25,1.25,1.5,1.25,0.8409090909090908,0.7840909090909091,0.5755903356974679,1.3900797591772698,-0.5523590940725808,1.324034480980458,,,,,,,,,,,,,,,,,,,0.0008085202668258705,0.21652439700752915,-0.0004522245827602448,-0.4820182087227502,1.2790000000000001,-0.3814599841813091,,,,,,,,
43,240709_101202,FalseCHOICE,9.0,44,2.0,500.0,,,,,,,,,,,46.0,44.0,,,B,,,,,,False,cue2.png,Easy,cue1.png,Hard,Right,Hard,Mid,0.0166516001336276,,,,,,,,,,,,,38,21,Male,0.7142857142857143,1.75,1.0,1.5,1.8333333333333333,1.75,2.4444444444444446,2.3333333333333335,1.875,2.111111111111111,1.25,1.25,1.5,1.25,0.1363636363636363,0.5454545454545454,0.4184380500519182,-1.049750650598032,-0.8712264285596915,-1.0476404634913805,,,,,,,,,,,,,,,,,,,-0.0005339094178320779,-0.9803612351748537,-0.0069990899309896135,-2.731238174231296,1.9769999999999999,1.1313756349013828,,,,,,,,
44,240709_101225,FalseCHOICE,9.0,45,2.0,500.0,,,,,,,,,,,47.0,45.0,,,B,,,,,,False,cue1.png,Hard,cue2.png,Easy,Left,Hard,Mid,0.0164721999317407,,,,,,,,,,,,,38,21,Male,0.7142857142857143,1.75,1.0,1.5,1.8333333333333333,1.75,2.4444444444444446,2.3333333333333335,1.875,2.111111111111111,1.25,1.25,1.5,1.25,0.8958333333333333,0.8541666666666666,0.3722553865673641,-1.7667486014148253,-0.9881751372275771,-1.917482846631986,,,,,,,,,,,,,,,,,,,0.0003475876627262557,-0.19443464059138135,-0.003528324164416935,-1.538833070025181,1.5930000000000002,0.29909930577852684,,,,,,,,
45,240709_101249,FalseCHOICE,9.0,46,2.0,500.0,,,,,,,,,,,48.0,46.0,,,B,,,,,,False,cue1.png,Hard,cue2.png,Easy,Right,Easy,Mid,0.0150868999771773,,,,,,,,,,,,,38,21,Male,0.7142857142857143,1.75,1.0,1.5,1.8333333333333333,1.75,2.4444444444444446,2.3333333333333335,1.875,2.111111111111111,1.25,1.25,1.5,1.25,0.6113636363636364,0.7272727272727273,0.3857805937877856,-1.5567662156076905,-0.9524864809996448,-1.6520373693967592,,,,,,,,,,,,,,,,,,,-3.077309487103247e-05,-0.5317741375686276,0.0014767562994858355,0.18069624814409135,1.5190000000000001,0.13871272152047623,,,,,,,,
46,240709_101314,FalseCHOICE,9.0,47,2.0,500.0,,,,,,,,,,,49.0,47.0,,,B,,,,,,False,cue2.png,Easy,cue1.png,Hard,Right,Hard,Mid,0.0163150001317262,,,,,,,,,,,,,38,21,Male,0.7142857142857143,1.75,1.0,1.5,1.8333333333333333,1.75,2.4444444444444446,2.3333333333333335,1.875,2.111111111111111,1.25,1.25,1.5,1.25,0.5,0.6875,0.4186900466059645,-1.0458383380713951,-0.8706243783772546,-1.043162528066302,,,,,,,,,,,,,,,,,,,-0.0002548601194040526,-0.7315660097890426,,,0.9549999999999998,-1.08369313687872,,,,,,,,
47,240709_101336,FalseCHOICE,9.0,48,2.0,500.0,,,,,,,,,,,50.0,48.0,,,B,,,,,,False,cue2.png,Easy,cue1.png,Hard,Right,Hard,Mid,0.0162953999824821,,,,,,,,,,,,,38,21,Male,0.7142857142857143,1.75,1.0,1.5,1.8333333333333333,1.75,2.4444444444444446,2.3333333333333335,1.875,2.111111111111111,1.25,1.25,1.5,1.25,0.5,0.75,0.349677337508183,-2.11727872868408,-1.0507444425369878,-2.3828615093100742,,,,,,,,,,,,,,,,,,,,,0.004744383580077379,1.303311748604114,0.7869999999999999,-1.4478140308699696,,,,,,,,
48,240709_101403,FalseCHOICE,9.0,49,2.0,500.0,,,,,,,,,,,51.0,49.0,,,B,,,,,,False,cue1.png,Hard,cue2.png,Easy,Left,Hard,Mid,0.0144483000040054,,,,,,,,,,,,,38,21,Male,0.7142857142857143,1.75,1.0,1.5,1.8333333333333333,1.75,2.4444444444444446,2.3333333333333335,1.875,2.111111111111111,1.25,1.25,1.5,1.25,0.9090909090909092,0.9090909090909092,0.5773632499622181,1.417604717654923,-0.5492836612291503,1.3469089689862677,,,,,,,,,,,,,,,,,,,,,,,,,,,,,,,,
49,240709_101429,FalseCHOICE,9.0,50,2.0,500.0,,,,,,,,,,,52.0,50.0,,,B,,,,,,False,cue2.png,Easy,cue1.png,Hard,Right,Hard,Mid,0.0159864998422563,,,,,,,,,,,,,38,21,Male,0.7142857142857143,1.75,1.0,1.5,1.8333333333333333,1.75,2.4444444444444446,2.3333333333333335,1.875,2.111111111111111,1.25,1.25,1.5,1.25,0.0715909090909091,0.5113636363636364,0.4649483643006533,-0.3276658358202657,-0.7658289240754035,-0.26371375303886063,,,,,,,,,,,,,,,,,,,0.0001371113215894353,-0.3820914776682272,0.0010252582275235428,0.025581025235030825,1.3869999999999998,-0.14738226661550646,,,,,,,,
0,240709_092218,OFFLINERATING,9.0,1,1.0,,,,,,,,,,,,,,,,,T0,cue2.png,Easy,41.0,0.7599341003224254,,,,,,,,,,,,,,,,,,,,,,38,21,Male,0.7142857142857143,1.75,1.0,1.5,1.8333333333333333,1.75,2.4444444444444446,2.3333333333333335,1.875,2.111111111111111,1.25,1.25,1.5,1.25,,,,,,,,,,,,,,,,,,,,,,,,,,,,,,,0.06776344550642936,,,-9.892166683415395e-06,-0.9377798641205858,,,
1,240709_092225,OFFLINERATING,9.0,2,3.0,,,,,,,,,,,,,,,,,T0,cue1.png,Hard,25.0,1.051727400161326,,,,,,,,,,,,,,,,,,,,,,38,21,Male,0.7142857142857143,1.75,1.0,1.5,1.8333333333333333,1.75,2.4444444444444446,2.3333333333333335,1.875,2.111111111111111,1.25,1.25,1.5,1.25,,,,,,,,,,,,,,,,,,,,,,,,,,,,,,,-0.5517880562666391,,,-0.0001062916252722191,-1.009459545606602,1.58,1.3914590028166638,
2,240709_094626,OFFLINERATING,9.0,3,1.0,,,,,,,,,,,,,,,,,T1,cue2.png,Easy,82.0,1.071872000116855,,,,,,,,,,,,,,,,,,,,,,38,21,Male,0.7142857142857143,1.75,1.0,1.5,1.8333333333333333,1.75,2.4444444444444446,2.3333333333333335,1.875,2.111111111111111,1.25,1.25,1.5,1.25,,,,,,,,,,,,,,,,,,,,,,,,,,,,,,,1.6553641687999172,1.9811064807942654e-05,-0.5094760690006945,0.002129390844441703,0.6529253855840463,,,
3,240709_094633,OFFLINERATING,9.0,4,3.0,,,,,,,,,,,,,,,,,T1,cue1.png,Hard,8.0,0.8528283000923693,,,,,,,,,,,,,,,,,,,,,,38,21,Male,0.7142857142857143,1.75,1.0,1.5,1.8333333333333333,1.75,2.4444444444444446,2.3333333333333335,1.875,2.111111111111111,1.25,1.25,1.5,1.25,,,,,,,,,,,,,,,,,,,,,,,,,,,,,,,-1.2100615269005242,0.001233640874189458,1.3972465033252832,0.0029919716514472247,1.2943140241431417,,,
4,240709_095133,OFFLINERATING,9.0,5,1.0,,,,,,,,,,,,,,,,,T2,cue2.png,Easy,70.0,0.9852795996703207,,,,,,,,,,,,,,,,,,,,,,38,21,Male,0.7142857142857143,1.75,1.0,1.5,1.8333333333333333,1.75,2.4444444444444446,2.3333333333333335,1.875,2.111111111111111,1.25,1.25,1.5,1.25,,,,,,,,,,,,,,,,,,,,,,,,,,,,,,,1.1907005424701158,-0.00022101315577651923,-0.8877704343245887,,,1.469,-0.47691135177184024,
5,240709_095140,OFFLINERATING,9.0,6,3.0,,,,,,,,,,,,,,,,,T2,cue1.png,Hard,13.0,0.7517164000310004,,,,,,,,,,,,,,,,,,,,,,38,21,Male,0.7142857142857143,1.75,1.0,1.5,1.8333333333333333,1.75,2.4444444444444446,2.3333333333333335,1.875,2.111111111111111,1.25,1.25,1.5,1.25,,,,,,,,,,,,,,,,,,,,,,,,,,,,,,,-1.0164516825964405,,,,,1.4429999999999998,-0.9145476510448274,
6,240709_101448,OFFLINERATING,9.0,7,1.0,,,,,,,,,,,,,,,,,T3,cue2.png,Easy,56.0,1.5213187001645565,,,,,,,,,,,,,,,,,,,,,,38,21,Male,0.7142857142857143,1.75,1.0,1.5,1.8333333333333333,1.75,2.4444444444444446,2.3333333333333335,1.875,2.111111111111111,1.25,1.25,1.5,1.25,,,,,,,,,,,,,,,,,,,,,,,,,,,,,,,0.648592978418681,,,,,,,
7,240709_101456,OFFLINERATING,9.0,8,3.0,,,,,,,,,,,,,,,,,T3,cue1.png,Hard,19.0,1.75222560018301,,,,,,,,,,,,,,,,,,,,,,38,21,Male,0.7142857142857143,1.75,1.0,1.5,1.8333333333333333,1.75,2.4444444444444446,2.3333333333333335,1.875,2.111111111111111,1.25,1.25,1.5,1.25,,,,,,,,,,,,,,,,,,,,,,,,,,,,,,,-0.7841198694315398,,,,,,,
0,240709_095155,LEARNINGCHECK,9.0,1,,,,,,,,,,,,1.0,1.0,1.0,,,B,,,,,,,,,,,,,,,cue2.png,Easy,Left,Left,Easy,0.015190599951893,1.0,,,,,,38,21,Male,0.7142857142857143,1.75,1.0,1.5,1.8333333333333333,1.75,2.4444444444444446,2.3333333333333335,1.875,2.111111111111111,1.25,1.25,1.5,1.25,,,,,,,,,,,,,,,,,,,,,,,,,,,,,,,,,,,,,,
1,240709_101510,LEARNINGCHECK,9.0,1,,,,,,,,,,,,1.0,1.0,1.0,,,B,,,,,,,,,,,,,,,cue2.png,Easy,Middle,Middle,Mid,0.0139444000087678,1.0,,,,,,38,21,Male,0.7142857142857143,1.75,1.0,1.5,1.8333333333333333,1.75,2.4444444444444446,2.3333333333333335,1.875,2.111111111111111,1.25,1.25,1.5,1.25,,,,,,,,,,,,,,,,,,,,,,,,,,,,,,,,,,,,,,
2,240709_095200,LEARNINGCHECK,9.0,2,,,,,,,,,,,,2.0,2.0,2.0,,,B,,,,,,,,,,,,,,,cue1.png,Hard,Right,Right,Hard,0.0161039000377059,1.0,,,,,,38,21,Male,0.7142857142857143,1.75,1.0,1.5,1.8333333333333333,1.75,2.4444444444444446,2.3333333333333335,1.875,2.111111111111111,1.25,1.25,1.5,1.25,,,,,,,,,,,,,,,,,,,,,,,,,,,,,,,,,,,,,,
3,240709_101515,LEARNINGCHECK,9.0,2,,,,,,,,,,,,2.0,2.0,2.0,,,B,,,,,,,,,,,,,,,cue1.png,Hard,Middle,Middle,Mid,0.0147228999994695,1.0,,,,,,38,21,Male,0.7142857142857143,1.75,1.0,1.5,1.8333333333333333,1.75,2.4444444444444446,2.3333333333333335,1.875,2.111111111111111,1.25,1.25,1.5,1.25,,,,,,,,,,,,,,,,,,,,,,,,,,,,,,,,,,,,,,
0,240709_101526,DEMANDRATING,9.0,-1,,,,,,,,,,,,,,,,,,,,,,,,,,,,,,,,,,,,,,,1.0,MentalDemand,1.0,96.0,2.2797046001069248,38,21,Male,0.7142857142857143,1.75,1.0,1.5,1.8333333333333333,1.75,2.4444444444444446,2.3333333333333335,1.875,2.111111111111111,1.25,1.25,1.5,1.25,,,,,,,,,,,,,,,,,,,,,,,,,,,,,,,,,,,,,,0.7567689938157028
1,240709_101532,DEMANDRATING,9.0,-1,,,,,,,,,,,,,,,,,,,,,,,,,,,,,,,,,,,,,,,2.0,Effort,1.0,85.0,4.918768200092018,38,21,Male,0.7142857142857143,1.75,1.0,1.5,1.8333333333333333,1.75,2.4444444444444446,2.3333333333333335,1.875,2.111111111111111,1.25,1.25,1.5,1.25,,,,,,,,,,,,,,,,,,,,,,,,,,,,,,,,,,,,,,0.3054429071424824
2,240709_101539,DEMANDRATING,9.0,-1,,,,,,,,,,,,,,,,,,,,,,,,,,,,,,,,,,,,,,,3.0,Frustration,1.0,20.0,4.7486467002891,38,21,Male,0.7142857142857143,1.75,1.0,1.5,1.8333333333333333,1.75,2.4444444444444446,2.3333333333333335,1.875,2.111111111111111,1.25,1.25,1.5,1.25,,,,,,,,,,,,,,,,,,,,,,,,,,,,,,,,,,,,,,-2.36148396865382
3,240709_101544,DEMANDRATING,9.0,-1,,,,,,,,,,,,,,,,,,,,,,,,,,,,,,,,,,,,,,,4.0,MentalDemand,2.0,65.0,3.79632670013234,38,21,Male,0.7142857142857143,1.75,1.0,1.5,1.8333333333333333,1.75,2.4444444444444446,2.3333333333333335,1.875,2.111111111111111,1.25,1.25,1.5,1.25,,,,,,,,,,,,,,,,,,,,,,,,,,,,,,,,,,,,,,-0.5151499777179183
4,240709_101548,DEMANDRATING,9.0,-1,,,,,,,,,,,,,,,,,,,,,,,,,,,,,,,,,,,,,,,5.0,Effort,2.0,86.0,2.294639099854976,38,21,Male,0.7142857142857143,1.75,1.0,1.5,1.8333333333333333,1.75,2.4444444444444446,2.3333333333333335,1.875,2.111111111111111,1.25,1.25,1.5,1.25,,,,,,,,,,,,,,,,,,,,,,,,,,,,,,,,,,,,,,0.3464725513855024
5,240709_101552,DEMANDRATING,9.0,-1,,,,,,,,,,,,,,,,,,,,,,,,,,,,,,,,,,,,,,,6.0,Frustration,2.0,58.0,2.5173200997523963,38,21,Male,0.7142857142857143,1.75,1.0,1.5,1.8333333333333333,1.75,2.4444444444444446,2.3333333333333335,1.875,2.111111111111111,1.25,1.25,1.5,1.25,,,,,,,,,,,,,,,,,,,,,,,,,,,,,,,,,,,,,,-0.8023574874190585
6,240709_101557,DEMANDRATING,9.0,-1,,,,,,,,,,,,,,,,,,,,,,,,,,,,,,,,,,,,,,,7.0,MentalDemand,3.0,98.0,3.0616927999071777,38,21,Male,0.7142857142857143,1.75,1.0,1.5,1.8333333333333333,1.75,2.4444444444444446,2.3333333333333335,1.875,2.111111111111111,1.25,1.25,1.5,1.25,,,,,,,,,,,,,,,,,,,,,,,,,,,,,,,,,,,,,,0.8388282823017429
7,240709_101559,DEMANDRATING,9.0,-1,,,,,,,,,,,,,,,,,,,,,,,,,,,,,,,,,,,,,,,8.0,Effort,3.0,95.0,1.2606081999838352,38,21,Male,0.7142857142857143,1.75,1.0,1.5,1.8333333333333333,1.75,2.4444444444444446,2.3333333333333335,1.875,2.111111111111111,1.25,1.25,1.5,1.25,,,,,,,,,,,,,,,,,,,,,,,,,,,,,,,,,,,,,,0.7157393495726827
8,240709_101602,DEMANDRATING,9.0,-1,,,,,,,,,,,,,,,,,,,,,,,,,,,,,,,,,,,,,,,9.0,Frustration,3.0,95.0,1.3703398001380265,38,21,Male,0.7142857142857143,1.75,1.0,1.5,1.8333333333333333,1.75,2.4444444444444446,2.3333333333333335,1.875,2.111111111111111,1.25,1.25,1.5,1.25,,,,,,,,,,,,,,,,,,,,,,,,,,,,,,,,,,,,,,0.7157393495726827
