,END,Phase,Block,TrialN,NbackLevel,ISI,Letter_Resp,Letter_RT,Letter_Accuracy,Trial_A_measure,Trial_ACC,Trial_RT,TrialCountCali,CaliEnd_A_measure,ISI_calibrated,TrialIndex,TrialNumber_total,TrialNumber_valid,CueLearning,TrialDemandLearning,CueMapping,OfflineRatingTimePoint,CueFigure,TrialDemand,OfflineRating,OfflineRatingRT,PhaseType,CueLeft,CueDemandLeft,CueRight,CueDemandRight,Choice,ChoiceDemand,TaskDemand,ChoiceRT,CueCheck,CueDemandCheck,CorrectAnswer,Answer,AnswerDemand,AnswerRT,AnswerACC,DemandRatingQuesIndex,QuesTLX,DemandLevel,DemandRating,DemandRatingRT,PID,Age,Gender,BAI_bis,BAI_bas_d,BAI_bas_rr,BAI_bas_fs,NFC,BFI_ext,BFI_agr,BFI_con,BFI_neu,BFI_open,UPPS_lps,UPPS_lpm,UPPS_pu,UPPS_ss,Task_A_measure,Task_ACC,Task_RT,Task_RT_z,cue_i_on_zyg_values,cue_i_on_zyg_zvalues,cue_e_on_zyg_values,cue_e_on_zyg_zvalues,cue_i_on_cor_values,cue_i_on_cor_zvalues,cue_e_on_cor_values,cue_e_on_cor_zvalues,cue_i_on_scr_values,cue_i_on_scr_zvalues,cue_e_on_scr_values,cue_e_on_scr_zvalues,cue_e_true_zyg_values,cue_e_true_zyg_zvalues,cue_e_true_cor_values,cue_e_true_cor_zvalues,cue_e_true_scr_values,cue_e_true_scr_zvalues,cue_e_false_zyg_values,cue_e_false_zyg_zvalues,cue_e_false_cor_values,cue_e_false_cor_zvalues,cue_e_false_scr_values,cue_e_false_scr_zvalues,OfflineRating_z,cue_i_off_zyg_values,cue_i_off_zyg_zvalues,cue_i_off_cor_values,cue_i_off_cor_zvalues,cue_i_off_scr_values,cue_i_off_scr_zvalues,DemandRating_z
0,240709_140944,PRACTICE,0.0,1,1.0,1750.0,,,,,,,,,,3.0,1.0,1.0,cue1.png,Easy,A,,,,,,,,,,,,,,,,,,,,,,,,,,,39,28,Female,1.0,0.5,1.2,1.25,3.2222222222222223,3.25,2.888888888888889,2.4444444444444446,2.125,3.7777777777777777,1.5,2.25,2.5,1.0,,,,,,,,,,,,,,,,,,,,,,,,,,,,,,,,,,,,
0,240709_141145,LEARNING,1.0,1,1.0,1750.0,,,,,,,,,,1.0,1.0,1.0,cue1.png,Easy,A,,,,,,,,,,,,,,,,,,,,,,,,,,,39,28,Female,1.0,0.5,1.2,1.25,3.2222222222222223,3.25,2.888888888888889,2.4444444444444446,2.125,3.7777777777777777,1.5,2.25,2.5,1.0,1.0,1.0,0.6557352499803528,1.657959455002033,-0.0013382431992785436,-1.7588887065327903,0.00013701632287619128,-0.19438681745530895,-0.00012013223863999297,-0.5171101454068218,0.00011208831799624803,-0.20829719459523569,,,,,,,,,,,,,,,,,,,,,,,,
1,240709_141203,LEARNING,1.0,2,3.0,1750.0,,,,,,,,,,2.0,2.0,2.0,cue2.png,Hard,A,,,,,,,,,,,,,,,,,,,,,,,,,,,39,28,Female,1.0,0.5,1.2,1.25,3.2222222222222223,3.25,2.888888888888889,2.4444444444444446,2.125,3.7777777777777777,1.5,2.25,2.5,1.0,0.1666666666666666,0.6666666666666667,0.3932854374288581,-0.6787609074585087,0.0007633183598235935,0.8104669092700879,0.00037747763907092224,0.03476735024372185,0.00015267994713371105,-0.0012580905784443065,1.6643065053269408e-06,-0.3500003954758291,1.456,-0.14319662078103473,1.463,-0.28024596336768487,,,,,,,,,,,,,,,,,,,,
2,240709_141223,LEARNING,1.0,3,1.0,1750.0,,,,,,,,,,3.0,3.0,3.0,cue1.png,Easy,A,,,,,,,,,,,,,,,,,,,,,,,,,,,39,28,Female,1.0,0.5,1.2,1.25,3.2222222222222223,3.25,2.888888888888889,2.4444444444444446,2.125,3.7777777777777777,1.5,2.25,2.5,1.0,0.75,0.8333333333333334,0.4750920250662602,0.04960356442780059,0.00025581668293874187,0.18999863039151593,-0.00037225626238180515,-0.6797120134307899,4.3631666384930014e-05,-0.20745408413432534,0.00018681854021703305,-0.11239856214903135,1.452,-0.15351163160000755,1.466,-0.27333263215623926,,,,,,,,,,,,,,,,,,,,
3,240709_141242,LEARNING,1.0,4,3.0,1750.0,,,,,,,,,,4.0,4.0,4.0,cue2.png,Hard,A,,,,,,,,,,,,,,,,,,,,,,,,,,,39,28,Female,1.0,0.5,1.2,1.25,3.2222222222222223,3.25,2.888888888888889,2.4444444444444446,2.125,3.7777777777777777,1.5,2.25,2.5,1.0,1.0,1.0,0.4738482750835828,0.038529843772115276,,,-0.0010581165484283873,-1.3333212737225608,,,9.94053994257311e-05,-0.22457273225850863,1.1460000000000001,-0.942609959251427,1.9459999999999997,0.8328003616750974,,,,,,,,,,,,,,,,,,,,
4,240709_141300,LEARNING,1.0,5,3.0,1750.0,,,,,,,,,,5.0,5.0,5.0,cue2.png,Hard,A,,,,,,,,,,,,,,,,,,,,,,,,,,,39,28,Female,1.0,0.5,1.2,1.25,3.2222222222222223,3.25,2.888888888888889,2.4444444444444446,2.125,3.7777777777777777,1.5,2.25,2.5,1.0,0.1666666666666666,0.6666666666666667,0.3587429499602876,-0.9863097414741915,-0.0013976286420327201,-1.831492966054254,-0.0001685536648185805,-0.48558806891686473,-3.309062288942271e-05,-0.3525258684502254,-0.00028667091141702924,-0.7200107107554964,1.585,0.18946247813083839,1.579,-0.012930489858445313,,,,,,,,,,,,,,,,,,,,
5,240709_141318,LEARNING,1.0,6,1.0,1750.0,,,,,,,,,,6.0,6.0,6.0,cue1.png,Easy,A,,,,,,,,,,,,,,,,,,,,,,,,,,,39,28,Female,1.0,0.5,1.2,1.25,3.2222222222222223,3.25,2.888888888888889,2.4444444444444446,2.125,3.7777777777777777,1.5,2.25,2.5,1.0,0.1666666666666666,0.6666666666666667,0.2952114749932661,-1.5519618551843628,0.0002630612509263138,0.19885579251570618,0.00042625171857400574,0.08124793918287682,6.84373944143551e-05,-0.1605497065340261,-0.0003050054280732909,-0.7435387429444414,1.574,0.16109619837866343,1.594,0.021636166198784265,,,,,,,,,,,,,,,,,,,,
6,240709_141339,LEARNING,1.0,7,3.0,1750.0,,,,,,,,,,7.0,7.0,7.0,cue2.png,Hard,A,,,,,,,,,,,,,,,,,,,,,,,,,,,39,28,Female,1.0,0.5,1.2,1.25,3.2222222222222223,3.25,2.888888888888889,2.4444444444444446,2.125,3.7777777777777777,1.5,2.25,2.5,1.0,0.1666666666666666,0.5416666666666667,0.371776885685644,-0.8702621714022322,3.598955366891383e-05,-0.07876060088057057,0.0003820542745379754,0.03912877979884052,-0.00010891081265959959,-0.49589190094433994,0.00016424879254827406,-0.14136151544649794,,,,,,,,,,,,,,,,,,,,,,,,
7,240709_141357,LEARNING,1.0,8,3.0,1750.0,,,,,,,,,,8.0,8.0,8.0,cue2.png,Hard,A,,,,,,,,,,,,,,,,,,,,,,,,,,,39,28,Female,1.0,0.5,1.2,1.25,3.2222222222222223,3.25,2.888888888888889,2.4444444444444446,2.125,3.7777777777777777,1.5,2.25,2.5,1.0,0.1666666666666666,0.6666666666666667,0.3003471749834716,-1.5062361805270534,-9.295754171394048e-05,-0.2364104885217178,0.0009106540906725184,0.5428723874154495,0.0001973296113306107,0.08316856711665267,0.00033622234880952007,0.07932602397549617,,,1.2009999999999998,-0.8840102225006237,,,,,,,,,,,,,,,,,,,,
8,240709_141416,LEARNING,1.0,9,1.0,1750.0,,,,,,,,,,9.0,9.0,9.0,cue1.png,Easy,A,,,,,,,,,,,,,,,,,,,,,,,,,,,39,28,Female,1.0,0.5,1.2,1.25,3.2222222222222223,3.25,2.888888888888889,2.4444444444444446,2.125,3.7777777777777777,1.5,2.25,2.5,1.0,0.1666666666666666,0.6666666666666667,0.4726914125494659,0.028229725003662134,0.0001766913731729939,0.09326053670197183,0.0004980654718192718,0.14968481341563591,0.00019038351488977635,0.07003440996059117,0.000189106694895135,-0.10946225474976964,,,,,,,,,,,,,,,,,,,,,,,,
9,240709_141436,LEARNING,1.0,10,1.0,1750.0,,,,,,,,,,10.0,10.0,10.0,cue1.png,Easy,A,,,,,,,,,,,,,,,,,,,,,,,,,,,39,28,Female,1.0,0.5,1.2,1.25,3.2222222222222223,3.25,2.888888888888889,2.4444444444444446,2.125,3.7777777777777777,1.5,2.25,2.5,1.0,0.1666666666666666,0.5416666666666667,0.3226707285669233,-1.3074785524921861,0.0001661692906730428,0.08039630646132123,0.0003571806185081938,0.01542475107880857,-4.4830423362369944e-05,-0.3747242910759229,9.962680754305002e-06,-0.3393513873723519,1.577,0.16883245649289275,1.4270000000000003,-0.36320593790503475,,,,,,,,,,,,,,,,,,,,
10,240709_141453,LEARNING,1.0,11,3.0,1750.0,,,,,,,,,,11.0,11.0,11.0,cue2.png,Hard,A,,,,,,,,,,,,,,,,,,,,,,,,,,,39,28,Female,1.0,0.5,1.2,1.25,3.2222222222222223,3.25,2.888888888888889,2.4444444444444446,2.125,3.7777777777777777,1.5,2.25,2.5,1.0,0.1666666666666666,0.6666666666666667,0.2387803249293938,-2.0543962678797203,-0.0006898341066612444,-0.9661479294481167,,,-0.0002722305901663646,-0.8047081753422219,0.0010901484300607548,1.0468125108203075,1.926,1.0688171504482704,1.9249999999999998,0.7844070431949767,,,,,,,,,,,,,,,,,,,,
11,240709_141512,LEARNING,1.0,12,1.0,1750.0,,,,,,,,,,12.0,12.0,12.0,cue1.png,Easy,A,,,,,,,,,,,,,,,,,,,,,,,,,,,39,28,Female,1.0,0.5,1.2,1.25,3.2222222222222223,3.25,2.888888888888889,2.4444444444444446,2.125,3.7777777777777777,1.5,2.25,2.5,1.0,0.75,0.8333333333333334,0.3802331749466248,-0.7949716497025332,0.00015434791292733441,0.06594356622827302,-0.0009174960638856896,-1.1993131488118545,8.353868073177322e-05,-0.13199515514806423,-6.862007241669821e-05,-0.4401938355681077,,,1.461,-0.28485485084198214,,,,,,,,,,,,,,,,,,,,
12,240709_141533,LEARNING,1.0,13,1.0,1750.0,,,,,,,,,,13.0,13.0,13.0,cue1.png,Easy,A,,,,,,,,,,,,,,,,,,,,,,,,,,,39,28,Female,1.0,0.5,1.2,1.25,3.2222222222222223,3.25,2.888888888888889,2.4444444444444446,2.125,3.7777777777777777,1.5,2.25,2.5,1.0,0.75,0.8333333333333334,0.6661540625500493,1.7507232914383524,0.0005390077590602211,0.5362262146497891,0.0011802341858846727,0.7997760895333386,-6.283233535576624e-05,-0.4087635451008001,,,,,,,,,,,,,,,,,,,,,,,,,,
13,240709_141552,LEARNING,1.0,14,1.0,1750.0,,,,,,,,,,14.0,14.0,14.0,cue1.png,Easy,A,,,,,,,,,,,,,,,,,,,,,,,,,,,39,28,Female,1.0,0.5,1.2,1.25,3.2222222222222223,3.25,2.888888888888889,2.4444444444444446,2.125,3.7777777777777777,1.5,2.25,2.5,1.0,1.0,1.0,0.485435287526343,0.14169474090752102,0.001509072175821977,1.7222207176907667,0.003657173386629245,3.1602428372411864,0.002891081501015825,5.176700014588681,0.003282416554210996,3.8600721106685216,,,,,,,,,,,,,,,,,,,,,,,,
14,240709_141610,LEARNING,1.0,15,3.0,1750.0,,,,,,,,,,15.0,15.0,15.0,cue2.png,Hard,A,,,,,,,,,,,,,,,,,,,,,,,,,,,39,28,Female,1.0,0.5,1.2,1.25,3.2222222222222223,3.25,2.888888888888889,2.4444444444444446,2.125,3.7777777777777777,1.5,2.25,2.5,1.0,0.1666666666666666,0.6666666666666667,0.3247659250628203,-1.2888239828138104,-9.285360210994822e-05,-0.2362834126318562,,,0.0005532938344790404,0.7562502164415851,0.00022324594240527096,-0.0656525743865559,,,,,,,,,,,,,,,,,,,,,,,,
15,240709_141630,LEARNING,1.0,16,1.0,1750.0,,,,,,,,,,16.0,16.0,16.0,cue1.png,Easy,A,,,,,,,,,,,,,,,,,,,,,,,,,,,39,28,Female,1.0,0.5,1.2,1.25,3.2222222222222223,3.25,2.888888888888889,2.4444444444444446,2.125,3.7777777777777777,1.5,2.25,2.5,1.0,0.75,0.8333333333333334,0.5265729749808088,0.5079638992081268,,,,,,,0.0001599657067358315,-0.14685784691530412,,,,,,,,,,,,,,,,,,,,,,,,
16,240709_141650,LEARNING,1.0,17,1.0,1750.0,,,,,,,,,,17.0,17.0,17.0,cue1.png,Easy,A,,,,,,,,,,,,,,,,,,,,,,,,,,,39,28,Female,1.0,0.5,1.2,1.25,3.2222222222222223,3.25,2.888888888888889,2.4444444444444446,2.125,3.7777777777777777,1.5,2.25,2.5,1.0,1.0,1.0,0.4987621124018915,0.26035004780559584,,,,,-0.00012087471562699991,-0.5185140719884885,-0.001553583988862579,-2.345795138323389,,,,,,,,,,,,,,,,,,,,,,,,
17,240709_141710,LEARNING,1.0,18,3.0,1750.0,,,,,,,,,,18.0,18.0,18.0,cue2.png,Hard,A,,,,,,,,,,,,,,,,,,,,,,,,,,,39,28,Female,1.0,0.5,1.2,1.25,3.2222222222222223,3.25,2.888888888888889,2.4444444444444446,2.125,3.7777777777777777,1.5,2.25,2.5,1.0,0.75,0.8333333333333334,0.5723415250540711,0.9154639155988904,,,,,0.0006603451239865191,0.958670161532554,-0.0002724083411196933,-0.7017080622949924,,,,,,,,,,,,,,,,,,,,,,,,
18,240709_141732,LEARNING,1.0,19,3.0,1750.0,,,,,,,,,,19.0,19.0,19.0,cue2.png,Hard,A,,,,,,,,,,,,,,,,,,,,,,,,,,,39,28,Female,1.0,0.5,1.2,1.25,3.2222222222222223,3.25,2.888888888888889,2.4444444444444446,2.125,3.7777777777777777,1.5,2.25,2.5,1.0,0.75,0.7083333333333334,0.5691310999515865,0.88687991458095,,,,,-7.211758151225676e-05,-0.426320727511215,3.789134596975932e-05,-0.30351152606032417,,,,,,,,,,,,,,,,,,,,,,,,
19,240709_141750,LEARNING,1.0,20,3.0,1750.0,,,,,,,,,,20.0,20.0,20.0,cue2.png,Hard,A,,,,,,,,,,,,,,,,,,,,,,,,,,,39,28,Female,1.0,0.5,1.2,1.25,3.2222222222222223,3.25,2.888888888888889,2.4444444444444446,2.125,3.7777777777777777,1.5,2.25,2.5,1.0,0.75,0.8333333333333334,0.4141585624893196,-0.4929171612474274,-0.00048778330868967223,-0.719121926237672,0.000940088680611296,0.57092288246273,-5.894522426569621e-05,-0.4014135279544909,3.9250921854881715e-05,-0.3017668307521144,1.3900000000000001,-0.31339429929408563,1.442,-0.32863928184780616,,,,,,,,,,,,,,,,,,,,
20,240709_141808,LEARNING,1.0,21,1.0,1750.0,,,,,,,,,,21.0,21.0,21.0,cue1.png,Easy,A,,,,,,,,,,,,,,,,,,,,,,,,,,,39,28,Female,1.0,0.5,1.2,1.25,3.2222222222222223,3.25,2.888888888888889,2.4444444444444446,2.125,3.7777777777777777,1.5,2.25,2.5,1.0,0.1666666666666666,0.6666666666666667,0.2431811499991454,-2.0152135477545245,,,,,,,-3.1997645447968265e-05,-0.39319757945118994,1.923,1.061080892334041,2.027,1.0194603043841366,,,,,,,,,,,,,,,,,,,,
21,240709_141827,LEARNING,1.0,22,3.0,1750.0,,,,,,,,,,22.0,22.0,22.0,cue2.png,Hard,A,,,,,,,,,,,,,,,,,,,,,,,,,,,39,28,Female,1.0,0.5,1.2,1.25,3.2222222222222223,3.25,2.888888888888889,2.4444444444444446,2.125,3.7777777777777777,1.5,2.25,2.5,1.0,1.0,1.0,0.50656995002646,0.3298670841743491,-0.0016465877719114997,-2.135868793490272,0.00024871666870801817,-0.08793892726719447,0.00032990643109951246,0.3338539414024206,0.0003283684362764207,0.06924737776123602,1.3499999999999999,-0.41654440748381444,1.2680000000000002,-0.7296124921116652,,,,,,,,,,,,,,,,,,,,
22,240709_141847,LEARNING,1.0,23,3.0,1750.0,,,,,,,,,,23.0,23.0,23.0,cue2.png,Hard,A,,,,,,,,,,,,,,,,,,,,,,,,,,,39,28,Female,1.0,0.5,1.2,1.25,3.2222222222222223,3.25,2.888888888888889,2.4444444444444446,2.125,3.7777777777777777,1.5,2.25,2.5,1.0,0.75,0.8333333333333334,0.5116011249483563,0.3746621205007295,0.0010011263860707584,1.1012094692844605,0.0009417364227880774,0.5724931432975212,,,6.916713131562176e-05,-0.26337642470216127,1.819,0.7928906110407477,1.4429999999999998,-0.32633483811065783,,,,,,,,,,,,,,,,,,,,
23,240709_141908,LEARNING,1.0,24,3.0,1750.0,,,,,,,,,,24.0,24.0,24.0,cue2.png,Hard,A,,,,,,,,,,,,,,,,,,,,,,,,,,,39,28,Female,1.0,0.5,1.2,1.25,3.2222222222222223,3.25,2.888888888888889,2.4444444444444446,2.125,3.7777777777777777,1.5,2.25,2.5,1.0,0.75,0.8333333333333334,0.6259753999765962,1.3929928055253638,-6.037446862770281e-05,-0.19657463339216,-0.0009631225550442817,-1.2427941576158121,0.00019210151193890844,0.07328291700755646,2.4423236550467128e-05,-0.32079467117302174,1.717,0.5298578351569414,1.699,0.26360275859938925,,,,,,,,,,,,,,,,,,,,
24,240709_141927,LEARNING,1.0,25,1.0,1750.0,,,,,,,,,,25.0,25.0,25.0,cue1.png,Easy,A,,,,,,,,,,,,,,,,,,,,,,,,,,,39,28,Female,1.0,0.5,1.2,1.25,3.2222222222222223,3.25,2.888888888888889,2.4444444444444446,2.125,3.7777777777777777,1.5,2.25,2.5,1.0,0.75,0.8333333333333334,0.4793179623666219,0.08722917232683149,,,0.00033260672561222834,-0.007993610189495433,4.919061076236967e-05,-0.19694284955861782,0.00023140287367993256,-0.05518507501412456,2.1759999999999997,1.7135053266340703,2.036,1.040200298018474,,,,,,,,,,,,,,,,,,,,
25,240709_141947,LEARNING,1.0,26,1.0,1750.0,,,,,,,,,,26.0,26.0,26.0,cue1.png,Easy,A,,,,,,,,,,,,,,,,,,,,,,,,,,,39,28,Female,1.0,0.5,1.2,1.25,3.2222222222222223,3.25,2.888888888888889,2.4444444444444446,2.125,3.7777777777777777,1.5,2.25,2.5,1.0,1.0,1.0,0.5724534374894574,0.9164603273091425,-3.3632417156508575e-05,-0.16387997363879173,0.001056417675119787,0.6817817696122568,0.0003487605359965571,0.3695045804144104,0.0006258903474382523,0.4510466492648746,0.3719999999999999,-2.9385645527226663,1.002,-1.3425945261931986,,,,,,,,,,,,,,,,,,,,
26,240709_142007,LEARNING,1.0,27,3.0,1750.0,,,,,,,,,,27.0,27.0,27.0,cue2.png,Hard,A,,,,,,,,,,,,,,,,,,,,,,,,,,,39,28,Female,1.0,0.5,1.2,1.25,3.2222222222222223,3.25,2.888888888888889,2.4444444444444446,2.125,3.7777777777777777,1.5,2.25,2.5,1.0,0.75,0.8333333333333334,0.5153098001028411,0.4076822879262093,-0.00027325216079426666,-0.45683752765684077,0.0014166936076522672,1.0251165428221596,0.0001115667385197046,-0.07899777469107098,,,1.5710000000000002,0.15335994026443409,1.9110000000000003,0.752144830874897,,,,,,,,,,,,,,,,,,,,
27,240709_142026,LEARNING,1.0,28,1.0,1750.0,,,,,,,,,,28.0,28.0,28.0,cue1.png,Easy,A,,,,,,,,,,,,,,,,,,,,,,,,,,,39,28,Female,1.0,0.5,1.2,1.25,3.2222222222222223,3.25,2.888888888888889,2.4444444444444446,2.125,3.7777777777777777,1.5,2.25,2.5,1.0,1.0,1.0,0.4918754624668509,0.1990348006126127,,,-0.00020490791439995836,-0.5202328422923754,0.0011511716363933233,1.8867587081318573,-0.0001521112872998752,-0.5473351378502508,1.4260000000000002,-0.22055920192333028,2.176,1.3628224212192808,,,,,,,,,,,,,,,,,,,,
28,240709_142047,LEARNING,1.0,29,1.0,1750.0,,,,,,,,,,29.0,29.0,29.0,cue1.png,Easy,A,,,,,,,,,,,,,,,,,,,,,,,,,,,39,28,Female,1.0,0.5,1.2,1.25,3.2222222222222223,3.25,2.888888888888889,2.4444444444444446,2.125,3.7777777777777777,1.5,2.25,2.5,1.0,1.0,1.0,0.5893150749616325,1.0665878173713745,2.082418352908691e-05,-0.09730168465978707,0.0009634933440457981,0.5932269946354587,-0.0001400909348573667,-0.5548494217013487,,,0.9870000000000001,-1.3526316393055962,2.496,2.100244417106839,,,,,,,,,,,,,,,,,,,,
29,240709_142106,LEARNING,1.0,30,3.0,1750.0,,,,,,,,,,30.0,30.0,30.0,cue2.png,Hard,A,,,,,,,,,,,,,,,,,,,,,,,,,,,39,28,Female,1.0,0.5,1.2,1.25,3.2222222222222223,3.25,2.888888888888889,2.4444444444444446,2.125,3.7777777777777777,1.5,2.25,2.5,1.0,1.0,1.0,0.5003255499759689,0.27427010505107685,,,,,,,,,1.478,-0.08646406127668423,1.1729999999999998,-0.9485346471407851,,,,,,,,,,,,,,,,,,,,
30,240709_142124,LEARNING,1.0,31,3.0,1750.0,,,,,,,,,,31.0,31.0,31.0,cue2.png,Hard,A,,,,,,,,,,,,,,,,,,,,,,,,,,,39,28,Female,1.0,0.5,1.2,1.25,3.2222222222222223,3.25,2.888888888888889,2.4444444444444446,2.125,3.7777777777777777,1.5,2.25,2.5,1.0,0.1666666666666666,0.6666666666666667,0.3308544000610709,-1.234615281476092,0.00225369384930781,2.6325903759732245,,,,,,,,,,,,,,,,,,,,,,,,,,,,,,
31,240709_142147,LEARNING,1.0,32,1.0,1750.0,,,,,,,,,,32.0,32.0,32.0,cue1.png,Easy,A,,,,,,,,,,,,,,,,,,,,,,,,,,,39,28,Female,1.0,0.5,1.2,1.25,3.2222222222222223,3.25,2.888888888888889,2.4444444444444446,2.125,3.7777777777777777,1.5,2.25,2.5,1.0,0.875,0.75,0.4504338334469746,-0.16994049962800137,-0.0003072039855839684,-0.4983468097962825,-6.8139283556957475e-06,-0.33145377705015033,-0.00014049152733728752,-0.5556068895297372,,,1.336,-0.4526469453502187,0.7090000000000001,-2.0177965411777437,,,,,,,,,,,,,,,,,,,,
32,240709_142210,LEARNING,1.0,33,1.0,1750.0,,,,,,,,,,33.0,33.0,33.0,cue1.png,Easy,A,,,,,,,,,,,,,,,,,,,,,,,,,,,39,28,Female,1.0,0.5,1.2,1.25,3.2222222222222223,3.25,2.888888888888889,2.4444444444444446,2.125,3.7777777777777777,1.5,2.25,2.5,1.0,0.875,0.75,0.4119628500193357,-0.5124666743099038,0.0015720698128580063,1.7992412226575532,-0.0007900105145643918,-1.077822318558236,-4.860854349655495e-05,-0.38186822062247344,-0.00020081183267983997,-0.6098308131277153,1.678,0.42928647967195616,1.7800000000000002,0.4502627013084278,,,,,,,,,,,,,,,,,,,,
33,240709_142229,LEARNING,1.0,34,1.0,1750.0,,,,,,,,,,34.0,34.0,34.0,cue1.png,Easy,A,,,,,,,,,,,,,,,,,,,,,,,,,,,39,28,Female,1.0,0.5,1.2,1.25,3.2222222222222223,3.25,2.888888888888889,2.4444444444444446,2.125,3.7777777777777777,1.5,2.25,2.5,1.0,1.0,1.0,0.5335754374973476,0.5703102830393303,0.0007191680944171712,0.7564890793702855,-0.00033680539022167,-0.6459281382003901,3.3593506733459177e-06,-0.2836037500797834,-6.993404478815085e-05,-0.4418800095115241,0.9940000000000002,-1.3345803703723935,1.3230000000000002,-0.6028680865684913,,,,,,,,,,,,,,,,,,,,
34,240709_142248,LEARNING,1.0,35,3.0,1750.0,,,,,,,,,,35.0,35.0,35.0,cue2.png,Hard,A,,,,,,,,,,,,,,,,,,,,,,,,,,,39,28,Female,1.0,0.5,1.2,1.25,3.2222222222222223,3.25,2.888888888888889,2.4444444444444446,2.125,3.7777777777777777,1.5,2.25,2.5,1.0,1.0,1.0,0.3597440374433063,-0.9773965649570043,-4.5073909050835116e-05,-0.17786826787862858,0.00013902841240424728,-0.192469341877806,,,0.0004639955622588042,0.24329283778801095,1.5560000000000003,0.11467864969328631,0.845,-1.704392192925532,,,,,,,,,,,,,,,,,,,,
35,240709_142307,LEARNING,1.0,36,3.0,1750.0,,,,,,,,,,36.0,36.0,36.0,cue2.png,Hard,A,,,,,,,,,,,,,,,,,,,,,,,,,,,39,28,Female,1.0,0.5,1.2,1.25,3.2222222222222223,3.25,2.888888888888889,2.4444444444444446,2.125,3.7777777777777777,1.5,2.25,2.5,1.0,1.0,1.0,0.4653317126212641,-0.03729732002120033,0.0005465832361186583,0.5454879440710282,-0.000642716206008075,-0.9374541910849048,-0.00021744289953361078,-0.7011118395991737,0.0005453320792579161,0.34766909302123605,0.952,-1.4428879839716087,1.6360000000000001,0.11842280315902637,,,,,,,,,,,,,,,,,,,,
36,240709_142331,LEARNING,1.0,37,1.0,1750.0,,,,,,,,,,37.0,37.0,37.0,cue1.png,Easy,A,,,,,,,,,,,,,,,,,,,,,,,,,,,39,28,Female,1.0,0.5,1.2,1.25,3.2222222222222223,3.25,2.888888888888889,2.4444444444444446,2.125,3.7777777777777777,1.5,2.25,2.5,1.0,0.2083333333333333,0.5833333333333334,0.639373033385103,1.512278555780174,,,8.785717995944686e-05,-0.24123436307367196,-0.00017660915427322775,-0.6239005840272555,0.0002720474774650103,-0.0030273026500718687,1.321,-0.49132823592136704,2.3779999999999997,1.8283200561233008,,,,,,,,,,,,,,,,,,,,
37,240709_142351,LEARNING,1.0,38,3.0,1750.0,,,,,,,,,,38.0,38.0,38.0,cue2.png,Hard,A,,,,,,,,,,,,,,,,,,,,,,,,,,,39,28,Female,1.0,0.5,1.2,1.25,3.2222222222222223,3.25,2.888888888888889,2.4444444444444446,2.125,3.7777777777777777,1.5,2.25,2.5,1.0,1.0,1.0,0.5496493998798542,0.7134247125733892,-0.000681247099046843,-0.9556495092893323,0.000537817284726537,0.18756738740069645,-0.00028696359878236863,-0.8325663619067842,0.0003081874502917012,0.04334983725034569,1.103,-1.053496325555385,1.826,0.556267113217264,,,,,,,,,,,,,,,,,,,,
38,240709_142409,LEARNING,1.0,39,3.0,1750.0,,,,,,,,,,39.0,39.0,39.0,cue2.png,Hard,A,,,,,,,,,,,,,,,,,,,,,,,,,,,39,28,Female,1.0,0.5,1.2,1.25,3.2222222222222223,3.25,2.888888888888889,2.4444444444444446,2.125,3.7777777777777777,1.5,2.25,2.5,1.0,0.1666666666666666,0.6666666666666667,0.2901783000561408,-1.5967746986345714,0.0007691163968895432,0.8175555520136275,,,0.00018341770540857656,0.05686297803122513,,,2.2720000000000002,1.961065586289419,1.305,-0.6443480738371671,,,,,,,,,,,,,,,,,,,,
39,240709_142428,LEARNING,1.0,40,3.0,1750.0,,,,,,,,,,40.0,40.0,40.0,cue2.png,Hard,A,,,,,,,,,,,,,,,,,,,,,,,,,,,39,28,Female,1.0,0.5,1.2,1.25,3.2222222222222223,3.25,2.888888888888889,2.4444444444444446,2.125,3.7777777777777777,1.5,2.25,2.5,1.0,0.75,0.8333333333333334,0.5475213750614785,0.6944778561189033,,,-0.0019177821672619983,-2.1525630648793412,0.0001095662655128146,-0.0827804067179589,0.003037832223705344,3.546205750898234,1.928,1.0739746558577568,1.4879999999999998,-0.2226348699389701,,,,,,,,,,,,,,,,,,,,
40,240709_142448,LEARNING,1.0,41,1.0,1750.0,,,,,,,,,,41.0,41.0,41.0,cue1.png,Easy,A,,,,,,,,,,,,,,,,,,,,,,,,,,,39,28,Female,1.0,0.5,1.2,1.25,3.2222222222222223,3.25,2.888888888888889,2.4444444444444446,2.125,3.7777777777777777,1.5,2.25,2.5,1.0,0.75,0.8333333333333334,0.4889026500168256,0.17256638244833103,0.0017963464536703624,2.07344039806064,0.0021395702119903024,1.7140015129187087,,,,,1.724,0.5479091040901436,,,,,,,,,,,,,,,,,,,,,,
41,240709_142508,LEARNING,1.0,42,3.0,1750.0,,,,,,,,,,42.0,42.0,42.0,cue2.png,Hard,A,,,,,,,,,,,,,,,,,,,,,,,,,,,39,28,Female,1.0,0.5,1.2,1.25,3.2222222222222223,3.25,2.888888888888889,2.4444444444444446,2.125,3.7777777777777777,1.5,2.25,2.5,1.0,1.0,1.0,0.569905474956613,0.8937745578837373,-0.0006597300169329983,-0.9293428633928787,0.0010528687894151628,0.6783997622159256,9.589437802126231e-05,-0.1086321524378139,,,,,,,,,,,,,,,,,,,,,,,,,,
42,240709_142529,LEARNING,1.0,43,3.0,1750.0,,,,,,,,,,43.0,43.0,43.0,cue2.png,Hard,A,,,,,,,,,,,,,,,,,,,,,,,,,,,39,28,Female,1.0,0.5,1.2,1.25,3.2222222222222223,3.25,2.888888888888889,2.4444444444444446,2.125,3.7777777777777777,1.5,2.25,2.5,1.0,0.1666666666666666,0.6666666666666667,0.6812013624585234,1.8846968376731514,-0.00045239677259224266,-0.6758585753013394,-0.0014482415195602111,-1.70510150213121,,,0.00034250931674951286,0.08739386600461767,1.151,-0.9297161957277112,1.3139999999999998,-0.6236080802028298,,,,,,,,,,,,,,,,,,,,
43,240709_142549,LEARNING,1.0,44,1.0,1750.0,,,,,,,,,,44.0,44.0,44.0,cue1.png,Easy,A,,,,,,,,,,,,,,,,,,,,,,,,,,,39,28,Female,1.0,0.5,1.2,1.25,3.2222222222222223,3.25,2.888888888888889,2.4444444444444446,2.125,3.7777777777777777,1.5,2.25,2.5,1.0,1.0,1.0,0.4983241750160232,0.25645087486623486,0.00013188313634388514,0.03847827518197958,0.0015217046272697002,1.125189657202737,,,-0.00019225015529856625,-0.598843917492854,1.1839999999999997,-0.8446173564711864,1.934,0.8051470368293145,,,,,,,,,,,,,,,,,,,,
44,240709_142608,LEARNING,1.0,45,1.0,1750.0,,,,,,,,,,45.0,45.0,45.0,cue1.png,Easy,A,,,,,,,,,,,,,,,,,,,,,,,,,,,39,28,Female,1.0,0.5,1.2,1.25,3.2222222222222223,3.25,2.888888888888889,2.4444444444444446,2.125,3.7777777777777777,1.5,2.25,2.5,1.0,1.0,1.0,0.5066934124333784,0.3309663309882062,-0.00020678475786956117,-0.3755749092801574,0.0012492691285340652,0.8655648204415599,,,0.00022946797933386196,-0.0576680560116634,2.077,1.458208808864494,2.012,0.984893648326907,,,,,,,,,,,,,,,,,,,,
45,240709_142628,LEARNING,1.0,46,1.0,1750.0,,,,,,,,,,46.0,46.0,46.0,cue1.png,Easy,A,,,,,,,,,,,,,,,,,,,,,,,,,,,39,28,Female,1.0,0.5,1.2,1.25,3.2222222222222223,3.25,2.888888888888889,2.4444444444444446,2.125,3.7777777777777777,1.5,2.25,2.5,1.0,1.0,1.0,0.502927124965936,0.29743321267315337,0.00020829706588662133,0.13190145288802588,0.00017955386837713132,-0.15384950363917024,,,0.0002505472773707187,-0.030617743640207914,1.858,0.893461966525733,1.7919999999999998,0.47791602615421025,,,,,,,,,,,,,,,,,,,,
46,240709_142647,LEARNING,1.0,47,3.0,1750.0,,,,,,,,,,47.0,47.0,47.0,cue2.png,Hard,A,,,,,,,,,,,,,,,,,,,,,,,,,,,39,28,Female,1.0,0.5,1.2,1.25,3.2222222222222223,3.25,2.888888888888889,2.4444444444444446,2.125,3.7777777777777777,1.5,2.25,2.5,1.0,0.1666666666666666,0.6666666666666667,0.4950133124948479,0.22697262988170172,0.00040381472218785873,0.37094007920398553,0.0012412007282911986,0.8578758184366825,3.3937600503520116e-05,-0.225784291014142,0.00010551393571544155,-0.21673386521084298,,,2.181,1.3743446399050236,,,,,,,,,,,,,,,,,,,,
47,240709_142705,LEARNING,1.0,48,3.0,1750.0,,,,,,,,,,48.0,48.0,48.0,cue2.png,Hard,A,,,,,,,,,,,,,,,,,,,,,,,,,,,39,28,Female,1.0,0.5,1.2,1.25,3.2222222222222223,3.25,2.888888888888889,2.4444444444444446,2.125,3.7777777777777777,1.5,2.25,2.5,1.0,0.1666666666666666,0.6666666666666667,0.2454587875399738,-1.994934615305624,-0.0005759683212234953,-0.8269363541339588,0.0014049749017010114,1.0139488824630396,4.170588755177942e-05,-0.21109547927731856,0.00010562330777254486,-0.21659351194555965,1.514,0.006371036094071143,1.0330000000000001,-1.2711567703415911,,,,,,,,,,,,,,,,,,,,
48,240709_142725,LEARNING,1.0,49,1.0,1750.0,,,,,,,,,,49.0,49.0,49.0,cue1.png,Easy,A,,,,,,,,,,,,,,,,,,,,,,,,,,,39,28,Female,1.0,0.5,1.2,1.25,3.2222222222222223,3.25,2.888888888888889,2.4444444444444446,2.125,3.7777777777777777,1.5,2.25,2.5,1.0,0.75,0.8333333333333334,0.5371303625870496,0.6019615376672934,,,,,,,0.0012369107435601613,1.2351473603762566,,,,,,,,,,,,,,,,,,,,,,,,
49,240709_142744,LEARNING,1.0,50,1.0,1750.0,,,,,,,,,,50.0,50.0,50.0,cue1.png,Easy,A,,,,,,,,,,,,,,,,,,,,,,,,,,,39,28,Female,1.0,0.5,1.2,1.25,3.2222222222222223,3.25,2.888888888888889,2.4444444444444446,2.125,3.7777777777777777,1.5,2.25,2.5,1.0,1.0,1.0,0.5401962875039317,0.6292589821325959,-0.0004292476362267768,-0.6475565903968346,-0.0012540874226056034,-1.5200770616222006,8.66472897490902e-05,-0.12611718329466928,,,1.819,0.7928906110407477,0.7550000000000001,-1.9117921292689073,,,,,,,,,,,,,,,,,,,,
0,240709_142851,TrueCHOICE,9.0,1,1.0,1750.0,,,,,,,,,,,1.0,1.0,,,A,,,,,,True,cue1.png,Easy,cue2.png,Hard,Left,Easy,Easy,0.0168240000493824,,,,,,,,,,,,,39,28,Female,1.0,0.5,1.2,1.25,3.2222222222222223,3.25,2.888888888888889,2.4444444444444446,2.125,3.7777777777777777,1.5,2.25,2.5,1.0,1.0,1.0,0.5557303625391796,0.7787571244808622,,,,,,,,,,,,,,,,,1.466,0.4541420938363434,,,,,,,,,,,,,,
1,240709_142910,TrueCHOICE,9.0,2,1.0,1750.0,,,,,,,,,,,2.0,2.0,,,A,,,,,,True,cue1.png,Easy,cue2.png,Hard,Left,Easy,Easy,0.0172530999407172,,,,,,,,,,,,,39,28,Female,1.0,0.5,1.2,1.25,3.2222222222222223,3.25,2.888888888888889,2.4444444444444446,2.125,3.7777777777777777,1.5,2.25,2.5,1.0,0.75,0.8333333333333334,0.5551025124150328,0.7702154658779621,,,,,,,,,,,,,,,-5.8244441159460356e-05,-0.6118316063194794,0.9519999999999997,-1.590491800165529,,,,,,,,,,,,,,
2,240709_142930,TrueCHOICE,9.0,3,3.0,1750.0,,,,,,,,,,,3.0,3.0,,,A,,,,,,True,cue2.png,Hard,cue1.png,Easy,Left,Hard,Hard,0.0172317000105977,,,,,,,,,,,,,39,28,Female,1.0,0.5,1.2,1.25,3.2222222222222223,3.25,2.888888888888889,2.4444444444444446,2.125,3.7777777777777777,1.5,2.25,2.5,1.0,0.75,0.7083333333333334,0.3921807713673583,-1.4462719369245252,,,,,,,,,,,,,0.000661176415228064,-0.22776688170703774,,,1.5959999999999999,0.9712673977667774,,,,,,,,,,,,,,
3,240709_142947,TrueCHOICE,9.0,4,1.0,1750.0,,,,,,,,,,,4.0,4.0,,,A,,,,,,True,cue1.png,Easy,cue2.png,Hard,Left,Easy,Easy,0.016786599997431,,,,,,,,,,,,,39,28,Female,1.0,0.5,1.2,1.25,3.2222222222222223,3.25,2.888888888888889,2.4444444444444446,2.125,3.7777777777777777,1.5,2.25,2.5,1.0,1.0,1.0,0.4414356250199489,-0.7761786642538095,,,,,,,,,,,,,0.0012683374117554193,0.9723252497344386,,,1.573,0.879775997840624,,,,,,,,,,,,,,
4,240709_143005,TrueCHOICE,9.0,5,1.0,1750.0,,,,,,,,,,,5.0,5.0,,,A,,,,,,True,cue2.png,Hard,cue1.png,Easy,Right,Easy,Easy,0.015529700089246,,,,,,,,,,,,,39,28,Female,1.0,0.5,1.2,1.25,3.2222222222222223,3.25,2.888888888888889,2.4444444444444446,2.125,3.7777777777777777,1.5,2.25,2.5,1.0,1.0,1.0,0.5231534623890184,0.3355609718933591,,,,,,,,,,,,,0.0005508148203773365,-0.4459035577306977,-8.761251938554102e-05,-0.651893941163267,,,,,,,,,,,,,,,,
5,240709_143022,TrueCHOICE,9.0,6,1.0,1750.0,,,,,,,,,,,6.0,6.0,,,A,,,,,,True,cue2.png,Hard,cue1.png,Easy,Right,Easy,Easy,0.0160168996080756,,,,,,,,,,,,,39,28,Female,1.0,0.5,1.2,1.25,3.2222222222222223,3.25,2.888888888888889,2.4444444444444446,2.125,3.7777777777777777,1.5,2.25,2.5,1.0,1.0,1.0,0.4583616000018082,-0.5459073076737005,,,,,,,,,,,,,-3.6013490266455575e-05,-1.605806848848937,5.905444544953295e-05,-0.45181884566291947,1.4639999999999997,0.44618631992972047,,,,,,,,,,,,,,
6,240709_143039,TrueCHOICE,9.0,7,1.0,1750.0,,,,,,,,,,,7.0,7.0,,,A,,,,,,True,cue1.png,Easy,cue2.png,Hard,Left,Easy,Easy,0.0167702999897301,,,,,,,,,,,,,39,28,Female,1.0,0.5,1.2,1.25,3.2222222222222223,3.25,2.888888888888889,2.4444444444444446,2.125,3.7777777777777777,1.5,2.25,2.5,1.0,0.75,0.8333333333333334,0.4696075874380767,-0.3929099893030968,,,,,,,,,,,,,,,1.4985138245465334e-05,-0.5119357974073211,,,,,,,,,,,,,,,,
7,240709_143058,TrueCHOICE,9.0,8,1.0,1750.0,,,,,,,,,,,8.0,8.0,,,A,,,,,,True,cue2.png,Hard,cue1.png,Easy,Right,Easy,Easy,0.01708609983325,,,,,,,,,,,,,39,28,Female,1.0,0.5,1.2,1.25,3.2222222222222223,3.25,2.888888888888889,2.4444444444444446,2.125,3.7777777777777777,1.5,2.25,2.5,1.0,1.0,1.0,0.6018131374148652,1.4056954897433045,,,,,,,,,,,,,,,0.0008499505889797859,0.6270786526633753,1.06,-1.160880009207936,,,,,,,,,,,,,,
8,240709_143116,TrueCHOICE,9.0,9,1.0,1750.0,,,,,,,,,,,9.0,9.0,,,A,,,,,,True,cue1.png,Easy,cue2.png,Hard,Left,Easy,Easy,0.0169215998612344,,,,,,,,,,,,,39,28,Female,1.0,0.5,1.2,1.25,3.2222222222222223,3.25,2.888888888888889,2.4444444444444446,2.125,3.7777777777777777,1.5,2.25,2.5,1.0,1.0,1.0,0.5917725623585284,1.2690973415394304,,,,,,,,,,,,,0.0006881994036918348,-0.17435423496443048,-6.766787092976406e-05,-0.6246865366260719,,,,,,,,,,,,,,,,
9,240709_143133,TrueCHOICE,9.0,10,1.0,1750.0,,,,,,,,,,,10.0,10.0,,,A,,,,,,True,cue2.png,Hard,cue1.png,Easy,Right,Easy,Easy,0.0172617998905479,,,,,,,,,,,,,39,28,Female,1.0,0.5,1.2,1.25,3.2222222222222223,3.25,2.888888888888889,2.4444444444444446,2.125,3.7777777777777777,1.5,2.25,2.5,1.0,1.0,1.0,0.3957246750360355,-1.3980584953797903,,,,,,,,,,,,,0.001525946681671303,1.4815062735166649,0.002021386699480217,2.225088074515684,,,,,,,,,,,,,,,,
0,240709_143253,FalseCHOICE,9.0,1,2.0,1750.0,,,,,,,,,,,1.0,1.0,,,A,,,,,,False,cue1.png,Easy,cue2.png,Hard,Left,Easy,Mid,0.0162717001512646,,,,,,,,,,,,,39,28,Female,1.0,0.5,1.2,1.25,3.2222222222222223,3.25,2.888888888888889,2.4444444444444446,2.125,3.7777777777777777,1.5,2.25,2.5,1.0,0.75,0.7083333333333334,0.365495042808886,0.11136610764142307,,,,,,,,,,,,,,,,,,,0.00035295062921582125,0.28964822780449506,-0.0010246319742936005,-0.7274553295327311,,,,,,,,,,
1,240709_143310,FalseCHOICE,9.0,2,2.0,1750.0,,,,,,,,,,,2.0,2.0,,,A,,,,,,False,cue2.png,Hard,cue1.png,Easy,Left,Hard,Mid,0.0158224999904632,,,,,,,,,,,,,39,28,Female,1.0,0.5,1.2,1.25,3.2222222222222223,3.25,2.888888888888889,2.4444444444444446,2.125,3.7777777777777777,1.5,2.25,2.5,1.0,0.75,0.8333333333333334,0.4766566749894991,0.9089489886555221,,,,,,,,,,,,,,,,,,,-0.00029834341365262817,-0.23672650277929322,,,,,,,,,,,,
2,240709_143325,FalseCHOICE,9.0,3,2.0,1750.0,,,,,,,,,,,3.0,3.0,,,A,,,,,,False,cue2.png,Hard,cue1.png,Easy,Right,Easy,Mid,0.0153431999497115,,,,,,,,,,,,,39,28,Female,1.0,0.5,1.2,1.25,3.2222222222222223,3.25,2.888888888888889,2.4444444444444446,2.125,3.7777777777777777,1.5,2.25,2.5,1.0,0.75,0.8333333333333334,0.241766462509986,-0.7763844192511794,,,,,,,,,,,,,,,,,,,0.002061109833348996,1.6701795726174058,,,1.4559999999999997,0.11382333497267787,,,,,,,,
3,240709_143341,FalseCHOICE,9.0,4,2.0,1750.0,,,,,,,,,,,4.0,4.0,,,A,,,,,,False,cue2.png,Hard,cue1.png,Easy,Left,Hard,Mid,0.0157305002212524,,,,,,,,,,,,,39,28,Female,1.0,0.5,1.2,1.25,3.2222222222222223,3.25,2.888888888888889,2.4444444444444446,2.125,3.7777777777777777,1.5,2.25,2.5,1.0,0.1666666666666666,0.6666666666666667,0.2464640373364091,-0.7426793972004934,,,,,,,,,,,,,,,,,,,0.0007345150123528755,0.5980279091072209,,,1.1269999999999998,-0.47645382080125986,,,,,,,,
4,240709_143354,FalseCHOICE,9.0,5,2.0,1750.0,,,,,,,,,,,5.0,5.0,,,A,,,,,,False,cue1.png,Easy,cue2.png,Hard,Right,Hard,Mid,0.016568100079894,,,,,,,,,,,,,39,28,Female,1.0,0.5,1.2,1.25,3.2222222222222223,3.25,2.888888888888889,2.4444444444444446,2.125,3.7777777777777777,1.5,2.25,2.5,1.0,0.1666666666666666,0.6666666666666667,0.0815512875560671,-1.92592566217124,,,,,,,,,,,,,,,,,,,0.0005698496870295104,0.46494567504925455,0.0005316522089970702,0.6521931649282336,1.58,0.33629861556832674,,,,,,,,
5,240709_143411,FalseCHOICE,9.0,6,2.0,1750.0,,,,,,,,,,,6.0,6.0,,,A,,,,,,False,cue2.png,Hard,cue1.png,Easy,Left,Hard,Mid,0.0161536000669002,,,,,,,,,,,,,39,28,Female,1.0,0.5,1.2,1.25,3.2222222222222223,3.25,2.888888888888889,2.4444444444444446,2.125,3.7777777777777777,1.5,2.25,2.5,1.0,0.75,0.8333333333333334,0.3807247499353252,0.22063900557054125,,,,,,,,,,,,,,,,,,,-0.00029342107903624834,-0.23274828036821626,0.0001745763931858403,0.3356448654713004,1.574,0.32553368263627924,,,,,,,,
6,240709_143428,FalseCHOICE,9.0,7,2.0,1750.0,,,,,,,,,,,7.0,7.0,,,A,,,,,,False,cue2.png,Hard,cue1.png,Easy,Right,Easy,Mid,0.0170614002272486,,,,,,,,,,,,,39,28,Female,1.0,0.5,1.2,1.25,3.2222222222222223,3.25,2.888888888888889,2.4444444444444446,2.125,3.7777777777777777,1.5,2.25,2.5,1.0,0.1666666666666666,0.6666666666666667,0.3870878500165418,0.2662941439074079,,,,,,,,,,,,,,,,,,,-0.0006020388930537482,-0.48217266937591846,-0.00018294658422804205,0.018700156516343592,,,,,,,,,,
7,240709_143445,FalseCHOICE,9.0,8,2.0,1750.0,,,,,,,,,,,8.0,8.0,,,A,,,,,,False,cue1.png,Easy,cue2.png,Hard,Right,Hard,Mid,0.0165468999184668,,,,,,,,,,,,,39,28,Female,1.0,0.5,1.2,1.25,3.2222222222222223,3.25,2.888888888888889,2.4444444444444446,2.125,3.7777777777777777,1.5,2.25,2.5,1.0,1.0,1.0,0.4260439500212669,0.5458035201673657,,,,,,,,,,,,,,,,,,,-4.776672223593369e-05,-0.03421084970478682,0.00013877343072671473,0.30390548021999547,,,,,,,,,,
8,240709_143500,FalseCHOICE,9.0,9,2.0,1750.0,,,,,,,,,,,9.0,9.0,,,A,,,,,,False,cue1.png,Easy,cue2.png,Hard,Left,Easy,Mid,0.0162422000430524,,,,,,,,,,,,,39,28,Female,1.0,0.5,1.2,1.25,3.2222222222222223,3.25,2.888888888888889,2.4444444444444446,2.125,3.7777777777777777,1.5,2.25,2.5,1.0,0.1666666666666666,0.6666666666666667,0.2910558500443585,-0.42273387506691157,,,,,,,,,,,,,,,,,,,0.0009361279214806645,0.7609711171503336,6.083136097369962e-06,0.18627531525367477,,,,,,,,,,
9,240709_143516,FalseCHOICE,9.0,10,2.0,1750.0,,,,,,,,,,,10.0,10.0,,,A,,,,,,False,cue2.png,Hard,cue1.png,Easy,Right,Easy,Mid,0.0170524003915488,,,,,,,,,,,,,39,28,Female,1.0,0.5,1.2,1.25,3.2222222222222223,3.25,2.888888888888889,2.4444444444444446,2.125,3.7777777777777777,1.5,2.25,2.5,1.0,0.1666666666666666,0.6666666666666667,0.3094628750695847,-0.29066377351726064,,,,,,,,,,,,,,,,,,,0.0001813342047886756,0.15094812734950297,0.00014060675353574437,0.30553072391295044,1.433,0.07255775873316303,,,,,,,,
10,240709_143533,FalseCHOICE,9.0,11,2.0,1750.0,,,,,,,,,,,11.0,11.0,,,A,,,,,,False,cue1.png,Easy,cue2.png,Hard,Left,Easy,Mid,0.0171240996569395,,,,,,,,,,,,,39,28,Female,1.0,0.5,1.2,1.25,3.2222222222222223,3.25,2.888888888888889,2.4444444444444446,2.125,3.7777777777777777,1.5,2.25,2.5,1.0,0.1666666666666666,0.6666666666666667,0.2709087125840597,-0.5672892546934326,,,,,,,,,,,,,,,,,,,0.0011323043744261895,0.9195205906128773,0.002170184943897282,2.1047551360010113,,,,,,,,,,
11,240709_143550,FalseCHOICE,9.0,12,2.0,1750.0,,,,,,,,,,,12.0,12.0,,,A,,,,,,False,cue2.png,Hard,cue1.png,Easy,Left,Hard,Mid,0.0174825000576674,,,,,,,,,,,,,39,28,Female,1.0,0.5,1.2,1.25,3.2222222222222223,3.25,2.888888888888889,2.4444444444444446,2.125,3.7777777777777777,1.5,2.25,2.5,1.0,1.0,1.0,0.46844628744293,0.8500395931637839,,,,,,,,,,,,,,,,,,,0.0001602115842302878,0.13387686157118123,5.5984897333683295e-06,0.18584567545291097,-0.8489999999999999,-4.021705066422235,,,,,,,,
12,240709_143606,FalseCHOICE,9.0,13,2.0,1750.0,,,,,,,,,,,13.0,13.0,,,A,,,,,,False,cue1.png,Easy,cue2.png,Hard,Right,Hard,Mid,0.016570399980992,,,,,,,,,,,,,39,28,Female,1.0,0.5,1.2,1.25,3.2222222222222223,3.25,2.888888888888889,2.4444444444444446,2.125,3.7777777777777777,1.5,2.25,2.5,1.0,0.1666666666666666,0.6666666666666667,0.3605764750391245,0.07607546486014823,,,,,,,,,,,,,,,,,,,-0.0009069012906239207,-0.7285619372392819,4.534967233422744e-06,0.18490286100319217,,,,,,,,,,
13,240709_143623,FalseCHOICE,9.0,14,2.0,1750.0,,,,,,,,,,,14.0,14.0,,,A,,,,,,False,cue2.png,Hard,cue1.png,Easy,Right,Easy,Mid,0.0170764997601509,,,,,,,,,,,,,39,28,Female,1.0,0.5,1.2,1.25,3.2222222222222223,3.25,2.888888888888889,2.4444444444444446,2.125,3.7777777777777777,1.5,2.25,2.5,1.0,1.0,1.0,0.4477740000002086,0.7017162710581121,,,,,,,,,,,,,,,,,,,0.0037240312500936403,3.0141498150993775,0.0007205408220238435,0.8196432318126665,,,,,,,,,,
14,240709_143642,FalseCHOICE,9.0,15,2.0,1750.0,,,,,,,,,,,15.0,15.0,,,A,,,,,,False,cue1.png,Easy,cue2.png,Hard,Left,Easy,Mid,0.0160901001654565,,,,,,,,,,,,,39,28,Female,1.0,0.5,1.2,1.25,3.2222222222222223,3.25,2.888888888888889,2.4444444444444446,2.125,3.7777777777777777,1.5,2.25,2.5,1.0,1.0,1.0,0.5413842874695547,1.3733685426894773,,,,,,,,,,,,,,,,,,,-0.00015856853862023044,-0.12376068803987952,-0.0007471408066598382,-0.48145895190288057,,,,,,,,,,
15,240709_143658,FalseCHOICE,9.0,16,2.0,1750.0,,,,,,,,,,,16.0,16.0,,,A,,,,,,False,cue1.png,Easy,cue2.png,Hard,Right,Hard,Mid,0.0154272997751832,,,,,,,,,,,,,39,28,Female,1.0,0.5,1.2,1.25,3.2222222222222223,3.25,2.888888888888889,2.4444444444444446,2.125,3.7777777777777777,1.5,2.25,2.5,1.0,0.1666666666666666,0.6666666666666667,0.3603398124687373,0.0743774148134296,,,,,,,,,,,,,,,,,,,0.0021321468233296975,1.7275915463211597,5.8539044153889126e-05,0.2327775642341507,,,,,,,,,,
16,240709_143716,FalseCHOICE,9.0,17,2.0,1750.0,,,,,,,,,,,17.0,17.0,,,A,,,,,,False,cue2.png,Hard,cue1.png,Easy,Right,Easy,Mid,0.0167666999623179,,,,,,,,,,,,,39,28,Female,1.0,0.5,1.2,1.25,3.2222222222222223,3.25,2.888888888888889,2.4444444444444446,2.125,3.7777777777777777,1.5,2.25,2.5,1.0,0.75,0.8333333333333334,0.5738894874230027,1.6065928172726993,,,,,,,,,,,,,,,,,,,3.7510092112894716e-06,0.00742569266459788,0.00033464522318388994,0.477546147183222,,,,,,,,,,
17,240709_143735,FalseCHOICE,9.0,18,2.0,1750.0,,,,,,,,,,,18.0,18.0,,,A,,,,,,False,cue2.png,Hard,cue1.png,Easy,Left,Hard,Mid,0.0167854996398091,,,,,,,,,,,,,39,28,Female,1.0,0.5,1.2,1.25,3.2222222222222223,3.25,2.888888888888889,2.4444444444444446,2.125,3.7777777777777777,1.5,2.25,2.5,1.0,1.0,1.0,0.5781085626222193,1.6368646123749773,,,,,,,,,,,,,,,,,,,,,-0.0003691151830734168,-0.14633861331156817,,,,,,,,,,
18,240709_143752,FalseCHOICE,9.0,19,2.0,1750.0,,,,,,,,,,,19.0,19.0,,,A,,,,,,False,cue1.png,Easy,cue2.png,Hard,Right,Hard,Mid,0.0139616001397371,,,,,,,,,,,,,39,28,Female,1.0,0.5,1.2,1.25,3.2222222222222223,3.25,2.888888888888889,2.4444444444444446,2.125,3.7777777777777777,1.5,2.25,2.5,1.0,1.0,1.0,0.506401987397112,1.1223711155291314,,,,,,,,,,,,,,,,,,,,,-8.357089313750865e-05,0.10679687051698006,,,,,,,,,,
19,240709_143809,FalseCHOICE,9.0,20,2.0,1750.0,,,,,,,,,,,20.0,20.0,,,A,,,,,,False,cue1.png,Easy,cue2.png,Hard,Right,Hard,Mid,0.0165343997068703,,,,,,,,,,,,,39,28,Female,1.0,0.5,1.2,1.25,3.2222222222222223,3.25,2.888888888888889,2.4444444444444446,2.125,3.7777777777777777,1.5,2.25,2.5,1.0,1.0,1.0,0.438820312556345,0.6374737110390809,,,,,,,,,,,,,,,,,,,-0.0017873904997566924,-1.4401718088695805,6.80082716092976e-05,0.24117204998606476,1.9230000000000003,0.9516939481837091,,,,,,,,
20,240709_143826,FalseCHOICE,9.0,21,2.0,1750.0,,,,,,,,,,,21.0,21.0,,,A,,,,,,False,cue1.png,Easy,cue2.png,Hard,Right,Hard,Mid,0.0163166997954249,,,,,,,,,,,,,39,28,Female,1.0,0.5,1.2,1.25,3.2222222222222223,3.25,2.888888888888889,2.4444444444444446,2.125,3.7777777777777777,1.5,2.25,2.5,1.0,1.0,1.0,0.4355337624438107,0.6138927680830321,,,,,,,,,,,,,,,,,,,,,,,1.1909999999999998,-0.36162786952608644,,,,,,,,
21,240709_143843,FalseCHOICE,9.0,22,2.0,1750.0,,,,,,,,,,,22.0,22.0,,,A,,,,,,False,cue2.png,Hard,cue1.png,Easy,Right,Easy,Mid,0.0172888999804854,,,,,,,,,,,,,39,28,Female,1.0,0.5,1.2,1.25,3.2222222222222223,3.25,2.888888888888889,2.4444444444444446,2.125,3.7777777777777777,1.5,2.25,2.5,1.0,0.75,0.8333333333333334,0.5290066500892863,1.284559198239927,,,,,,,,,,,,,,,,,,,-0.00023942238662663477,-0.18910662959585034,-0.00010127464015097492,0.09110246959991784,0.879,-0.921404381992556,,,,,,,,
22,240709_143900,FalseCHOICE,9.0,23,2.0,1750.0,,,,,,,,,,,23.0,23.0,,,A,,,,,,False,cue1.png,Easy,cue2.png,Hard,Right,Hard,Mid,0.0166142000816762,,,,,,,,,,,,,39,28,Female,1.0,0.5,1.2,1.25,3.2222222222222223,3.25,2.888888888888889,2.4444444444444446,2.125,3.7777777777777777,1.5,2.25,2.5,1.0,1.0,1.0,0.3860689376015216,0.25898346410241535,,,,,,,,,,,,,,,,,,,-0.00029634284611443004,-0.23510964751942343,-0.00029993295419204107,-0.08500845334179542,2.125,1.3141133568959744,,,,,,,,
23,240709_143919,FalseCHOICE,9.0,24,2.0,1750.0,,,,,,,,,,,24.0,24.0,,,A,,,,,,False,cue2.png,Hard,cue1.png,Easy,Right,Easy,Mid,0.016578999813646,,,,,,,,,,,,,39,28,Female,1.0,0.5,1.2,1.25,3.2222222222222223,3.25,2.888888888888889,2.4444444444444446,2.125,3.7777777777777777,1.5,2.25,2.5,1.0,0.75,0.7083333333333334,0.5169656571399953,1.1981652720409839,,,,,,,,,,,,,,,,,,,,,,,1.7930000000000001,0.718453734656013,,,,,,,,
24,240709_143936,FalseCHOICE,9.0,25,2.0,1750.0,,,,,,,,,,,25.0,25.0,,,A,,,,,,False,cue2.png,Hard,cue1.png,Easy,Right,Easy,Mid,0.0166333997622132,,,,,,,,,,,,,39,28,Female,1.0,0.5,1.2,1.25,3.2222222222222223,3.25,2.888888888888889,2.4444444444444446,2.125,3.7777777777777777,1.5,2.25,2.5,1.0,1.0,1.0,0.452719549939502,0.7372005104616122,,,,,,,,,,,,,,,,,,,,,-0.0004054389009771468,-0.17853964912312723,1.04,-0.6325453483159481,,,,,,,,
25,240709_143952,FalseCHOICE,9.0,26,2.0,1750.0,,,,,,,,,,,26.0,26.0,,,A,,,,,,False,cue1.png,Easy,cue2.png,Hard,Left,Easy,Mid,0.0171852000057697,,,,,,,,,,,,,39,28,Female,1.0,0.5,1.2,1.25,3.2222222222222223,3.25,2.888888888888889,2.4444444444444446,2.125,3.7777777777777777,1.5,2.25,2.5,1.0,0.1666666666666666,0.6666666666666667,0.3045722874812782,-0.3257536589571903,,,,,,,,,,,,,,,,,,,-0.0016930862867444978,-1.363955305339797,-0.005494360345511358,-4.689876900226212,1.3130000000000002,-0.1427408999077867,,,,,,,,
26,240709_144008,FalseCHOICE,9.0,27,2.0,1750.0,,,,,,,,,,,27.0,27.0,,,A,,,,,,False,cue1.png,Easy,cue2.png,Hard,Right,Hard,Mid,0.015941800083965,,,,,,,,,,,,,39,28,Female,1.0,0.5,1.2,1.25,3.2222222222222223,3.25,2.888888888888889,2.4444444444444446,2.125,3.7777777777777777,1.5,2.25,2.5,1.0,0.1666666666666666,0.5416666666666667,0.0748703428544104,-1.9738613304275805,,,,,,,,,,,,,,,,,,,0.0007109726099743981,0.5790009798040011,,,1.24,-0.2737142505810316,,,,,,,,
27,240709_144023,FalseCHOICE,9.0,28,2.0,1750.0,,,,,,,,,,,28.0,28.0,,,A,,,,,,False,cue2.png,Hard,cue1.png,Easy,Left,Hard,Mid,0.0165015999227762,,,,,,,,,,,,,39,28,Female,1.0,0.5,1.2,1.25,3.2222222222222223,3.25,2.888888888888889,2.4444444444444446,2.125,3.7777777777777777,1.5,2.25,2.5,1.0,1.0,1.0,0.1860454999841749,-1.1761814081259605,,,,,,,,,,,,,,,,,,,-0.002805389261781561,-2.2629166657632016,-0.002342816039887357,-1.8960276770801265,1.5789999999999997,0.33450446007965157,,,,,,,,
28,240709_144037,FalseCHOICE,9.0,29,2.0,1750.0,,,,,,,,,,,29.0,29.0,,,A,,,,,,False,cue1.png,Easy,cue2.png,Hard,Right,Hard,Mid,0.0162689997814595,,,,,,,,,,,,,39,28,Female,1.0,0.5,1.2,1.25,3.2222222222222223,3.25,2.888888888888889,2.4444444444444446,2.125,3.7777777777777777,1.5,2.25,2.5,1.0,0.1666666666666666,0.6666666666666667,0.1116291374783031,-1.7101175841042597,,,,,,,,,,,,,,,,,,,-0.0004706649317883912,-0.375996458762635,4.24463488965356e-05,0.218511363355156,2.375,1.76265222906462,,,,,,,,
29,240709_144053,FalseCHOICE,9.0,30,2.0,1750.0,,,,,,,,,,,30.0,30.0,,,A,,,,,,False,cue1.png,Easy,cue2.png,Hard,Right,Hard,Mid,0.0151884998194873,,,,,,,,,,,,,39,28,Female,1.0,0.5,1.2,1.25,3.2222222222222223,3.25,2.888888888888889,2.4444444444444446,2.125,3.7777777777777777,1.5,2.25,2.5,1.0,0.1666666666666666,0.6666666666666667,0.2869288498768583,-0.45234503333231324,,,,,,,,,,,,,,,,,,,-0.00236440821576904,-1.9065165392319008,-0.0012705627442603632,-0.945473362594562,1.115,-0.4979836866653545,,,,,,,,
30,240709_144107,FalseCHOICE,9.0,31,2.0,1750.0,,,,,,,,,,,31.0,31.0,,,A,,,,,,False,cue2.png,Hard,cue1.png,Easy,Left,Hard,Mid,0.0153656997717916,,,,,,,,,,,,,39,28,Female,1.0,0.5,1.2,1.25,3.2222222222222223,3.25,2.888888888888889,2.4444444444444446,2.125,3.7777777777777777,1.5,2.25,2.5,1.0,0.1666666666666666,0.6666666666666667,0.1147524249972775,-1.687708047569464,,,,,,,,,,,,,,,,,,,,,,,,,,,,,,,,
31,240709_144120,FalseCHOICE,9.0,32,2.0,1750.0,,,,,,,,,,,32.0,32.0,,,A,,,,,,False,cue1.png,Easy,cue2.png,Hard,Left,Easy,Mid,0.0158192999660968,,,,,,,,,,,,,39,28,Female,1.0,0.5,1.2,1.25,3.2222222222222223,3.25,2.888888888888889,2.4444444444444446,2.125,3.7777777777777777,1.5,2.25,2.5,1.0,1.0,1.0,0.0337277125217951,-2.269059025796688,,,,,,,,,,,,,,,,,,,,,0.00013725922289816806,0.30256313248338984,0.7509999999999999,-1.1510562845429029,,,,,,,,
32,240709_144135,FalseCHOICE,9.0,33,2.0,1750.0,,,,,,,,,,,33.0,33.0,,,A,,,,,,False,cue2.png,Hard,cue1.png,Easy,Right,Easy,Mid,0.0159702003002166,,,,,,,,,,,,,39,28,Female,1.0,0.5,1.2,1.25,3.2222222222222223,3.25,2.888888888888889,2.4444444444444446,2.125,3.7777777777777777,1.5,2.25,2.5,1.0,1.0,1.0,0.1629334375611506,-1.3420100755530686,,,,,,,,,,,,,,,,,,,,,-0.0025844092486631753,-2.1102004549944913,1.501,0.19456033196303438,,,,,,,,
33,240709_144151,FalseCHOICE,9.0,34,2.0,1750.0,,,,,,,,,,,34.0,34.0,,,A,,,,,,False,cue2.png,Hard,cue1.png,Easy,Right,Easy,Mid,0.0157310999929904,,,,,,,,,,,,,39,28,Female,1.0,0.5,1.2,1.25,3.2222222222222223,3.25,2.888888888888889,2.4444444444444446,2.125,3.7777777777777777,1.5,2.25,2.5,1.0,0.75,0.8333333333333334,0.3741628499701619,0.17355748133889184,,,,,,,,,,,,,,,,,,,,,0.00015791935819270365,0.3208783764860606,1.679,0.5139200089471104,,,,,,,,
34,240709_144208,FalseCHOICE,9.0,35,2.0,1750.0,,,,,,,,,,,35.0,35.0,,,A,,,,,,False,cue2.png,Hard,cue1.png,Easy,Right,Easy,Mid,0.0149583998136222,,,,,,,,,,,,,39,28,Female,1.0,0.5,1.2,1.25,3.2222222222222223,3.25,2.888888888888889,2.4444444444444446,2.125,3.7777777777777777,1.5,2.25,2.5,1.0,0.1666666666666666,0.6666666666666667,0.4085827374947257,0.42051960772633296,,,,,,,,,,,,,,,,,,,,,4.23392711319504e-05,0.2184164387403033,1.656,0.4726544327075948,,,,,,,,
35,240709_144225,FalseCHOICE,9.0,36,2.0,1750.0,,,,,,,,,,,36.0,36.0,,,A,,,,,,False,cue1.png,Easy,cue2.png,Hard,Left,Easy,Mid,0.016293799970299,,,,,,,,,,,,,39,28,Female,1.0,0.5,1.2,1.25,3.2222222222222223,3.25,2.888888888888889,2.4444444444444446,2.125,3.7777777777777777,1.5,2.25,2.5,1.0,0.1666666666666666,0.6666666666666667,0.312526912544854,-0.26867935507070734,,,,,,,,,,,,,,,,,,,,,-0.00021925650787457977,-0.013488650663470821,1.9290000000000003,0.9624588811157566,,,,,,,,
36,240709_144239,FalseCHOICE,9.0,37,2.0,1750.0,,,,,,,,,,,37.0,37.0,,,A,,,,,,False,cue2.png,Hard,cue1.png,Easy,Left,Hard,Mid,0.016716499812901,,,,,,,,,,,,,39,28,Female,1.0,0.5,1.2,1.25,3.2222222222222223,3.25,2.888888888888889,2.4444444444444446,2.125,3.7777777777777777,1.5,2.25,2.5,1.0,1.0,1.0,0.1177092749858275,-1.66649269757566,,,,,,,,,,,,,,,,,,,-0.0003804455817422933,-0.3030813344897245,-0.00011323015207617823,0.08050388856618888,1.3960000000000001,0.006174005652203595,,,,,,,,
37,240709_144254,FalseCHOICE,9.0,38,2.0,1750.0,,,,,,,,,,,38.0,38.0,,,A,,,,,,False,cue1.png,Easy,cue2.png,Hard,Right,Hard,Mid,0.016432300209999,,,,,,,,,,,,,39,28,Female,1.0,0.5,1.2,1.25,3.2222222222222223,3.25,2.888888888888889,2.4444444444444446,2.125,3.7777777777777777,1.5,2.25,2.5,1.0,0.75,0.8333333333333334,0.2733592624426819,-0.5497065997974256,,,,,,,,,,,,,,,,,,,0.0003652198971397184,0.29956422913848263,0.00019886462383347315,0.35717642198643124,1.315,-0.13915258893043794,,,,,,,,
38,240709_144312,FalseCHOICE,9.0,39,2.0,1750.0,,,,,,,,,,,39.0,39.0,,,A,,,,,,False,cue1.png,Easy,cue2.png,Hard,Left,Easy,Mid,0.0161912003532052,,,,,,,,,,,,,39,28,Female,1.0,0.5,1.2,1.25,3.2222222222222223,3.25,2.888888888888889,2.4444444444444446,2.125,3.7777777777777777,1.5,2.25,2.5,1.0,0.75,0.8333333333333334,0.4771264874725602,0.9123198854876902,,,,,,,,,,,,,,,,,,,0.00036909625799151895,0.30269709734348815,-4.775386934854778e-05,0.13854872116036804,1.3800000000000001,-0.02253248216658976,,,,,,,,
39,240709_144329,FalseCHOICE,9.0,40,2.0,1750.0,,,,,,,,,,,40.0,40.0,,,A,,,,,,False,cue2.png,Hard,cue1.png,Easy,Right,Easy,Mid,0.016447499860078,,,,,,,,,,,,,39,28,Female,1.0,0.5,1.2,1.25,3.2222222222222223,3.25,2.888888888888889,2.4444444444444446,2.125,3.7777777777777777,1.5,2.25,2.5,1.0,1.0,1.0,0.4777235625660978,0.9166038894551001,,,,,,,,,,,,,,,,,,,-0.0004423969109888246,-0.3531502927406402,-0.00015048484820882023,0.047477539019718885,1.732,0.6090102498468632,,,,,,,,
40,240709_144345,FalseCHOICE,9.0,41,2.0,1750.0,,,,,,,,,,,41.0,41.0,,,A,,,,,,False,cue2.png,Hard,cue1.png,Easy,Right,Easy,Mid,0.0165395000949502,,,,,,,,,,,,,39,28,Female,1.0,0.5,1.2,1.25,3.2222222222222223,3.25,2.888888888888889,2.4444444444444446,2.125,3.7777777777777777,1.5,2.25,2.5,1.0,1.0,1.0,0.3306177874328568,-0.13887762555134395,,,,,,,,,,,,,,,,,,,-0.0019907945632549858,-1.6045626248088993,-6.683704680522477e-05,0.12163145288101904,1.0909999999999997,-0.5410434183935449,,,,,,,,
41,240709_144403,FalseCHOICE,9.0,42,2.0,1750.0,,,,,,,,,,,42.0,42.0,,,A,,,,,,False,cue1.png,Easy,cue2.png,Hard,Left,Easy,Mid,0.0155348000116646,,,,,,,,,,,,,39,28,Female,1.0,0.5,1.2,1.25,3.2222222222222223,3.25,2.888888888888889,2.4444444444444446,2.125,3.7777777777777777,1.5,2.25,2.5,1.0,1.0,0.875,0.332571814235832,-0.12485751540611414,,,,,,,,,,,,,,,,,,,0.00029428508382310474,0.242234834439742,0.0011158236299116057,1.1700620927404572,,,,,,,,,,
42,240709_144422,FalseCHOICE,9.0,43,2.0,1750.0,,,,,,,,,,,43.0,43.0,,,A,,,,,,False,cue2.png,Hard,cue1.png,Easy,Right,Easy,Mid,0.0165237002074718,,,,,,,,,,,,,39,28,Female,1.0,0.5,1.2,1.25,3.2222222222222223,3.25,2.888888888888889,2.4444444444444446,2.125,3.7777777777777777,1.5,2.25,2.5,1.0,1.0,0.875,0.523799028513687,1.2471945991600113,,,,,,,,,,,,,,,,,,,-0.0005536841922813849,-0.44309248298358955,-1.4785901688088576e-05,0.16777487884836603,1.8860000000000001,0.8853101951027492,,,,,,,,
43,240709_144440,FalseCHOICE,9.0,44,2.0,1750.0,,,,,,,,,,,44.0,44.0,,,A,,,,,,False,cue1.png,Easy,cue2.png,Hard,Right,Hard,Mid,0.0163839999586343,,,,,,,,,,,,,39,28,Female,1.0,0.5,1.2,1.25,3.2222222222222223,3.25,2.888888888888889,2.4444444444444446,2.125,3.7777777777777777,1.5,2.25,2.5,1.0,0.75,0.8333333333333334,0.4434783876058645,0.6708953228407074,,,,,,,,,,,,,,,,,,,0.0013744070852349235,1.1151875870654955,0.0002019821638248793,0.3599401263289575,1.073,-0.573338217189687,,,,,,,,
44,240709_144456,FalseCHOICE,9.0,45,2.0,1750.0,,,,,,,,,,,45.0,45.0,,,A,,,,,,False,cue2.png,Hard,cue1.png,Easy,Right,Easy,Mid,0.0157786002382636,,,,,,,,,,,,,39,28,Female,1.0,0.5,1.2,1.25,3.2222222222222223,3.25,2.888888888888889,2.4444444444444446,2.125,3.7777777777777777,1.5,2.25,2.5,1.0,0.75,0.8333333333333334,0.3824602125678211,0.2330909213904657,,,,,,,,,,,,,,,,,,,0.001150284606515172,0.934052183409257,,,1.671,0.49956676503771374,,,,,,,,
45,240709_144511,FalseCHOICE,9.0,46,2.0,1750.0,,,,,,,,,,,46.0,46.0,,,A,,,,,,False,cue2.png,Hard,cue1.png,Easy,Right,Easy,Mid,0.0016892999410629,,,,,,,,,,,,,39,28,Female,1.0,0.5,1.2,1.25,3.2222222222222223,3.25,2.888888888888889,2.4444444444444446,2.125,3.7777777777777777,1.5,2.25,2.5,1.0,0.75,0.8333333333333334,0.2403553625917993,-0.7865090379354165,,,,,,,,,,,,,,,,,,,-0.0008852717578999164,-0.7110809859164235,1.3667843461529113e-05,0.19299917083753296,0.9500000000000002,-0.7940193422966604,,,,,,,,
46,240709_144526,FalseCHOICE,9.0,47,2.0,1750.0,,,,,,,,,,,47.0,47.0,,,A,,,,,,False,cue1.png,Easy,cue2.png,Hard,Right,Hard,Mid,0.0141982999630272,,,,,,,,,,,,,39,28,Female,1.0,0.5,1.2,1.25,3.2222222222222223,3.25,2.888888888888889,2.4444444444444446,2.125,3.7777777777777777,1.5,2.25,2.5,1.0,0.75,0.8333333333333334,0.2483220500871539,-0.7293481862994857,,,,,,,,,,,,,,,,,,,,,0.000831314282440954,0.9178440871137538,,,,,,,,,,
47,240709_144541,FalseCHOICE,9.0,48,2.0,1750.0,,,,,,,,,,,48.0,48.0,,,A,,,,,,False,cue1.png,Easy,cue2.png,Hard,Left,Easy,Mid,0.0160865001380443,,,,,,,,,,,,,39,28,Female,1.0,0.5,1.2,1.25,3.2222222222222223,3.25,2.888888888888889,2.4444444444444446,2.125,3.7777777777777777,1.5,2.25,2.5,1.0,1.0,1.0,0.2496465999865904,-0.7198445625750427,,,,,,,,,,,,,,,,,,,-0.00016317563397262765,-0.12748413461742134,,,1.633,0.43138885646807956,,,,,,,,
48,240709_144559,FalseCHOICE,9.0,49,2.0,1750.0,,,,,,,,,,,49.0,49.0,,,A,,,,,,False,cue2.png,Hard,cue1.png,Easy,Right,Easy,Mid,0.0160087998956441,,,,,,,,,,,,,39,28,Female,1.0,0.5,1.2,1.25,3.2222222222222223,3.25,2.888888888888889,2.4444444444444446,2.125,3.7777777777777777,1.5,2.25,2.5,1.0,1.0,1.0,0.5385667126392946,1.353152489663732,,,,,,,,,,,,,,,,,,,-0.0009160523066256655,-0.7359577727075012,4.222346095951197e-05,0.21831377283149087,2.156,1.3697321770448867,,,,,,,,
49,240709_144616,FalseCHOICE,9.0,50,2.0,1750.0,,,,,,,,,,,50.0,50.0,,,A,,,,,,False,cue1.png,Easy,cue2.png,Hard,Left,Easy,Mid,0.0161415999755263,,,,,,,,,,,,,39,28,Female,1.0,0.5,1.2,1.25,3.2222222222222223,3.25,2.888888888888889,2.4444444444444446,2.125,3.7777777777777777,1.5,2.25,2.5,1.0,0.75,0.8333333333333334,0.4189579249941744,0.4949614072442332,,,,,,,,,,,,,,,,,,,0.0008363633537774228,0.6803415643060912,1.528735140445903e-05,0.19443486729915632,0.6539999999999999,-1.3250893669443373,,,,,,,,
0,240709_141109,OFFLINERATING,9.0,1,1.0,,,,,,,,,,,,,,,,,T0,cue1.png,Easy,8.0,0.7848474001511931,,,,,,,,,,,,,,,,,,,,,,39,28,Female,1.0,0.5,1.2,1.25,3.2222222222222223,3.25,2.888888888888889,2.4444444444444446,2.125,3.7777777777777777,1.5,2.25,2.5,1.0,,,,,,,,,,,,,,,,,,,,,,,,,,,,,-1.6207667446035785,,,-0.00022945073029728572,-1.0,1.406,1.3770496042511884,
1,240709_141116,OFFLINERATING,9.0,2,3.0,,,,,,,,,,,,,,,,,T0,cue2.png,Hard,9.0,0.7513000001199543,,,,,,,,,,,,,,,,,,,,,,39,28,Female,1.0,0.5,1.2,1.25,3.2222222222222223,3.25,2.888888888888889,2.4444444444444446,2.125,3.7777777777777777,1.5,2.25,2.5,1.0,,,,,,,,,,,,,,,,,,,,,,,,,,,,,-1.565591706489414,,,0.00011086375176583198,1.0,1.0949999999999998,-0.9674527329137,
2,240709_142802,OFFLINERATING,9.0,3,1.0,,,,,,,,,,,,,,,,,T1,cue1.png,Easy,54.0,0.94899920001626,,,,,,,,,,,,,,,,,,,,,,39,28,Female,1.0,0.5,1.2,1.25,3.2222222222222223,3.25,2.888888888888889,2.4444444444444446,2.125,3.7777777777777777,1.5,2.25,2.5,1.0,,,,,,,,,,,,,,,,,,,,,,,,,,,,,0.9172850086479827,0.00015111522753496944,-0.0819840964663072,,,,,
3,240709_142808,OFFLINERATING,9.0,4,3.0,,,,,,,,,,,,,,,,,T1,cue2.png,Hard,44.0,0.6514698001556098,,,,,,,,,,,,,,,,,,,,,,39,28,Female,1.0,0.5,1.2,1.25,3.2222222222222223,3.25,2.888888888888889,2.4444444444444446,2.125,3.7777777777777777,1.5,2.25,2.5,1.0,,,,,,,,,,,,,,,,,,,,,,,,,,,,,0.36553462750633897,0.0005795126508932984,1.6291289764425638,,,,,
4,240709_143147,OFFLINERATING,9.0,5,1.0,,,,,,,,,,,,,,,,,T2,cue1.png,Easy,57.0,2.0523737999610603,,,,,,,,,,,,,,,,,,,,,,39,28,Female,1.0,0.5,1.2,1.25,3.2222222222222223,3.25,2.888888888888889,2.4444444444444446,2.125,3.7777777777777777,1.5,2.25,2.5,1.0,,,,,,,,,,,,,,,,,,,,,,,,,,,,,1.0828101229904759,,,,,,,
5,240709_143154,OFFLINERATING,9.0,6,3.0,,,,,,,,,,,,,,,,,T2,cue2.png,Hard,33.0,1.101710899733007,,,,,,,,,,,,,,,,,,,,,,39,28,Female,1.0,0.5,1.2,1.25,3.2222222222222223,3.25,2.888888888888889,2.4444444444444446,2.125,3.7777777777777777,1.5,2.25,2.5,1.0,,,,,,,,,,,,,,,,,,,,,,,,,,,,,-0.24139079174946915,,,,,1.169,-0.40959687133748673,
6,240709_144630,OFFLINERATING,9.0,7,1.0,,,,,,,,,,,,,,,,,T3,cue1.png,Easy,52.0,1.7128093000501394,,,,,,,,,,,,,,,,,,,,,,39,28,Female,1.0,0.5,1.2,1.25,3.2222222222222223,3.25,2.888888888888889,2.4444444444444446,2.125,3.7777777777777777,1.5,2.25,2.5,1.0,,,,,,,,,,,,,,,,,,,,,,,,,,,,,0.806934932419654,4.4770127295486184e-05,-0.5067497027416239,,,,,
7,240709_144637,OFFLINERATING,9.0,8,3.0,,,,,,,,,,,,,,,,,T3,cue2.png,Hard,42.0,0.9516199002973736,,,,,,,,,,,,,,,,,,,,,,39,28,Female,1.0,0.5,1.2,1.25,3.2222222222222223,3.25,2.888888888888889,2.4444444444444446,2.125,3.7777777777777777,1.5,2.25,2.5,1.0,,,,,,,,,,,,,,,,,,,,,,,,,,,,,0.2551845512780102,-8.88343374702465e-05,-1.0403951772346327,,,,,
0,240709_143211,LEARNINGCHECK,9.0,1,,,,,,,,,,,,1.0,1.0,1.0,,,A,,,,,,,,,,,,,,,cue1.png,Easy,Left,Left,Easy,0.0126801999285817,1.0,,,,,,39,28,Female,1.0,0.5,1.2,1.25,3.2222222222222223,3.25,2.888888888888889,2.4444444444444446,2.125,3.7777777777777777,1.5,2.25,2.5,1.0,,,,,,,,,,,,,,,,,,,,,,,,,,,,,,,,,,,,
1,240709_143216,LEARNINGCHECK,9.0,2,,,,,,,,,,,,2.0,2.0,2.0,,,A,,,,,,,,,,,,,,,cue2.png,Hard,Right,Right,Hard,0.0117490999400615,1.0,,,,,,39,28,Female,1.0,0.5,1.2,1.25,3.2222222222222223,3.25,2.888888888888889,2.4444444444444446,2.125,3.7777777777777777,1.5,2.25,2.5,1.0,,,,,,,,,,,,,,,,,,,,,,,,,,,,,,,,,,,,
2,240709_144653,LEARNINGCHECK,9.0,1,,,,,,,,,,,,1.0,1.0,1.0,,,A,,,,,,,,,,,,,,,cue1.png,Easy,Middle,Middle,Mid,0.0140987001359462,1.0,,,,,,39,28,Female,1.0,0.5,1.2,1.25,3.2222222222222223,3.25,2.888888888888889,2.4444444444444446,2.125,3.7777777777777777,1.5,2.25,2.5,1.0,,,,,,,,,,,,,,,,,,,,,,,,,,,,,,,,,,,,
3,240709_144657,LEARNINGCHECK,9.0,2,,,,,,,,,,,,2.0,2.0,2.0,,,A,,,,,,,,,,,,,,,cue2.png,Hard,Middle,Middle,Mid,0.0145390001125633,1.0,,,,,,39,28,Female,1.0,0.5,1.2,1.25,3.2222222222222223,3.25,2.888888888888889,2.4444444444444446,2.125,3.7777777777777777,1.5,2.25,2.5,1.0,,,,,,,,,,,,,,,,,,,,,,,,,,,,,,,,,,,,
0,240709_144708,DEMANDRATING,9.0,-1,,,,,,,,,,,,,,,,,,,,,,,,,,,,,,,,,,,,,,,1.0,MentalDemand,1.0,2.0,3.462257499806583,39,28,Female,1.0,0.5,1.2,1.25,3.2222222222222223,3.25,2.888888888888889,2.4444444444444446,2.125,3.7777777777777777,1.5,2.25,2.5,1.0,,,,,,,,,,,,,,,,,,,,,,,,,,,,,,,,,,,,-1.3529927031458933
1,240709_144713,DEMANDRATING,9.0,-1,,,,,,,,,,,,,,,,,,,,,,,,,,,,,,,,,,,,,,,2.0,Effort,1.0,4.0,3.443660499993712,39,28,Female,1.0,0.5,1.2,1.25,3.2222222222222223,3.25,2.888888888888889,2.4444444444444446,2.125,3.7777777777777777,1.5,2.25,2.5,1.0,,,,,,,,,,,,,,,,,,,,,,,,,,,,,,,,,,,,-1.2905468860776215
2,240709_144716,DEMANDRATING,9.0,-1,,,,,,,,,,,,,,,,,,,,,,,,,,,,,,,,,,,,,,,3.0,Frustration,1.0,6.0,0.8987056002952158,39,28,Female,1.0,0.5,1.2,1.25,3.2222222222222223,3.25,2.888888888888889,2.4444444444444446,2.125,3.7777777777777777,1.5,2.25,2.5,1.0,,,,,,,,,,,,,,,,,,,,,,,,,,,,,,,,,,,,-1.2281010690093495
3,240709_144720,DEMANDRATING,9.0,-1,,,,,,,,,,,,,,,,,,,,,,,,,,,,,,,,,,,,,,,4.0,MentalDemand,2.0,50.0,2.8096483000554144,39,28,Female,1.0,0.5,1.2,1.25,3.2222222222222223,3.25,2.888888888888889,2.4444444444444446,2.125,3.7777777777777777,1.5,2.25,2.5,1.0,,,,,,,,,,,,,,,,,,,,,,,,,,,,,,,,,,,,0.1457069064926346
4,240709_144722,DEMANDRATING,9.0,-1,,,,,,,,,,,,,,,,,,,,,,,,,,,,,,,,,,,,,,,5.0,Effort,2.0,50.0,0.598727900069207,39,28,Female,1.0,0.5,1.2,1.25,3.2222222222222223,3.25,2.888888888888889,2.4444444444444446,2.125,3.7777777777777777,1.5,2.25,2.5,1.0,,,,,,,,,,,,,,,,,,,,,,,,,,,,,,,,,,,,0.1457069064926346
5,240709_144724,DEMANDRATING,9.0,-1,,,,,,,,,,,,,,,,,,,,,,,,,,,,,,,,,,,,,,,6.0,Frustration,2.0,50.0,0.7637828998267651,39,28,Female,1.0,0.5,1.2,1.25,3.2222222222222223,3.25,2.888888888888889,2.4444444444444446,2.125,3.7777777777777777,1.5,2.25,2.5,1.0,,,,,,,,,,,,,,,,,,,,,,,,,,,,,,,,,,,,0.1457069064926346
6,240709_144728,DEMANDRATING,9.0,-1,,,,,,,,,,,,,,,,,,,,,,,,,,,,,,,,,,,,,,,7.0,MentalDemand,3.0,82.0,1.6331710000522437,39,28,Female,1.0,0.5,1.2,1.25,3.2222222222222223,3.25,2.888888888888889,2.4444444444444446,2.125,3.7777777777777777,1.5,2.25,2.5,1.0,,,,,,,,,,,,,,,,,,,,,,,,,,,,,,,,,,,,1.1448399795849866
7,240709_144730,DEMANDRATING,9.0,-1,,,,,,,,,,,,,,,,,,,,,,,,,,,,,,,,,,,,,,,8.0,Effort,3.0,82.0,0.4852622002363205,39,28,Female,1.0,0.5,1.2,1.25,3.2222222222222223,3.25,2.888888888888889,2.4444444444444446,2.125,3.7777777777777777,1.5,2.25,2.5,1.0,,,,,,,,,,,,,,,,,,,,,,,,,,,,,,,,,,,,1.1448399795849866
8,240709_144731,DEMANDRATING,9.0,-1,,,,,,,,,,,,,,,,,,,,,,,,,,,,,,,,,,,,,,,9.0,Frustration,3.0,82.0,0.4158426001667976,39,28,Female,1.0,0.5,1.2,1.25,3.2222222222222223,3.25,2.888888888888889,2.4444444444444446,2.125,3.7777777777777777,1.5,2.25,2.5,1.0,,,,,,,,,,,,,,,,,,,,,,,,,,,,,,,,,,,,1.1448399795849866
