,END,Phase,Block,TrialN,NbackLevel,ISI,Letter_Resp,Letter_RT,Letter_Accuracy,Trial_A_measure,Trial_ACC,Trial_RT,TrialCountCali,CaliEnd_A_measure,ISI_calibrated,TrialIndex,TrialNumber_total,TrialNumber_valid,CueLearning,TrialDemandLearning,CueMapping,OfflineRatingTimePoint,CueFigure,TrialDemand,OfflineRating,OfflineRatingRT,PhaseType,CueLeft,CueDemandLeft,CueRight,CueDemandRight,Choice,ChoiceDemand,TaskDemand,ChoiceRT,CueCheck,CueDemandCheck,CorrectAnswer,Answer,AnswerDemand,AnswerRT,AnswerACC,DemandRatingQuesIndex,QuesTLX,DemandLevel,DemandRating,DemandRatingRT,PID,Age,Gender,BAI_bis,BAI_bas_d,BAI_bas_rr,BAI_bas_fs,NFC,BFI_ext,BFI_agr,BFI_con,BFI_neu,BFI_open,UPPS_lps,UPPS_lpm,UPPS_pu,UPPS_ss,Task_A_measure,Task_ACC,Task_RT,Task_RT_z,Task_RT_log,Task_RT_log_z,cue_i_on_zyg_values,cue_i_on_zyg_zvalues,cue_e_on_zyg_values,cue_e_on_zyg_zvalues,cue_i_on_cor_values,cue_i_on_cor_zvalues,cue_e_on_cor_values,cue_e_on_cor_zvalues,cue_i_on_scr_values,cue_i_on_scr_zvalues,cue_e_on_scr_values,cue_e_on_scr_zvalues,cue_e_true_zyg_values,cue_e_true_zyg_zvalues,cue_e_true_cor_values,cue_e_true_cor_zvalues,cue_e_true_scr_values,cue_e_true_scr_zvalues,cue_e_false_zyg_values,cue_e_false_zyg_zvalues,cue_e_false_cor_values,cue_e_false_cor_zvalues,cue_e_false_scr_values,cue_e_false_scr_zvalues,OfflineRating_z,cue_i_off_zyg_values,cue_i_off_zyg_zvalues,cue_i_off_cor_values,cue_i_off_cor_zvalues,cue_i_off_scr_values,cue_i_off_scr_zvalues,DemandRating_z
0,240710_092520,PRACTICE,0.0,1,1.0,361.0,,,,,,,,,,14.0,1.0,1.0,cue2.png,Easy,B,,,,,,,,,,,,,,,,,,,,,,,,,,,40,29,Female,0.2857142857142857,0.5,0.2,1.0,1.6666666666666667,2.25,3.0,2.5555555555555554,3.0,1.7777777777777777,2.0,2.25,1.25,1.0,,,,,,,,,,,,,,,,,,,,,,,,,,,,,,,,,,,,,,
0,240710_092838,LEARNING,1.0,1,1.0,361.0,,,,,,,,,,1.0,1.0,1.0,cue2.png,Easy,B,,,,,,,,,,,,,,,,,,,,,,,,,,,40,29,Female,0.2857142857142857,0.5,0.2,1.0,1.6666666666666667,2.25,3.0,2.5555555555555554,3.0,1.7777777777777777,2.0,2.25,1.25,1.0,1.0,0.9444444444444444,0.5980022470586632,0.8731890728505124,-0.5141607674153825,0.8666226900821752,-0.00014364749730294167,-0.4993162959518509,-0.00011454621579370374,-0.7309098689734289,1.326861657336472e-05,-0.01676961161509766,-3.975328751606609e-05,-0.14490037454517576,1.408,-0.18167325752230223,1.3829999999999998,-0.029197461359519134,,,,,,,,,,,,,,,,,,,,
1,240710_092909,LEARNING,1.0,2,3.0,361.0,,,,,,,,,,2.0,2.0,2.0,cue1.png,Hard,B,,,,,,,,,,,,,,,,,,,,,,,,,,,40,29,Female,0.2857142857142857,0.5,0.2,1.0,1.6666666666666667,2.25,3.0,2.5555555555555554,3.0,1.7777777777777777,2.0,2.25,1.25,1.0,0.8680555555555555,0.75,0.5686316599986942,0.4440188919801639,-0.5645224006985777,0.48275433461794065,-0.00030368684510265285,-0.9148849293627963,0.0001818013725021399,0.6064792372622999,0.0003792472588759455,2.3084188039362217,2.9144693971302777e-05,0.20315706392645455,1.453,-0.10117802957395883,1.449,0.10569481012145822,,,,,,,,,,,,,,,,,,,,
2,240710_092939,LEARNING,1.0,3,1.0,361.0,,,,,,,,,,3.0,3.0,3.0,cue2.png,Easy,B,,,,,,,,,,,,,,,,,,,,,,,,,,,40,29,Female,0.2857142857142857,0.5,0.2,1.0,1.6666666666666667,2.25,3.0,2.5555555555555554,3.0,1.7777777777777777,2.0,2.25,1.25,1.0,0.8,0.8461538461538461,0.5607029000008575,0.3281619172659255,-0.5785641037580604,0.37572513183075973,0.0003350491381804814,0.7436986835594726,0.00031299403255566523,1.1985395114242574,-0.00026572863608137877,-1.7893352885682074,-3.4934382187741444e-05,-0.12055632543654608,1.1150000000000002,-0.7057866306081804,1.1620000000000001,-0.480882188591274,,,,,,,,,,,,,,,,,,,,
3,240710_093008,LEARNING,1.0,4,3.0,361.0,,,,,,,,,,4.0,4.0,4.0,cue1.png,Hard,B,,,,,,,,,,,,,,,,,,,,,,,,,,,40,29,Female,0.2857142857142857,0.5,0.2,1.0,1.6666666666666667,2.25,3.0,2.5555555555555554,3.0,1.7777777777777777,2.0,2.25,1.25,1.0,0.6666666666666666,0.5555555555555556,0.396601707692473,-2.0697247249121973,-0.9248227570749677,-2.2635407368235447,-0.0001281333756021309,-0.45903131327468044,0.00016438092054361008,0.5278623576412572,8.231841518998749e-05,0.4219275506820985,8.849274281956705e-05,0.5029703445840749,1.578,0.12241982583810547,1.595,0.40409286521574,,,,,,,,,,,,,,,,,,,,
4,240710_093038,LEARNING,1.0,5,3.0,361.0,,,,,,,,,,5.0,5.0,5.0,cue1.png,Hard,B,,,,,,,,,,,,,,,,,,,,,,,,,,,40,29,Female,0.2857142857142857,0.5,0.2,1.0,1.6666666666666667,2.25,3.0,2.5555555555555554,3.0,1.7777777777777777,2.0,2.25,1.25,1.0,0.5692307692307692,0.6239316239316239,0.4403322357143874,-1.4307235846761983,-0.8202257558311326,-1.466277498195433,-0.00016444457222083942,-0.5533193403368607,0.00018881894811907099,0.6381489034007665,0.00024183817348163864,1.4354115389762376,-0.0001170371402834402,-0.5353213890470638,1.551,0.07412268906909934,1.545,0.3019017504574242,,,,,,,,,,,,,,,,,,,,
5,240710_093108,LEARNING,1.0,6,1.0,361.0,,,,,,,,,,6.0,6.0,6.0,cue2.png,Easy,B,,,,,,,,,,,,,,,,,,,,,,,,,,,40,29,Female,0.2857142857142857,0.5,0.2,1.0,1.6666666666666667,2.25,3.0,2.5555555555555554,3.0,1.7777777777777777,2.0,2.25,1.25,1.0,0.95,0.8333333333333334,0.4944006200016398,-0.6406631675470307,-0.7044091187908181,-0.5834955251393961,0.00018913996766869133,0.3648213922848663,1.599085854598649e-05,-0.14180819216982615,1.3889752274376908e-05,-0.012823322489064957,4.3137684900741106e-05,0.2738465743346797,,,,,,,,,,,,,,,,,,,,,,,,
6,240710_093138,LEARNING,1.0,7,3.0,361.0,,,,,,,,,,7.0,7.0,7.0,cue1.png,Hard,B,,,,,,,,,,,,,,,,,,,,,,,,,,,40,29,Female,0.2857142857142857,0.5,0.2,1.0,1.6666666666666667,2.25,3.0,2.5555555555555554,3.0,1.7777777777777777,2.0,2.25,1.25,1.0,0.6666666666666666,0.7222222222222223,0.5029275562501425,-0.5160654955778651,-0.6873091426143154,-0.45315543675425574,7.258373080077122e-05,0.06216384752066911,6.659622890937402e-05,0.08656913808013328,0.00033495856222332107,2.027037454061143,2.9551139679779518e-05,0.20521033818959297,,,1.449,0.10569481012145822,,,,,,,,,,,,,,,,,,,,
7,240710_093207,LEARNING,1.0,8,3.0,361.0,,,,,,,,,,8.0,8.0,8.0,cue1.png,Hard,B,,,,,,,,,,,,,,,,,,,,,,,,,,,40,29,Female,0.2857142857142857,0.5,0.2,1.0,1.6666666666666667,2.25,3.0,2.5555555555555554,3.0,1.7777777777777777,2.0,2.25,1.25,1.0,0.7153846153846154,0.6794871794871795,0.4590690266665964,-1.1569370258487994,-0.7785546953337211,-1.1486507569489453,,,,,-0.00037297293060079657,-2.470695243568963,,,,,2.015,1.2624982291855926,,,,,,,,,,,,,,,,,,,,
8,240710_093238,LEARNING,1.0,9,1.0,361.0,,,,,,,,,,9.0,9.0,9.0,cue2.png,Easy,B,,,,,,,,,,,,,,,,,,,,,,,,,,,40,29,Female,0.2857142857142857,0.5,0.2,1.0,1.6666666666666667,2.25,3.0,2.5555555555555554,3.0,1.7777777777777777,2.0,2.25,1.25,1.0,1.0,0.8888888888888888,0.5796387062491704,0.6048565361348365,-0.5453502897971565,0.6288887270654996,3.928875212447355e-05,-0.024292070840556308,,,,,-1.3437993859844507e-05,-0.011961302820811854,,,0.32899999999999996,-2.183386160464815,,,,,,,,,,,,,,,,,,,,
9,240710_093308,LEARNING,1.0,10,1.0,361.0,,,,,,,,,,10.0,10.0,10.0,cue2.png,Easy,B,,,,,,,,,,,,,,,,,,,,,,,,,,,40,29,Female,0.2857142857142857,0.5,0.2,1.0,1.6666666666666667,2.25,3.0,2.5555555555555554,3.0,1.7777777777777777,2.0,2.25,1.25,1.0,0.9153846153846156,0.8675213675213675,0.5464992294124814,0.12061441870929739,-0.604222381407743,0.18015163265445455,,,,,0.00010440193815363773,0.5622317811327588,-0.00010616719301832344,-0.4804088078691689,,,0.7050000000000001,-1.41490897748228,,,,,,,,,,,,,,,,,,,,
10,240710_093338,LEARNING,1.0,11,3.0,361.0,,,,,,,,,,11.0,11.0,11.0,cue1.png,Hard,B,,,,,,,,,,,,,,,,,,,,,,,,,,,40,29,Female,0.2857142857142857,0.5,0.2,1.0,1.6666666666666667,2.25,3.0,2.5555555555555554,3.0,1.7777777777777777,2.0,2.25,1.25,1.0,0.5833333333333334,0.6388888888888888,0.5342279749997942,-0.05869614342028973,-0.6269326116508628,0.007048852476165985,,,,,-9.209580941270737e-05,-0.6861861140990777,1.3684458423941087e-06,0.06283757175275771,,,,,,,,,,,,,,,,,,,,,,,,
11,240710_093407,LEARNING,1.0,12,1.0,361.0,,,,,,,,,,12.0,12.0,12.0,cue2.png,Easy,B,,,,,,,,,,,,,,,,,,,,,,,,,,,40,29,Female,0.2857142857142857,0.5,0.2,1.0,1.6666666666666667,2.25,3.0,2.5555555555555554,3.0,1.7777777777777777,2.0,2.25,1.25,1.0,0.9153846153846156,0.9230769230769232,0.5249127833319815,-0.19481199581215403,-0.6445231571778315,-0.1270304722587091,,,-0.00065879653413303,-3.1870609414286086,-8.175463153220703e-05,-0.6204850478849049,,,1.6649999999999998,0.2780439332049018,2.542,2.33959257873824,,,,,,,,,,,,,,,,,,,,
12,240710_093438,LEARNING,1.0,13,1.0,361.0,,,,,,,,,,13.0,13.0,13.0,cue2.png,Easy,B,,,,,,,,,,,,,,,,,,,,,,,,,,,40,29,Female,0.2857142857142857,0.5,0.2,1.0,1.6666666666666667,2.25,3.0,2.5555555555555554,3.0,1.7777777777777777,2.0,2.25,1.25,1.0,0.9153846153846156,0.811965811965812,0.5448047312511335,0.09585399833004844,-0.6073278398028741,0.15648108963615742,0.0001036498091776224,0.14283205764523363,,,0.0002860877166740404,1.7165441334278697,-0.0006986676940866866,-3.4735909337173587,,,0.9250000000000003,-0.9652680725456904,,,,,,,,,,,,,,,,,,,,
13,240710_093508,LEARNING,1.0,14,1.0,361.0,,,,,,,,,,14.0,14.0,14.0,cue2.png,Easy,B,,,,,,,,,,,,,,,,,,,,,,,,,,,40,29,Female,0.2857142857142857,0.5,0.2,1.0,1.6666666666666667,2.25,3.0,2.5555555555555554,3.0,1.7777777777777777,2.0,2.25,1.25,1.0,0.648076923076923,0.547008547008547,0.5146930857154075,-0.3441447097136508,-0.6641845060343955,-0.2768939528439637,1.851725068001582e-05,-0.07822870947251126,,,,,-2.9709860364296025e-05,-0.0941631910681478,,,,,,,,,,,,,,,,,,,,,,,,
14,240710_093540,LEARNING,1.0,15,3.0,361.0,,,,,,,,,,15.0,15.0,15.0,cue1.png,Hard,B,,,,,,,,,,,,,,,,,,,,,,,,,,,40,29,Female,0.2857142857142857,0.5,0.2,1.0,1.6666666666666667,2.25,3.0,2.5555555555555554,3.0,1.7777777777777777,2.0,2.25,1.25,1.0,0.85,0.6452991452991453,0.5817785692303844,0.6361247358752867,-0.5416653688858512,0.6569760713000352,,,-0.0001807313753085498,-1.0295973387741426,0.00013422034975342674,0.7516784242093992,3.644645970591817e-05,0.24004397734606003,,,,,,,,,,,,,,,,,,,,,,,,
15,240710_093610,LEARNING,1.0,16,1.0,361.0,,,,,,,,,,16.0,16.0,16.0,cue2.png,Easy,B,,,,,,,,,,,,,,,,,,,,,,,,,,,40,29,Female,0.2857142857142857,0.5,0.2,1.0,1.6666666666666667,2.25,3.0,2.5555555555555554,3.0,1.7777777777777777,2.0,2.25,1.25,1.0,0.8680555555555555,0.861111111111111,0.5714422999996768,0.48508864911917493,-0.559591763224584,0.5203368269864685,,,,,,,,,,,,,,,,,,,,,,,,,,,,,,,,
16,240710_093642,LEARNING,1.0,17,1.0,361.0,,,,,,,,,,17.0,17.0,17.0,cue2.png,Easy,B,,,,,,,,,,,,,,,,,,,,,,,,,,,40,29,Female,0.2857142857142857,0.5,0.2,1.0,1.6666666666666667,2.25,3.0,2.5555555555555554,3.0,1.7777777777777777,2.0,2.25,1.25,1.0,1.0,0.9444444444444444,0.6344046235295965,1.4051094754710733,-0.45506832065275304,1.317039383908854,0.0002162103662965019,0.43511415914697343,0.00020865200129743756,0.7276536279597595,3.952268987262924e-05,0.15003156211572963,-6.857425289388992e-05,-0.2904975483248454,,,,,,,,,,,,,,,,,,,,,,,,
17,240710_093712,LEARNING,1.0,18,3.0,361.0,,,,,,,,,,18.0,18.0,18.0,cue1.png,Hard,B,,,,,,,,,,,,,,,,,,,,,,,,,,,40,29,Female,0.2857142857142857,0.5,0.2,1.0,1.6666666666666667,2.25,3.0,2.5555555555555554,3.0,1.7777777777777777,2.0,2.25,1.25,1.0,0.5692307692307692,0.5683760683760684,0.4375389923085234,-1.471539138524744,-0.8265894518792646,-1.5147831040985247,-0.0003727535154606802,-1.094227960995555,4.0985763415358166e-05,-0.029008510971391746,-5.384913753699733e-05,-0.4431918294619211,-1.5531907406458618e-05,-0.02253929320140328,,,,,,,,,,,,,,,,,,,,,,,,
18,240710_093741,LEARNING,1.0,19,3.0,361.0,,,,,,,,,,19.0,19.0,19.0,cue1.png,Hard,B,,,,,,,,,,,,,,,,,,,,,,,,,,,40,29,Female,0.2857142857142857,0.5,0.2,1.0,1.6666666666666667,2.25,3.0,2.5555555555555554,3.0,1.7777777777777777,2.0,2.25,1.25,1.0,0.0833333333333333,0.4444444444444445,0.4401372857152767,-1.4335722416066226,-0.820668587746495,-1.4696528684528145,-7.276497440391596e-05,-0.31525810289589723,,,5.082270360481445e-05,0.22182444287057085,,,,,,,,,,,,,,,,,,,,,,,,,,
19,240710_093810,LEARNING,1.0,20,3.0,361.0,,,,,,,,,,20.0,20.0,20.0,cue1.png,Hard,B,,,,,,,,,,,,,,,,,,,,,,,,,,,40,29,Female,0.2857142857142857,0.5,0.2,1.0,1.6666666666666667,2.25,3.0,2.5555555555555554,3.0,1.7777777777777777,2.0,2.25,1.25,1.0,0.85,0.7564102564102565,0.432222859999941,-1.5492197602891844,-0.8388139441286835,-1.607961093576788,-0.0003017152087070006,-0.9097652493979048,0.00010182440177706076,0.24555060608114723,6.312436859997944e-05,0.29998115922644525,0.00016022627079922535,0.8653523398492073,,,,,,,,,,,,,,,,,,,,,,,,
20,240710_093841,LEARNING,1.0,21,1.0,361.0,,,,,,,,,,21.0,21.0,21.0,cue2.png,Easy,B,,,,,,,,,,,,,,,,,,,,,,,,,,,40,29,Female,0.2857142857142857,0.5,0.2,1.0,1.6666666666666667,2.25,3.0,2.5555555555555554,3.0,1.7777777777777777,2.0,2.25,1.25,1.0,0.9236111111111112,0.861111111111111,0.593967652940003,0.8142345996522605,-0.5209304174322532,0.8150228064081939,-6.351810817433867e-05,-0.2912470855105453,-0.00020279524458049905,-1.1291695289019608,0.0001067570297752147,0.5771944896711585,-0.0001492571894658166,-0.6980899860908514,1.806,0.5302623141097107,1.664,0.5451166035822157,,,,,,,,,,,,,,,,,,,,
21,240710_093913,LEARNING,1.0,22,3.0,361.0,,,,,,,,,,22.0,22.0,22.0,cue1.png,Hard,B,,,,,,,,,,,,,,,,,,,,,,,,,,,40,29,Female,0.2857142857142857,0.5,0.2,1.0,1.6666666666666667,2.25,3.0,2.5555555555555554,3.0,1.7777777777777777,2.0,2.25,1.25,1.0,0.85,0.8333333333333334,0.6065878133338022,0.998643461067281,-0.4999057740484859,0.9752776423577222,-0.00027072104591735176,-0.8292837799887051,0.00010694304690965495,0.2686505755406052,5.783208640108405e-05,0.2663574669167554,7.82341507193354e-06,0.09544665560318338,0.714,-1.423088550770083,0.8890000000000002,-1.0388456751716777,,,,,,,,,,,,,,,,,,,,
22,240710_093943,LEARNING,1.0,23,3.0,361.0,,,,,,,,,,23.0,23.0,23.0,cue1.png,Hard,B,,,,,,,,,,,,,,,,,,,,,,,,,,,40,29,Female,0.2857142857142857,0.5,0.2,1.0,1.6666666666666667,2.25,3.0,2.5555555555555554,3.0,1.7777777777777777,2.0,2.25,1.25,1.0,1.0,0.8333333333333334,0.4817126666661352,-0.8260626359592498,-0.7304074699347136,-0.7816611454295345,,,-0.0003538200012521129,-1.8107302107553345,-8.040591684397398e-05,-0.611916198759631,,,1.5630000000000002,0.09558808318865793,1.5959999999999999,0.4061366875109061,,,,,,,,,,,,,,,,,,,,
23,240710_094013,LEARNING,1.0,24,3.0,361.0,,,,,,,,,,24.0,24.0,24.0,cue1.png,Hard,B,,,,,,,,,,,,,,,,,,,,,,,,,,,40,29,Female,0.2857142857142857,0.5,0.2,1.0,1.6666666666666667,2.25,3.0,2.5555555555555554,3.0,1.7777777777777777,2.0,2.25,1.25,1.0,0.75,0.6666666666666667,0.5478689533343034,0.14062915869629616,-0.6017191568830252,0.19923180577468927,-0.00018545123160277613,-0.607866605443226,7.504328349604685e-05,0.12468990987030892,,,6.944727199962664e-05,0.4067568177873584,2.382,1.560601231848503,0.758,-1.3065863958384656,,,,,,,,,,,,,,,,,,,,
24,240710_094044,LEARNING,1.0,25,1.0,361.0,,,,,,,,,,25.0,25.0,25.0,cue2.png,Easy,B,,,,,,,,,,,,,,,,,,,,,,,,,,,40,29,Female,0.2857142857142857,0.5,0.2,1.0,1.6666666666666667,2.25,3.0,2.5555555555555554,3.0,1.7777777777777777,2.0,2.25,1.25,1.0,0.9,0.8333333333333334,0.5280305333333672,-0.14925467245081966,-0.6386011686649737,-0.08189166632035326,-4.0177138582992485e-05,-0.23063839790391114,0.0001486681297344322,0.45695199397810843,6.321234149148092e-06,-0.060908725934882745,-4.309306392688041e-05,-0.16177218990930392,0.6279999999999999,-1.5769238752935835,1.508,0.2262803255362707,,,,,,,,,,,,,,,,,,,,
25,240710_094116,LEARNING,1.0,26,1.0,361.0,,,,,,,,,,26.0,26.0,26.0,cue2.png,Easy,B,,,,,,,,,,,,,,,,,,,,,,,,,,,40,29,Female,0.2857142857142857,0.5,0.2,1.0,1.6666666666666667,2.25,3.0,2.5555555555555554,3.0,1.7777777777777777,2.0,2.25,1.25,1.0,0.9583333333333334,0.8888888888888888,0.6681107124991286,1.897631067564215,-0.4033013819042514,1.7116193121066139,-1.1299842190166769e-05,-0.15565372217536472,0.0002673123030220077,0.9923821143499466,-0.00010358391163593859,-0.7591739858449974,1.3494511429913356e-05,0.12409578623186687,0.5249999999999999,-1.7611685081531243,2.1350000000000002,1.5077569046055506,,,,,,,,,,,,,,,,,,,,
26,240710_094148,LEARNING,1.0,27,3.0,361.0,,,,,,,,,,27.0,27.0,27.0,cue1.png,Hard,B,,,,,,,,,,,,,,,,,,,,,,,,,,,40,29,Female,0.2857142857142857,0.5,0.2,1.0,1.6666666666666667,2.25,3.0,2.5555555555555554,3.0,1.7777777777777777,2.0,2.25,1.25,1.0,0.8125,0.5277777777777777,0.522476245454031,-0.23041528149528936,-0.6491757594225293,-0.1624937139343378,-3.508176944321201e-05,-0.21740742927491566,2.458546217448676e-05,-0.1030215452756542,9.278105699688953e-05,0.48840031907211334,1.6571398490053402e-05,0.1396395424566437,0.9590000000000001,-0.9848367541624369,1.433,0.07299365339879715,,,,,,,,,,,,,,,,,,,,
27,240710_094221,LEARNING,1.0,28,1.0,361.0,,,,,,,,,,28.0,28.0,28.0,cue2.png,Easy,B,,,,,,,,,,,,,,,,,,,,,,,,,,,40,29,Female,0.2857142857142857,0.5,0.2,1.0,1.6666666666666667,2.25,3.0,2.5555555555555554,3.0,1.7777777777777777,2.0,2.25,1.25,1.0,0.85,0.6666666666666667,0.6511318166667479,1.64953130093431,-0.42904317391149654,1.515409246619702,0.0019688762644298513,4.98620101451691,0.00015117018785890677,0.4682435496073729,0.0001240391766668559,0.6869939235820509,,,2.2119999999999997,1.256508148488095,1.1289999999999998,-0.5483283243317632,,,,,,,,,,,,,,,,,,,,
28,240710_094252,LEARNING,1.0,29,1.0,361.0,,,,,,,,,,29.0,29.0,29.0,cue2.png,Easy,B,,,,,,,,,,,,,,,,,,,,,,,,,,,40,29,Female,0.2857142857142857,0.5,0.2,1.0,1.6666666666666667,2.25,3.0,2.5555555555555554,3.0,1.7777777777777777,2.0,2.25,1.25,1.0,0.9153846153846156,0.7008547008547009,0.5540087142851137,0.2303448430433534,-0.5905748626020417,0.28417626923946115,-0.00028426402393213687,-0.8644503621030123,-0.0002338125642293988,-1.2691478079276644,-7.129386950032466e-05,-0.5540242223532822,0.00019958151344150014,1.0641663638422163,1.809,0.5356286626396001,1.1780000000000002,-0.4481810318686129,,,,,,,,,,,,,,,,,,,,
29,240710_094323,LEARNING,1.0,30,3.0,361.0,,,,,,,,,,30.0,30.0,30.0,cue1.png,Hard,B,,,,,,,,,,,,,,,,,,,,,,,,,,,40,29,Female,0.2857142857142857,0.5,0.2,1.0,1.6666666666666667,2.25,3.0,2.5555555555555554,3.0,1.7777777777777777,2.0,2.25,1.25,1.0,0.6875,0.6944444444444444,0.6007925823518342,0.9139621326471715,-0.5095055248936574,0.902106056577719,-7.090187057457766e-05,-0.3104202456882449,0.00011760246146085961,0.31675552210558333,7.373615320816016e-05,0.3674014832213835,,,0.355,-2.0652615915135315,0.869,-1.0797221210750045,,,,,,,,,,,,,,,,,,,,
30,240710_094353,LEARNING,1.0,31,3.0,361.0,,,,,,,,,,31.0,31.0,31.0,cue1.png,Hard,B,,,,,,,,,,,,,,,,,,,,,,,,,,,40,29,Female,0.2857142857142857,0.5,0.2,1.0,1.6666666666666667,2.25,3.0,2.5555555555555554,3.0,1.7777777777777777,2.0,2.25,1.25,1.0,0.9583333333333334,0.7777777777777778,0.5254377142851548,-0.18714157670688245,-0.6435236222643569,-0.11941177924875443,-0.000164372555411965,-0.5531323367826846,0.00010511866334900677,0.26041730219548626,,,,,,,,,,,,,,,,,,,,,,,,,,,,
31,240710_094425,LEARNING,1.0,32,1.0,361.0,,,,,,,,,,32.0,32.0,32.0,cue2.png,Easy,B,,,,,,,,,,,,,,,,,,,,,,,,,,,40,29,Female,0.2857142857142857,0.5,0.2,1.0,1.6666666666666667,2.25,3.0,2.5555555555555554,3.0,1.7777777777777777,2.0,2.25,1.25,1.0,1.0,0.8888888888888888,0.6147545499993612,1.1179778088868226,-0.48653219653158847,1.0772142332386598,8.026659060898084e-05,0.08211366358203717,-0.0002459625172510178,-1.3239794159924736,-0.00023165592193848464,-1.572859595579687,,,1.3430000000000002,-0.2979441423365752,,,,,,,,,,,,,,,,,,,,,,
32,240710_094456,LEARNING,1.0,33,1.0,361.0,,,,,,,,,,33.0,33.0,33.0,cue2.png,Easy,B,,,,,,,,,,,,,,,,,,,,,,,,,,,40,29,Female,0.2857142857142857,0.5,0.2,1.0,1.6666666666666667,2.25,3.0,2.5555555555555554,3.0,1.7777777777777777,2.0,2.25,1.25,1.0,0.95,0.9444444444444444,0.6343354882371974,1.4040992537181733,-0.4551773032439493,1.3162086926597938,-0.00022611686530600843,-0.7134616485197065,0.0003828242589974211,1.513676829282053,-0.0003168324859460503,-2.114015655017477,8.692140992059985e-05,0.49503231661875646,1.795,0.5105857028334488,1.2510000000000001,-0.29898200432147204,,,,,,,,,,,,,,,,,,,,
33,240710_094527,LEARNING,1.0,34,1.0,361.0,,,,,,,,,,34.0,34.0,34.0,cue2.png,Easy,B,,,,,,,,,,,,,,,,,,,,,,,,,,,40,29,Female,0.2857142857142857,0.5,0.2,1.0,1.6666666666666667,2.25,3.0,2.5555555555555554,3.0,1.7777777777777777,2.0,2.25,1.25,1.0,0.9236111111111112,0.8055555555555556,0.5275868374997117,-0.1557380641784883,-0.6394418063279071,-0.08829920666752508,-5.813664170124799e-05,-0.2772732178416522,0.0002794322211940002,1.0470781779315734,,,2.68780630886924e-05,0.19170654357838468,1.484,-0.04572576143176703,2.108,1.45257370263606,,,,,,,,,,,,,,,,,,,,
34,240710_094558,LEARNING,1.0,35,3.0,361.0,,,,,,,,,,35.0,35.0,35.0,cue1.png,Hard,B,,,,,,,,,,,,,,,,,,,,,,,,,,,40,29,Female,0.2857142857142857,0.5,0.2,1.0,1.6666666666666667,2.25,3.0,2.5555555555555554,3.0,1.7777777777777777,2.0,2.25,1.25,1.0,0.9583333333333334,0.8888888888888888,0.583917000000838,0.6673720078028254,-0.5379964295406175,0.6849416002341971,3.758197987324078e-05,-0.028723987251989002,2.279919914029106e-05,-0.11108278423002708,,,8.991812149148877e-05,0.5101710439179461,1.145,-0.6521231453092853,1.623,0.46131988948039687,,,,,,,,,,,,,,,,,,,,
35,240710_094627,LEARNING,1.0,36,3.0,361.0,,,,,,,,,,36.0,36.0,36.0,cue1.png,Hard,B,,,,,,,,,,,,,,,,,,,,,,,,,,,40,29,Female,0.2857142857142857,0.5,0.2,1.0,1.6666666666666667,2.25,3.0,2.5555555555555554,3.0,1.7777777777777777,2.0,2.25,1.25,1.0,0.85,0.811965811965812,0.5018501250006011,-0.5318091837546427,-0.6894537596427511,-0.46950221818560606,-9.251760493660978e-05,-0.3665490747075038,4.254260774640443e-05,-0.021982617288843674,,,2.429075045287969e-05,0.1786360095931278,0.8469999999999998,-1.185180432611647,0.9349999999999998,-0.9448298495940282,,,,,,,,,,,,,,,,,,,,
36,240710_094657,LEARNING,1.0,37,1.0,361.0,,,,,,,,,,37.0,37.0,37.0,cue2.png,Easy,B,,,,,,,,,,,,,,,,,,,,,,,,,,,40,29,Female,0.2857142857142857,0.5,0.2,1.0,1.6666666666666667,2.25,3.0,2.5555555555555554,3.0,1.7777777777777777,2.0,2.25,1.25,1.0,0.9236111111111112,0.9166666666666666,0.5682394333335752,0.4382875802951907,-0.565212411523871,0.47749490787797744,0.00016353586840503215,0.2983361142141677,9.469160850760546e-05,0.21336097339185417,0.00010719615396696195,0.5799843969652428,0.00013350116428992266,0.7303429837882507,1.338,-0.30688805655305795,,,,,,,,,,,,,,,,,,,,,,
37,240710_094727,LEARNING,1.0,38,3.0,361.0,,,,,,,,,,38.0,38.0,38.0,cue1.png,Hard,B,,,,,,,,,,,,,,,,,,,,,,,,,,,40,29,Female,0.2857142857142857,0.5,0.2,1.0,1.6666666666666667,2.25,3.0,2.5555555555555554,3.0,1.7777777777777777,2.0,2.25,1.25,1.0,0.7153846153846154,0.6239316239316239,0.4661270071446779,-1.0538040938385245,-0.7632971344700515,-1.0323539965917579,0.00015385194864967443,0.2731902150704665,0.0001413366499110934,0.4238657073485983,-3.7148371089739535e-05,-0.3370861058336925,0.0004000811683908907,2.0770464919621445,2.05,0.9667253278740597,0.9680000000000002,-0.877383713853539,,,,,,,,,,,,,,,,,,,,
38,240710_094759,LEARNING,1.0,39,3.0,361.0,,,,,,,,,,39.0,39.0,39.0,cue1.png,Hard,B,,,,,,,,,,,,,,,,,,,,,,,,,,,40,29,Female,0.2857142857142857,0.5,0.2,1.0,1.6666666666666667,2.25,3.0,2.5555555555555554,3.0,1.7777777777777777,2.0,2.25,1.25,1.0,0.7153846153846154,0.7350427350427351,0.6118911062503685,1.0761364705043757,-0.49120094326485303,1.041627934428623,0.0008571088657529672,2.099313102944028,-0.0004202558079216649,-2.1105488278555433,-4.593885960194749e-06,-0.1302562448854886,2.328439673947866e-05,0.17355213212500503,1.8079999999999998,0.5338398797963033,1.907,1.0417654213076304,,,,,,,,,,,,,,,,,,,,
39,240710_094829,LEARNING,1.0,40,3.0,361.0,,,,,,,,,,40.0,40.0,40.0,cue1.png,Hard,B,,,,,,,,,,,,,,,,,,,,,,,,,,,40,29,Female,0.2857142857142857,0.5,0.2,1.0,1.6666666666666667,2.25,3.0,2.5555555555555554,3.0,1.7777777777777777,2.0,2.25,1.25,1.0,0.95,0.7777777777777778,0.5089121928576787,-0.4286165259656674,-0.675479786433498,-0.3629892684372669,0.00017460795767909425,0.3270866250846843,4.551877866623352e-06,-0.19343124817306542,5.246150297518728e-05,0.2322362999325829,7.803288291447765e-05,0.45012943449144804,1.484,-0.04572576143176703,1.733,0.6861403419486918,,,,,,,,,,,,,,,,,,,,
40,240710_094900,LEARNING,1.0,41,1.0,361.0,,,,,,,,,,41.0,41.0,41.0,cue2.png,Easy,B,,,,,,,,,,,,,,,,,,,,,,,,,,,40,29,Female,0.2857142857142857,0.5,0.2,1.0,1.6666666666666667,2.25,3.0,2.5555555555555554,3.0,1.7777777777777777,2.0,2.25,1.25,1.0,0.85,0.7564102564102565,0.5430729333335572,0.07054854481631515,-0.610511652536312,0.1322133112021581,,,,,,,,,2.439,1.6625618539164042,1.1130000000000002,-0.5810294810544233,,,,,,,,,,,,,,,,,,,,
41,240710_094929,LEARNING,1.0,42,3.0,361.0,,,,,,,,,,42.0,42.0,42.0,cue1.png,Hard,B,,,,,,,,,,,,,,,,,,,,,,,,,,,40,29,Female,0.2857142857142857,0.5,0.2,1.0,1.6666666666666667,2.25,3.0,2.5555555555555554,3.0,1.7777777777777777,2.0,2.25,1.25,1.0,0.8680555555555555,0.6944444444444444,0.3960934500012497,-2.0771515102476648,-0.9261051107160612,-2.273315141489137,-6.335246056247273e-05,-0.29081695409200775,0.00015481460739590058,0.48469047605397003,-0.00012385298056231432,-0.8879503646115344,4.1799936411201534e-05,0.2670885633953636,,,,,,,,,,,,,,,,,,,,,,,,
42,240710_095000,LEARNING,1.0,43,3.0,361.0,,,,,,,,,,43.0,43.0,43.0,cue1.png,Hard,B,,,,,,,,,,,,,,,,,,,,,,,,,,,40,29,Female,0.2857142857142857,0.5,0.2,1.0,1.6666666666666667,2.25,3.0,2.5555555555555554,3.0,1.7777777777777777,2.0,2.25,1.25,1.0,0.9,0.6666666666666667,0.5035835666664449,-0.5064797113903556,-0.6860056090631064,-0.44321959377272874,0.0005098087882958856,1.1974910163345538,0.0004449348101484554,1.7939759704674556,-3.9563947241892834e-05,-0.35243309343529455,-0.00016256276925100382,-0.7653068466930911,1.423,-0.1548415148728543,2.331,1.9083460744581477,,,,,,,,,,,,,,,,,,,,
43,240710_095030,LEARNING,1.0,44,1.0,361.0,,,,,,,,,,44.0,44.0,44.0,cue2.png,Easy,B,,,,,,,,,,,,,,,,,,,,,,,,,,,40,29,Female,0.2857142857142857,0.5,0.2,1.0,1.6666666666666667,2.25,3.0,2.5555555555555554,3.0,1.7777777777777777,2.0,2.25,1.25,1.0,0.5692307692307692,0.6794871794871795,0.5113899200009958,-0.3924113726919664,-0.6706229269157173,-0.3259691292108966,0.00018733803489492506,0.3601423758393007,,,,,0.00027099872056860017,1.4249503757804096,2.5530000000000004,1.8664830980522076,1.867,0.9600125295009777,,,,,,,,,,,,,,,,,,,,
44,240710_095101,LEARNING,1.0,45,1.0,361.0,,,,,,,,,,45.0,45.0,45.0,cue2.png,Easy,B,,,,,,,,,,,,,,,,,,,,,,,,,,,40,29,Female,0.2857142857142857,0.5,0.2,1.0,1.6666666666666667,2.25,3.0,2.5555555555555554,3.0,1.7777777777777777,2.0,2.25,1.25,1.0,0.9236111111111112,0.8055555555555556,0.5718919124992681,0.4916584966124232,-0.5588052696204346,0.5263316684307533,-2.7687769720259083e-05,-0.1982076861957702,3.393034254598609e-05,-0.06084896921459037,4.690557443393214e-05,0.1969375715683286,2.6502840182145073e-05,0.1898110000386558,1.3359999999999999,-0.3104656222396514,1.5439999999999998,0.29985792816225765,,,,,,,,,,,,,,,,,,,,
45,240710_095131,LEARNING,1.0,46,1.0,361.0,,,,,,,,,,46.0,46.0,46.0,cue2.png,Easy,B,,,,,,,,,,,,,,,,,,,,,,,,,,,40,29,Female,0.2857142857142857,0.5,0.2,1.0,1.6666666666666667,2.25,3.0,2.5555555555555554,3.0,1.7777777777777777,2.0,2.25,1.25,1.0,1.0,1.0,0.5872662166677602,0.716311578529898,-0.5322770412347606,0.7285361391738878,0.0001614534942906221,0.2929288854490348,,,4.8651180267398914e-05,0.20802800689143686,,,1.737,0.4068362979222513,1.2229999999999999,-0.35620902858612935,,,,,,,,,,,,,,,,,,,,
46,240710_095201,LEARNING,1.0,47,3.0,361.0,,,,,,,,,,47.0,47.0,47.0,cue1.png,Hard,B,,,,,,,,,,,,,,,,,,,,,,,,,,,40,29,Female,0.2857142857142857,0.5,0.2,1.0,1.6666666666666667,2.25,3.0,2.5555555555555554,3.0,1.7777777777777777,2.0,2.25,1.25,1.0,0.875,0.7222222222222222,0.4411086769211509,-1.4193780364084192,-0.8184640009671176,-1.4528489833063774,,,-2.8832191409533525e-05,-0.34409044816351564,,,-0.00015896394004897728,-0.7471263536436119,,,0.7649999999999999,-1.2922796397723015,,,,,,,,,,,,,,,,,,,,
47,240710_095233,LEARNING,1.0,48,3.0,361.0,,,,,,,,,,48.0,48.0,48.0,cue1.png,Hard,B,,,,,,,,,,,,,,,,,,,,,,,,,,,40,29,Female,0.2857142857142857,0.5,0.2,1.0,1.6666666666666667,2.25,3.0,2.5555555555555554,3.0,1.7777777777777777,2.0,2.25,1.25,1.0,0.9153846153846156,0.8675213675213675,0.6328879411765442,1.3829473430474601,-0.45746190066641274,1.2987949473484097,,,,,,,,,2.575,1.9058363206047304,1.279,-0.24175498005681562,,,,,,,,,,,,,,,,,,,,
48,240710_095303,LEARNING,1.0,49,1.0,361.0,,,,,,,,,,49.0,49.0,49.0,cue2.png,Easy,B,,,,,,,,,,,,,,,,,,,,,,,,,,,40,29,Female,0.2857142857142857,0.5,0.2,1.0,1.6666666666666667,2.25,3.0,2.5555555555555554,3.0,1.7777777777777777,2.0,2.25,1.25,1.0,0.0256410256410256,0.4358974358974358,0.4231284083337717,-1.6821101059440813,-0.8600795802017555,-1.7700528331629017,-0.0003174646182994116,-0.950661195996853,0.00034696917168158814,1.351866154678367,,,-0.0007297480928218866,-3.630602267531744,,,,,,,,,,,,,,,,,,,,,,,,
49,240710_095336,LEARNING,1.0,50,1.0,361.0,,,,,,,,,,50.0,50.0,50.0,cue2.png,Easy,B,,,,,,,,,,,,,,,,,,,,,,,,,,,40,29,Female,0.2857142857142857,0.5,0.2,1.0,1.6666666666666667,2.25,3.0,2.5555555555555554,3.0,1.7777777777777777,2.0,2.25,1.25,1.0,0.8680555555555555,0.4722222222222222,0.6411132400004135,1.5031374154060735,-0.4445491761971627,1.3972188066124773,7.509491354655475e-05,0.06868454881230665,1.3956207625635299e-05,-0.1509903825548334,3.550814188489366e-06,-0.07851015851632272,4.927412887593963e-05,0.30484653870553474,1.226,-0.5072317350022677,,,,,,,,,,,,,,,,,,,,,,
0,240710_095551,TrueCHOICE,9.0,1,3.0,361.0,,,,,,,,,,,2.0,1.0,,,B,,,,,,True,cue2.png,Easy,cue1.png,Hard,Right,Hard,Hard,0.0165013000005274,,,,,,,,,,,,,40,29,Female,0.2857142857142857,0.5,0.2,1.0,1.6666666666666667,2.25,3.0,2.5555555555555554,3.0,1.7777777777777777,2.0,2.25,1.25,1.0,0.75,0.5,0.37435874999998,-2.23248657363704,-0.9825407167306572,-2.3126377885750244,,,,,,,,,,,,,-0.0003046221141028149,-1.5291265660528168,-9.143549575633177e-05,0.08524132257626607,1.579,0.34998803128884215,,,,,,,,,,,,,,
1,240710_095621,TrueCHOICE,9.0,2,1.0,361.0,,,,,,,,,,,3.0,2.0,,,B,,,,,,True,cue2.png,Easy,cue1.png,Hard,Left,Easy,Easy,0.0165924000029917,,,,,,,,,,,,,40,29,Female,0.2857142857142857,0.5,0.2,1.0,1.6666666666666667,2.25,3.0,2.5555555555555554,3.0,1.7777777777777777,2.0,2.25,1.25,1.0,,,,,,,,,,,,,,,,,,,-8.253840998232679e-05,-0.48187063543063374,-0.0001434081708789718,-0.18896214053604188,,,,,,,,,,,,,,,,
2,240710_095649,TrueCHOICE,9.0,3,1.0,361.0,,,,,,,,,,,4.0,3.0,,,B,,,,,,True,cue1.png,Hard,cue2.png,Easy,Right,Easy,Easy,0.016875199995411,,,,,,,,,,,,,40,29,Female,0.2857142857142857,0.5,0.2,1.0,1.6666666666666667,2.25,3.0,2.5555555555555554,3.0,1.7777777777777777,2.0,2.25,1.25,1.0,0.9153846153846156,0.9230769230769232,0.5549513722220986,0.6195522581125267,-0.5888747866921906,0.6070344459241719,,,,,,,,,,,,,-6.634028019241248e-05,-0.4054868793389563,,,1.4689999999999999,0.15026660039031786,,,,,,,,,,,,,,
3,240710_095717,TrueCHOICE,9.0,4,1.0,361.0,,,,,,,,,,,5.0,4.0,,,B,,,,,,True,cue2.png,Easy,cue1.png,Hard,Left,Easy,Easy,0.0160780000005615,,,,,,,,,,,,,40,29,Female,0.2857142857142857,0.5,0.2,1.0,1.6666666666666667,2.25,3.0,2.5555555555555554,3.0,1.7777777777777777,2.0,2.25,1.25,1.0,1.0,0.8888888888888888,0.5700111125001968,0.8573856952746044,-0.562099422729198,0.805617256287571,,,,,,,,,,,,,,,-3.2510710345927396e-05,0.39612353490333735,1.467,0.1466353016467087,,,,,,,,,,,,,,
4,240710_095745,TrueCHOICE,9.0,5,1.0,361.0,,,,,,,,,,,6.0,5.0,,,B,,,,,,True,cue1.png,Hard,cue2.png,Easy,Right,Easy,Easy,0.0165330999952857,,,,,,,,,,,,,40,29,Female,0.2857142857142857,0.5,0.2,1.0,1.6666666666666667,2.25,3.0,2.5555555555555554,3.0,1.7777777777777777,2.0,2.25,1.25,1.0,0.0256410256410256,0.6025641025641025,0.4645974199990936,-0.8073774645486107,-0.7665840118272101,-0.7109680807115065,,,,,,,,,,,,,,,-2.4118943745456405e-05,0.4403977897507076,1.468,0.1484509510185133,,,,,,,,,,,,,,
5,240710_095813,TrueCHOICE,9.0,6,1.0,361.0,,,,,,,,,,,7.0,6.0,,,B,,,,,,True,cue1.png,Hard,cue2.png,Easy,Right,Easy,Easy,0.0164182000007713,,,,,,,,,,,,,40,29,Female,0.2857142857142857,0.5,0.2,1.0,1.6666666666666667,2.25,3.0,2.5555555555555554,3.0,1.7777777777777777,2.0,2.25,1.25,1.0,0.95,0.8888888888888888,0.5170812312503585,0.021481798277294663,-0.6595552964089432,0.08282367228651302,,,,,,,,,,,,,-3.7335995741021206e-05,-0.2687145347607479,,,2.008,1.1289016117930863,,,,,,,,,,,,,,
6,240710_095842,TrueCHOICE,9.0,7,1.0,361.0,,,,,,,,,,,8.0,7.0,,,B,,,,,,True,cue2.png,Easy,cue1.png,Hard,Left,Easy,Easy,0.0159037000048556,,,,,,,,,,,,,40,29,Female,0.2857142857142857,0.5,0.2,1.0,1.6666666666666667,2.25,3.0,2.5555555555555554,3.0,1.7777777777777777,2.0,2.25,1.25,1.0,,,,,,,,,,,,,,,,,,,0.00033248607734219244,1.4752151283597084,9.60481688090536e-05,1.0743893696895963,1.604,0.3953792655839615,,,,,,,,,,,,,,
7,240710_095910,TrueCHOICE,9.0,8,1.0,361.0,,,,,,,,,,,9.0,8.0,,,B,,,,,,True,cue1.png,Hard,cue2.png,Easy,Right,Easy,Easy,0.0165934999968158,,,,,,,,,,,,,40,29,Female,0.2857142857142857,0.5,0.2,1.0,1.6666666666666667,2.25,3.0,2.5555555555555554,3.0,1.7777777777777777,2.0,2.25,1.25,1.0,0.9153846153846156,0.7564102564102565,0.513480513333343,-0.03538313449318144,-0.6665431990515248,0.03099702495400041,,,,,,,,,,,,,0.00031790259090270796,1.4064453700229491,-5.4650785411588035e-05,0.2793143608085823,,,,,,,,,,,,,,,,
8,240710_095939,TrueCHOICE,9.0,9,1.0,361.0,,,,,,,,,,,10.0,9.0,,,B,,,,,,True,cue2.png,Easy,cue1.png,Hard,Left,Easy,Easy,0.0158021000024746,,,,,,,,,,,,,40,29,Female,0.2857142857142857,0.5,0.2,1.0,1.6666666666666667,2.25,3.0,2.5555555555555554,3.0,1.7777777777777777,2.0,2.25,1.25,1.0,0.9166666666666666,0.8333333333333334,0.5663987266666178,0.8003364950035244,-0.5684569847220011,0.7584656086261111,,,,,,,,,,,,,,,-0.0005799057532258102,-2.4918866761159815,0.10866666666666658,-2.3196217617214305,,,,,,,,,,,,,,
9,240710_100007,TrueCHOICE,9.0,10,1.0,361.0,,,,,,,,,,,11.0,10.0,,,B,,,,,,True,cue1.png,Hard,cue2.png,Easy,Right,Easy,Easy,0.0169800000003306,,,,,,,,,,,,,40,29,Female,0.2857142857142857,0.5,0.2,1.0,1.6666666666666667,2.25,3.0,2.5555555555555554,3.0,1.7777777777777777,2.0,2.25,1.25,1.0,0.8,0.7350427350427351,0.5648888125010672,0.7764909260108844,-0.5711263592352985,0.7386678612081603,,,,,,,,,,,,,-2.2013918194467054e-05,-0.19646188279950252,-3.0755772588499184e-05,0.4053824389235336,,,,,,,,,,,,,,,,
0,240710_100228,FalseCHOICE,9.0,1,2.0,361.0,,,,,,,,,,,1.0,1.0,,,B,,,,,,False,cue2.png,Easy,cue1.png,Hard,Left,Easy,Mid,0.0161988000036217,,,,,,,,,,,,,40,29,Female,0.2857142857142857,0.5,0.2,1.0,1.6666666666666667,2.25,3.0,2.5555555555555554,3.0,1.7777777777777777,2.0,2.25,1.25,1.0,0.5833333333333334,0.4166666666666667,0.4708726083329869,-0.5561371951373248,-0.7531676921800982,-0.45592392037806495,,,,,,,,,,,,,,,,,,,-0.0007586644642549869,-1.9491962377814755,-0.0001189974246226834,-0.8967323456060338,1.55,0.07342866076820274,,,,,,,,
1,240710_100254,FalseCHOICE,9.0,2,2.0,361.0,,,,,,,,,,,2.0,2.0,,,B,,,,,,False,cue1.png,Hard,cue2.png,Easy,Left,Hard,Mid,0.0167370999988634,,,,,,,,,,,,,40,29,Female,0.2857142857142857,0.5,0.2,1.0,1.6666666666666667,2.25,3.0,2.5555555555555554,3.0,1.7777777777777777,2.0,2.25,1.25,1.0,,,,,,,,,,,,,,,,,,,,,,,,,-0.00010698296914010436,-0.22981484643787672,-0.00010604021690544321,-0.7725040423897402,,,,,,,,,,
2,240710_100321,FalseCHOICE,9.0,3,2.0,361.0,,,,,,,,,,,3.0,3.0,,,B,,,,,,False,cue1.png,Hard,cue2.png,Easy,Left,Hard,Mid,0.0151211999982479,,,,,,,,,,,,,40,29,Female,0.2857142857142857,0.5,0.2,1.0,1.6666666666666667,2.25,3.0,2.5555555555555554,3.0,1.7777777777777777,2.0,2.25,1.25,1.0,,,,,,,,,,,,,,,,,,,,,,,,,,,,,1.452,-0.18685250697610606,,,,,,,,
3,240710_100348,FalseCHOICE,9.0,4,2.0,361.0,,,,,,,,,,,4.0,4.0,,,B,,,,,,False,cue1.png,Hard,cue2.png,Easy,Right,Easy,Mid,0.0170034999973722,,,,,,,,,,,,,40,29,Female,0.2857142857142857,0.5,0.2,1.0,1.6666666666666667,2.25,3.0,2.5555555555555554,3.0,1.7777777777777777,2.0,2.25,1.25,1.0,0.9583333333333334,0.8333333333333334,0.5140629000001354,-0.023017525772017232,-0.6654096474728834,0.058973190105376196,,,,,,,,,,,,,,,,,,,,,7.499423378808361e-06,0.31606667192656607,1.465,-0.15232541329573826,,,,,,,,
4,240710_100416,FalseCHOICE,9.0,5,2.0,361.0,,,,,,,,,,,5.0,5.0,,,B,,,,,,False,cue2.png,Easy,cue1.png,Hard,Right,Hard,Mid,0.016546400001971,,,,,,,,,,,,,40,29,Female,0.2857142857142857,0.5,0.2,1.0,1.6666666666666667,2.25,3.0,2.5555555555555554,3.0,1.7777777777777777,2.0,2.25,1.25,1.0,,,,,,,,,,,,,,,,,,,,,,,,,0.00039901519424217526,1.1051990103237914,8.044377633206496e-05,1.015426703373496,1.971,1.1915753099554875,,,,,,,,
5,240710_100443,FalseCHOICE,9.0,6,2.0,361.0,,,,,,,,,,,6.0,6.0,,,B,,,,,,False,cue1.png,Hard,cue2.png,Easy,Right,Easy,Mid,0.0165621000051032,,,,,,,,,,,,,40,29,Female,0.2857142857142857,0.5,0.2,1.0,1.6666666666666667,2.25,3.0,2.5555555555555554,3.0,1.7777777777777777,2.0,2.25,1.25,1.0,0.8194444444444444,0.6666666666666667,0.3911177066659244,-1.5405923855464179,-0.9387467242339373,-1.5447597950791345,,,,,,,,,,,,,,,,,,,,,,,1.586,0.16904215095998965,,,,,,,,
6,240710_100510,FalseCHOICE,9.0,7,2.0,361.0,,,,,,,,,,,7.0,7.0,,,B,,,,,,False,cue1.png,Hard,cue2.png,Easy,Left,Hard,Mid,0.0163533999948413,,,,,,,,,,,,,40,29,Female,0.2857142857142857,0.5,0.2,1.0,1.6666666666666667,2.25,3.0,2.5555555555555554,3.0,1.7777777777777777,2.0,2.25,1.25,1.0,0.9153846153846156,0.8675213675213675,0.5750051764724262,0.7292238930556553,-0.5533762356645682,0.7162995948829493,,,,,,,,,,,,,,,,,,,0.00022535420289098405,0.6470158653828988,2.6787492458570355e-05,0.5009926333209591,,,,,,,,,,
7,240710_100537,FalseCHOICE,9.0,8,2.0,361.0,,,,,,,,,,,8.0,8.0,,,B,,,,,,False,cue2.png,Easy,cue1.png,Hard,Left,Easy,Mid,0.015363200000138,,,,,,,,,,,,,40,29,Female,0.2857142857142857,0.5,0.2,1.0,1.6666666666666667,2.25,3.0,2.5555555555555554,3.0,1.7777777777777777,2.0,2.25,1.25,1.0,,,,,,,,,,,,,,,,,,,,,,,,,0.00045123482238710894,1.2429740700244714,9.431164112212384e-06,0.3345873963605257,,,,,,,,,,
8,240710_100606,FalseCHOICE,9.0,9,2.0,361.0,,,,,,,,,,,9.0,9.0,,,B,,,,,,False,cue2.png,Easy,cue1.png,Hard,Right,Hard,Mid,0.0169286000018473,,,,,,,,,,,,,40,29,Female,0.2857142857142857,0.5,0.2,1.0,1.6666666666666667,2.25,3.0,2.5555555555555554,3.0,1.7777777777777777,2.0,2.25,1.25,1.0,0.8,0.6239316239316239,0.4367888285726491,-0.9768505706474117,-0.8283054304905704,-0.8967747218447308,,,,,,,,,,,,,,,,,,,-5.332756702428488e-05,-0.08825167388418187,-4.586509306471129e-06,0.20019179031292111,,,,,,,,,,
9,240710_100634,FalseCHOICE,9.0,10,2.0,361.0,,,,,,,,,,,10.0,10.0,,,B,,,,,,False,cue1.png,Hard,cue2.png,Easy,Right,Easy,Mid,0.0164359000045806,,,,,,,,,,,,,40,29,Female,0.2857142857142857,0.5,0.2,1.0,1.6666666666666667,2.25,3.0,2.5555555555555554,3.0,1.7777777777777777,2.0,2.25,1.25,1.0,,,,,,,,,,,,,,,,,,,,,,,,,0.0001721763824230945,0.5067127332085202,3.873676608598647e-05,0.6155572848875147,1.2489999999999999,-0.7260063544464597,,,,,,,,
10,240710_100702,FalseCHOICE,9.0,11,2.0,361.0,,,,,,,,,,,11.0,11.0,,,B,,,,,,False,cue2.png,Easy,cue1.png,Hard,Left,Easy,Mid,0.0171065999966231,,,,,,,,,,,,,40,29,Female,0.2857142857142857,0.5,0.2,1.0,1.6666666666666667,2.25,3.0,2.5555555555555554,3.0,1.7777777777777777,2.0,2.25,1.25,1.0,0.9236111111111112,0.8055555555555556,0.519285256250896,0.04144466538820188,-0.6553019201180127,0.11827760630950708,,,,,,,,,,,,,,,,,,,8.72449627280919e-05,0.2826316389030302,5.163716694199516e-06,0.29367289044432293,,,,,,,,,,
11,240710_100731,FalseCHOICE,9.0,12,2.0,361.0,,,,,,,,,,,12.0,12.0,,,B,,,,,,False,cue1.png,Hard,cue2.png,Easy,Right,Easy,Mid,0.0163444999998318,,,,,,,,,,,,,40,29,Female,0.2857142857142857,0.5,0.2,1.0,1.6666666666666667,2.25,3.0,2.5555555555555554,3.0,1.7777777777777777,2.0,2.25,1.25,1.0,,,,,,,,,,,,,,,,,,,,,,,,,-0.0010924242442345326,-2.829780325526058,6.257465744998305e-05,0.8441050446385163,0.5649999999999997,-2.5426626680904096,,,,,,,,
12,240710_100801,FalseCHOICE,9.0,13,2.0,361.0,,,,,,,,,,,13.0,13.0,,,B,,,,,,False,cue2.png,Easy,cue1.png,Hard,Right,Hard,Mid,0.016449199996714,,,,,,,,,,,,,40,29,Female,0.2857142857142857,0.5,0.2,1.0,1.6666666666666667,2.25,3.0,2.5555555555555554,3.0,1.7777777777777777,2.0,2.25,1.25,1.0,0.7826923076923077,0.5341880341880343,0.4318713181816168,-1.0375498947911679,-0.8396276096910621,-0.963204612963643,,,,,,,,,,,,,,,,,,,-0.0001305635872437252,-0.29202940411316913,,,,,,,,,,,,
13,240710_100831,FalseCHOICE,9.0,14,2.0,361.0,,,,,,,,,,,14.0,14.0,,,B,,,,,,False,cue1.png,Hard,cue2.png,Easy,Left,Hard,Mid,0.0160117000050377,,,,,,,,,,,,,40,29,Female,0.2857142857142857,0.5,0.2,1.0,1.6666666666666667,2.25,3.0,2.5555555555555554,3.0,1.7777777777777777,2.0,2.25,1.25,1.0,1.0,0.8333333333333334,0.6357969599989398,1.479607701147266,-0.4528760118963248,1.3059580699988327,,,,,,,,,,,,,,,,,,,-1.586623542194649e-05,0.010585437396165045,-7.04475990783316e-05,-0.4312568681390015,,,,,,,,,,
14,240710_100902,FalseCHOICE,9.0,15,2.0,361.0,,,,,,,,,,,15.0,15.0,,,B,,,,,,False,cue2.png,Easy,cue1.png,Hard,Right,Hard,Mid,0.0176135000001522,,,,,,,,,,,,,40,29,Female,0.2857142857142857,0.5,0.2,1.0,1.6666666666666667,2.25,3.0,2.5555555555555554,3.0,1.7777777777777777,2.0,2.25,1.25,1.0,,,,,,,,,,,,,,,,,,,,,,,,,0.00047352177762878013,1.3017754575112863,-1.692021803247892e-05,0.08194133536673068,,,,,,,,,,
15,240710_100931,FalseCHOICE,9.0,16,2.0,361.0,,,,,,,,,,,16.0,16.0,,,B,,,,,,False,cue2.png,Easy,cue1.png,Hard,Right,Hard,Mid,0.016653500002576,,,,,,,,,,,,,40,29,Female,0.2857142857142857,0.5,0.2,1.0,1.6666666666666667,2.25,3.0,2.5555555555555554,3.0,1.7777777777777777,2.0,2.25,1.25,1.0,0.85,0.7008547008547009,0.5646551071430232,0.6014677393967928,-0.5715401640592003,0.6097275503868927,,,,,,,,,,,,,,,,,,,,,1.661433531337025e-05,0.4034566457779498,,,,,,,,,,
16,240710_100959,FalseCHOICE,9.0,17,2.0,361.0,,,,,,,,,,,17.0,17.0,,,B,,,,,,False,cue1.png,Hard,cue2.png,Easy,Left,Hard,Mid,0.0159637000033399,,,,,,,,,,,,,40,29,Female,0.2857142857142857,0.5,0.2,1.0,1.6666666666666667,2.25,3.0,2.5555555555555554,3.0,1.7777777777777777,2.0,2.25,1.25,1.0,0.8,0.6239316239316239,0.4563493285708578,-0.7354054011627855,-0.7844966913233729,-0.6397385346054962,,,,,,,,,,,,,,,,,,,,,-4.7882715883093216e-05,-0.2149141797456887,,,,,,,,,,
17,240710_101027,FalseCHOICE,9.0,18,2.0,361.0,,,,,,,,,,,18.0,18.0,,,B,,,,,,False,cue1.png,Hard,cue2.png,Easy,Right,Easy,Mid,0.0154926000031991,,,,,,,,,,,,,40,29,Female,0.2857142857142857,0.5,0.2,1.0,1.6666666666666667,2.25,3.0,2.5555555555555554,3.0,1.7777777777777777,2.0,2.25,1.25,1.0,0.9236111111111112,0.75,0.5059304866663297,-0.12340002703116616,-0.6813559972616944,-0.034587798592699996,,,,,,,,,,,,,,,,,,,,,,,,,,,,,,,,
18,240710_101055,FalseCHOICE,9.0,19,2.0,361.0,,,,,,,,,,,19.0,19.0,,,B,,,,,,False,cue2.png,Easy,cue1.png,Hard,Left,Easy,Mid,0.0176743000047281,,,,,,,,,,,,,40,29,Female,0.2857142857142857,0.5,0.2,1.0,1.6666666666666667,2.25,3.0,2.5555555555555554,3.0,1.7777777777777777,2.0,2.25,1.25,1.0,1.0,0.8888888888888888,0.5248076875000152,0.10961083440396659,-0.6447233930220162,0.1803443154422322,,,,,,,,,,,,,,,,,,,-0.00016896394979464945,-0.39334403294004333,,,,,,,,,,,,
19,240710_101126,FalseCHOICE,9.0,20,2.0,361.0,,,,,,,,,,,20.0,20.0,,,B,,,,,,False,cue2.png,Easy,cue1.png,Hard,Left,Easy,Mid,0.0160570999942137,,,,,,,,,,,,,40,29,Female,0.2857142857142857,0.5,0.2,1.0,1.6666666666666667,2.25,3.0,2.5555555555555554,3.0,1.7777777777777777,2.0,2.25,1.25,1.0,0.9583333333333334,0.7777777777777778,0.6866434071421931,2.1072311795510967,-0.37594017953421976,1.7573587126185468,,,,,,,,,,,,,,,,,,,,,-3.505109632984116e-06,0.21055979933674798,1.766,0.6471096019189236,,,,,,,,
20,240710_101157,FalseCHOICE,9.0,21,2.0,361.0,,,,,,,,,,,21.0,21.0,,,B,,,,,,False,cue2.png,Easy,cue1.png,Hard,Left,Easy,Mid,0.0160853999987011,,,,,,,,,,,,,40,29,Female,0.2857142857142857,0.5,0.2,1.0,1.6666666666666667,2.25,3.0,2.5555555555555554,3.0,1.7777777777777777,2.0,2.25,1.25,1.0,0.8680555555555555,0.6388888888888888,0.6218789769230241,1.307810979030941,-0.47500977603762906,1.1760940644993731,,,,,,,,,,,,,,,,,,,-0.00013304568147090665,-0.2985781041418923,-1.7725195311762976e-05,0.07422354896433545,2.075,1.4677920593984275,,,,,,,,
21,240710_101227,FalseCHOICE,9.0,22,2.0,361.0,,,,,,,,,,,22.0,22.0,,,B,,,,,,False,cue1.png,Hard,cue2.png,Easy,Right,Easy,Mid,0.0164536000011139,,,,,,,,,,,,,40,29,Female,0.2857142857142857,0.5,0.2,1.0,1.6666666666666667,2.25,3.0,2.5555555555555554,3.0,1.7777777777777777,2.0,2.25,1.25,1.0,0.5692307692307692,0.5683760683760684,0.5313493076929052,0.19035736932490602,-0.6323356440853221,0.25302615508643017,,,,,,,,,,,,,,,,,,,-0.00016670757291142434,-0.38739086033355213,-0.00010201267039251435,-0.7338896062901991,1.522,-0.0009373871587426273,,,,,,,,
22,240710_101255,FalseCHOICE,9.0,23,2.0,361.0,,,,,,,,,,,23.0,23.0,,,B,,,,,,False,cue2.png,Easy,cue1.png,Hard,Left,Easy,Mid,0.0161654999974416,,,,,,,,,,,,,40,29,Female,0.2857142857142857,0.5,0.2,1.0,1.6666666666666667,2.25,3.0,2.5555555555555554,3.0,1.7777777777777777,2.0,2.25,1.25,1.0,0.85,0.811965811965812,0.5293726124996283,0.16595801828562282,-0.6360627236221097,0.23115850192213686,,,,,,,,,,,,,,,,,,,0.0002327541676506728,0.6665397613348074,,,1.911,1.0322194929691761,,,,,,,,
23,240710_101323,FalseCHOICE,9.0,24,2.0,361.0,,,,,,,,,,,24.0,24.0,,,B,,,,,,False,cue1.png,Hard,cue2.png,Easy,Right,Easy,Mid,0.0169519999981275,,,,,,,,,,,,,40,29,Female,0.2857142857142857,0.5,0.2,1.0,1.6666666666666667,2.25,3.0,2.5555555555555554,3.0,1.7777777777777777,2.0,2.25,1.25,1.0,0.8125,0.6944444444444444,0.4526877428553624,-0.780602210229079,-0.7925527005520988,-0.6870050374969163,,,,,,,,,,,,,,,,,,,0.00024406181592169333,0.6963735991264175,2.578111884465016e-05,0.4913439428633221,1.9100000000000001,1.0295635626860713,,,,,,,,
24,240710_101352,FalseCHOICE,9.0,25,2.0,361.0,,,,,,,,,,,25.0,25.0,,,B,,,,,,False,cue1.png,Hard,cue2.png,Easy,Right,Easy,Mid,0.0135611000005155,,,,,,,,,,,,,40,29,Female,0.2857142857142857,0.5,0.2,1.0,1.6666666666666667,2.25,3.0,2.5555555555555554,3.0,1.7777777777777777,2.0,2.25,1.25,1.0,0.85,0.811965811965812,0.593870499998502,0.9620881468606612,-0.5210939968584186,0.9057070906479079,,,,,,,,,,,,,,,,,,,0.00035933552573918365,1.0005090902475746,-6.099368472707329e-05,-0.34061668051228516,1.0679999999999998,-1.2067297356884992,,,,,,,,
25,240710_101420,FalseCHOICE,9.0,26,2.0,361.0,,,,,,,,,,,26.0,26.0,,,B,,,,,,False,cue2.png,Easy,cue1.png,Hard,Left,Easy,Mid,0.0159951000023284,,,,,,,,,,,,,40,29,Female,0.2857142857142857,0.5,0.2,1.0,1.6666666666666667,2.25,3.0,2.5555555555555554,3.0,1.7777777777777777,2.0,2.25,1.25,1.0,0.85,0.5897435897435899,0.4395497416668756,-0.9427712204248261,-0.8220043904069385,-0.8598050361261558,,,,,,,,,,,,,,,,,,,-0.0005940642082738626,-1.5149187275777416,3.387288639245412e-05,0.5689244350820933,1.5639999999999998,0.11061168473167485,,,,,,,,
26,240710_101450,FalseCHOICE,9.0,27,2.0,361.0,,,,,,,,,,,27.0,27.0,,,B,,,,,,False,cue2.png,Easy,cue1.png,Hard,Left,Easy,Mid,0.0167235999979311,,,,,,,,,,,,,40,29,Female,0.2857142857142857,0.5,0.2,1.0,1.6666666666666667,2.25,3.0,2.5555555555555554,3.0,1.7777777777777777,2.0,2.25,1.25,1.0,0.7826923076923077,0.7008547008547009,0.578801064286381,0.776078461020118,-0.5467964454456056,0.7549047732758143,,,,,,,,,,,,,,,,,,,-0.00011954741893645607,-0.2629646003195788,-4.606602063533544e-05,-0.1974964634432968,2.2279999999999998,1.8741493927135204,,,,,,,,
27,240710_101519,FalseCHOICE,9.0,28,2.0,361.0,,,,,,,,,,,28.0,28.0,,,B,,,,,,False,cue1.png,Hard,cue2.png,Easy,Right,Easy,Mid,0.0164153000005171,,,,,,,,,,,,,40,29,Female,0.2857142857142857,0.5,0.2,1.0,1.6666666666666667,2.25,3.0,2.5555555555555554,3.0,1.7777777777777777,2.0,2.25,1.25,1.0,0.0256410256410256,0.3803418803418802,0.4185940363637531,-1.201438116416526,-0.8708537156943852,-1.1464155289133107,,,,,,,,,,,,,,,,,,,3.2886199456487984e-05,0.1392127345359953,9.937979327325104e-05,1.1969773357021396,1.6420000000000001,0.3177742468138804,,,,,,,,
28,240710_101546,FalseCHOICE,9.0,29,2.0,361.0,,,,,,,,,,,29.0,29.0,,,B,,,,,,False,cue2.png,Easy,cue1.png,Hard,Left,Easy,Mid,0.0160085999959846,,,,,,,,,,,,,40,29,Female,0.2857142857142857,0.5,0.2,1.0,1.6666666666666667,2.25,3.0,2.5555555555555554,3.0,1.7777777777777777,2.0,2.25,1.25,1.0,0.8194444444444444,0.8333333333333334,0.5278589611112289,0.1472742517128763,-0.6389261500660599,0.214358104796258,,,,,,,,,,,,,,,,,,,-0.0006150004256351253,-1.5701563594668195,8.18835211437558e-05,1.029230376118731,0.8880000000000001,-1.6847971866474325,,,,,,,,
29,240710_101616,FalseCHOICE,9.0,30,2.0,361.0,,,,,,,,,,,30.0,30.0,,,B,,,,,,False,cue2.png,Easy,cue1.png,Hard,Left,Easy,Mid,0.0145214000003761,,,,,,,,,,,,,40,29,Female,0.2857142857142857,0.5,0.2,1.0,1.6666666666666667,2.25,3.0,2.5555555555555554,3.0,1.7777777777777777,2.0,2.25,1.25,1.0,0.8194444444444444,0.6111111111111112,0.5609546499986858,0.5557911205748319,-0.5781152145189951,0.5711501812770176,,,,,,,,,,,,,,,,,,,,,8.269463986117654e-05,1.0370070440684223,2.109,1.5580936890240036,,,,,,,,
30,240710_101644,FalseCHOICE,9.0,31,2.0,361.0,,,,,,,,,,,31.0,31.0,,,B,,,,,,False,cue1.png,Hard,cue2.png,Easy,Right,Easy,Mid,0.0164299999960348,,,,,,,,,,,,,40,29,Female,0.2857142857142857,0.5,0.2,1.0,1.6666666666666667,2.25,3.0,2.5555555555555554,3.0,1.7777777777777777,2.0,2.25,1.25,1.0,0.75,0.6111111111111112,0.5264527714280121,0.12991693945486094,-0.6415936543224171,0.198707229273872,,,,,,,,,,,,,,,,,,,,,,,,,,,,,,,,
31,240710_101711,FalseCHOICE,9.0,32,2.0,361.0,,,,,,,,,,,32.0,32.0,,,B,,,,,,False,cue2.png,Easy,cue1.png,Hard,Left,Easy,Mid,0.0168447999967611,,,,,,,,,,,,,40,29,Female,0.2857142857142857,0.5,0.2,1.0,1.6666666666666667,2.25,3.0,2.5555555555555554,3.0,1.7777777777777777,2.0,2.25,1.25,1.0,0.875,0.7222222222222222,0.3453552230768344,-2.1054619240151227,-1.0631817595515771,-2.2748494448852257,,,,,,,,,,,,,,,,,,,0.0004475157428600841,1.233161736576878,-2.9276524720889523e-05,-0.036525779417498155,1.4600000000000002,-0.16560506471126393,,,,,,,,
32,240710_101740,FalseCHOICE,9.0,33,2.0,361.0,,,,,,,,,,,33.0,33.0,,,B,,,,,,False,cue1.png,Hard,cue2.png,Easy,Right,Easy,Mid,0.0163679999968735,,,,,,,,,,,,,40,29,Female,0.2857142857142857,0.5,0.2,1.0,1.6666666666666667,2.25,3.0,2.5555555555555554,3.0,1.7777777777777777,2.0,2.25,1.25,1.0,1.0,0.8888888888888888,0.5778005249985654,0.7637282972745698,-0.5485265823339986,0.744753652799663,,,,,,,,,,,,,,,,,,,-4.8982066960403733e-05,-0.07678660697353938,3.449359081757371e-05,0.5748754902179043,1.5359999999999998,0.03624563680472947,,,,,,,,
33,240710_101809,FalseCHOICE,9.0,34,2.0,361.0,,,,,,,,,,,34.0,34.0,,,B,,,,,,False,cue1.png,Hard,cue2.png,Easy,Right,Easy,Mid,0.0164829999994253,,,,,,,,,,,,,40,29,Female,0.2857142857142857,0.5,0.2,1.0,1.6666666666666667,2.25,3.0,2.5555555555555554,3.0,1.7777777777777777,2.0,2.25,1.25,1.0,1.0,0.9444444444444444,0.6013971823520157,1.0549938034986541,-0.5084996935866457,0.9796008332081828,,,,,,,,,,,,,,,,,,,0.0003339189783512827,0.9334506591910724,-3.0097452088620642e-05,-0.044396488615233924,0.976,-1.4510753217341763,,,,,,,,
34,240710_101839,FalseCHOICE,9.0,35,2.0,361.0,,,,,,,,,,,35.0,35.0,,,B,,,,,,False,cue1.png,Hard,cue2.png,Easy,Right,Easy,Mid,0.0165235000022221,,,,,,,,,,,,,40,29,Female,0.2857142857142857,0.5,0.2,1.0,1.6666666666666667,2.25,3.0,2.5555555555555554,3.0,1.7777777777777777,2.0,2.25,1.25,1.0,0.9166666666666666,0.7222222222222222,0.6121238000000281,1.187397883980151,-0.4908207293454398,1.0833274788337393,,,,,,,,,,,,,,,,,,,0.0004131812117544901,1.1425743034427527,,,1.1330000000000002,-1.0340942672866609,,,,,,,,
35,240710_101907,FalseCHOICE,9.0,36,2.0,361.0,,,,,,,,,,,36.0,36.0,,,B,,,,,,False,cue2.png,Easy,cue1.png,Hard,Left,Easy,Mid,0.0137881999980891,,,,,,,,,,,,,40,29,Female,0.2857142857142857,0.5,0.2,1.0,1.6666666666666667,2.25,3.0,2.5555555555555554,3.0,1.7777777777777777,2.0,2.25,1.25,1.0,0.8194444444444444,0.5,0.4160236166656735,-1.2331661100622038,-0.8770132495013305,-1.1825549639896313,,,,,,,,,,,,,,,,,,,0.0005774938421746929,1.5760929490157882,-0.0005387692087490685,-4.921329127419781,1.37,-0.4046387901907312,,,,,,,,
36,240710_101936,FalseCHOICE,9.0,37,2.0,361.0,,,,,,,,,,,37.0,37.0,,,B,,,,,,False,cue1.png,Hard,cue2.png,Easy,Right,Easy,Mid,0.0164775999946868,,,,,,,,,,,,,40,29,Female,0.2857142857142857,0.5,0.2,1.0,1.6666666666666667,2.25,3.0,2.5555555555555554,3.0,1.7777777777777777,2.0,2.25,1.25,1.0,0.6875,0.5277777777777778,0.5454459357138798,0.36435919657868904,-0.6061515882194461,0.4066541757545812,,,,,,,,,,,,,,,,,,,-0.00041186101375717803,-1.0341980312809729,-6.585174330917334e-05,-0.38719371992924584,2.3040000000000003,2.0760000942295163,,,,,,,,
37,240710_102011,FalseCHOICE,9.0,38,2.0,361.0,,,,,,,,,,,39.0,38.0,,,B,,,,,,False,cue2.png,Easy,cue1.png,Hard,Right,Hard,Mid,0.0161047000001417,,,,,,,,,,,,,40,29,Female,0.2857142857142857,0.5,0.2,1.0,1.6666666666666667,2.25,3.0,2.5555555555555554,3.0,1.7777777777777777,2.0,2.25,1.25,1.0,0.7153846153846154,0.5683760683760684,0.5474328000010036,0.38888406989948804,-0.6025155645488119,0.42798758271351073,,,,,,,,,,,,,,,,,,,-0.0004305251385898212,-1.0834410267680605,2.8736819192797924e-05,0.5196819649957953,1.314,-0.5533708860446219,,,,,,,,
38,240710_102041,FalseCHOICE,9.0,39,2.0,361.0,,,,,,,,,,,40.0,39.0,,,B,,,,,,False,cue2.png,Easy,cue1.png,Hard,Right,Hard,Mid,0.0166527000037604,,,,,,,,,,,,,40,29,Female,0.2857142857142857,0.5,0.2,1.0,1.6666666666666667,2.25,3.0,2.5555555555555554,3.0,1.7777777777777777,2.0,2.25,1.25,1.0,0.8680555555555555,0.5833333333333333,0.5566633500014481,0.502821428837027,-0.5857946203384264,0.5260932992572901,,,,,,,,,,,,,,,,,,,0.00019584917297160286,0.5691704765315903,-0.00013282472525437275,-1.0293027367753298,,,,,,,,,,
39,240710_102108,FalseCHOICE,9.0,40,2.0,361.0,,,,,,,,,,,41.0,40.0,,,B,,,,,,False,cue1.png,Hard,cue2.png,Easy,Right,Easy,Mid,0.0168871999994735,,,,,,,,,,,,,40,29,Female,0.2857142857142857,0.5,0.2,1.0,1.6666666666666667,2.25,3.0,2.5555555555555554,3.0,1.7777777777777777,2.0,2.25,1.25,1.0,0.8680555555555555,0.6944444444444444,0.4407631214281927,-0.9277938587956629,-0.8192476874650658,-0.8436308109144727,,,,,,,,,,,,,,,,,,,6.380423455962497e-05,0.2207861635987164,4.762015698186496e-05,0.700727531586092,1.3370000000000002,-0.49228448953320225,,,,,,,,
40,240710_102139,FalseCHOICE,9.0,41,2.0,361.0,,,,,,,,,,,42.0,41.0,,,B,,,,,,False,cue1.png,Hard,cue2.png,Easy,Right,Easy,Mid,0.0155295000004116,,,,,,,,,,,,,40,29,Female,0.2857142857142857,0.5,0.2,1.0,1.6666666666666667,2.25,3.0,2.5555555555555554,3.0,1.7777777777777777,2.0,2.25,1.25,1.0,0.9166666666666666,0.7222222222222222,0.6175904923074995,1.2548760389771405,-0.4819296749698943,1.135493388208691,,,,,,,,,,,,,,,,,,,-7.814620199787965e-05,-0.15373258664912953,2.4999301601623825e-05,0.4838482052286484,1.436,-0.22934739150578912,,,,,,,,
41,240710_102207,FalseCHOICE,9.0,42,2.0,361.0,,,,,,,,,,,43.0,42.0,,,B,,,,,,False,cue2.png,Easy,cue1.png,Hard,Left,Easy,Mid,0.0149841999955242,,,,,,,,,,,,,40,29,Female,0.2857142857142857,0.5,0.2,1.0,1.6666666666666667,2.25,3.0,2.5555555555555554,3.0,1.7777777777777777,2.0,2.25,1.25,1.0,0.5692307692307692,0.3461538461538461,0.2836512999985845,-2.8671047330874226,-1.260009612112062,-3.4296847979764813,,,,,,,,,,,,,,,,,,,-0.0006207470121124461,-1.5853180203808068,2.4478127729120336e-05,0.47885140751770117,,,,,,,,,,
42,240710_102236,FalseCHOICE,9.0,43,2.0,361.0,,,,,,,,,,,44.0,43.0,,,B,,,,,,False,cue1.png,Hard,cue2.png,Easy,Right,Easy,Mid,0.0150896000050124,,,,,,,,,,,,,40,29,Female,0.2857142857142857,0.5,0.2,1.0,1.6666666666666667,2.25,3.0,2.5555555555555554,3.0,1.7777777777777777,2.0,2.25,1.25,1.0,0.9166666666666666,0.7222222222222222,0.520874738461526,0.061064450249196614,-0.6522456913533465,0.13620922004535427,,,,,,,,,,,,,,,,,,,-0.0003567509020819832,-0.8887967866553395,5.6147618369903774e-05,0.7824852746196471,1.248,-0.7286622847295646,,,,,,,,
43,240710_102304,FalseCHOICE,9.0,44,2.0,361.0,,,,,,,,,,,45.0,44.0,,,B,,,,,,False,cue2.png,Easy,cue1.png,Hard,Left,Easy,Mid,0.0154699000049731,,,,,,,,,,,,,40,29,Female,0.2857142857142857,0.5,0.2,1.0,1.6666666666666667,2.25,3.0,2.5555555555555554,3.0,1.7777777777777777,2.0,2.25,1.25,1.0,0.8125,0.6388888888888888,0.4738442769236056,-0.5194563829607558,-0.7468765409617986,-0.41901225496067745,,,,,,,,,,,,,,,,,,,-0.0002020371199407461,-0.4806035204783762,-1.7445295559481017e-05,0.07690711104464258,1.455,-0.1788847161267902,,,,,,,,
44,240710_102333,FalseCHOICE,9.0,45,2.0,361.0,,,,,,,,,,,46.0,45.0,,,B,,,,,,False,cue1.png,Hard,cue2.png,Easy,Right,Easy,Mid,0.0142562999972142,,,,,,,,,,,,,40,29,Female,0.2857142857142857,0.5,0.2,1.0,1.6666666666666667,2.25,3.0,2.5555555555555554,3.0,1.7777777777777777,2.0,2.25,1.25,1.0,0.8680555555555555,0.6944444444444444,0.519216935714212,0.040601350362488346,-0.6554334952601957,0.11750562397162011,,,,,,,,,,,,,,,,,,,0.00010226603003524529,0.32226287563392175,-0.00015663877714955105,-1.2576219336426067,1.8479999999999999,0.8648958851335488,,,,,,,,
45,240710_102402,FalseCHOICE,9.0,46,2.0,361.0,,,,,,,,,,,47.0,46.0,,,B,,,,,,False,cue1.png,Hard,cue2.png,Easy,Right,Easy,Mid,0.0163720999989891,,,,,,,,,,,,,40,29,Female,0.2857142857142857,0.5,0.2,1.0,1.6666666666666667,2.25,3.0,2.5555555555555554,3.0,1.7777777777777777,2.0,2.25,1.25,1.0,0.648076923076923,0.547008547008547,0.5656667714283685,0.6139552246276969,-0.5697501172156219,0.6202301766756113,,,,,,,,,,,,,,,,,,,-0.00011963052273009263,-0.2631838594475422,-3.652820829832138e-05,-0.10605189692252033,1.4600000000000002,-0.16560506471126393,,,,,,,,
46,240710_102433,FalseCHOICE,9.0,47,2.0,361.0,,,,,,,,,,,48.0,47.0,,,B,,,,,,False,cue2.png,Easy,cue1.png,Hard,Left,Easy,Mid,0.0168507999987923,,,,,,,,,,,,,40,29,Female,0.2857142857142857,0.5,0.2,1.0,1.6666666666666667,2.25,3.0,2.5555555555555554,3.0,1.7777777777777777,2.0,2.25,1.25,1.0,0.8125,0.5277777777777777,0.5976318636365415,1.0085165654165733,-0.5147803272466993,0.9427508767813303,,,,,,,,,,,,,,,,,,,0.0006458612394249592,1.7564719094249388,-0.00014490228771712804,-1.1450973681865841,,,,,,,,,,
47,240710_102501,FalseCHOICE,9.0,48,2.0,361.0,,,,,,,,,,,49.0,48.0,,,B,,,,,,False,cue2.png,Easy,cue1.png,Hard,Left,Easy,Mid,0.0160447999951429,,,,,,,,,,,,,40,29,Female,0.2857142857142857,0.5,0.2,1.0,1.6666666666666667,2.25,3.0,2.5555555555555554,3.0,1.7777777777777777,2.0,2.25,1.25,1.0,0.85,0.7564102564102565,0.5056689933325591,-0.1266277718381556,-0.6818729871272786,-0.03762109985672261,,,,,,,,,,,,,,,,,,,,,,,1.415,-0.28512192745099785,,,,,,,,
48,240710_102530,FalseCHOICE,9.0,49,2.0,361.0,,,,,,,,,,,50.0,49.0,,,B,,,,,,False,cue1.png,Hard,cue2.png,Easy,Right,Easy,Mid,0.016493499999342,,,,,,,,,,,,,40,29,Female,0.2857142857142857,0.5,0.2,1.0,1.6666666666666667,2.25,3.0,2.5555555555555554,3.0,1.7777777777777777,2.0,2.25,1.25,1.0,0.8680555555555555,0.75,0.5470271066675195,0.3838763913804925,-0.6032569226371134,0.42363786026044703,,,,,,,,,,,,,,,,,,,3.748928000767409e-05,0.15135739584967864,-5.850045426152766e-05,-0.31671262672068057,1.699,0.46916227295087604,,,,,,,,
49,240710_102559,FalseCHOICE,9.0,50,2.0,361.0,,,,,,,,,,,51.0,50.0,,,B,,,,,,False,cue2.png,Easy,cue1.png,Hard,Left,Easy,Mid,0.0155677000002469,,,,,,,,,,,,,40,29,Female,0.2857142857142857,0.5,0.2,1.0,1.6666666666666667,2.25,3.0,2.5555555555555554,3.0,1.7777777777777777,2.0,2.25,1.25,1.0,0.75,0.4722222222222222,0.4161536800005706,-1.2315606723719175,-0.8767006638624836,-1.1807209504498142,,,,,,,,,,,,,,,,,,,-6.62599810583326e-05,-0.12237225610413978,,,1.2479999999999998,-0.7286622847295652,,,,,,,,
0,240710_092751,OFFLINERATING,9.0,1,1.0,,,,,,,,,,,,,,,,,T0,cue2.png,Easy,32.0,1.4699748000057298,,,,,,,,,,,,,,,,,,,,,,40,29,Female,0.2857142857142857,0.5,0.2,1.0,1.6666666666666667,2.25,3.0,2.5555555555555554,3.0,1.7777777777777777,2.0,2.25,1.25,1.0,,,,,,,,,,,,,,,,,,,,,,,,,,,,,,,-0.04582914843203187,,,-0.00018836614505764095,-1.0382233756680705,1.2260000000000002,-1.2281327260619033,
1,240710_092759,OFFLINERATING,9.0,2,3.0,,,,,,,,,,,,,,,,,T0,cue1.png,Hard,60.0,1.4853750999973272,,,,,,,,,,,,,,,,,,,,,,40,29,Female,0.2857142857142857,0.5,0.2,1.0,1.6666666666666667,2.25,3.0,2.5555555555555554,3.0,1.7777777777777777,2.0,2.25,1.25,1.0,,,,,,,,,,,,,,,,,,,,,,,,,,,,,,,0.9807437764454819,,,,,1.9460000000000002,1.221328666637736,
2,240710_095406,OFFLINERATING,9.0,3,1.0,,,,,,,,,,,,,,,,,T1,cue2.png,Easy,22.0,1.9037959999986924,,,,,,,,,,,,,,,,,,,,,,40,29,Female,0.2857142857142857,0.5,0.2,1.0,1.6666666666666667,2.25,3.0,2.5555555555555554,3.0,1.7777777777777777,2.0,2.25,1.25,1.0,,,,,,,,,,,,,,,,,,,,,,,,,,,,,,,-0.4124623358882868,-0.00029929013264352704,-1.252366447424593,,,1.5890000000000002,0.006804059424164916,
3,240710_095414,OFFLINERATING,9.0,4,3.0,,,,,,,,,,,,,,,,,T1,cue1.png,Hard,34.0,2.0367305999970995,,,,,,,,,,,,,,,,,,,,,,40,29,Female,0.2857142857142857,0.5,0.2,1.0,1.6666666666666667,2.25,3.0,2.5555555555555554,3.0,1.7777777777777777,2.0,2.25,1.25,1.0,,,,,,,,,,,,,,,,,,,,,,,,,,,,,,,0.02749748905921912,0.00024439401282262685,1.1951153031592443,,,,,
4,240710_100027,OFFLINERATING,9.0,5,1.0,,,,,,,,,,,,,,,,,T2,cue2.png,Easy,91.0,2.2354219000044395,,,,,,,,,,,,,,,,,,,,,,40,29,Female,0.2857142857142857,0.5,0.2,1.0,1.6666666666666667,2.25,3.0,2.5555555555555554,3.0,1.7777777777777777,2.0,2.25,1.25,1.0,,,,,,,,,,,,,,,,,,,,,,,,,,,,,,,2.117306657559872,,,-0.00011296537153388268,-0.31249468940359604,,,
5,240710_100036,OFFLINERATING,9.0,6,3.0,,,,,,,,,,,,,,,,,T2,cue1.png,Hard,9.0,2.235968499997398,,,,,,,,,,,,,,,,,,,,,,40,29,Female,0.2857142857142857,0.5,0.2,1.0,1.6666666666666667,2.25,3.0,2.5555555555555554,3.0,1.7777777777777777,2.0,2.25,1.25,1.0,,,,,,,,,,,,,,,,,,,,,,,,,,,,,,,-0.8890854795814183,,,5.98368486284793e-05,1.3507180650716666,,,
6,240710_102622,OFFLINERATING,9.0,7,1.0,,,,,,,,,,,,,,,,,T3,cue2.png,Easy,11.0,2.2203785000019707,,,,,,,,,,,,,,,,,,,,,,40,29,Female,0.2857142857142857,0.5,0.2,1.0,1.6666666666666667,2.25,3.0,2.5555555555555554,3.0,1.7777777777777777,2.0,2.25,1.25,1.0,,,,,,,,,,,,,,,,,,,,,,,,,,,,,,,-0.8157588420901672,-8.371386852863184e-06,0.057251144265348615,,,,,
7,240710_102630,OFFLINERATING,9.0,8,3.0,,,,,,,,,,,,,,,,,T3,cue1.png,Hard,7.0,2.202550599999085,,,,,,,,,,,,,,,,,,,,,,40,29,Female,0.2857142857142857,0.5,0.2,1.0,1.6666666666666667,2.25,3.0,2.5555555555555554,3.0,1.7777777777777777,2.0,2.25,1.25,1.0,,,,,,,,,,,,,,,,,,,,,,,,,,,,,,,-0.9624121170726692,,,,,,,
0,240710_100054,LEARNINGCHECK,9.0,1,,,,,,,,,,,,1.0,1.0,1.0,,,B,,,,,,,,,,,,,,,cue2.png,Easy,Left,Left,Easy,0.0137947000039275,1.0,,,,,,40,29,Female,0.2857142857142857,0.5,0.2,1.0,1.6666666666666667,2.25,3.0,2.5555555555555554,3.0,1.7777777777777777,2.0,2.25,1.25,1.0,,,,,,,,,,,,,,,,,,,,,,,,,,,,,,,,,,,,,,
1,240710_102645,LEARNINGCHECK,9.0,1,,,,,,,,,,,,1.0,1.0,1.0,,,B,,,,,,,,,,,,,,,cue2.png,Easy,Middle,Middle,Mid,0.0144158999974024,1.0,,,,,,40,29,Female,0.2857142857142857,0.5,0.2,1.0,1.6666666666666667,2.25,3.0,2.5555555555555554,3.0,1.7777777777777777,2.0,2.25,1.25,1.0,,,,,,,,,,,,,,,,,,,,,,,,,,,,,,,,,,,,,,
2,240710_100100,LEARNINGCHECK,9.0,2,,,,,,,,,,,,2.0,2.0,2.0,,,B,,,,,,,,,,,,,,,cue1.png,Hard,Right,Right,Hard,0.0123254000063752,1.0,,,,,,40,29,Female,0.2857142857142857,0.5,0.2,1.0,1.6666666666666667,2.25,3.0,2.5555555555555554,3.0,1.7777777777777777,2.0,2.25,1.25,1.0,,,,,,,,,,,,,,,,,,,,,,,,,,,,,,,,,,,,,,
3,240710_102649,LEARNINGCHECK,9.0,2,,,,,,,,,,,,2.0,2.0,2.0,,,B,,,,,,,,,,,,,,,cue1.png,Hard,Middle,Middle,Mid,0.0161766999954124,1.0,,,,,,40,29,Female,0.2857142857142857,0.5,0.2,1.0,1.6666666666666667,2.25,3.0,2.5555555555555554,3.0,1.7777777777777777,2.0,2.25,1.25,1.0,,,,,,,,,,,,,,,,,,,,,,,,,,,,,,,,,,,,,,
0,240710_102705,DEMANDRATING,9.0,-1,,,,,,,,,,,,,,,,,,,,,,,,,,,,,,,,,,,,,,,1.0,MentalDemand,1.0,97.0,4.6697462000011,40,29,Female,0.2857142857142857,0.5,0.2,1.0,1.6666666666666667,2.25,3.0,2.5555555555555554,3.0,1.7777777777777777,2.0,2.25,1.25,1.0,,,,,,,,,,,,,,,,,,,,,,,,,,,,,,,,,,,,,,0.7420779913935045
1,240710_102715,DEMANDRATING,9.0,-1,,,,,,,,,,,,,,,,,,,,,,,,,,,,,,,,,,,,,,,2.0,Effort,1.0,9.0,7.981241200002842,40,29,Female,0.2857142857142857,0.5,0.2,1.0,1.6666666666666667,2.25,3.0,2.5555555555555554,3.0,1.7777777777777777,2.0,2.25,1.25,1.0,,,,,,,,,,,,,,,,,,,,,,,,,,,,,,,,,,,,,,-1.70677938020506
2,240710_102723,DEMANDRATING,9.0,-1,,,,,,,,,,,,,,,,,,,,,,,,,,,,,,,,,,,,,,,3.0,Frustration,1.0,2.0,6.731247099996836,40,29,Female,0.2857142857142857,0.5,0.2,1.0,1.6666666666666667,2.25,3.0,2.5555555555555554,3.0,1.7777777777777777,2.0,2.25,1.25,1.0,,,,,,,,,,,,,,,,,,,,,,,,,,,,,,,,,,,,,,-1.9015748529458547
3,240710_102732,DEMANDRATING,9.0,-1,,,,,,,,,,,,,,,,,,,,,,,,,,,,,,,,,,,,,,,4.0,MentalDemand,2.0,74.0,7.007981499999005,40,29,Female,0.2857142857142857,0.5,0.2,1.0,1.6666666666666667,2.25,3.0,2.5555555555555554,3.0,1.7777777777777777,2.0,2.25,1.25,1.0,,,,,,,,,,,,,,,,,,,,,,,,,,,,,,,,,,,,,,0.10203572381660699
4,240710_102739,DEMANDRATING,9.0,-1,,,,,,,,,,,,,,,,,,,,,,,,,,,,,,,,,,,,,,,5.0,Effort,2.0,72.0,6.322239699999045,40,29,Female,0.2857142857142857,0.5,0.2,1.0,1.6666666666666667,2.25,3.0,2.5555555555555554,3.0,1.7777777777777777,2.0,2.25,1.25,1.0,,,,,,,,,,,,,,,,,,,,,,,,,,,,,,,,,,,,,,0.046379874462094156
5,240710_102747,DEMANDRATING,9.0,-1,,,,,,,,,,,,,,,,,,,,,,,,,,,,,,,,,,,,,,,6.0,Frustration,2.0,92.0,5.680457400005253,40,29,Female,0.2857142857142857,0.5,0.2,1.0,1.6666666666666667,2.25,3.0,2.5555555555555554,3.0,1.7777777777777777,2.0,2.25,1.25,1.0,,,,,,,,,,,,,,,,,,,,,,,,,,,,,,,,,,,,,,0.6029383680072224
6,240710_102752,DEMANDRATING,9.0,-1,,,,,,,,,,,,,,,,,,,,,,,,,,,,,,,,,,,,,,,7.0,MentalDemand,3.0,100.0,3.6596561999976975,40,29,Female,0.2857142857142857,0.5,0.2,1.0,1.6666666666666667,2.25,3.0,2.5555555555555554,3.0,1.7777777777777777,2.0,2.25,1.25,1.0,,,,,,,,,,,,,,,,,,,,,,,,,,,,,,,,,,,,,,0.8255617654252737
7,240710_102757,DEMANDRATING,9.0,-1,,,,,,,,,,,,,,,,,,,,,,,,,,,,,,,,,,,,,,,8.0,Effort,3.0,98.0,3.7417677999983434,40,29,Female,0.2857142857142857,0.5,0.2,1.0,1.6666666666666667,2.25,3.0,2.5555555555555554,3.0,1.7777777777777777,2.0,2.25,1.25,1.0,,,,,,,,,,,,,,,,,,,,,,,,,,,,,,,,,,,,,,0.7699059160707609
8,240710_102803,DEMANDRATING,9.0,-1,,,,,,,,,,,,,,,,,,,,,,,,,,,,,,,,,,,,,,,9.0,Frustration,3.0,89.0,4.729844800000137,40,29,Female,0.2857142857142857,0.5,0.2,1.0,1.6666666666666667,2.25,3.0,2.5555555555555554,3.0,1.7777777777777777,2.0,2.25,1.25,1.0,,,,,,,,,,,,,,,,,,,,,,,,,,,,,,,,,,,,,,0.5194545939754531
