,END,Phase,Block,TrialN,NbackLevel,ISI,Letter_Resp,Letter_RT,Letter_Accuracy,Trial_A_measure,Trial_ACC,Trial_RT,TrialCountCali,CaliEnd_A_measure,ISI_calibrated,TrialIndex,TrialNumber_total,TrialNumber_valid,CueLearning,TrialDemandLearning,CueMapping,OfflineRatingTimePoint,CueFigure,TrialDemand,OfflineRating,OfflineRatingRT,PhaseType,CueLeft,CueDemandLeft,CueRight,CueDemandRight,Choice,ChoiceDemand,TaskDemand,ChoiceRT,CueCheck,CueDemandCheck,CorrectAnswer,Answer,AnswerDemand,AnswerRT,AnswerACC,DemandRatingQuesIndex,QuesTLX,DemandLevel,DemandRating,DemandRatingRT,PID,Age,Gender,BAI_bis,BAI_bas_d,BAI_bas_rr,BAI_bas_fs,NFC,BFI_ext,BFI_agr,BFI_con,BFI_neu,BFI_open,UPPS_lps,UPPS_lpm,UPPS_pu,UPPS_ss,Task_A_measure,Task_ACC,Task_RT,Task_RT_z,Task_RT_log,Task_RT_log_z,cue_i_on_zyg_values,cue_i_on_zyg_zvalues,cue_e_on_zyg_values,cue_e_on_zyg_zvalues,cue_i_on_cor_values,cue_i_on_cor_zvalues,cue_e_on_cor_values,cue_e_on_cor_zvalues,cue_i_on_scr_values,cue_i_on_scr_zvalues,cue_e_on_scr_values,cue_e_on_scr_zvalues,cue_e_true_zyg_values,cue_e_true_zyg_zvalues,cue_e_true_cor_values,cue_e_true_cor_zvalues,cue_e_true_scr_values,cue_e_true_scr_zvalues,cue_e_false_zyg_values,cue_e_false_zyg_zvalues,cue_e_false_cor_values,cue_e_false_cor_zvalues,cue_e_false_scr_values,cue_e_false_scr_zvalues,OfflineRating_z,cue_i_off_zyg_values,cue_i_off_zyg_zvalues,cue_i_off_cor_values,cue_i_off_cor_zvalues,cue_i_off_scr_values,cue_i_off_scr_zvalues,DemandRating_z
0,240711_144729,PRACTICE,0.0,1,1.0,1750.0,,,,,,,,,,20.0,1.0,1.0,cue1.png,Easy,A,,,,,,,,,,,,,,,,,,,,,,,,,,,41,22,Female,1.5714285714285714,1.0,0.8,0.5,2.7222222222222223,2.75,2.3333333333333335,1.8888888888888888,1.75,2.3333333333333335,2.0,1.25,1.25,0.75,,,,,,,,,,,,,,,,,,,,,,,,,,,,,,,,,,,,,,
0,240711_144952,LEARNING,1.0,1,1.0,1750.0,,,,,,,,,,1.0,1.0,1.0,cue1.png,Easy,A,,,,,,,,,,,,,,,,,,,,,,,,,,,41,22,Female,1.5714285714285714,1.0,0.8,0.5,2.7222222222222223,2.75,2.3333333333333335,1.8888888888888888,1.75,2.3333333333333335,2.0,1.25,1.25,0.75,1.0,1.0,0.3762640499990084,-0.7763058091673992,-0.9774641214261982,-0.7507391687404489,,,,,,,0.0002756132575421578,0.27868585931041545,1.423,-0.296045510977016,,,,,,,,,,,,,,,,,,,,,,
1,240711_145011,LEARNING,1.0,2,3.0,1750.0,,,,,,,,,,2.0,2.0,2.0,cue2.png,Hard,A,,,,,,,,,,,,,,,,,,,,,,,,,,,41,22,Female,1.5714285714285714,1.0,0.8,0.5,2.7222222222222223,2.75,2.3333333333333335,1.8888888888888888,1.75,2.3333333333333335,2.0,1.25,1.25,0.75,0.75,0.8333333333333334,0.4357928625013301,0.7999217596321547,-0.8305882345283391,0.8102241644849087,,,0.0002305941678129456,1.0376915800005437,,,,,1.4539999999999997,-0.230146467984456,1.4440000000000002,-0.08770560837312966,,,,,,,,,,,,,,,,,,,,
2,240711_145030,LEARNING,1.0,3,1.0,1750.0,,,,,,,,,,3.0,3.0,3.0,cue1.png,Easy,A,,,,,,,,,,,,,,,,,,,,,,,,,,,41,22,Female,1.5714285714285714,1.0,0.8,0.5,2.7222222222222223,2.75,2.3333333333333335,1.8888888888888888,1.75,2.3333333333333335,2.0,1.25,1.25,0.75,1.0,1.0,0.3746294874999876,-0.8195864049928585,-0.9818177747717743,-0.7970088007512109,,,,,,,,,1.1129999999999998,-0.9550359409026228,1.4600000000000002,-0.05391534565713645,,,,,,,,,,,,,,,,,,,,
3,240711_145048,LEARNING,1.0,4,3.0,1750.0,,,,,,,,,,4.0,4.0,4.0,cue2.png,Hard,A,,,,,,,,,,,,,,,,,,,,,,,,,,,41,22,Female,1.5714285714285714,1.0,0.8,0.5,2.7222222222222223,2.75,2.3333333333333335,1.8888888888888888,1.75,2.3333333333333335,2.0,1.25,1.25,0.75,0.75,0.8333333333333334,0.4107349749992863,0.1364290501973947,-0.8898071021634166,0.18085958350528372,,,-0.000604351676796273,-1.546335351719429,0.00019715447361258681,0.041485074641210366,,,1.584,0.0462043574682183,1.952,0.985135232859653,,,,,,,,,,,,,,,,,,,,
4,240711_145108,LEARNING,1.0,5,3.0,1750.0,,,,,,,,,,5.0,5.0,5.0,cue2.png,Hard,A,,,,,,,,,,,,,,,,,,,,,,,,,,,41,22,Female,1.5714285714285714,1.0,0.8,0.5,2.7222222222222223,2.75,2.3333333333333335,1.8888888888888888,1.75,2.3333333333333335,2.0,1.25,1.25,0.75,1.0,1.0,0.4434327624985599,1.002214069730489,-0.8132090952680786,0.9949256816723381,0.0005440047981910426,0.4988185930748802,-0.0001336977842548567,-0.08973509231569483,0.0006786078510505121,1.300030054865295,,,1.538,-0.051581319230420135,1.5850000000000002,0.21007108181156017,,,,,,,,,,,,,,,,,,,,
5,240711_145126,LEARNING,1.0,6,1.0,1750.0,,,,,,,,,,6.0,6.0,6.0,cue1.png,Easy,A,,,,,,,,,,,,,,,,,,,,,,,,,,,41,22,Female,1.5714285714285714,1.0,0.8,0.5,2.7222222222222223,2.75,2.3333333333333335,1.8888888888888888,1.75,2.3333333333333335,2.0,1.25,1.25,0.75,0.75,0.8333333333333334,0.3831038999996963,-0.5951975410137652,-0.9594490472185115,-0.559279080379664,0.00035534653094736754,0.11526676716896898,-0.0003192445213512753,-0.6639732526053752,0.00039978878323316093,0.5711820404227564,0.0009580116786740175,2.242761632206375,,,1.596,0.23330188742880525,,,,,,,,,,,,,,,,,,,,
6,240711_145145,LEARNING,1.0,7,3.0,1750.0,,,,,,,,,,7.0,7.0,7.0,cue2.png,Hard,A,,,,,,,,,,,,,,,,,,,,,,,,,,,41,22,Female,1.5714285714285714,1.0,0.8,0.5,2.7222222222222223,2.75,2.3333333333333335,1.8888888888888888,1.75,2.3333333333333335,2.0,1.25,1.25,0.75,1.0,1.0,0.4176999624996824,0.32085075882866376,-0.872991897257124,0.359567735359014,,,,,,,-0.00016457115272041842,-0.9882507411131713,2.207,1.370562544060646,,,,,,,,,,,,,,,,,,,,,,
7,240711_145204,LEARNING,1.0,8,3.0,1750.0,,,,,,,,,,8.0,8.0,8.0,cue2.png,Hard,A,,,,,,,,,,,,,,,,,,,,,,,,,,,41,22,Female,1.5714285714285714,1.0,0.8,0.5,2.7222222222222223,2.75,2.3333333333333335,1.8888888888888888,1.75,2.3333333333333335,2.0,1.25,1.25,0.75,1.0,1.0,0.3847031499990407,-0.552851963596594,-0.955283281061308,-0.5150062704342991,0.001707641260247388,2.864550539165194,-0.00038776689006376737,-0.8760392773919253,-0.0002462134521998521,-1.1175024900385147,0.0005541404777875095,1.080341532060347,,,,,,,,,,,,,,,,,,,,,,,,
8,240711_145222,LEARNING,1.0,9,1.0,1750.0,,,,,,,,,,9.0,9.0,9.0,cue1.png,Easy,A,,,,,,,,,,,,,,,,,,,,,,,,,,,41,22,Female,1.5714285714285714,1.0,0.8,0.5,2.7222222222222223,2.75,2.3333333333333335,1.8888888888888888,1.75,2.3333333333333335,2.0,1.25,1.25,0.75,1.0,1.0,0.3625548375039216,-1.139303789018659,-1.0145795402555615,-1.1451933512042323,0.00012195632135478121,-0.35922736630135177,-6.510123450999446e-05,0.12256051117551606,,,0.00012854523066498742,-0.14460461090778456,,,,,,,,,,,,,,,,,,,,,,,,
9,240711_145241,LEARNING,1.0,10,1.0,1750.0,,,,,,,,,,10.0,10.0,10.0,cue1.png,Easy,A,,,,,,,,,,,,,,,,,,,,,,,,,,,41,22,Female,1.5714285714285714,1.0,0.8,0.5,2.7222222222222223,2.75,2.3333333333333335,1.8888888888888888,1.75,2.3333333333333335,2.0,1.25,1.25,0.75,1.0,1.0,0.4346484500019869,0.7696195504040901,-0.8332177355465077,0.7822784290702566,6.571252384840898e-05,-0.4735738592731547,6.684287274321028e-05,0.5309069073224467,0.0005917106119551051,1.0728760059294622,0.00014621177021594857,-0.09375686383152589,,,,,,,,,,,,,,,,,,,,,,,,
10,240711_145300,LEARNING,1.0,11,3.0,1750.0,,,,,,,,,,11.0,11.0,11.0,cue2.png,Hard,A,,,,,,,,,,,,,,,,,,,,,,,,,,,41,22,Female,1.5714285714285714,1.0,0.8,0.5,2.7222222222222223,2.75,2.3333333333333335,1.8888888888888888,1.75,2.3333333333333335,2.0,1.25,1.25,0.75,0.75,0.8333333333333334,0.450010762499005,1.1763889694542269,-0.7984837798393148,1.1514229661480577,-3.2757079149268314e-07,-0.6078367211779391,-0.0005766010006861169,-1.4604513451038343,5.6198967088996916e-05,-0.3269801880063233,-0.00026932676308424495,-1.2897578226349264,,,1.012,-1.0000427017049456,,,,,,,,,,,,,,,,,,,,
11,240711_145319,LEARNING,1.0,12,1.0,1750.0,,,,,,,,,,12.0,12.0,12.0,cue1.png,Easy,A,,,,,,,,,,,,,,,,,,,,,,,,,,,41,22,Female,1.5714285714285714,1.0,0.8,0.5,2.7222222222222223,2.75,2.3333333333333335,1.8888888888888888,1.75,2.3333333333333335,2.0,1.25,1.25,0.75,1.0,1.0,0.421501287501087,0.42150375379555116,-0.8639324469752907,0.45584950092175897,3.0663273106312956e-05,-0.5448307637023759,-3.846327183383916e-05,0.2050008435704307,-0.0002807556125818643,-1.2077975520156874,,,1.146,-0.8848853467492516,,,,,,,,,,,,,,,,,,,,,,
12,240711_145338,LEARNING,1.0,13,1.0,1750.0,,,,,,,,,,13.0,13.0,13.0,cue1.png,Easy,A,,,,,,,,,,,,,,,,,,,,,,,,,,,41,22,Female,1.5714285714285714,1.0,0.8,0.5,2.7222222222222223,2.75,2.3333333333333335,1.8888888888888888,1.75,2.3333333333333335,2.0,1.25,1.25,0.75,1.0,1.0,0.4103671124994434,0.1266886406476953,-0.8907031235718511,0.1713368729100189,0.000932219155515552,1.2880780714436844,0.00015588427401421606,0.8064761318510763,0.00070505857867756,1.369173677152144,0.0009162521275317358,2.122569497896444,2.2220000000000004,1.4024491777667247,1.6540000000000001,0.3557915897742806,,,,,,,,,,,,,,,,,,,,
13,240711_145356,LEARNING,1.0,14,1.0,1750.0,,,,,,,,,,14.0,14.0,14.0,cue1.png,Easy,A,,,,,,,,,,,,,,,,,,,,,,,,,,,41,22,Female,1.5714285714285714,1.0,0.8,0.5,2.7222222222222223,2.75,2.3333333333333335,1.8888888888888888,1.75,2.3333333333333335,2.0,1.25,1.25,0.75,1.0,1.0,0.39945203750176,-0.16232505547117682,-0.917661577299139,-0.11517140749963795,-9.504621370293783e-06,-0.6264941304574578,-5.6101306077113115e-05,0.1504138834681853,0.0002618464146559706,0.2105932821573171,0.0005569790825568429,1.0885115903190214,,,,,,,,,,,,,,,,,,,,,,,,
14,240711_145416,LEARNING,1.0,15,3.0,1750.0,,,,,,,,,,15.0,15.0,15.0,cue2.png,Hard,A,,,,,,,,,,,,,,,,,,,,,,,,,,,41,22,Female,1.5714285714285714,1.0,0.8,0.5,2.7222222222222223,2.75,2.3333333333333335,1.8888888888888888,1.75,2.3333333333333335,2.0,1.25,1.25,0.75,0.75,0.8333333333333334,0.4612648749971413,1.4743798353268194,-0.7737828348311027,1.4139389602175862,-0.00010288424950233776,-0.8163396505914885,,,,,0.00042732157245103236,0.7153319836744919,,,,,,,,,,,,,,,,,,,,,,,,
15,240711_145434,LEARNING,1.0,16,1.0,1750.0,,,,,,,,,,16.0,16.0,16.0,cue1.png,Easy,A,,,,,,,,,,,,,,,,,,,,,,,,,,,41,22,Female,1.5714285714285714,1.0,0.8,0.5,2.7222222222222223,2.75,2.3333333333333335,1.8888888888888888,1.75,2.3333333333333335,2.0,1.25,1.25,0.75,1.0,1.0,0.3856175750006514,-0.5286394547869792,-0.9529091389632152,-0.48977443121778536,,,-0.0012305675121190222,-3.4843755180260874,,,0.00021355039625093252,0.10005683778291097,,,,,,,,,,,,,,,,,,,,,,,,
16,240711_145453,LEARNING,1.0,17,1.0,1750.0,,,,,,,,,,17.0,17.0,17.0,cue1.png,Easy,A,,,,,,,,,,,,,,,,,,,,,,,,,,,41,22,Female,1.5714285714285714,1.0,0.8,0.5,2.7222222222222223,2.75,2.3333333333333335,1.8888888888888888,1.75,2.3333333333333335,2.0,1.25,1.25,0.75,1.0,1.0,0.3800265874997421,-0.6766798450669511,-0.9675140616047048,-0.6449922086859969,3.5552004319569334e-05,-0.5348917251932085,-6.559266520583156e-05,0.12103960995621448,0.00028206979459497513,0.2634582832106749,-0.00013993873161593931,-0.9173538280768938,,,,,,,,,,,,,,,,,,,,,,,,
17,240711_145511,LEARNING,1.0,18,3.0,1750.0,,,,,,,,,,18.0,18.0,18.0,cue2.png,Hard,A,,,,,,,,,,,,,,,,,,,,,,,,,,,41,22,Female,1.5714285714285714,1.0,0.8,0.5,2.7222222222222223,2.75,2.3333333333333335,1.8888888888888888,1.75,2.3333333333333335,2.0,1.25,1.25,0.75,0.75,0.8333333333333334,0.4030119999988528,-0.06806295287016655,-0.908788940806679,-0.020875056163228715,6.913116073646239e-07,-0.6057652815841451,7.000139740349475e-05,0.5406820476376808,0.000280159354048523,0.2584642890412937,0.00026934820270909255,0.26065380936358457,,,,,,,,,,,,,,,,,,,,,,,,
18,240711_145530,LEARNING,1.0,19,3.0,1750.0,,,,,,,,,,19.0,19.0,19.0,cue2.png,Hard,A,,,,,,,,,,,,,,,,,,,,,,,,,,,41,22,Female,1.5714285714285714,1.0,0.8,0.5,2.7222222222222223,2.75,2.3333333333333335,1.8888888888888888,1.75,2.3333333333333335,2.0,1.25,1.25,0.75,0.75,0.8333333333333334,0.3843543000002682,-0.5620889525827165,-0.9561904955293539,-0.5246479383070927,8.252483667165215e-05,-0.4393935745961657,-2.4772510004377434e-06,0.3163719553608811,-0.0003683845148288196,-1.4368642077162632,0.0003630067556243499,0.5302213948222942,,,,,,,,,,,,,,,,,,,,,,,,
19,240711_145548,LEARNING,1.0,20,3.0,1750.0,,,,,,,,,,20.0,20.0,20.0,cue2.png,Hard,A,,,,,,,,,,,,,,,,,,,,,,,,,,,41,22,Female,1.5714285714285714,1.0,0.8,0.5,2.7222222222222223,2.75,2.3333333333333335,1.8888888888888888,1.75,2.3333333333333335,2.0,1.25,1.25,0.75,1.0,1.0,0.3558203624997986,-1.3176218961113575,-1.0333292752030554,-1.344461245879724,,,,,-0.00010225227036297566,-0.7411802307325496,-1.5393279805553124e-05,-0.5588877224264333,,,1.205,-0.5924476576932778,,,,,,,,,,,,,,,,,,,,
20,240711_145607,LEARNING,1.0,21,1.0,1750.0,,,,,,,,,,21.0,21.0,21.0,cue1.png,Easy,A,,,,,,,,,,,,,,,,,,,,,,,,,,,41,22,Female,1.5714285714285714,1.0,0.8,0.5,2.7222222222222223,2.75,2.3333333333333335,1.8888888888888888,1.75,2.3333333333333335,2.0,1.25,1.25,0.75,1.0,1.0,0.4334269249975477,0.7372755256026559,-0.8360320667575344,0.7523683606393545,0.0002287983076542273,-0.14201218921273276,3.162206194011171e-05,0.42190400101441333,0.001569614760913452,3.6291699597931766,8.296001224335822e-05,-0.27580776192854595,0.9190000000000003,-1.367436403501227,0.571,-1.9313868178145073,,,,,,,,,,,,,,,,,,,,
21,240711_145625,LEARNING,1.0,22,3.0,1750.0,,,,,,,,,,22.0,22.0,22.0,cue2.png,Hard,A,,,,,,,,,,,,,,,,,,,,,,,,,,,41,22,Female,1.5714285714285714,1.0,0.8,0.5,2.7222222222222223,2.75,2.3333333333333335,1.8888888888888888,1.75,2.3333333333333335,2.0,1.25,1.25,0.75,1.0,1.0,0.3272127000018372,-2.0751069594399967,-1.117144860820252,-2.2352341199338497,4.6634889433447724e-05,-0.5123596576414431,-1.336688590854911e-05,0.28267023678735165,0.0001912316360166825,0.026002459139216227,,,0.574,-2.1008289787410153,1.1390000000000002,-0.7318324913967493,,,,,,,,,,,,,,,,,,,,
22,240711_145645,LEARNING,1.0,23,3.0,1750.0,,,,,,,,,,23.0,23.0,23.0,cue2.png,Hard,A,,,,,,,,,,,,,,,,,,,,,,,,,,,41,22,Female,1.5714285714285714,1.0,0.8,0.5,2.7222222222222223,2.75,2.3333333333333335,1.8888888888888888,1.75,2.3333333333333335,2.0,1.25,1.25,0.75,1.0,1.0,0.4572227999997267,1.3673521662324326,-0.7825844795390806,1.3203970933297626,,,,,-0.0002066318858664402,-1.0140341503138752,-9.341394597662265e-05,-0.7834464193202977,2.324,1.619278286968052,1.2590000000000001,-0.4784055210268008,,,,,,,,,,,,,,,,,,,,
23,240711_145703,LEARNING,1.0,24,3.0,1750.0,,,,,,,,,,24.0,24.0,24.0,cue2.png,Hard,A,,,,,,,,,,,,,,,,,,,,,,,,,,,41,22,Female,1.5714285714285714,1.0,0.8,0.5,2.7222222222222223,2.75,2.3333333333333335,1.8888888888888888,1.75,2.3333333333333335,2.0,1.25,1.25,0.75,0.75,0.8333333333333334,0.3345128499986458,-1.8818106849528675,-1.09507998461017,-2.0007336621422533,0.0014370441438503498,2.3144128770562573,,,0.0004167354133874368,0.6154814415940109,,,1.671,0.23114683296346902,2.3890000000000002,1.908031783290217,,,,,,,,,,,,,,,,,,,,
24,240711_145722,LEARNING,1.0,25,1.0,1750.0,,,,,,,,,,25.0,25.0,25.0,cue1.png,Easy,A,,,,,,,,,,,,,,,,,,,,,,,,,,,41,22,Female,1.5714285714285714,1.0,0.8,0.5,2.7222222222222223,2.75,2.3333333333333335,1.8888888888888888,1.75,2.3333333333333335,2.0,1.25,1.25,0.75,1.0,1.0,0.4001449625011446,-0.14397751179897864,-0.9159283912745779,-0.09675150283632256,,,,,0.0001166672714478928,-0.16891279357130856,0.0002345912097022622,0.1606164033710539,1.359,-0.4320951481229477,0.7509999999999999,-1.5512463622595845,,,,,,,,,,,,,,,,,,,,
25,240711_145740,LEARNING,1.0,26,1.0,1750.0,,,,,,,,,,26.0,26.0,26.0,cue1.png,Easy,A,,,,,,,,,,,,,,,,,,,,,,,,,,,41,22,Female,1.5714285714285714,1.0,0.8,0.5,2.7222222222222223,2.75,2.3333333333333335,1.8888888888888888,1.75,2.3333333333333335,2.0,1.25,1.25,0.75,1.0,1.0,0.3773962124996615,-0.746327960275809,-0.9744596818700081,-0.7188086722977887,,,,,0.00016616568483411196,-0.03952128316630634,0.0006970152415543022,1.491562973058329,1.255,-0.6531758084850868,2.015,1.1181843923038763,,,,,,,,,,,,,,,,,,,,
26,240711_145759,LEARNING,1.0,27,3.0,1750.0,,,,,,,,,,27.0,27.0,27.0,cue2.png,Hard,A,,,,,,,,,,,,,,,,,,,,,,,,,,,41,22,Female,1.5714285714285714,1.0,0.8,0.5,2.7222222222222223,2.75,2.3333333333333335,1.8888888888888888,1.75,2.3333333333333335,2.0,1.25,1.25,0.75,0.1666666666666666,0.6666666666666667,0.3786726625003211,-0.7125296095837733,-0.9710831344267582,-0.6829234983381295,0.0017162573009679612,2.882067386948955,4.751068789386097e-05,0.4710768157994595,,,-0.00021519431320549294,-1.1339540721543586,2.177,1.3067892766484908,,,,,,,,,,,,,,,,,,,,,,
27,240711_145817,LEARNING,1.0,28,1.0,1750.0,,,,,,,,,,28.0,28.0,28.0,cue1.png,Easy,A,,,,,,,,,,,,,,,,,,,,,,,,,,,41,22,Female,1.5714285714285714,1.0,0.8,0.5,2.7222222222222223,2.75,2.3333333333333335,1.8888888888888888,1.75,2.3333333333333335,2.0,1.25,1.25,0.75,1.0,1.0,0.3668905999984417,-1.0244997455924074,-1.0026915680133093,-1.0188507011716825,-0.00011994802885689727,-0.8510311794808291,-2.7591298345572626e-05,0.23864790280907497,0.00018418884844524077,0.007592234265541166,-0.00017053996348057607,-1.005430142829227,1.6,0.08021676675470124,1.1909999999999998,-0.6220141375697723,,,,,,,,,,,,,,,,,,,,
28,240711_145836,LEARNING,1.0,29,1.0,1750.0,,,,,,,,,,29.0,29.0,29.0,cue1.png,Easy,A,,,,,,,,,,,,,,,,,,,,,,,,,,,41,22,Female,1.5714285714285714,1.0,0.8,0.5,2.7222222222222223,2.75,2.3333333333333335,1.8888888888888888,1.75,2.3333333333333335,2.0,1.25,1.25,0.75,0.75,0.8333333333333334,0.416947749999963,0.3009333771471946,-0.874794364794287,0.34041152262549007,0.0001727881865538198,-0.2558836061993251,1.9474965414083972e-05,0.3843106352073788,7.314579863540232e-05,-0.2826802603852286,-0.00020838000828435907,-1.11434117331071,2.598,2.201740795999072,1.1740000000000002,-0.6579162917055144,,,,,,,,,,,,,,,,,,,,
29,240711_145855,LEARNING,1.0,30,3.0,1750.0,,,,,,,,,,30.0,30.0,30.0,cue2.png,Hard,A,,,,,,,,,,,,,,,,,,,,,,,,,,,41,22,Female,1.5714285714285714,1.0,0.8,0.5,2.7222222222222223,2.75,2.3333333333333335,1.8888888888888888,1.75,2.3333333333333335,2.0,1.25,1.25,0.75,0.75,0.8333333333333334,0.4469812749994162,1.0961729947781105,-0.805238575627614,1.079634541433437,0.0010922573609511367,1.6134438601066339,-0.00039317546531252587,-0.8927779727160121,0.0002786378838316385,0.25448708419913363,,,0.9259999999999999,-1.3525559744383915,1.682,0.41492454952726826,,,,,,,,,,,,,,,,,,,,
30,240711_145913,LEARNING,1.0,31,3.0,1750.0,,,,,,,,,,31.0,31.0,31.0,cue2.png,Hard,A,,,,,,,,,,,,,,,,,,,,,,,,,,,41,22,Female,1.5714285714285714,1.0,0.8,0.5,2.7222222222222223,2.75,2.3333333333333335,1.8888888888888888,1.75,2.3333333333333335,2.0,1.25,1.25,0.75,0.75,0.8333333333333334,0.359242312499191,-1.2270141433045039,-1.0237581530016016,-1.242741548182318,-9.80052570652033e-06,-0.6270957189810425,-0.00010609049642032638,-0.004294850009249233,-0.00018171861762816257,-0.9489095294230332,-7.155182957803864e-05,-0.7205229836366838,,,,,,,,,,,,,,,,,,,,,,,,
31,240711_145933,LEARNING,1.0,32,1.0,1750.0,,,,,,,,,,32.0,32.0,32.0,cue1.png,Easy,A,,,,,,,,,,,,,,,,,,,,,,,,,,,41,22,Female,1.5714285714285714,1.0,0.8,0.5,2.7222222222222223,2.75,2.3333333333333335,1.8888888888888888,1.75,2.3333333333333335,2.0,1.25,1.25,0.75,0.75,0.8333333333333334,0.4573254124989034,1.3700691807890295,-0.7823600791232141,1.32278196962584,4.91461927134367e-05,-0.5072540507018904,5.615062589427655e-05,0.4978160739508835,,,,,1.7699999999999998,0.4415986154235815,1.4460000000000002,-0.0834818255336305,,,,,,,,,,,,,,,,,,,,
32,240711_145951,LEARNING,1.0,33,1.0,1750.0,,,,,,,,,,33.0,33.0,33.0,cue1.png,Easy,A,,,,,,,,,,,,,,,,,,,,,,,,,,,41,22,Female,1.5714285714285714,1.0,0.8,0.5,2.7222222222222223,2.75,2.3333333333333335,1.8888888888888888,1.75,2.3333333333333335,2.0,1.25,1.25,0.75,1.0,1.0,0.3778355125014059,-0.7346960001439614,-0.9732963301813882,-0.7064448366271701,-4.291915089907729e-05,-0.6944275637482354,,,-6.95613503760282e-05,-0.6557244105502837,0.0004981894401633429,0.9193035312927845,1.564,0.003688845860114634,1.642,0.3304488927372852,,,,,,,,,,,,,,,,,,,,
33,240711_150010,LEARNING,1.0,34,1.0,1750.0,,,,,,,,,,34.0,34.0,34.0,cue1.png,Easy,A,,,,,,,,,,,,,,,,,,,,,,,,,,,41,22,Female,1.5714285714285714,1.0,0.8,0.5,2.7222222222222223,2.75,2.3333333333333335,1.8888888888888888,1.75,2.3333333333333335,2.0,1.25,1.25,0.75,1.0,1.0,0.4342307249989972,0.7585588616684705,-0.8341792617222792,0.7720595487896597,,,-3.18241887469488e-05,0.22554776839102264,7.440252537089034e-05,-0.2793951092188194,8.626466213241353e-05,-0.2662963349029217,1.215,-0.7382068317012936,1.6139999999999999,0.2713159329842971,,,,,,,,,,,,,,,,,,,,
34,240711_150029,LEARNING,1.0,35,3.0,1750.0,,,,,,,,,,35.0,35.0,35.0,cue2.png,Hard,A,,,,,,,,,,,,,,,,,,,,,,,,,,,41,22,Female,1.5714285714285714,1.0,0.8,0.5,2.7222222222222223,2.75,2.3333333333333335,1.8888888888888888,1.75,2.3333333333333335,2.0,1.25,1.25,0.75,0.75,0.8333333333333334,0.4493338124993897,1.1584644181783066,-0.7999892097852624,1.1354236009970045,-4.1997694288776425e-05,-0.6925541957239364,4.000501596886086e-05,0.4478479339263696,0.00030100453336007367,0.31295470704195566,-4.773108805946518e-05,-0.6519622427846667,2.081,1.1027148209295932,1.1780000000000002,-0.6494687260265161,,,,,,,,,,,,,,,,,,,,
35,240711_150047,LEARNING,1.0,36,3.0,1750.0,,,,,,,,,,36.0,36.0,36.0,cue2.png,Hard,A,,,,,,,,,,,,,,,,,,,,,,,,,,,41,22,Female,1.5714285714285714,1.0,0.8,0.5,2.7222222222222223,2.75,2.3333333333333335,1.8888888888888888,1.75,2.3333333333333335,2.0,1.25,1.25,0.75,1.0,1.0,0.348473362497316,-1.5121586836784173,-1.0541934864307723,-1.566201310848888,0.0003599185419219694,0.1245618973691495,,,0.0009864036334899778,2.10462475723246,-0.0002525019503421735,-1.2413327295120504,1.674,0.23752415970468432,1.7850000000000001,0.6324493657614747,,,,,,,,,,,,,,,,,,,,
36,240711_150106,LEARNING,1.0,37,1.0,1750.0,,,,,,,,,,37.0,37.0,37.0,cue1.png,Easy,A,,,,,,,,,,,,,,,,,,,,,,,,,,,41,22,Female,1.5714285714285714,1.0,0.8,0.5,2.7222222222222223,2.75,2.3333333333333335,1.8888888888888888,1.75,2.3333333333333335,2.0,1.25,1.25,0.75,1.0,1.0,0.3930715625047014,-0.33126980961032293,-0.9337635908024924,-0.28629992424053385,,,,,-7.074687771560159e-05,-0.6588234426727261,0.0004936481837999338,0.9062329096065748,1.9880000000000002,0.905017691951912,2.546,2.239598736190899,,,,,,,,,,,,,,,,,,,,
37,240711_150125,LEARNING,1.0,38,3.0,1750.0,,,,,,,,,,38.0,38.0,38.0,cue2.png,Hard,A,,,,,,,,,,,,,,,,,,,,,,,,,,,41,22,Female,1.5714285714285714,1.0,0.8,0.5,2.7222222222222223,2.75,2.3333333333333335,1.8888888888888888,1.75,2.3333333333333335,2.0,1.25,1.25,0.75,1.0,1.0,0.3648604750014783,-1.078254202532029,-1.0082402587496493,-1.0778209172484523,8.275443480294927e-05,-0.4389267899502013,0.00036039492554941575,1.439404644283989,-0.00021533455126851626,-1.0367833849638386,,,1.156,-0.8636275909451997,1.392,-0.197523962200108,,,,,,,,,,,,,,,,,,,,
38,240711_150144,LEARNING,1.0,39,3.0,1750.0,,,,,,,,,,39.0,39.0,39.0,cue2.png,Hard,A,,,,,,,,,,,,,,,,,,,,,,,,,,,41,22,Female,1.5714285714285714,1.0,0.8,0.5,2.7222222222222223,2.75,2.3333333333333335,1.8888888888888888,1.75,2.3333333333333335,2.0,1.25,1.25,0.75,0.75,0.8333333333333334,0.4586663875033991,1.4055760501907129,-0.7794321577979879,1.3538992478106868,9.736971301210328e-05,-0.40921318807553003,6.477042322696998e-05,0.5244929998826159,-0.00013361886487764244,-0.8231741930207214,0.00024908103876481033,0.20232095797414168,0.9809999999999999,-1.2356383175161065,2.068,1.2301146375506036,,,,,,,,,,,,,,,,,,,,
39,240711_150203,LEARNING,1.0,40,3.0,1750.0,,,,,,,,,,40.0,40.0,40.0,cue2.png,Hard,A,,,,,,,,,,,,,,,,,,,,,,,,,,,41,22,Female,1.5714285714285714,1.0,0.8,0.5,2.7222222222222223,2.75,2.3333333333333335,1.8888888888888888,1.75,2.3333333333333335,2.0,1.25,1.25,0.75,1.0,1.0,0.4435877249979967,1.0063172284107138,-0.8128596952188178,0.9986390254828335,0.0010179051672726865,1.4622820792733289,-0.00010042095724128357,0.013251487904373103,0.0006082822782834197,1.1161952315260002,0.0006512303850372205,1.359785224655037,1.565,0.005814621440519582,1.1760000000000002,-0.6536925088660153,,,,,,,,,,,,,,,,,,,,
40,240711_150222,LEARNING,1.0,41,1.0,1750.0,,,,,,,,,,41.0,41.0,41.0,cue1.png,Easy,A,,,,,,,,,,,,,,,,,,,,,,,,,,,41,22,Female,1.5714285714285714,1.0,0.8,0.5,2.7222222222222223,2.75,2.3333333333333335,1.8888888888888888,1.75,2.3333333333333335,2.0,1.25,1.25,0.75,1.0,1.0,0.4002117874988471,-0.14220809293715378,-0.9157614032461574,-0.09497679226294369,0.0001681308768233308,-0.2653521530965102,-0.0011744455787033744,-3.3106869029589587,0.0004165797362063054,0.6150744930834593,,,1.884,0.6839370315897724,1.287,-0.4192725612738131,,,,,,,,,,,,,,,,,,,,
41,240711_150240,LEARNING,1.0,42,3.0,1750.0,,,,,,,,,,42.0,42.0,42.0,cue2.png,Hard,A,,,,,,,,,,,,,,,,,,,,,,,,,,,41,22,Female,1.5714285714285714,1.0,0.8,0.5,2.7222222222222223,2.75,2.3333333333333335,1.8888888888888888,1.75,2.3333333333333335,2.0,1.25,1.25,0.75,0.75,0.8333333333333334,0.4123115624988713,0.1781745609342957,-0.8859759957651703,0.22157570607417348,-4.745345055912325e-05,-0.7036460249332355,1.0040894923804122e-05,0.35511366108022757,,,0.00012921491232475513,-0.1426771364547797,2.1999999999999997,1.3556821149978093,,,,,,,,,,,,,,,,,,,,,,
42,240711_150259,LEARNING,1.0,43,3.0,1750.0,,,,,,,,,,43.0,43.0,43.0,cue2.png,Hard,A,,,,,,,,,,,,,,,,,,,,,,,,,,,41,22,Female,1.5714285714285714,1.0,0.8,0.5,2.7222222222222223,2.75,2.3333333333333335,1.8888888888888888,1.75,2.3333333333333335,2.0,1.25,1.25,0.75,0.75,0.8333333333333334,0.4475735250034631,1.1118548258907999,-0.803914453079554,1.0937070130274706,-3.133617072132019e-05,-0.6708787775671747,-3.127277327626826e-05,0.227254313116055,,,,,,,1.581,0.2016235161325614,,,,,,,,,,,,,,,,,,,,
43,240711_150318,LEARNING,1.0,44,1.0,1750.0,,,,,,,,,,44.0,44.0,44.0,cue1.png,Easy,A,,,,,,,,,,,,,,,,,,,,,,,,,,,41,22,Female,1.5714285714285714,1.0,0.8,0.5,2.7222222222222223,2.75,2.3333333333333335,1.8888888888888888,1.75,2.3333333333333335,2.0,1.25,1.25,0.75,0.75,0.8333333333333334,0.4295432624985551,0.634442365633501,-0.8450328150436527,0.656710466461039,0.00015582939831371807,-0.2903616828279059,-0.00014374065395059013,-0.12081620486099469,0.0002983868917420733,0.30611205129844127,-0.0007724462791233113,-2.7378339343651543,1.307,-0.5426354783040173,1.0150000000000001,-0.9937070274456966,,,,,,,,,,,,,,,,,,,,
44,240711_150337,LEARNING,1.0,45,1.0,1750.0,,,,,,,,,,45.0,45.0,45.0,cue1.png,Easy,A,,,,,,,,,,,,,,,,,,,,,,,,,,,41,22,Female,1.5714285714285714,1.0,0.8,0.5,2.7222222222222223,2.75,2.3333333333333335,1.8888888888888888,1.75,2.3333333333333335,2.0,1.25,1.25,0.75,1.0,1.0,0.3530080875043495,-1.392086431729293,-1.041264311534094,-1.4287929971438107,0.00013028828343059377,-0.3422880648106356,4.949386482716025e-05,0.4772144385436144,3.192739587284943e-05,-0.390427378425446,0.0002625786088844479,0.24116959777751845,1.273,-0.6149118480377935,1.5330000000000001,0.10025272798458228,,,,,,,,,,,,,,,,,,,,
45,240711_150355,LEARNING,1.0,46,1.0,1750.0,,,,,,,,,,46.0,46.0,46.0,cue1.png,Easy,A,,,,,,,,,,,,,,,,,,,,,,,,,,,41,22,Female,1.5714285714285714,1.0,0.8,0.5,2.7222222222222223,2.75,2.3333333333333335,1.8888888888888888,1.75,2.3333333333333335,2.0,1.25,1.25,0.75,1.0,1.0,0.4076447250026831,0.05460418196339983,-0.8973592559724358,0.10059702011422646,0.0005934218618992874,0.5992859899884998,-1.4810174543964435e-05,0.2782034839695038,4.177438428042395e-05,-0.3646868219947758,0.00020039588403074002,0.06219558553515472,,,0.29799999999999993,-2.507933175406141,,,,,,,,,,,,,,,,,,,,
46,240711_150414,LEARNING,1.0,47,3.0,1750.0,,,,,,,,,,47.0,47.0,47.0,cue2.png,Hard,A,,,,,,,,,,,,,,,,,,,,,,,,,,,41,22,Female,1.5714285714285714,1.0,0.8,0.5,2.7222222222222223,2.75,2.3333333333333335,1.8888888888888888,1.75,2.3333333333333335,2.0,1.25,1.25,0.75,0.1666666666666666,0.6666666666666667,0.3547157625034742,-1.346869934053228,-1.0364384792176444,-1.37750515502504,-6.499278382319368e-05,-0.7393043790403335,6.223955643817501e-05,0.5166603626103115,-7.874897422266002e-06,-0.4944727102798951,0.0004875442010282044,0.8886644564729304,1.017,-1.15911039662152,,,,,,,,,,,,,,,,,,,,,,
47,240711_150433,LEARNING,1.0,48,3.0,1750.0,,,,,,,,,,48.0,48.0,48.0,cue2.png,Hard,A,,,,,,,,,,,,,,,,,,,,,,,,,,,41,22,Female,1.5714285714285714,1.0,0.8,0.5,2.7222222222222223,2.75,2.3333333333333335,1.8888888888888888,1.75,2.3333333333333335,2.0,1.25,1.25,0.75,0.75,0.8333333333333334,0.4421844875014358,0.9691617479857296,-0.8160280914512876,0.9649660349840317,3.2072457003050163e-06,-0.6006502599669911,0.00012428322331660673,0.7086758174947729,-0.00016018555629988785,-0.8926209508948836,0.00012989473357864377,-0.14072047827194312,1.377,-0.3938311876756544,2.04,1.1709816777976156,,,,,,,,,,,,,,,,,,,,
48,240711_150452,LEARNING,1.0,49,1.0,1750.0,,,,,,,,,,49.0,49.0,49.0,cue1.png,Easy,A,,,,,,,,,,,,,,,,,,,,,,,,,,,41,22,Female,1.5714285714285714,1.0,0.8,0.5,2.7222222222222223,2.75,2.3333333333333335,1.8888888888888888,1.75,2.3333333333333335,2.0,1.25,1.25,0.75,0.75,0.8333333333333334,0.4812919250016421,2.0046640290118556,-0.7312812802880696,1.8656357611559795,,,-7.952396582798201e-05,0.07792441124728193,-0.0002756556741840741,-1.1944660392030715,-2.4358369920392427e-05,-0.5846910006157047,,,2.039,1.1688697863778663,,,,,,,,,,,,,,,,,,,,
49,240711_150511,LEARNING,1.0,50,1.0,1750.0,,,,,,,,,,50.0,50.0,50.0,cue1.png,Easy,A,,,,,,,,,,,,,,,,,,,,,,,,,,,41,22,Female,1.5714285714285714,1.0,0.8,0.5,2.7222222222222223,2.75,2.3333333333333335,1.8888888888888888,1.75,2.3333333333333335,2.0,1.25,1.25,0.75,0.75,0.8333333333333334,0.4496129499984818,1.165855531877031,-0.799368177440059,1.1420237907223865,0.0002931531617735763,-0.011175506760310861,0.0002282139925145095,1.0303253093458857,,,0.0002276513807565276,0.14064222189837186,1.975,0.8773826094066443,1.7889999999999997,0.640896931440472,,,,,,,,,,,,,,,,,,,,
0,240711_150654,TrueCHOICE,9.0,1,3.0,1750.0,,,,,,,,,,,1.0,1.0,,,A,,,,,,True,cue1.png,Easy,cue2.png,Hard,Right,Hard,Hard,0.0165707999985897,,,,,,,,,,,,,41,22,Female,1.5714285714285714,1.0,0.8,0.5,2.7222222222222223,2.75,2.3333333333333335,1.8888888888888888,1.75,2.3333333333333335,2.0,1.25,1.25,0.75,1.0,1.0,0.3808458374987822,1.1204297083027772,-0.965360611726068,1.0916265833727006,,,,,,,,,,,,,,,,,1.267,-1.7586037023222068,,,,,,,,,,,,,,
1,240711_150716,TrueCHOICE,9.0,2,1.0,1750.0,,,,,,,,,,,3.0,2.0,,,A,,,,,,True,cue1.png,Easy,cue2.png,Hard,Left,Easy,Easy,0.0153401999996276,,,,,,,,,,,,,41,22,Female,1.5714285714285714,1.0,0.8,0.5,2.7222222222222223,2.75,2.3333333333333335,1.8888888888888888,1.75,2.3333333333333335,2.0,1.25,1.25,0.75,,,,,,,,,,,,,,,,,,,-0.0001083173038638279,-0.621207037323053,,,1.723,1.4405583519022298,,,,,,,,,,,,,,
2,240711_150734,TrueCHOICE,9.0,3,3.0,1750.0,,,,,,,,,,,4.0,3.0,,,A,,,,,,True,cue2.png,Hard,cue1.png,Easy,Left,Hard,Hard,0.015967899991665,,,,,,,,,,,,,41,22,Female,1.5714285714285714,1.0,0.8,0.5,2.7222222222222223,2.75,2.3333333333333335,1.8888888888888888,1.75,2.3333333333333335,2.0,1.25,1.25,0.75,1.0,1.0,0.351488212496406,0.0787284257963583,-1.0455791031545885,0.11749893032937747,,,,,,,,,,,,,,,-3.585365682031794e-05,-0.8872771558342967,1.5929999999999997,0.5285165381978928,,,,,,,,,,,,,,
3,240711_150751,TrueCHOICE,9.0,4,3.0,1750.0,,,,,,,,,,,5.0,4.0,,,A,,,,,,True,cue1.png,Easy,cue2.png,Hard,Right,Hard,Hard,0.016849200008437,,,,,,,,,,,,,41,22,Female,1.5714285714285714,1.0,0.8,0.5,2.7222222222222223,2.75,2.3333333333333335,1.8888888888888888,1.75,2.3333333333333335,2.0,1.25,1.25,0.75,1.0,1.0,0.3685131125002954,0.6828256634700346,-0.9982789845386156,0.6918846201563327,,,,,,,,,,,,,-3.06948990348244e-06,-0.4090868851727762,-2.8370982867018894e-05,-0.7777190824238032,1.5929999999999997,0.5285165381978928,,,,,,,,,,,,,,
4,240711_150807,TrueCHOICE,9.0,5,1.0,1750.0,,,,,,,,,,,6.0,5.0,,,A,,,,,,True,cue2.png,Hard,cue1.png,Easy,Right,Easy,Easy,0.0164356000022962,,,,,,,,,,,,,41,22,Female,1.5714285714285714,1.0,0.8,0.5,2.7222222222222223,2.75,2.3333333333333335,1.8888888888888888,1.75,2.3333333333333335,2.0,1.25,1.25,0.75,0.75,0.8333333333333334,0.2973690624985465,-1.8415899908454652,-1.2127812769356592,-1.9129089996705144,,,,,,,,,,,,,,,,,,,,,,,,,,,,,,,,
5,240711_150823,TrueCHOICE,9.0,6,3.0,1750.0,,,,,,,,,,,7.0,6.0,,,A,,,,,,True,cue2.png,Hard,cue1.png,Easy,Left,Hard,Hard,0.0160147999995388,,,,,,,,,,,,,41,22,Female,1.5714285714285714,1.0,0.8,0.5,2.7222222222222223,2.75,2.3333333333333335,1.8888888888888888,1.75,2.3333333333333335,2.0,1.25,1.25,0.75,1.0,1.0,0.3414578874962899,-0.2771791932883397,-1.074530923838062,-0.23407548389223165,,,,,,,,,,,,,-3.3424752736549955e-05,-0.4702659513065199,,,1.467,-0.3554624504693831,,,,,,,,,,,,,,
6,240711_150839,TrueCHOICE,9.0,7,3.0,1750.0,,,,,,,,,,,8.0,7.0,,,A,,,,,,True,cue1.png,Easy,cue2.png,Hard,Right,Hard,Hard,0.0149785999965388,,,,,,,,,,,,,41,22,Female,1.5714285714285714,1.0,0.8,0.5,2.7222222222222223,2.75,2.3333333333333335,1.8888888888888888,1.75,2.3333333333333335,2.0,1.25,1.25,0.75,,,,,,,,,,,,,,,,,,,,,2.8222736564044188e-05,0.050901662873755645,1.463,-0.38352527550643956,,,,,,,,,,,,,,
7,240711_150855,TrueCHOICE,9.0,8,1.0,1750.0,,,,,,,,,,,9.0,8.0,,,A,,,,,,True,cue2.png,Hard,cue1.png,Easy,Right,Easy,Easy,0.0166593000030843,,,,,,,,,,,,,41,22,Female,1.5714285714285714,1.0,0.8,0.5,2.7222222222222223,2.75,2.3333333333333335,1.8888888888888888,1.75,2.3333333333333335,2.0,1.25,1.25,0.75,1.0,1.0,0.3877074250012811,1.3639005102087405,-0.9475042830796091,1.3084636642824643,,,,,,,,,,,,,,,,,,,,,,,,,,,,,,,,
8,240711_150911,TrueCHOICE,9.0,9,3.0,1750.0,,,,,,,,,,,10.0,9.0,,,A,,,,,,True,cue1.png,Easy,cue2.png,Hard,Right,Hard,Hard,0.0172719000111101,,,,,,,,,,,,,41,22,Female,1.5714285714285714,1.0,0.8,0.5,2.7222222222222223,2.75,2.3333333333333335,1.8888888888888888,1.75,2.3333333333333335,2.0,1.25,1.25,0.75,0.75,0.8333333333333334,0.3444553749959596,-0.17081886705452104,-1.0657907324893896,-0.1279395801371931,,,,,,,,,,,,,0.0011898780643248945,1.9952216433213712,,,,,,,,,,,,,,,,,,
9,240711_150927,TrueCHOICE,9.0,10,3.0,1750.0,,,,,,,,,,,11.0,10.0,,,A,,,,,,True,cue2.png,Hard,cue1.png,Easy,Left,Hard,Hard,0.0166861999896354,,,,,,,,,,,,,41,22,Female,1.5714285714285714,1.0,0.8,0.5,2.7222222222222223,2.75,2.3333333333333335,1.8888888888888888,1.75,2.3333333333333335,2.0,1.25,1.25,0.75,0.75,0.8333333333333334,0.3223187499988853,-0.9562962565895886,-1.1322143162435554,-0.9345497344409331,,,,,,,,,,,,,-4.5529244038351475e-05,-0.49466176951902213,0.00013498677983631588,1.614094575384344,,,,,,,,,,,,,,,,
0,240711_151040,FalseCHOICE,9.0,1,2.0,1750.0,,,,,,,,,,,1.0,1.0,,,A,,,,,,False,cue1.png,Easy,cue2.png,Hard,Right,Hard,Mid,0.0164935000066179,,,,,,,,,,,,,41,22,Female,1.5714285714285714,1.0,0.8,0.5,2.7222222222222223,2.75,2.3333333333333335,1.8888888888888888,1.75,2.3333333333333335,2.0,1.25,1.25,0.75,1.0,1.0,0.4342361375001928,1.1838224818306184,-0.8341667972255219,1.1718058420025546,,,,,,,,,,,,,,,,,,,0.00011849019126642518,0.04183911042099136,-0.00015729836981318978,-0.3221532582318808,1.5890000000000002,0.1551358078389367,,,,,,,,
1,240711_151056,FalseCHOICE,9.0,2,2.0,1750.0,,,,,,,,,,,2.0,2.0,,,A,,,,,,False,cue2.png,Hard,cue1.png,Easy,Right,Easy,Mid,0.0166120000067167,,,,,,,,,,,,,41,22,Female,1.5714285714285714,1.0,0.8,0.5,2.7222222222222223,2.75,2.3333333333333335,1.8888888888888888,1.75,2.3333333333333335,2.0,1.25,1.25,0.75,,,,,,,,,,,,,,,,,,,,,,,,,-2.6497775769745643e-06,-0.2903918914813615,0.00020242264646512693,0.7304743224810165,1.5310000000000001,0.03473022244206251,,,,,,,,
2,240711_151113,FalseCHOICE,9.0,3,2.0,1750.0,,,,,,,,,,,3.0,3.0,,,A,,,,,,False,cue2.png,Hard,cue1.png,Easy,Right,Easy,Mid,0.0160001999902306,,,,,,,,,,,,,41,22,Female,1.5714285714285714,1.0,0.8,0.5,2.7222222222222223,2.75,2.3333333333333335,1.8888888888888888,1.75,2.3333333333333335,2.0,1.25,1.25,0.75,,,,,,,,,,,,,,,,,,,,,,,,,3.4883466324252526e-05,-0.18745553327517847,5.928788774909677e-05,0.31162863939585767,1.4660000000000002,-0.10020707153719284,,,,,,,,
3,240711_151129,FalseCHOICE,9.0,4,2.0,1750.0,,,,,,,,,,,4.0,4.0,,,A,,,,,,False,cue2.png,Hard,cue1.png,Easy,Left,Hard,Mid,0.0159539000014774,,,,,,,,,,,,,41,22,Female,1.5714285714285714,1.0,0.8,0.5,2.7222222222222223,2.75,2.3333333333333335,1.8888888888888888,1.75,2.3333333333333335,2.0,1.25,1.25,0.75,1.0,1.0,0.3900981999995565,0.27778304959210864,-0.9413567766827953,0.3387979023899427,,,,,,,,,,,,,,,,,,,-3.070548531816566e-05,-0.36733574395985225,-8.182299006715896e-05,-0.10129469620673905,1.463,-0.10643494664392794,,,,,,,,
4,240711_151145,FalseCHOICE,9.0,5,2.0,1750.0,,,,,,,,,,,5.0,5.0,,,A,,,,,,False,cue1.png,Easy,cue2.png,Hard,Right,Hard,Mid,0.0164725999929942,,,,,,,,,,,,,41,22,Female,1.5714285714285714,1.0,0.8,0.5,2.7222222222222223,2.75,2.3333333333333335,1.8888888888888888,1.75,2.3333333333333335,2.0,1.25,1.25,0.75,,,,,,,,,,,,,,,,,,,,,,,,,-8.600667892040689e-05,-0.519001384394509,-0.0003270136550020046,-0.8187797603656402,2.233,1.4920529974180214,,,,,,,,
5,240711_151201,FalseCHOICE,9.0,6,2.0,1750.0,,,,,,,,,,,6.0,6.0,,,A,,,,,,False,cue2.png,Hard,cue1.png,Easy,Right,Easy,Mid,0.0165401000122074,,,,,,,,,,,,,41,22,Female,1.5714285714285714,1.0,0.8,0.5,2.7222222222222223,2.75,2.3333333333333335,1.8888888888888888,1.75,2.3333333333333335,2.0,1.25,1.25,0.75,1.0,1.0,0.3435315624974464,-0.6781114074848712,-1.068476286541057,-0.6490888527689651,,,,,,,,,,,,,,,,,,,7.638184080043442e-05,-0.0736446526783397,-0.00047480577399773875,-1.2512539657274628,1.977,0.960607654976646,,,,,,,,
6,240711_151217,FalseCHOICE,9.0,7,2.0,1750.0,,,,,,,,,,,7.0,7.0,,,A,,,,,,False,cue2.png,Hard,cue1.png,Easy,Right,Easy,Mid,0.014677400002256,,,,,,,,,,,,,41,22,Female,1.5714285714285714,1.0,0.8,0.5,2.7222222222222223,2.75,2.3333333333333335,1.8888888888888888,1.75,2.3333333333333335,2.0,1.25,1.25,0.75,0.75,0.8333333333333334,0.3710833874993113,-0.11254261801742908,-0.9913284774812919,-0.04954831926118045,,,,,,,,,,,,,,,,,,,1.2465544991147829e-05,-0.24893754070984772,-0.0002215383848951794,-0.5101345231585773,,,,,,,,,,
7,240711_151236,FalseCHOICE,9.0,8,2.0,1750.0,,,,,,,,,,,8.0,8.0,,,A,,,,,,False,cue1.png,Easy,cue2.png,Hard,Right,Hard,Mid,0.0165837000095052,,,,,,,,,,,,,41,22,Female,1.5714285714285714,1.0,0.8,0.5,2.7222222222222223,2.75,2.3333333333333335,1.8888888888888888,1.75,2.3333333333333335,2.0,1.25,1.25,0.75,,,,,,,,,,,,,,,,,,,,,,,,,,,0.0006665068947282059,2.0884930575280927,,,,,,,,,,
8,240711_151253,FalseCHOICE,9.0,9,2.0,1750.0,,,,,,,,,,,9.0,9.0,,,A,,,,,,False,cue1.png,Easy,cue2.png,Hard,Left,Easy,Mid,0.0151064000092446,,,,,,,,,,,,,41,22,Female,1.5714285714285714,1.0,0.8,0.5,2.7222222222222223,2.75,2.3333333333333335,1.8888888888888888,1.75,2.3333333333333335,2.0,1.25,1.25,0.75,0.1666666666666666,0.5416666666666667,0.314861228573136,-1.2666403361530088,-1.1556232814368819,-1.326336287922531,,,,,,,,,,,,,,,,,,,-7.536857232655738e-05,-0.4898259698243804,-0.0003226300845525546,-0.8059524109801958,,,,,,,,,,
9,240711_151310,FalseCHOICE,9.0,10,2.0,1750.0,,,,,,,,,,,10.0,10.0,,,A,,,,,,False,cue2.png,Hard,cue1.png,Easy,Right,Easy,Mid,0.0173101999971549,,,,,,,,,,,,,41,22,Female,1.5714285714285714,1.0,0.8,0.5,2.7222222222222223,2.75,2.3333333333333335,1.8888888888888888,1.75,2.3333333333333335,2.0,1.25,1.25,0.75,,,,,,,,,,,,,,,,,,,,,,,,,6.110635710987553e-05,-0.11553825145925053,-0.00031785033910204565,-0.7919657611534868,,,,,,,,,,
10,240711_151328,FalseCHOICE,9.0,11,2.0,1750.0,,,,,,,,,,,11.0,11.0,,,A,,,,,,False,cue1.png,Easy,cue2.png,Hard,Right,Hard,Mid,0.0165125999919837,,,,,,,,,,,,,41,22,Female,1.5714285714285714,1.0,0.8,0.5,2.7222222222222223,2.75,2.3333333333333335,1.8888888888888888,1.75,2.3333333333333335,2.0,1.25,1.25,0.75,0.75,0.8333333333333334,0.4698877250011719,1.9156587643330119,-0.7552614957913458,1.7850044162069183,,,,,,,,,,,,,,,,,,,-1.5965422753186354e-05,-0.32691055811225617,-0.00019728349356205313,-0.4391590548676469,,,,,,,,,,
11,240711_151345,FalseCHOICE,9.0,12,2.0,1750.0,,,,,,,,,,,12.0,12.0,,,A,,,,,,False,cue2.png,Hard,cue1.png,Easy,Right,Easy,Mid,0.0166456000006292,,,,,,,,,,,,,41,22,Female,1.5714285714285714,1.0,0.8,0.5,2.7222222222222223,2.75,2.3333333333333335,1.8888888888888888,1.75,2.3333333333333335,2.0,1.25,1.25,0.75,,,,,,,,,,,,,,,,,,,,,,,,,-7.438548587237245e-05,-0.48712981759032536,-0.00023307919737439306,-0.5439056317947678,,,,,,,,,,
12,240711_151402,FalseCHOICE,9.0,13,2.0,1750.0,,,,,,,,,,,13.0,13.0,,,A,,,,,,False,cue1.png,Easy,cue2.png,Hard,Right,Hard,Mid,0.0165114999981597,,,,,,,,,,,,,41,22,Female,1.5714285714285714,1.0,0.8,0.5,2.7222222222222223,2.75,2.3333333333333335,1.8888888888888888,1.75,2.3333333333333335,2.0,1.25,1.25,0.75,1.0,1.0,0.3611108750010317,-0.3172528984151587,-1.0185702348380838,-0.2612528114357811,,,,,,,,,,,,,,,,,,,,,,,,,,,,,,,,
13,240711_151418,FalseCHOICE,9.0,14,2.0,1750.0,,,,,,,,,,,14.0,14.0,,,A,,,,,,False,cue2.png,Hard,cue1.png,Easy,Right,Easy,Mid,0.0162505000043893,,,,,,,,,,,,,41,22,Female,1.5714285714285714,1.0,0.8,0.5,2.7222222222222223,2.75,2.3333333333333335,1.8888888888888888,1.75,2.3333333333333335,2.0,1.25,1.25,0.75,1.0,1.0,0.3418738250020396,-0.7121405358082593,-1.0733135427345337,-0.6866807324904506,,,,,,,,,,,,,,,,,,,-4.653421457253941e-05,-0.4107466398782739,-0.0004587828075336142,-1.2043670292913502,,,,,,,,,,
14,240711_151436,FalseCHOICE,9.0,15,2.0,1750.0,,,,,,,,,,,15.0,15.0,,,A,,,,,,False,cue1.png,Easy,cue2.png,Hard,Left,Easy,Mid,0.0159420999989379,,,,,,,,,,,,,41,22,Female,1.5714285714285714,1.0,0.8,0.5,2.7222222222222223,2.75,2.3333333333333335,1.8888888888888888,1.75,2.3333333333333335,2.0,1.25,1.25,0.75,,,,,,,,,,,,,,,,,,,,,,,,,-7.59926414609308e-05,-0.49153750331533946,0.00017777657929014638,0.6583541824544603,,,,,,,,,,
15,240711_151452,FalseCHOICE,9.0,16,2.0,1750.0,,,,,,,,,,,16.0,16.0,,,A,,,,,,False,cue1.png,Easy,cue2.png,Hard,Right,Hard,Mid,0.0156808999890927,,,,,,,,,,,,,41,22,Female,1.5714285714285714,1.0,0.8,0.5,2.7222222222222223,2.75,2.3333333333333335,1.8888888888888888,1.75,2.3333333333333335,2.0,1.25,1.25,0.75,0.75,0.8333333333333334,0.3296145874992362,-0.9637914559845115,-1.109831223736755,-0.9704714223022377,,,,,,,,,,,,,,,,,,,-0.0006450605263578061,-2.0522279620866,-0.00012318523403649423,-0.2223302677525833,,,,,,,,,,
16,240711_151509,FalseCHOICE,9.0,17,2.0,1750.0,,,,,,,,,,,17.0,17.0,,,A,,,,,,False,cue2.png,Hard,cue1.png,Easy,Right,Easy,Mid,0.0165789000020595,,,,,,,,,,,,,41,22,Female,1.5714285714285714,1.0,0.8,0.5,2.7222222222222223,2.75,2.3333333333333335,1.8888888888888888,1.75,2.3333333333333335,2.0,1.25,1.25,0.75,1.0,1.0,0.3459877875047823,-0.6276913643855623,-1.061351800776292,-0.5937221735536575,,,,,,,,,,,,,,,,,,,7.393434407460854e-05,-0.08035700614134095,-0.0003435156785448639,-0.8670685295304301,,,,,,,,,,
17,240711_151526,FalseCHOICE,9.0,18,2.0,1750.0,,,,,,,,,,,18.0,18.0,,,A,,,,,,False,cue2.png,Hard,cue1.png,Easy,Left,Hard,Mid,0.0136706999910529,,,,,,,,,,,,,41,22,Female,1.5714285714285714,1.0,0.8,0.5,2.7222222222222223,2.75,2.3333333333333335,1.8888888888888888,1.75,2.3333333333333335,2.0,1.25,1.25,0.75,0.1666666666666666,0.6666666666666667,0.4163668625005812,0.8170117812869306,-0.8761885263384541,0.8452414171882371,,,,,,,,,,,,,,,,,,,2.4269853101486095e-05,-0.21656377383748296,-0.00012011685786920663,-0.21335148354057024,0.48099999999999987,-2.145026064915142,,,,,,,,
18,240711_151542,FalseCHOICE,9.0,19,2.0,1750.0,,,,,,,,,,,19.0,19.0,,,A,,,,,,False,cue1.png,Easy,cue2.png,Hard,Right,Hard,Mid,0.0156576000008499,,,,,,,,,,,,,41,22,Female,1.5714285714285714,1.0,0.8,0.5,2.7222222222222223,2.75,2.3333333333333335,1.8888888888888888,1.75,2.3333333333333335,2.0,1.25,1.25,0.75,1.0,1.0,0.4248293875007221,0.9907258644681239,-0.8560676318315714,1.0016073849886329,,,,,,,,,,,,,,,,,,,,,-0.00031884881903550787,-0.7948875462847106,,,,,,,,,,
19,240711_151559,FalseCHOICE,9.0,20,2.0,1750.0,,,,,,,,,,,20.0,20.0,,,A,,,,,,False,cue1.png,Easy,cue2.png,Hard,Right,Hard,Mid,0.0161681000026874,,,,,,,,,,,,,41,22,Female,1.5714285714285714,1.0,0.8,0.5,2.7222222222222223,2.75,2.3333333333333335,1.8888888888888888,1.75,2.3333333333333335,2.0,1.25,1.25,0.75,1.0,1.0,0.3906940250017214,0.29001381924842046,-0.939830570097378,0.35065854654323675,,,,,,,,,,,,,,,,,,,-7.419600898263485e-05,-0.48661016996687056,0.00010722900682132771,0.45191553368903736,1.945,0.8941769871714741,,,,,,,,
20,240711_151614,FalseCHOICE,9.0,21,2.0,1750.0,,,,,,,,,,,21.0,21.0,,,A,,,,,,False,cue1.png,Easy,cue2.png,Hard,Left,Easy,Mid,0.0158936000079847,,,,,,,,,,,,,41,22,Female,1.5714285714285714,1.0,0.8,0.5,2.7222222222222223,2.75,2.3333333333333335,1.8888888888888888,1.75,2.3333333333333335,2.0,1.25,1.25,0.75,0.1666666666666666,0.6666666666666667,0.3095382749997952,-1.3759070148090313,-1.1726735272991367,-1.4588392536616628,,,,,,,,,,,,,,,,,,,-9.725532541156497e-06,-0.3097974203370328,-2.917756468322338e-05,0.05275809540057143,1.216,-0.619196663765099,,,,,,,,
21,240711_151630,FalseCHOICE,9.0,22,2.0,1750.0,,,,,,,,,,,22.0,22.0,,,A,,,,,,False,cue2.png,Hard,cue1.png,Easy,Right,Easy,Mid,0.016967299990938,,,,,,,,,,,,,41,22,Female,1.5714285714285714,1.0,0.8,0.5,2.7222222222222223,2.75,2.3333333333333335,1.8888888888888888,1.75,2.3333333333333335,2.0,1.25,1.25,0.75,0.75,0.8333333333333334,0.2839644750019943,-1.900871989211261,-1.2589061366662369,-2.1289807036368464,,,,,,,,,,,,,,,,,,,0.0018643394917537796,4.829897649723135,,,2.5500000000000003,2.150131800363006,,,,,,,,
22,240711_151646,FalseCHOICE,9.0,23,2.0,1750.0,,,,,,,,,,,23.0,23.0,,,A,,,,,,False,cue1.png,Easy,cue2.png,Hard,Right,Hard,Mid,0.0165264000097522,,,,,,,,,,,,,41,22,Female,1.5714285714285714,1.0,0.8,0.5,2.7222222222222223,2.75,2.3333333333333335,1.8888888888888888,1.75,2.3333333333333335,2.0,1.25,1.25,0.75,1.0,1.0,0.3372433625027042,-0.8071921365732267,-1.0869504653252984,-0.7926576610009891,,,,,,,,,,,,,,,,,,,-0.00013903505309335136,-0.664433730538703,1.9293819671430644e-05,0.1945966695681936,1.528,0.028502347335327402,,,,,,,,
23,240711_151703,FalseCHOICE,9.0,24,2.0,1750.0,,,,,,,,,,,24.0,24.0,,,A,,,,,,False,cue2.png,Hard,cue1.png,Easy,Right,Easy,Mid,0.0166656999936094,,,,,,,,,,,,,41,22,Female,1.5714285714285714,1.0,0.8,0.5,2.7222222222222223,2.75,2.3333333333333335,1.8888888888888888,1.75,2.3333333333333335,2.0,1.25,1.25,0.75,1.0,1.0,0.337702562499544,-0.7977659302758741,-1.0855897635248117,-0.7820832079691891,,,,,,,,,,,,,,,,,,,3.7476049805713636e-05,-0.18034527383079324,-4.5824918213348536e-05,0.0040440568020314325,1.811,0.6159985657373164,,,,,,,,
24,240711_151719,FalseCHOICE,9.0,25,2.0,1750.0,,,,,,,,,,,25.0,25.0,,,A,,,,,,False,cue2.png,Hard,cue1.png,Easy,Left,Hard,Mid,0.0161361000064061,,,,,,,,,,,,,41,22,Female,1.5714285714285714,1.0,0.8,0.5,2.7222222222222223,2.75,2.3333333333333335,1.8888888888888888,1.75,2.3333333333333335,2.0,1.25,1.25,0.75,1.0,1.0,0.3669293375023699,-0.1978146835883435,-1.002585990331416,-0.13703408641894316,,,,,,,,,,,,,,,,,,,2.976682633094906e-05,-0.2014881143264941,-0.0001258617634204112,-0.2301624168976299,0.9170000000000003,-1.2399082160696735,,,,,,,,
25,240711_151736,FalseCHOICE,9.0,26,2.0,1750.0,,,,,,,,,,,26.0,26.0,,,A,,,,,,False,cue1.png,Easy,cue2.png,Hard,Right,Hard,Mid,0.0163388000073609,,,,,,,,,,,,,41,22,Female,1.5714285714285714,1.0,0.8,0.5,2.7222222222222223,2.75,2.3333333333333335,1.8888888888888888,1.75,2.3333333333333335,2.0,1.25,1.25,0.75,0.75,0.8333333333333334,0.3782438875005027,0.03444420835001902,-0.972216086390041,0.09898024287311423,,,,,,,,,,,,,,,,,,,,,-5.7327330353868205e-05,-0.029614683488166368,1.77,0.53088427261194,,,,,,,,
26,240711_151752,FalseCHOICE,9.0,27,2.0,1750.0,,,,,,,,,,,27.0,27.0,,,A,,,,,,False,cue1.png,Easy,cue2.png,Hard,Right,Hard,Mid,0.0165341000101761,,,,,,,,,,,,,41,22,Female,1.5714285714285714,1.0,0.8,0.5,2.7222222222222223,2.75,2.3333333333333335,1.8888888888888888,1.75,2.3333333333333335,2.0,1.25,1.25,0.75,0.75,0.8333333333333334,0.3042773749984917,-1.4838998916890591,-1.1898155758177769,-1.5920556474845926,,,,,,,,,,,,,,,,,,,-0.0002474854086473464,-0.9618629822248057,-8.287075600614102e-05,-0.10436070368362979,0.78,-1.5243145126105662,,,,,,,,
27,240711_151808,FalseCHOICE,9.0,28,2.0,1750.0,,,,,,,,,,,28.0,28.0,,,A,,,,,,False,cue2.png,Hard,cue1.png,Easy,Right,Easy,Mid,0.0168476999970152,,,,,,,,,,,,,41,22,Female,1.5714285714285714,1.0,0.8,0.5,2.7222222222222223,2.75,2.3333333333333335,1.8888888888888888,1.75,2.3333333333333335,2.0,1.25,1.25,0.75,1.0,1.0,0.3560459625005023,-0.4212226511080935,-1.0326954483163677,-0.3710244060914525,,,,,,,,,,,,,,,,,,,0.0005683985294749581,1.2757299508625237,0.00011480524676008973,0.47408537853198995,1.146,-0.7645137495889126,,,,,,,,
28,240711_151824,FalseCHOICE,9.0,29,2.0,1750.0,,,,,,,,,,,29.0,29.0,,,A,,,,,,False,cue1.png,Easy,cue2.png,Hard,Right,Hard,Mid,0.0140795000042999,,,,,,,,,,,,,41,22,Female,1.5714285714285714,1.0,0.8,0.5,2.7222222222222223,2.75,2.3333333333333335,1.8888888888888888,1.75,2.3333333333333335,2.0,1.25,1.25,0.75,0.75,0.8333333333333334,0.3708816750022379,-0.11668326179629082,-0.9918722025493235,-0.053773782321533486,,,,,,,,,,,,,,,,,,,9.861211940349977e-05,-0.012677262613939493,-0.0002824168960262668,-0.68827924362089,1.938,0.8796452785890925,,,,,,,,
29,240711_151840,FalseCHOICE,9.0,30,2.0,1750.0,,,,,,,,,,,30.0,30.0,,,A,,,,,,False,cue1.png,Easy,cue2.png,Hard,Left,Easy,Mid,0.0164878999930806,,,,,,,,,,,,,41,22,Female,1.5714285714285714,1.0,0.8,0.5,2.7222222222222223,2.75,2.3333333333333335,1.8888888888888888,1.75,2.3333333333333335,2.0,1.25,1.25,0.75,0.1666666666666666,0.6666666666666667,0.2891208375021961,-1.795025000959229,-1.2409105554137339,-1.9891312313524139,,,,,,,,,,,,,,,,,,,0.00033472816064510644,0.6348800192302048,0.0012587900632546945,3.8216517293045564,1.748,0.4852131884958843,,,,,,,,
30,240711_151856,FalseCHOICE,9.0,31,2.0,1750.0,,,,,,,,,,,31.0,31.0,,,A,,,,,,False,cue2.png,Hard,cue1.png,Easy,Right,Easy,Mid,0.0164959000103408,,,,,,,,,,,,,41,22,Female,1.5714285714285714,1.0,0.8,0.5,2.7222222222222223,2.75,2.3333333333333335,1.8888888888888888,1.75,2.3333333333333335,2.0,1.25,1.25,0.75,0.75,0.8333333333333334,0.362241474998882,-0.2940445602338291,-1.0154442315327077,-0.236959630433059,,,,,,,,,,,,,,,,,,,,,,,0.9980000000000002,-1.071755588187832,,,,,,,,
31,240711_151914,FalseCHOICE,9.0,32,2.0,1750.0,,,,,,,,,,,32.0,32.0,,,A,,,,,,False,cue1.png,Easy,cue2.png,Hard,Right,Hard,Mid,0.0154942999943159,,,,,,,,,,,,,41,22,Female,1.5714285714285714,1.0,0.8,0.5,2.7222222222222223,2.75,2.3333333333333335,1.8888888888888888,1.75,2.3333333333333335,2.0,1.25,1.25,0.75,0.75,0.8333333333333334,0.3804277000017464,0.0792723165667588,-0.9664591328711942,0.1437193874597746,,,,,,,,,,,,,,,,,,,-5.7233793757048654e-05,-0.4400906453815141,,,1.2939999999999998,-0.4572719109899927,,,,,,,,
32,240711_151931,FalseCHOICE,9.0,33,2.0,1750.0,,,,,,,,,,,33.0,33.0,,,A,,,,,,False,cue2.png,Hard,cue1.png,Easy,Right,Easy,Mid,0.0165119000012055,,,,,,,,,,,,,41,22,Female,1.5714285714285714,1.0,0.8,0.5,2.7222222222222223,2.75,2.3333333333333335,1.8888888888888888,1.75,2.3333333333333335,2.0,1.25,1.25,0.75,1.0,1.0,0.3662202499999694,-0.21237044388124612,-1.0045203506191125,-0.1520666247763627,,,,,,,,,,,,,,,,,,,7.037782088630418e-05,-0.09011090713224157,0.0002998898511405697,1.0156860927518447,1.482,-0.06699173763460732,,,,,,,,
33,240711_151947,FalseCHOICE,9.0,34,2.0,1750.0,,,,,,,,,,,34.0,34.0,,,A,,,,,,False,cue2.png,Hard,cue1.png,Easy,Left,Hard,Mid,0.0149801000079605,,,,,,,,,,,,,41,22,Female,1.5714285714285714,1.0,0.8,0.5,2.7222222222222223,2.75,2.3333333333333335,1.8888888888888888,1.75,2.3333333333333335,2.0,1.25,1.25,0.75,0.75,0.8333333333333334,0.3318211250007152,-0.918496861396258,-1.1031592353781383,-0.9186212465314145,,,,,,,,,,,,,,,,,,,,,-0.0002082653140110676,-0.4712944224663132,1.3519999999999999,-0.33686632559311847,,,,,,,,
34,240711_152003,FalseCHOICE,9.0,35,2.0,1750.0,,,,,,,,,,,35.0,35.0,,,A,,,,,,False,cue2.png,Hard,cue1.png,Easy,Left,Hard,Mid,0.0156820999982301,,,,,,,,,,,,,41,22,Female,1.5714285714285714,1.0,0.8,0.5,2.7222222222222223,2.75,2.3333333333333335,1.8888888888888888,1.75,2.3333333333333335,2.0,1.25,1.25,0.75,1.0,1.0,0.4065187249962037,0.6148546027159031,-0.9001252871038824,0.6592211206347012,,,,,,,,,,,,,,,,,,,0.00018074777005559024,0.21258290352760428,,,1.851,0.6990369004937814,,,,,,,,
35,240711_152021,FalseCHOICE,9.0,36,2.0,1750.0,,,,,,,,,,,36.0,36.0,,,A,,,,,,False,cue1.png,Easy,cue2.png,Hard,Left,Easy,Mid,0.0163562999950954,,,,,,,,,,,,,41,22,Female,1.5714285714285714,1.0,0.8,0.5,2.7222222222222223,2.75,2.3333333333333335,1.8888888888888888,1.75,2.3333333333333335,2.0,1.25,1.25,0.75,0.75,0.8333333333333334,0.3774865874984243,0.01889876824177986,-0.9742202407297548,0.08340531240252742,,,,,,,,,,,,,,,,,,,-5.7710347297249e-05,-0.441397611708421,0.0002092382310590387,0.7504183123998115,1.9709999999999999,0.9481519047631758,,,,,,,,
36,240711_152041,FalseCHOICE,9.0,37,2.0,1750.0,,,,,,,,,,,37.0,37.0,,,A,,,,,,False,cue2.png,Hard,cue1.png,Easy,Left,Hard,Mid,0.0164924999990034,,,,,,,,,,,,,41,22,Female,1.5714285714285714,1.0,0.8,0.5,2.7222222222222223,2.75,2.3333333333333335,1.8888888888888888,1.75,2.3333333333333335,2.0,1.25,1.25,0.75,0.75,0.7083333333333334,0.4401022714279991,1.304239269617952,-0.8207481440150401,1.276086528684607,,,,,,,,,,,,,,,,,,,0.00015579004955725874,0.14413539965645453,0.00018957308097163192,0.6928734973233208,1.083,-0.8952991268303447,,,,,,,,
37,240711_152100,FalseCHOICE,9.0,38,2.0,1750.0,,,,,,,,,,,38.0,38.0,,,A,,,,,,False,cue1.png,Easy,cue2.png,Hard,Right,Hard,Mid,0.0172045999934198,,,,,,,,,,,,,41,22,Female,1.5714285714285714,1.0,0.8,0.5,2.7222222222222223,2.75,2.3333333333333335,1.8888888888888888,1.75,2.3333333333333335,2.0,1.25,1.25,0.75,1.0,1.0,0.4975094624987832,2.4826626792625697,-0.6981407024663127,2.2289085441640495,,,,,,,,,,,,,,,,,,,0.00011806155112670247,0.04066354842906337,-0.0006745451671978267,-1.8357380095360099,1.4499999999999997,-0.13342240543977976,,,,,,,,
38,240711_152119,FalseCHOICE,9.0,39,2.0,1750.0,,,,,,,,,,,39.0,39.0,,,A,,,,,,False,cue1.png,Easy,cue2.png,Hard,Left,Easy,Mid,0.0161040000093635,,,,,,,,,,,,,41,22,Female,1.5714285714285714,1.0,0.8,0.5,2.7222222222222223,2.75,2.3333333333333335,1.8888888888888888,1.75,2.3333333333333335,2.0,1.25,1.25,0.75,1.0,0.875,0.4783724714278443,2.0898289968002444,-0.7373656210033749,1.9240790373624823,,,,,,,,,,,,,,,,,,,0.00041853403000232823,0.864720824108078,0.0007311549169300097,2.2776682464347866,2.009,1.0270383227818176,,,,,,,,
39,240711_152136,FalseCHOICE,9.0,40,2.0,1750.0,,,,,,,,,,,40.0,40.0,,,A,,,,,,False,cue2.png,Hard,cue1.png,Easy,Right,Easy,Mid,0.0166203999979188,,,,,,,,,,,,,41,22,Female,1.5714285714285714,1.0,0.8,0.5,2.7222222222222223,2.75,2.3333333333333335,1.8888888888888888,1.75,2.3333333333333335,2.0,1.25,1.25,0.75,0.75,0.8333333333333334,0.4036841624983935,0.5566682546083714,-0.9071224827612754,0.604843653942914,,,,,,,,,,,,,,,,,,,2.4231537175014098e-05,-0.2166688567326013,,,1.2590000000000001,-0.5299304539018989,,,,,,,,
40,240711_152154,FalseCHOICE,9.0,41,2.0,1750.0,,,,,,,,,,,41.0,41.0,,,A,,,,,,False,cue2.png,Hard,cue1.png,Easy,Right,Easy,Mid,0.0168353000044589,,,,,,,,,,,,,41,22,Female,1.5714285714285714,1.0,0.8,0.5,2.7222222222222223,2.75,2.3333333333333335,1.8888888888888888,1.75,2.3333333333333335,2.0,1.25,1.25,0.75,0.75,0.8333333333333334,0.3993720124999527,0.4681507987064438,-0.9178619343166196,0.5213839083773066,,,,,,,,,,,,,,,,,,,-8.72318603480169e-06,-0.30704844667260933,-0.0002449372146432448,-0.5786049556177211,2.3529999999999998,1.7411680016874154,,,,,,,,
41,240711_152210,FalseCHOICE,9.0,42,2.0,1750.0,,,,,,,,,,,42.0,42.0,,,A,,,,,,False,cue1.png,Easy,cue2.png,Hard,Right,Hard,Mid,0.0163890999974682,,,,,,,,,,,,,41,22,Female,1.5714285714285714,1.0,0.8,0.5,2.7222222222222223,2.75,2.3333333333333335,1.8888888888888888,1.75,2.3333333333333335,2.0,1.25,1.25,0.75,1.0,1.0,0.4462966749979387,1.4313945970159148,-0.806771357524926,1.384704649291452,,,,,,,,,,,,,,,,,,,0.00023352143918257224,0.3573167113329031,-0.00010681645202420759,-0.17443139437822638,,,,,,,,,,
42,240711_152233,FalseCHOICE,9.0,43,2.0,1750.0,,,,,,,,,,,44.0,43.0,,,A,,,,,,False,cue2.png,Hard,cue1.png,Easy,Left,Hard,Mid,0.0161240000015823,,,,,,,,,,,,,41,22,Female,1.5714285714285714,1.0,0.8,0.5,2.7222222222222223,2.75,2.3333333333333335,1.8888888888888888,1.75,2.3333333333333335,2.0,1.25,1.25,0.75,1.0,1.0,0.3849168125016149,0.1714223618781651,-0.954728039465523,0.23488550202327746,,,,,,,,,,,,,,,,,,,,,-0.00015535789029278704,-0.3164749626345946,1.0699999999999998,-0.922286585626196,,,,,,,,
43,240711_152251,FalseCHOICE,9.0,44,2.0,1750.0,,,,,,,,,,,45.0,44.0,,,A,,,,,,False,cue1.png,Easy,cue2.png,Hard,Right,Hard,Mid,0.0165501000010408,,,,,,,,,,,,,41,22,Female,1.5714285714285714,1.0,0.8,0.5,2.7222222222222223,2.75,2.3333333333333335,1.8888888888888888,1.75,2.3333333333333335,2.0,1.25,1.25,0.75,1.0,1.0,0.3805723125005897,0.08224084282253767,-0.9660790737431832,0.14667294965615124,,,,,,,,,,,,,,,,,,,,,6.948822349285653e-05,0.3414772005044079,1.849,0.6948849837559581,,,,,,,,
44,240711_152307,FalseCHOICE,9.0,45,2.0,1750.0,,,,,,,,,,,46.0,45.0,,,A,,,,,,False,cue2.png,Hard,cue1.png,Easy,Right,Easy,Mid,0.0155268000089563,,,,,,,,,,,,,41,22,Female,1.5714285714285714,1.0,0.8,0.5,2.7222222222222223,2.75,2.3333333333333335,1.8888888888888888,1.75,2.3333333333333335,2.0,1.25,1.25,0.75,1.0,1.0,0.4155046500000026,0.7993127548092679,-0.8782614734135105,0.8291318761596657,,,,,,,,,,,,,,,,,,,0.0001241686658046172,0.0574125442192065,,,2.078,1.1702794502367193,,,,,,,,
45,240711_152324,FalseCHOICE,9.0,46,2.0,1750.0,,,,,,,,,,,47.0,46.0,,,A,,,,,,False,cue2.png,Hard,cue1.png,Easy,Right,Easy,Mid,0.015920100006042,,,,,,,,,,,,,41,22,Female,1.5714285714285714,1.0,0.8,0.5,2.7222222222222223,2.75,2.3333333333333335,1.8888888888888888,1.75,2.3333333333333335,2.0,1.25,1.25,0.75,1.0,1.0,0.3874589250026474,0.22360545645726004,-0.9481454358002998,0.28604104048141976,,,,,,,,,,,,,,,,,,,,,,,0.7789999999999999,-1.526390470979478,,,,,,,,
46,240711_152341,FalseCHOICE,9.0,47,2.0,1750.0,,,,,,,,,,,48.0,47.0,,,A,,,,,,False,cue1.png,Easy,cue2.png,Hard,Right,Hard,Mid,0.0163345000037224,,,,,,,,,,,,,41,22,Female,1.5714285714285714,1.0,0.8,0.5,2.7222222222222223,2.75,2.3333333333333335,1.8888888888888888,1.75,2.3333333333333335,2.0,1.25,1.25,0.75,1.0,1.0,0.4261216124996281,1.0172519522427588,-0.8530304981018616,1.0252099318248509,,,,,,,,,,,,,,,,,,,-4.517733045758445e-05,-0.40702533325023915,-0.00020422636448766667,-0.45947551427622396,1.4929999999999999,-0.04415619557657968,,,,,,,,
47,240711_152357,FalseCHOICE,9.0,48,2.0,1750.0,,,,,,,,,,,49.0,48.0,,,A,,,,,,False,cue1.png,Easy,cue2.png,Hard,Left,Easy,Mid,0.0161254999984521,,,,,,,,,,,,,41,22,Female,1.5714285714285714,1.0,0.8,0.5,2.7222222222222223,2.75,2.3333333333333335,1.8888888888888888,1.75,2.3333333333333335,2.0,1.25,1.25,0.75,0.75,0.8333333333333334,0.3209462125032587,-1.141731115255467,-1.1364817321873952,-1.1775811283260689,,,,,,,,,,,,,,,,,,,0.00022267425280828208,0.32756788746114984,,,0.5830000000000002,-1.9332783112861556,,,,,,,,
48,240711_152414,FalseCHOICE,9.0,49,2.0,1750.0,,,,,,,,,,,50.0,49.0,,,A,,,,,,False,cue2.png,Hard,cue1.png,Easy,Right,Easy,Mid,0.0168651999993016,,,,,,,,,,,,,41,22,Female,1.5714285714285714,1.0,0.8,0.5,2.7222222222222223,2.75,2.3333333333333335,1.8888888888888888,1.75,2.3333333333333335,2.0,1.25,1.25,0.75,0.75,0.8333333333333334,0.3738168875006522,-0.05643082554404613,-0.9839892070767989,0.007487520738616233,,,,,,,,,,,,,,,,,,,0.0009383785916262776,2.29041443448929,-7.833389455664608e-05,-0.0910847890845324,1.722,0.43123827090418204,,,,,,,,
49,240711_152432,FalseCHOICE,9.0,50,2.0,1750.0,,,,,,,,,,,51.0,50.0,,,A,,,,,,False,cue1.png,Easy,cue2.png,Hard,Right,Hard,Mid,0.0169619999942369,,,,,,,,,,,,,41,22,Female,1.5714285714285714,1.0,0.8,0.5,2.7222222222222223,2.75,2.3333333333333335,1.8888888888888888,1.75,2.3333333333333335,2.0,1.25,1.25,0.75,0.75,0.8333333333333334,0.3448212874991441,-0.6516366382851286,-1.0647290034117405,-0.6199675056570237,,,,,,,,,,,,,,,,,,,,,,,1.2630000000000001,-0.5216266204262523,,,,,,,,
0,240711_144916,OFFLINERATING,9.0,1,1.0,,,,,,,,,,,,,,,,,T0,cue1.png,Easy,63.0,1.8756502000032924,,,,,,,,,,,,,,,,,,,,,,41,22,Female,1.5714285714285714,1.0,0.8,0.5,2.7222222222222223,2.75,2.3333333333333335,1.8888888888888888,1.75,2.3333333333333335,2.0,1.25,1.25,0.75,,,,,,,,,,,,,,,,,,,,,,,,,,,,,,,-1.7242487372375161,0.0001566058194879096,1.3639489275161831,,,1.452,0.08764987177054175,
1,240711_144923,OFFLINERATING,9.0,2,3.0,,,,,,,,,,,,,,,,,T0,cue2.png,Hard,76.0,1.4186824999924283,,,,,,,,,,,,,,,,,,,,,,41,22,Female,1.5714285714285714,1.0,0.8,0.5,2.7222222222222223,2.75,2.3333333333333335,1.8888888888888888,1.75,2.3333333333333335,2.0,1.25,1.25,0.75,,,,,,,,,,,,,,,,,,,,,,,,,,,,,,,1.1221301305831455,-0.0001985958198986778,-0.3583504653500764,0.00013261204206712132,0.3488982464563344,1.118,-1.6601147354749057,
2,240711_150539,OFFLINERATING,9.0,3,1.0,,,,,,,,,,,,,,,,,T1,cue1.png,Easy,71.0,0.484923299998627,,,,,,,,,,,,,,,,,,,,,,41,22,Female,1.5714285714285714,1.0,0.8,0.5,2.7222222222222223,2.75,2.3333333333333335,1.8888888888888888,1.75,2.3333333333333335,2.0,1.25,1.25,0.75,,,,,,,,,,,,,,,,,,,,,,,,,,,,,,,0.027369027575198667,-0.00033208222215312666,-1.0055984621661065,,,1.5859999999999999,0.7888488459348827,
3,240711_150546,OFFLINERATING,9.0,4,3.0,,,,,,,,,,,,,,,,,T1,cue2.png,Hard,74.0,0.9351889999961712,,,,,,,,,,,,,,,,,,,,,,41,22,Female,1.5714285714285714,1.0,0.8,0.5,2.7222222222222223,2.75,2.3333333333333335,1.8888888888888888,1.75,2.3333333333333335,2.0,1.25,1.25,0.75,,,,,,,,,,,,,,,,,,,,,,,,,,,,,,,0.6842256893799668,,,-0.00016909460526883793,-1.361336864429824,1.585,0.7836160177694778,
4,240711_150948,OFFLINERATING,9.0,5,1.0,,,,,,,,,,,,,,,,,T2,cue1.png,Easy,72.0,2.220634600002086,,,,,,,,,,,,,,,,,,,,,,41,22,Female,1.5714285714285714,1.0,0.8,0.5,2.7222222222222223,2.75,2.3333333333333335,1.8888888888888888,1.75,2.3333333333333335,2.0,1.25,1.25,0.75,,,,,,,,,,,,,,,,,,,,,,,,,,,,,,,0.24632124817678802,,,0.00024966877864573533,1.0124386179734897,,,
5,240711_150955,OFFLINERATING,9.0,6,3.0,,,,,,,,,,,,,,,,,T2,cue2.png,Hard,67.0,1.4519341999985045,,,,,,,,,,,,,,,,,,,,,,41,22,Female,1.5714285714285714,1.0,0.8,0.5,2.7222222222222223,2.75,2.3333333333333335,1.8888888888888888,1.75,2.3333333333333335,2.0,1.25,1.25,0.75,,,,,,,,,,,,,,,,,,,,,,,,,,,,,,,-0.8484398548311587,,,,,,,
6,240711_152507,OFFLINERATING,9.0,7,1.0,,,,,,,,,,,,,,,,,T3,cue1.png,Easy,77.0,1.7647719000087818,,,,,,,,,,,,,,,,,,,,,,41,22,Female,1.5714285714285714,1.0,0.8,0.5,2.7222222222222223,2.75,2.3333333333333335,1.8888888888888888,1.75,2.3333333333333335,2.0,1.25,1.25,0.75,,,,,,,,,,,,,,,,,,,,,,,,,,,,,,,1.3410823511847347,,,,,,,
7,240711_152515,OFFLINERATING,9.0,8,3.0,,,,,,,,,,,,,,,,,T3,cue2.png,Hard,67.0,1.1185951000079513,,,,,,,,,,,,,,,,,,,,,,41,22,Female,1.5714285714285714,1.0,0.8,0.5,2.7222222222222223,2.75,2.3333333333333335,1.8888888888888888,1.75,2.3333333333333335,2.0,1.25,1.25,0.75,,,,,,,,,,,,,,,,,,,,,,,,,,,,,,,-0.8484398548311587,,,,,,,
0,240711_151009,LEARNINGCHECK,9.0,1,,,,,,,,,,,,1.0,1.0,1.0,,,A,,,,,,,,,,,,,,,cue1.png,Easy,Left,Left,Easy,0.0160826999926939,1.0,,,,,,41,22,Female,1.5714285714285714,1.0,0.8,0.5,2.7222222222222223,2.75,2.3333333333333335,1.8888888888888888,1.75,2.3333333333333335,2.0,1.25,1.25,0.75,,,,,,,,,,,,,,,,,,,,,,,,,,,,,,,,,,,,,,
1,240711_152527,LEARNINGCHECK,9.0,1,,,,,,,,,,,,1.0,1.0,1.0,,,A,,,,,,,,,,,,,,,cue1.png,Easy,Middle,Middle,Mid,0.0161663000035332,1.0,,,,,,41,22,Female,1.5714285714285714,1.0,0.8,0.5,2.7222222222222223,2.75,2.3333333333333335,1.8888888888888888,1.75,2.3333333333333335,2.0,1.25,1.25,0.75,,,,,,,,,,,,,,,,,,,,,,,,,,,,,,,,,,,,,,
2,240711_151014,LEARNINGCHECK,9.0,2,,,,,,,,,,,,2.0,2.0,2.0,,,A,,,,,,,,,,,,,,,cue2.png,Hard,Right,Right,Hard,0.0162549999949987,1.0,,,,,,41,22,Female,1.5714285714285714,1.0,0.8,0.5,2.7222222222222223,2.75,2.3333333333333335,1.8888888888888888,1.75,2.3333333333333335,2.0,1.25,1.25,0.75,,,,,,,,,,,,,,,,,,,,,,,,,,,,,,,,,,,,,,
3,240711_152531,LEARNINGCHECK,9.0,2,,,,,,,,,,,,2.0,2.0,2.0,,,A,,,,,,,,,,,,,,,cue2.png,Hard,Middle,Middle,Mid,0.0148888999974587,1.0,,,,,,41,22,Female,1.5714285714285714,1.0,0.8,0.5,2.7222222222222223,2.75,2.3333333333333335,1.8888888888888888,1.75,2.3333333333333335,2.0,1.25,1.25,0.75,,,,,,,,,,,,,,,,,,,,,,,,,,,,,,,,,,,,,,
0,240711_152544,DEMANDRATING,9.0,-1,,,,,,,,,,,,,,,,,,,,,,,,,,,,,,,,,,,,,,,1.0,MentalDemand,1.0,54.0,5.508883699993021,41,22,Female,1.5714285714285714,1.0,0.8,0.5,2.7222222222222223,2.75,2.3333333333333335,1.8888888888888888,1.75,2.3333333333333335,2.0,1.25,1.25,0.75,,,,,,,,,,,,,,,,,,,,,,,,,,,,,,,,,,,,,,-0.8617949773348889
1,240711_152555,DEMANDRATING,9.0,-1,,,,,,,,,,,,,,,,,,,,,,,,,,,,,,,,,,,,,,,2.0,Effort,1.0,61.0,9.309738500000094,41,22,Female,1.5714285714285714,1.0,0.8,0.5,2.7222222222222223,2.75,2.3333333333333335,1.8888888888888888,1.75,2.3333333333333335,2.0,1.25,1.25,0.75,,,,,,,,,,,,,,,,,,,,,,,,,,,,,,,,,,,,,,-0.26516768533381213
2,240711_152605,DEMANDRATING,9.0,-1,,,,,,,,,,,,,,,,,,,,,,,,,,,,,,,,,,,,,,,3.0,Frustration,1.0,66.0,8.398688200002653,41,22,Female,1.5714285714285714,1.0,0.8,0.5,2.7222222222222223,2.75,2.3333333333333335,1.8888888888888888,1.75,2.3333333333333335,2.0,1.25,1.25,0.75,,,,,,,,,,,,,,,,,,,,,,,,,,,,,,,,,,,,,,0.16099466609552837
3,240711_152620,DEMANDRATING,9.0,-1,,,,,,,,,,,,,,,,,,,,,,,,,,,,,,,,,,,,,,,4.0,MentalDemand,2.0,65.0,13.649585399994976,41,22,Female,1.5714285714285714,1.0,0.8,0.5,2.7222222222222223,2.75,2.3333333333333335,1.8888888888888888,1.75,2.3333333333333335,2.0,1.25,1.25,0.75,,,,,,,,,,,,,,,,,,,,,,,,,,,,,,,,,,,,,,0.07576219580966026
4,240711_152632,DEMANDRATING,9.0,-1,,,,,,,,,,,,,,,,,,,,,,,,,,,,,,,,,,,,,,,5.0,Effort,2.0,75.0,10.949943100000382,41,22,Female,1.5714285714285714,1.0,0.8,0.5,2.7222222222222223,2.75,2.3333333333333335,1.8888888888888888,1.75,2.3333333333333335,2.0,1.25,1.25,0.75,,,,,,,,,,,,,,,,,,,,,,,,,,,,,,,,,,,,,,0.9280868986683413
5,240711_152636,DEMANDRATING,9.0,-1,,,,,,,,,,,,,,,,,,,,,,,,,,,,,,,,,,,,,,,6.0,Frustration,2.0,83.0,2.5592200999963097,41,22,Female,1.5714285714285714,1.0,0.8,0.5,2.7222222222222223,2.75,2.3333333333333335,1.8888888888888888,1.75,2.3333333333333335,2.0,1.25,1.25,0.75,,,,,,,,,,,,,,,,,,,,,,,,,,,,,,,,,,,,,,1.6099466609552862
6,240711_152649,DEMANDRATING,9.0,-1,,,,,,,,,,,,,,,,,,,,,,,,,,,,,,,,,,,,,,,7.0,MentalDemand,3.0,67.0,11.168212499993388,41,22,Female,1.5714285714285714,1.0,0.8,0.5,2.7222222222222223,2.75,2.3333333333333335,1.8888888888888888,1.75,2.3333333333333335,2.0,1.25,1.25,0.75,,,,,,,,,,,,,,,,,,,,,,,,,,,,,,,,,,,,,,0.24622713638139646
7,240711_152654,DEMANDRATING,9.0,-1,,,,,,,,,,,,,,,,,,,,,,,,,,,,,,,,,,,,,,,8.0,Effort,3.0,67.0,3.611699500004761,41,22,Female,1.5714285714285714,1.0,0.8,0.5,2.7222222222222223,2.75,2.3333333333333335,1.8888888888888888,1.75,2.3333333333333335,2.0,1.25,1.25,0.75,,,,,,,,,,,,,,,,,,,,,,,,,,,,,,,,,,,,,,0.24622713638139646
8,240711_152657,DEMANDRATING,9.0,-1,,,,,,,,,,,,,,,,,,,,,,,,,,,,,,,,,,,,,,,9.0,Frustration,3.0,39.0,1.3818063999933656,41,22,Female,1.5714285714285714,1.0,0.8,0.5,2.7222222222222223,2.75,2.3333333333333335,1.8888888888888888,1.75,2.3333333333333335,2.0,1.25,1.25,0.75,,,,,,,,,,,,,,,,,,,,,,,,,,,,,,,,,,,,,,-2.1402820316229105
