,END,Phase,Block,TrialN,NbackLevel,ISI,Letter_Resp,Letter_RT,Letter_Accuracy,Trial_A_measure,Trial_ACC,Trial_RT,TrialCountCali,CaliEnd_A_measure,ISI_calibrated,TrialIndex,TrialNumber_total,TrialNumber_valid,CueLearning,TrialDemandLearning,CueMapping,OfflineRatingTimePoint,CueFigure,TrialDemand,OfflineRating,OfflineRatingRT,PhaseType,CueLeft,CueDemandLeft,CueRight,CueDemandRight,Choice,ChoiceDemand,TaskDemand,ChoiceRT,CueCheck,CueDemandCheck,CorrectAnswer,Answer,AnswerDemand,AnswerRT,AnswerACC,DemandRatingQuesIndex,QuesTLX,DemandLevel,DemandRating,DemandRatingRT,PID,Age,Gender,Task_A_measure,Task_ACC,Task_RT,cue_i_on_zyg_values,cue_i_on_zyg_zvalues,cue_e_on_zyg_values,cue_e_on_zyg_zvalues,cue_i_on_cor_values,cue_i_on_cor_zvalues,cue_e_on_cor_values,cue_e_on_cor_zvalues,cue_i_on_scr_values,cue_i_on_scr_zvalues,cue_e_on_scr_values,cue_e_on_scr_zvalues,BAI_bis,BAI_bas_d,BAI_bas_rr,BAI_bas_fs,NFC,BFI_ext,BFI_agr,BFI_con,BFI_neu,BFI_open,UPPS_lps,UPPS_lpm,UPPS_pu,UPPS_ss,cue_e_true_zyg_values,cue_e_true_zyg_zvalues,cue_e_true_cor_values,cue_e_true_cor_zvalues,cue_e_true_scr_values,cue_e_true_scr_zvalues,cue_i_off_zyg_values,cue_i_off_zyg_zvalues,cue_i_off_cor_values,cue_i_off_cor_zvalues,cue_i_off_scr_values,cue_i_off_scr_zvalues
0,240711_144952,LEARNING,1.0,1,1.0,1750.0,,,,,,,,,,1.0,1.0,1.0,cue1.png,Easy,A,,,,,,,,,,,,,,,,,,,,,,,,,,,41,22,Female,1.0,1.0,0.3762640499990084,,,,,,,0.0002756132575421578,0.27868585931041545,1.423,-0.296045510977016,,,1.5714285714285714,1.0,0.8,0.5,2.7222222222222223,2.75,2.3333333333333335,1.8888888888888888,1.75,2.3333333333333335,2.0,1.25,1.25,0.75,,,,,,,,,,,,
1,240711_145011,LEARNING,1.0,2,3.0,1750.0,,,,,,,,,,2.0,2.0,2.0,cue2.png,Hard,A,,,,,,,,,,,,,,,,,,,,,,,,,,,41,22,Female,0.75,0.8333333333333334,0.4357928625013301,,,0.0002305941678129456,1.0376915800005437,,,,,1.4539999999999997,-0.230146467984456,1.4440000000000002,-0.08770560837312966,1.5714285714285714,1.0,0.8,0.5,2.7222222222222223,2.75,2.3333333333333335,1.8888888888888888,1.75,2.3333333333333335,2.0,1.25,1.25,0.75,,,,,,,,,,,,
2,240711_145030,LEARNING,1.0,3,1.0,1750.0,,,,,,,,,,3.0,3.0,3.0,cue1.png,Easy,A,,,,,,,,,,,,,,,,,,,,,,,,,,,41,22,Female,1.0,1.0,0.3746294874999876,,,,,,,,,1.1129999999999998,-0.9550359409026228,1.4600000000000002,-0.05391534565713645,1.5714285714285714,1.0,0.8,0.5,2.7222222222222223,2.75,2.3333333333333335,1.8888888888888888,1.75,2.3333333333333335,2.0,1.25,1.25,0.75,,,,,,,,,,,,
3,240711_145048,LEARNING,1.0,4,3.0,1750.0,,,,,,,,,,4.0,4.0,4.0,cue2.png,Hard,A,,,,,,,,,,,,,,,,,,,,,,,,,,,41,22,Female,0.75,0.8333333333333334,0.4107349749992863,,,-0.000604351676796273,-1.546335351719429,0.00019715447361258681,0.041485074641210366,,,1.584,0.0462043574682183,1.952,0.985135232859653,1.5714285714285714,1.0,0.8,0.5,2.7222222222222223,2.75,2.3333333333333335,1.8888888888888888,1.75,2.3333333333333335,2.0,1.25,1.25,0.75,,,,,,,,,,,,
4,240711_145108,LEARNING,1.0,5,3.0,1750.0,,,,,,,,,,5.0,5.0,5.0,cue2.png,Hard,A,,,,,,,,,,,,,,,,,,,,,,,,,,,41,22,Female,1.0,1.0,0.4434327624985599,0.0005440047981910426,0.4988185930748802,-0.0001336977842548567,-0.08973509231569483,0.0006786078510505121,1.300030054865295,,,1.538,-0.051581319230420135,1.5850000000000002,0.21007108181156017,1.5714285714285714,1.0,0.8,0.5,2.7222222222222223,2.75,2.3333333333333335,1.8888888888888888,1.75,2.3333333333333335,2.0,1.25,1.25,0.75,,,,,,,,,,,,
5,240711_145126,LEARNING,1.0,6,1.0,1750.0,,,,,,,,,,6.0,6.0,6.0,cue1.png,Easy,A,,,,,,,,,,,,,,,,,,,,,,,,,,,41,22,Female,0.75,0.8333333333333334,0.3831038999996963,0.00035534653094736754,0.11526676716896898,-0.0003192445213512753,-0.6639732526053752,0.00039978878323316093,0.5711820404227564,0.0009580116786740175,2.242761632206375,,,1.596,0.23330188742880525,1.5714285714285714,1.0,0.8,0.5,2.7222222222222223,2.75,2.3333333333333335,1.8888888888888888,1.75,2.3333333333333335,2.0,1.25,1.25,0.75,,,,,,,,,,,,
6,240711_145145,LEARNING,1.0,7,3.0,1750.0,,,,,,,,,,7.0,7.0,7.0,cue2.png,Hard,A,,,,,,,,,,,,,,,,,,,,,,,,,,,41,22,Female,1.0,1.0,0.4176999624996824,,,,,,,-0.00016457115272041842,-0.9882507411131713,2.207,1.370562544060646,,,1.5714285714285714,1.0,0.8,0.5,2.7222222222222223,2.75,2.3333333333333335,1.8888888888888888,1.75,2.3333333333333335,2.0,1.25,1.25,0.75,,,,,,,,,,,,
7,240711_145204,LEARNING,1.0,8,3.0,1750.0,,,,,,,,,,8.0,8.0,8.0,cue2.png,Hard,A,,,,,,,,,,,,,,,,,,,,,,,,,,,41,22,Female,1.0,1.0,0.3847031499990407,0.001707641260247388,2.864550539165194,-0.00038776689006376737,-0.8760392773919253,-0.0002462134521998521,-1.1175024900385147,0.0005541404777875095,1.080341532060347,,,,,1.5714285714285714,1.0,0.8,0.5,2.7222222222222223,2.75,2.3333333333333335,1.8888888888888888,1.75,2.3333333333333335,2.0,1.25,1.25,0.75,,,,,,,,,,,,
8,240711_145222,LEARNING,1.0,9,1.0,1750.0,,,,,,,,,,9.0,9.0,9.0,cue1.png,Easy,A,,,,,,,,,,,,,,,,,,,,,,,,,,,41,22,Female,1.0,1.0,0.3625548375039216,0.00012195632135478121,-0.35922736630135177,-6.510123450999446e-05,0.12256051117551606,,,0.00012854523066498742,-0.14460461090778456,,,,,1.5714285714285714,1.0,0.8,0.5,2.7222222222222223,2.75,2.3333333333333335,1.8888888888888888,1.75,2.3333333333333335,2.0,1.25,1.25,0.75,,,,,,,,,,,,
9,240711_145241,LEARNING,1.0,10,1.0,1750.0,,,,,,,,,,10.0,10.0,10.0,cue1.png,Easy,A,,,,,,,,,,,,,,,,,,,,,,,,,,,41,22,Female,1.0,1.0,0.4346484500019869,6.571252384840898e-05,-0.4735738592731547,6.684287274321028e-05,0.5309069073224467,0.0005917106119551051,1.0728760059294622,0.00014621177021594857,-0.09375686383152589,,,,,1.5714285714285714,1.0,0.8,0.5,2.7222222222222223,2.75,2.3333333333333335,1.8888888888888888,1.75,2.3333333333333335,2.0,1.25,1.25,0.75,,,,,,,,,,,,
10,240711_145300,LEARNING,1.0,11,3.0,1750.0,,,,,,,,,,11.0,11.0,11.0,cue2.png,Hard,A,,,,,,,,,,,,,,,,,,,,,,,,,,,41,22,Female,0.75,0.8333333333333334,0.450010762499005,-3.2757079149268314e-07,-0.6078367211779391,-0.0005766010006861169,-1.4604513451038343,5.6198967088996916e-05,-0.3269801880063233,-0.00026932676308424495,-1.2897578226349264,,,1.012,-1.0000427017049456,1.5714285714285714,1.0,0.8,0.5,2.7222222222222223,2.75,2.3333333333333335,1.8888888888888888,1.75,2.3333333333333335,2.0,1.25,1.25,0.75,,,,,,,,,,,,
11,240711_145319,LEARNING,1.0,12,1.0,1750.0,,,,,,,,,,12.0,12.0,12.0,cue1.png,Easy,A,,,,,,,,,,,,,,,,,,,,,,,,,,,41,22,Female,1.0,1.0,0.421501287501087,3.0663273106312956e-05,-0.5448307637023759,-3.846327183383916e-05,0.2050008435704307,-0.0002807556125818643,-1.2077975520156874,,,1.146,-0.8848853467492516,,,1.5714285714285714,1.0,0.8,0.5,2.7222222222222223,2.75,2.3333333333333335,1.8888888888888888,1.75,2.3333333333333335,2.0,1.25,1.25,0.75,,,,,,,,,,,,
12,240711_145338,LEARNING,1.0,13,1.0,1750.0,,,,,,,,,,13.0,13.0,13.0,cue1.png,Easy,A,,,,,,,,,,,,,,,,,,,,,,,,,,,41,22,Female,1.0,1.0,0.4103671124994434,0.000932219155515552,1.2880780714436844,0.00015588427401421606,0.8064761318510763,0.00070505857867756,1.369173677152144,0.0009162521275317358,2.122569497896444,2.2220000000000004,1.4024491777667247,1.6540000000000001,0.3557915897742806,1.5714285714285714,1.0,0.8,0.5,2.7222222222222223,2.75,2.3333333333333335,1.8888888888888888,1.75,2.3333333333333335,2.0,1.25,1.25,0.75,,,,,,,,,,,,
13,240711_145356,LEARNING,1.0,14,1.0,1750.0,,,,,,,,,,14.0,14.0,14.0,cue1.png,Easy,A,,,,,,,,,,,,,,,,,,,,,,,,,,,41,22,Female,1.0,1.0,0.39945203750176,-9.504621370293783e-06,-0.6264941304574578,-5.6101306077113115e-05,0.1504138834681853,0.0002618464146559706,0.2105932821573171,0.0005569790825568429,1.0885115903190214,,,,,1.5714285714285714,1.0,0.8,0.5,2.7222222222222223,2.75,2.3333333333333335,1.8888888888888888,1.75,2.3333333333333335,2.0,1.25,1.25,0.75,,,,,,,,,,,,
14,240711_145416,LEARNING,1.0,15,3.0,1750.0,,,,,,,,,,15.0,15.0,15.0,cue2.png,Hard,A,,,,,,,,,,,,,,,,,,,,,,,,,,,41,22,Female,0.75,0.8333333333333334,0.4612648749971413,-0.00010288424950233776,-0.8163396505914885,,,,,0.00042732157245103236,0.7153319836744919,,,,,1.5714285714285714,1.0,0.8,0.5,2.7222222222222223,2.75,2.3333333333333335,1.8888888888888888,1.75,2.3333333333333335,2.0,1.25,1.25,0.75,,,,,,,,,,,,
15,240711_145434,LEARNING,1.0,16,1.0,1750.0,,,,,,,,,,16.0,16.0,16.0,cue1.png,Easy,A,,,,,,,,,,,,,,,,,,,,,,,,,,,41,22,Female,1.0,1.0,0.3856175750006514,,,-0.0012305675121190222,-3.4843755180260874,,,0.00021355039625093252,0.10005683778291097,,,,,1.5714285714285714,1.0,0.8,0.5,2.7222222222222223,2.75,2.3333333333333335,1.8888888888888888,1.75,2.3333333333333335,2.0,1.25,1.25,0.75,,,,,,,,,,,,
16,240711_145453,LEARNING,1.0,17,1.0,1750.0,,,,,,,,,,17.0,17.0,17.0,cue1.png,Easy,A,,,,,,,,,,,,,,,,,,,,,,,,,,,41,22,Female,1.0,1.0,0.3800265874997421,3.5552004319569334e-05,-0.5348917251932085,-6.559266520583156e-05,0.12103960995621448,0.00028206979459497513,0.2634582832106749,-0.00013993873161593931,-0.9173538280768938,,,,,1.5714285714285714,1.0,0.8,0.5,2.7222222222222223,2.75,2.3333333333333335,1.8888888888888888,1.75,2.3333333333333335,2.0,1.25,1.25,0.75,,,,,,,,,,,,
17,240711_145511,LEARNING,1.0,18,3.0,1750.0,,,,,,,,,,18.0,18.0,18.0,cue2.png,Hard,A,,,,,,,,,,,,,,,,,,,,,,,,,,,41,22,Female,0.75,0.8333333333333334,0.4030119999988528,6.913116073646239e-07,-0.6057652815841451,7.000139740349475e-05,0.5406820476376808,0.000280159354048523,0.2584642890412937,0.00026934820270909255,0.26065380936358457,,,,,1.5714285714285714,1.0,0.8,0.5,2.7222222222222223,2.75,2.3333333333333335,1.8888888888888888,1.75,2.3333333333333335,2.0,1.25,1.25,0.75,,,,,,,,,,,,
18,240711_145530,LEARNING,1.0,19,3.0,1750.0,,,,,,,,,,19.0,19.0,19.0,cue2.png,Hard,A,,,,,,,,,,,,,,,,,,,,,,,,,,,41,22,Female,0.75,0.8333333333333334,0.3843543000002682,8.252483667165215e-05,-0.4393935745961657,-2.4772510004377434e-06,0.3163719553608811,-0.0003683845148288196,-1.4368642077162632,0.0003630067556243499,0.5302213948222942,,,,,1.5714285714285714,1.0,0.8,0.5,2.7222222222222223,2.75,2.3333333333333335,1.8888888888888888,1.75,2.3333333333333335,2.0,1.25,1.25,0.75,,,,,,,,,,,,
19,240711_145548,LEARNING,1.0,20,3.0,1750.0,,,,,,,,,,20.0,20.0,20.0,cue2.png,Hard,A,,,,,,,,,,,,,,,,,,,,,,,,,,,41,22,Female,1.0,1.0,0.3558203624997986,,,,,-0.00010225227036297566,-0.7411802307325496,-1.5393279805553124e-05,-0.5588877224264333,,,1.205,-0.5924476576932778,1.5714285714285714,1.0,0.8,0.5,2.7222222222222223,2.75,2.3333333333333335,1.8888888888888888,1.75,2.3333333333333335,2.0,1.25,1.25,0.75,,,,,,,,,,,,
20,240711_145607,LEARNING,1.0,21,1.0,1750.0,,,,,,,,,,21.0,21.0,21.0,cue1.png,Easy,A,,,,,,,,,,,,,,,,,,,,,,,,,,,41,22,Female,1.0,1.0,0.4334269249975477,0.0002287983076542273,-0.14201218921273276,3.162206194011171e-05,0.42190400101441333,0.001569614760913452,3.6291699597931766,8.296001224335822e-05,-0.27580776192854595,0.9190000000000003,-1.367436403501227,0.571,-1.9313868178145073,1.5714285714285714,1.0,0.8,0.5,2.7222222222222223,2.75,2.3333333333333335,1.8888888888888888,1.75,2.3333333333333335,2.0,1.25,1.25,0.75,,,,,,,,,,,,
21,240711_145625,LEARNING,1.0,22,3.0,1750.0,,,,,,,,,,22.0,22.0,22.0,cue2.png,Hard,A,,,,,,,,,,,,,,,,,,,,,,,,,,,41,22,Female,1.0,1.0,0.3272127000018372,4.6634889433447724e-05,-0.5123596576414431,-1.336688590854911e-05,0.28267023678735165,0.0001912316360166825,0.026002459139216227,,,0.574,-2.1008289787410153,1.1390000000000002,-0.7318324913967493,1.5714285714285714,1.0,0.8,0.5,2.7222222222222223,2.75,2.3333333333333335,1.8888888888888888,1.75,2.3333333333333335,2.0,1.25,1.25,0.75,,,,,,,,,,,,
22,240711_145645,LEARNING,1.0,23,3.0,1750.0,,,,,,,,,,23.0,23.0,23.0,cue2.png,Hard,A,,,,,,,,,,,,,,,,,,,,,,,,,,,41,22,Female,1.0,1.0,0.4572227999997267,,,,,-0.0002066318858664402,-1.0140341503138752,-9.341394597662265e-05,-0.7834464193202977,2.324,1.619278286968052,1.2590000000000001,-0.4784055210268008,1.5714285714285714,1.0,0.8,0.5,2.7222222222222223,2.75,2.3333333333333335,1.8888888888888888,1.75,2.3333333333333335,2.0,1.25,1.25,0.75,,,,,,,,,,,,
23,240711_145703,LEARNING,1.0,24,3.0,1750.0,,,,,,,,,,24.0,24.0,24.0,cue2.png,Hard,A,,,,,,,,,,,,,,,,,,,,,,,,,,,41,22,Female,0.75,0.8333333333333334,0.3345128499986458,0.0014370441438503498,2.3144128770562573,,,0.0004167354133874368,0.6154814415940109,,,1.671,0.23114683296346902,2.3890000000000002,1.908031783290217,1.5714285714285714,1.0,0.8,0.5,2.7222222222222223,2.75,2.3333333333333335,1.8888888888888888,1.75,2.3333333333333335,2.0,1.25,1.25,0.75,,,,,,,,,,,,
24,240711_145722,LEARNING,1.0,25,1.0,1750.0,,,,,,,,,,25.0,25.0,25.0,cue1.png,Easy,A,,,,,,,,,,,,,,,,,,,,,,,,,,,41,22,Female,1.0,1.0,0.4001449625011446,,,,,0.0001166672714478928,-0.16891279357130856,0.0002345912097022622,0.1606164033710539,1.359,-0.4320951481229477,0.7509999999999999,-1.5512463622595845,1.5714285714285714,1.0,0.8,0.5,2.7222222222222223,2.75,2.3333333333333335,1.8888888888888888,1.75,2.3333333333333335,2.0,1.25,1.25,0.75,,,,,,,,,,,,
25,240711_145740,LEARNING,1.0,26,1.0,1750.0,,,,,,,,,,26.0,26.0,26.0,cue1.png,Easy,A,,,,,,,,,,,,,,,,,,,,,,,,,,,41,22,Female,1.0,1.0,0.3773962124996615,,,,,0.00016616568483411196,-0.03952128316630634,0.0006970152415543022,1.491562973058329,1.255,-0.6531758084850868,2.015,1.1181843923038763,1.5714285714285714,1.0,0.8,0.5,2.7222222222222223,2.75,2.3333333333333335,1.8888888888888888,1.75,2.3333333333333335,2.0,1.25,1.25,0.75,,,,,,,,,,,,
26,240711_145759,LEARNING,1.0,27,3.0,1750.0,,,,,,,,,,27.0,27.0,27.0,cue2.png,Hard,A,,,,,,,,,,,,,,,,,,,,,,,,,,,41,22,Female,0.1666666666666666,0.6666666666666667,0.3786726625003211,0.0017162573009679612,2.882067386948955,4.751068789386097e-05,0.4710768157994595,,,-0.00021519431320549294,-1.1339540721543586,2.177,1.3067892766484908,,,1.5714285714285714,1.0,0.8,0.5,2.7222222222222223,2.75,2.3333333333333335,1.8888888888888888,1.75,2.3333333333333335,2.0,1.25,1.25,0.75,,,,,,,,,,,,
27,240711_145817,LEARNING,1.0,28,1.0,1750.0,,,,,,,,,,28.0,28.0,28.0,cue1.png,Easy,A,,,,,,,,,,,,,,,,,,,,,,,,,,,41,22,Female,1.0,1.0,0.3668905999984417,-0.00011994802885689727,-0.8510311794808291,-2.7591298345572626e-05,0.23864790280907497,0.00018418884844524077,0.007592234265541166,-0.00017053996348057607,-1.005430142829227,1.6,0.08021676675470124,1.1909999999999998,-0.6220141375697723,1.5714285714285714,1.0,0.8,0.5,2.7222222222222223,2.75,2.3333333333333335,1.8888888888888888,1.75,2.3333333333333335,2.0,1.25,1.25,0.75,,,,,,,,,,,,
28,240711_145836,LEARNING,1.0,29,1.0,1750.0,,,,,,,,,,29.0,29.0,29.0,cue1.png,Easy,A,,,,,,,,,,,,,,,,,,,,,,,,,,,41,22,Female,0.75,0.8333333333333334,0.416947749999963,0.0001727881865538198,-0.2558836061993251,1.9474965414083972e-05,0.3843106352073788,7.314579863540232e-05,-0.2826802603852286,-0.00020838000828435907,-1.11434117331071,2.598,2.201740795999072,1.1740000000000002,-0.6579162917055144,1.5714285714285714,1.0,0.8,0.5,2.7222222222222223,2.75,2.3333333333333335,1.8888888888888888,1.75,2.3333333333333335,2.0,1.25,1.25,0.75,,,,,,,,,,,,
29,240711_145855,LEARNING,1.0,30,3.0,1750.0,,,,,,,,,,30.0,30.0,30.0,cue2.png,Hard,A,,,,,,,,,,,,,,,,,,,,,,,,,,,41,22,Female,0.75,0.8333333333333334,0.4469812749994162,0.0010922573609511367,1.6134438601066339,-0.00039317546531252587,-0.8927779727160121,0.0002786378838316385,0.25448708419913363,,,0.9259999999999999,-1.3525559744383915,1.682,0.41492454952726826,1.5714285714285714,1.0,0.8,0.5,2.7222222222222223,2.75,2.3333333333333335,1.8888888888888888,1.75,2.3333333333333335,2.0,1.25,1.25,0.75,,,,,,,,,,,,
30,240711_145913,LEARNING,1.0,31,3.0,1750.0,,,,,,,,,,31.0,31.0,31.0,cue2.png,Hard,A,,,,,,,,,,,,,,,,,,,,,,,,,,,41,22,Female,0.75,0.8333333333333334,0.359242312499191,-9.80052570652033e-06,-0.6270957189810425,-0.00010609049642032638,-0.004294850009249233,-0.00018171861762816257,-0.9489095294230332,-7.155182957803864e-05,-0.7205229836366838,,,,,1.5714285714285714,1.0,0.8,0.5,2.7222222222222223,2.75,2.3333333333333335,1.8888888888888888,1.75,2.3333333333333335,2.0,1.25,1.25,0.75,,,,,,,,,,,,
31,240711_145933,LEARNING,1.0,32,1.0,1750.0,,,,,,,,,,32.0,32.0,32.0,cue1.png,Easy,A,,,,,,,,,,,,,,,,,,,,,,,,,,,41,22,Female,0.75,0.8333333333333334,0.4573254124989034,4.91461927134367e-05,-0.5072540507018904,5.615062589427655e-05,0.4978160739508835,,,,,1.7699999999999998,0.4415986154235815,1.4460000000000002,-0.0834818255336305,1.5714285714285714,1.0,0.8,0.5,2.7222222222222223,2.75,2.3333333333333335,1.8888888888888888,1.75,2.3333333333333335,2.0,1.25,1.25,0.75,,,,,,,,,,,,
32,240711_145951,LEARNING,1.0,33,1.0,1750.0,,,,,,,,,,33.0,33.0,33.0,cue1.png,Easy,A,,,,,,,,,,,,,,,,,,,,,,,,,,,41,22,Female,1.0,1.0,0.3778355125014059,-4.291915089907729e-05,-0.6944275637482354,,,-6.95613503760282e-05,-0.6557244105502837,0.0004981894401633429,0.9193035312927845,1.564,0.003688845860114634,1.642,0.3304488927372852,1.5714285714285714,1.0,0.8,0.5,2.7222222222222223,2.75,2.3333333333333335,1.8888888888888888,1.75,2.3333333333333335,2.0,1.25,1.25,0.75,,,,,,,,,,,,
33,240711_150010,LEARNING,1.0,34,1.0,1750.0,,,,,,,,,,34.0,34.0,34.0,cue1.png,Easy,A,,,,,,,,,,,,,,,,,,,,,,,,,,,41,22,Female,1.0,1.0,0.4342307249989972,,,-3.18241887469488e-05,0.22554776839102264,7.440252537089034e-05,-0.2793951092188194,8.626466213241353e-05,-0.2662963349029217,1.215,-0.7382068317012936,1.6139999999999999,0.2713159329842971,1.5714285714285714,1.0,0.8,0.5,2.7222222222222223,2.75,2.3333333333333335,1.8888888888888888,1.75,2.3333333333333335,2.0,1.25,1.25,0.75,,,,,,,,,,,,
34,240711_150029,LEARNING,1.0,35,3.0,1750.0,,,,,,,,,,35.0,35.0,35.0,cue2.png,Hard,A,,,,,,,,,,,,,,,,,,,,,,,,,,,41,22,Female,0.75,0.8333333333333334,0.4493338124993897,-4.1997694288776425e-05,-0.6925541957239364,4.000501596886086e-05,0.4478479339263696,0.00030100453336007367,0.31295470704195566,-4.773108805946518e-05,-0.6519622427846667,2.081,1.1027148209295932,1.1780000000000002,-0.6494687260265161,1.5714285714285714,1.0,0.8,0.5,2.7222222222222223,2.75,2.3333333333333335,1.8888888888888888,1.75,2.3333333333333335,2.0,1.25,1.25,0.75,,,,,,,,,,,,
35,240711_150047,LEARNING,1.0,36,3.0,1750.0,,,,,,,,,,36.0,36.0,36.0,cue2.png,Hard,A,,,,,,,,,,,,,,,,,,,,,,,,,,,41,22,Female,1.0,1.0,0.348473362497316,0.0003599185419219694,0.1245618973691495,,,0.0009864036334899778,2.10462475723246,-0.0002525019503421735,-1.2413327295120504,1.674,0.23752415970468432,1.7850000000000001,0.6324493657614747,1.5714285714285714,1.0,0.8,0.5,2.7222222222222223,2.75,2.3333333333333335,1.8888888888888888,1.75,2.3333333333333335,2.0,1.25,1.25,0.75,,,,,,,,,,,,
36,240711_150106,LEARNING,1.0,37,1.0,1750.0,,,,,,,,,,37.0,37.0,37.0,cue1.png,Easy,A,,,,,,,,,,,,,,,,,,,,,,,,,,,41,22,Female,1.0,1.0,0.3930715625047014,,,,,-7.074687771560159e-05,-0.6588234426727261,0.0004936481837999338,0.9062329096065748,1.9880000000000002,0.905017691951912,2.546,2.239598736190899,1.5714285714285714,1.0,0.8,0.5,2.7222222222222223,2.75,2.3333333333333335,1.8888888888888888,1.75,2.3333333333333335,2.0,1.25,1.25,0.75,,,,,,,,,,,,
37,240711_150125,LEARNING,1.0,38,3.0,1750.0,,,,,,,,,,38.0,38.0,38.0,cue2.png,Hard,A,,,,,,,,,,,,,,,,,,,,,,,,,,,41,22,Female,1.0,1.0,0.3648604750014783,8.275443480294927e-05,-0.4389267899502013,0.00036039492554941575,1.439404644283989,-0.00021533455126851626,-1.0367833849638386,,,1.156,-0.8636275909451997,1.392,-0.197523962200108,1.5714285714285714,1.0,0.8,0.5,2.7222222222222223,2.75,2.3333333333333335,1.8888888888888888,1.75,2.3333333333333335,2.0,1.25,1.25,0.75,,,,,,,,,,,,
38,240711_150144,LEARNING,1.0,39,3.0,1750.0,,,,,,,,,,39.0,39.0,39.0,cue2.png,Hard,A,,,,,,,,,,,,,,,,,,,,,,,,,,,41,22,Female,0.75,0.8333333333333334,0.4586663875033991,9.736971301210328e-05,-0.40921318807553003,6.477042322696998e-05,0.5244929998826159,-0.00013361886487764244,-0.8231741930207214,0.00024908103876481033,0.20232095797414168,0.9809999999999999,-1.2356383175161065,2.068,1.2301146375506036,1.5714285714285714,1.0,0.8,0.5,2.7222222222222223,2.75,2.3333333333333335,1.8888888888888888,1.75,2.3333333333333335,2.0,1.25,1.25,0.75,,,,,,,,,,,,
39,240711_150203,LEARNING,1.0,40,3.0,1750.0,,,,,,,,,,40.0,40.0,40.0,cue2.png,Hard,A,,,,,,,,,,,,,,,,,,,,,,,,,,,41,22,Female,1.0,1.0,0.4435877249979967,0.0010179051672726865,1.4622820792733289,-0.00010042095724128357,0.013251487904373103,0.0006082822782834197,1.1161952315260002,0.0006512303850372205,1.359785224655037,1.565,0.005814621440519582,1.1760000000000002,-0.6536925088660153,1.5714285714285714,1.0,0.8,0.5,2.7222222222222223,2.75,2.3333333333333335,1.8888888888888888,1.75,2.3333333333333335,2.0,1.25,1.25,0.75,,,,,,,,,,,,
40,240711_150222,LEARNING,1.0,41,1.0,1750.0,,,,,,,,,,41.0,41.0,41.0,cue1.png,Easy,A,,,,,,,,,,,,,,,,,,,,,,,,,,,41,22,Female,1.0,1.0,0.4002117874988471,0.0001681308768233308,-0.2653521530965102,-0.0011744455787033744,-3.3106869029589587,0.0004165797362063054,0.6150744930834593,,,1.884,0.6839370315897724,1.287,-0.4192725612738131,1.5714285714285714,1.0,0.8,0.5,2.7222222222222223,2.75,2.3333333333333335,1.8888888888888888,1.75,2.3333333333333335,2.0,1.25,1.25,0.75,,,,,,,,,,,,
41,240711_150240,LEARNING,1.0,42,3.0,1750.0,,,,,,,,,,42.0,42.0,42.0,cue2.png,Hard,A,,,,,,,,,,,,,,,,,,,,,,,,,,,41,22,Female,0.75,0.8333333333333334,0.4123115624988713,-4.745345055912325e-05,-0.7036460249332355,1.0040894923804122e-05,0.35511366108022757,,,0.00012921491232475513,-0.1426771364547797,2.1999999999999997,1.3556821149978093,,,1.5714285714285714,1.0,0.8,0.5,2.7222222222222223,2.75,2.3333333333333335,1.8888888888888888,1.75,2.3333333333333335,2.0,1.25,1.25,0.75,,,,,,,,,,,,
42,240711_150259,LEARNING,1.0,43,3.0,1750.0,,,,,,,,,,43.0,43.0,43.0,cue2.png,Hard,A,,,,,,,,,,,,,,,,,,,,,,,,,,,41,22,Female,0.75,0.8333333333333334,0.4475735250034631,-3.133617072132019e-05,-0.6708787775671747,-3.127277327626826e-05,0.227254313116055,,,,,,,1.581,0.2016235161325614,1.5714285714285714,1.0,0.8,0.5,2.7222222222222223,2.75,2.3333333333333335,1.8888888888888888,1.75,2.3333333333333335,2.0,1.25,1.25,0.75,,,,,,,,,,,,
43,240711_150318,LEARNING,1.0,44,1.0,1750.0,,,,,,,,,,44.0,44.0,44.0,cue1.png,Easy,A,,,,,,,,,,,,,,,,,,,,,,,,,,,41,22,Female,0.75,0.8333333333333334,0.4295432624985551,0.00015582939831371807,-0.2903616828279059,-0.00014374065395059013,-0.12081620486099469,0.0002983868917420733,0.30611205129844127,-0.0007724462791233113,-2.7378339343651543,1.307,-0.5426354783040173,1.0150000000000001,-0.9937070274456966,1.5714285714285714,1.0,0.8,0.5,2.7222222222222223,2.75,2.3333333333333335,1.8888888888888888,1.75,2.3333333333333335,2.0,1.25,1.25,0.75,,,,,,,,,,,,
44,240711_150337,LEARNING,1.0,45,1.0,1750.0,,,,,,,,,,45.0,45.0,45.0,cue1.png,Easy,A,,,,,,,,,,,,,,,,,,,,,,,,,,,41,22,Female,1.0,1.0,0.3530080875043495,0.00013028828343059377,-0.3422880648106356,4.949386482716025e-05,0.4772144385436144,3.192739587284943e-05,-0.390427378425446,0.0002625786088844479,0.24116959777751845,1.273,-0.6149118480377935,1.5330000000000001,0.10025272798458228,1.5714285714285714,1.0,0.8,0.5,2.7222222222222223,2.75,2.3333333333333335,1.8888888888888888,1.75,2.3333333333333335,2.0,1.25,1.25,0.75,,,,,,,,,,,,
45,240711_150355,LEARNING,1.0,46,1.0,1750.0,,,,,,,,,,46.0,46.0,46.0,cue1.png,Easy,A,,,,,,,,,,,,,,,,,,,,,,,,,,,41,22,Female,1.0,1.0,0.4076447250026831,0.0005934218618992874,0.5992859899884998,-1.4810174543964435e-05,0.2782034839695038,4.177438428042395e-05,-0.3646868219947758,0.00020039588403074002,0.06219558553515472,,,0.29799999999999993,-2.507933175406141,1.5714285714285714,1.0,0.8,0.5,2.7222222222222223,2.75,2.3333333333333335,1.8888888888888888,1.75,2.3333333333333335,2.0,1.25,1.25,0.75,,,,,,,,,,,,
46,240711_150414,LEARNING,1.0,47,3.0,1750.0,,,,,,,,,,47.0,47.0,47.0,cue2.png,Hard,A,,,,,,,,,,,,,,,,,,,,,,,,,,,41,22,Female,0.1666666666666666,0.6666666666666667,0.3547157625034742,-6.499278382319368e-05,-0.7393043790403335,6.223955643817501e-05,0.5166603626103115,-7.874897422266002e-06,-0.4944727102798951,0.0004875442010282044,0.8886644564729304,1.017,-1.15911039662152,,,1.5714285714285714,1.0,0.8,0.5,2.7222222222222223,2.75,2.3333333333333335,1.8888888888888888,1.75,2.3333333333333335,2.0,1.25,1.25,0.75,,,,,,,,,,,,
47,240711_150433,LEARNING,1.0,48,3.0,1750.0,,,,,,,,,,48.0,48.0,48.0,cue2.png,Hard,A,,,,,,,,,,,,,,,,,,,,,,,,,,,41,22,Female,0.75,0.8333333333333334,0.4421844875014358,3.2072457003050163e-06,-0.6006502599669911,0.00012428322331660673,0.7086758174947729,-0.00016018555629988785,-0.8926209508948836,0.00012989473357864377,-0.14072047827194312,1.377,-0.3938311876756544,2.04,1.1709816777976156,1.5714285714285714,1.0,0.8,0.5,2.7222222222222223,2.75,2.3333333333333335,1.8888888888888888,1.75,2.3333333333333335,2.0,1.25,1.25,0.75,,,,,,,,,,,,
48,240711_150452,LEARNING,1.0,49,1.0,1750.0,,,,,,,,,,49.0,49.0,49.0,cue1.png,Easy,A,,,,,,,,,,,,,,,,,,,,,,,,,,,41,22,Female,0.75,0.8333333333333334,0.4812919250016421,,,-7.952396582798201e-05,0.07792441124728193,-0.0002756556741840741,-1.1944660392030715,-2.4358369920392427e-05,-0.5846910006157047,,,2.039,1.1688697863778663,1.5714285714285714,1.0,0.8,0.5,2.7222222222222223,2.75,2.3333333333333335,1.8888888888888888,1.75,2.3333333333333335,2.0,1.25,1.25,0.75,,,,,,,,,,,,
49,240711_150511,LEARNING,1.0,50,1.0,1750.0,,,,,,,,,,50.0,50.0,50.0,cue1.png,Easy,A,,,,,,,,,,,,,,,,,,,,,,,,,,,41,22,Female,0.75,0.8333333333333334,0.4496129499984818,0.0002931531617735763,-0.011175506760310861,0.0002282139925145095,1.0303253093458857,,,0.0002276513807565276,0.14064222189837186,1.975,0.8773826094066443,1.7889999999999997,0.640896931440472,1.5714285714285714,1.0,0.8,0.5,2.7222222222222223,2.75,2.3333333333333335,1.8888888888888888,1.75,2.3333333333333335,2.0,1.25,1.25,0.75,,,,,,,,,,,,
0,240711_150654,TrueCHOICE,9.0,1,3.0,1750.0,,,,,,,,,,,1.0,1.0,,,A,,,,,,True,cue1.png,Easy,cue2.png,Hard,Right,Hard,Hard,0.0165707999985897,,,,,,,,,,,,,41,22,Female,1.0,1.0,0.3808458374987822,,,,,,,,,,,,,1.5714285714285714,1.0,0.8,0.5,2.7222222222222223,2.75,2.3333333333333335,1.8888888888888888,1.75,2.3333333333333335,2.0,1.25,1.25,0.75,,,,,1.267,-1.7586037023222068,,,,,,
1,240711_150716,TrueCHOICE,9.0,2,1.0,1750.0,,,,,,,,,,,3.0,2.0,,,A,,,,,,True,cue1.png,Easy,cue2.png,Hard,Left,Easy,Easy,0.0153401999996276,,,,,,,,,,,,,41,22,Female,,,,,,,,,,,,,,,,1.5714285714285714,1.0,0.8,0.5,2.7222222222222223,2.75,2.3333333333333335,1.8888888888888888,1.75,2.3333333333333335,2.0,1.25,1.25,0.75,-0.0001083173038638279,-0.621207037323053,,,1.723,1.4405583519022298,,,,,,
2,240711_150734,TrueCHOICE,9.0,3,3.0,1750.0,,,,,,,,,,,4.0,3.0,,,A,,,,,,True,cue2.png,Hard,cue1.png,Easy,Left,Hard,Hard,0.015967899991665,,,,,,,,,,,,,41,22,Female,1.0,1.0,0.351488212496406,,,,,,,,,,,,,1.5714285714285714,1.0,0.8,0.5,2.7222222222222223,2.75,2.3333333333333335,1.8888888888888888,1.75,2.3333333333333335,2.0,1.25,1.25,0.75,,,-3.585365682031794e-05,-0.8872771558342967,1.5929999999999997,0.5285165381978928,,,,,,
3,240711_150751,TrueCHOICE,9.0,4,3.0,1750.0,,,,,,,,,,,5.0,4.0,,,A,,,,,,True,cue1.png,Easy,cue2.png,Hard,Right,Hard,Hard,0.016849200008437,,,,,,,,,,,,,41,22,Female,1.0,1.0,0.3685131125002954,,,,,,,,,,,,,1.5714285714285714,1.0,0.8,0.5,2.7222222222222223,2.75,2.3333333333333335,1.8888888888888888,1.75,2.3333333333333335,2.0,1.25,1.25,0.75,-3.06948990348244e-06,-0.4090868851727762,-2.8370982867018894e-05,-0.7777190824238032,1.5929999999999997,0.5285165381978928,,,,,,
4,240711_150807,TrueCHOICE,9.0,5,1.0,1750.0,,,,,,,,,,,6.0,5.0,,,A,,,,,,True,cue2.png,Hard,cue1.png,Easy,Right,Easy,Easy,0.0164356000022962,,,,,,,,,,,,,41,22,Female,0.75,0.8333333333333334,0.2973690624985465,,,,,,,,,,,,,1.5714285714285714,1.0,0.8,0.5,2.7222222222222223,2.75,2.3333333333333335,1.8888888888888888,1.75,2.3333333333333335,2.0,1.25,1.25,0.75,,,,,,,,,,,,
5,240711_150823,TrueCHOICE,9.0,6,3.0,1750.0,,,,,,,,,,,7.0,6.0,,,A,,,,,,True,cue2.png,Hard,cue1.png,Easy,Left,Hard,Hard,0.0160147999995388,,,,,,,,,,,,,41,22,Female,1.0,1.0,0.3414578874962899,,,,,,,,,,,,,1.5714285714285714,1.0,0.8,0.5,2.7222222222222223,2.75,2.3333333333333335,1.8888888888888888,1.75,2.3333333333333335,2.0,1.25,1.25,0.75,-3.3424752736549955e-05,-0.4702659513065199,,,1.467,-0.3554624504693831,,,,,,
6,240711_150839,TrueCHOICE,9.0,7,3.0,1750.0,,,,,,,,,,,8.0,7.0,,,A,,,,,,True,cue1.png,Easy,cue2.png,Hard,Right,Hard,Hard,0.0149785999965388,,,,,,,,,,,,,41,22,Female,,,,,,,,,,,,,,,,1.5714285714285714,1.0,0.8,0.5,2.7222222222222223,2.75,2.3333333333333335,1.8888888888888888,1.75,2.3333333333333335,2.0,1.25,1.25,0.75,,,2.8222736564044188e-05,0.050901662873755645,1.463,-0.38352527550643956,,,,,,
7,240711_150855,TrueCHOICE,9.0,8,1.0,1750.0,,,,,,,,,,,9.0,8.0,,,A,,,,,,True,cue2.png,Hard,cue1.png,Easy,Right,Easy,Easy,0.0166593000030843,,,,,,,,,,,,,41,22,Female,1.0,1.0,0.3877074250012811,,,,,,,,,,,,,1.5714285714285714,1.0,0.8,0.5,2.7222222222222223,2.75,2.3333333333333335,1.8888888888888888,1.75,2.3333333333333335,2.0,1.25,1.25,0.75,,,,,,,,,,,,
8,240711_150911,TrueCHOICE,9.0,9,3.0,1750.0,,,,,,,,,,,10.0,9.0,,,A,,,,,,True,cue1.png,Easy,cue2.png,Hard,Right,Hard,Hard,0.0172719000111101,,,,,,,,,,,,,41,22,Female,0.75,0.8333333333333334,0.3444553749959596,,,,,,,,,,,,,1.5714285714285714,1.0,0.8,0.5,2.7222222222222223,2.75,2.3333333333333335,1.8888888888888888,1.75,2.3333333333333335,2.0,1.25,1.25,0.75,0.0011898780643248945,1.9952216433213712,,,,,,,,,,
9,240711_150927,TrueCHOICE,9.0,10,3.0,1750.0,,,,,,,,,,,11.0,10.0,,,A,,,,,,True,cue2.png,Hard,cue1.png,Easy,Left,Hard,Hard,0.0166861999896354,,,,,,,,,,,,,41,22,Female,0.75,0.8333333333333334,0.3223187499988853,,,,,,,,,,,,,1.5714285714285714,1.0,0.8,0.5,2.7222222222222223,2.75,2.3333333333333335,1.8888888888888888,1.75,2.3333333333333335,2.0,1.25,1.25,0.75,-4.5529244038351475e-05,-0.49466176951902213,0.00013498677983631588,1.614094575384344,,,,,,,,
0,240711_151040,FalseCHOICE,9.0,1,2.0,1750.0,,,,,,,,,,,1.0,1.0,,,A,,,,,,False,cue1.png,Easy,cue2.png,Hard,Right,Hard,Mid,0.0164935000066179,,,,,,,,,,,,,41,22,Female,1.0,1.0,0.4342361375001928,,,,,,,,,,,,,1.5714285714285714,1.0,0.8,0.5,2.7222222222222223,2.75,2.3333333333333335,1.8888888888888888,1.75,2.3333333333333335,2.0,1.25,1.25,0.75,,,,,1.267,-1.7586037023222068,,,,,,
1,240711_151056,FalseCHOICE,9.0,2,2.0,1750.0,,,,,,,,,,,2.0,2.0,,,A,,,,,,False,cue2.png,Hard,cue1.png,Easy,Right,Easy,Mid,0.0166120000067167,,,,,,,,,,,,,41,22,Female,,,,,,,,,,,,,,,,1.5714285714285714,1.0,0.8,0.5,2.7222222222222223,2.75,2.3333333333333335,1.8888888888888888,1.75,2.3333333333333335,2.0,1.25,1.25,0.75,-0.0001083173038638279,-0.621207037323053,,,1.723,1.4405583519022298,,,,,,
2,240711_151113,FalseCHOICE,9.0,3,2.0,1750.0,,,,,,,,,,,3.0,3.0,,,A,,,,,,False,cue2.png,Hard,cue1.png,Easy,Right,Easy,Mid,0.0160001999902306,,,,,,,,,,,,,41,22,Female,,,,,,,,,,,,,,,,1.5714285714285714,1.0,0.8,0.5,2.7222222222222223,2.75,2.3333333333333335,1.8888888888888888,1.75,2.3333333333333335,2.0,1.25,1.25,0.75,,,-3.585365682031794e-05,-0.8872771558342967,1.5929999999999997,0.5285165381978928,,,,,,
3,240711_151129,FalseCHOICE,9.0,4,2.0,1750.0,,,,,,,,,,,4.0,4.0,,,A,,,,,,False,cue2.png,Hard,cue1.png,Easy,Left,Hard,Mid,0.0159539000014774,,,,,,,,,,,,,41,22,Female,1.0,1.0,0.3900981999995565,,,,,,,,,,,,,1.5714285714285714,1.0,0.8,0.5,2.7222222222222223,2.75,2.3333333333333335,1.8888888888888888,1.75,2.3333333333333335,2.0,1.25,1.25,0.75,-3.06948990348244e-06,-0.4090868851727762,-2.8370982867018894e-05,-0.7777190824238032,1.5929999999999997,0.5285165381978928,,,,,,
4,240711_151145,FalseCHOICE,9.0,5,2.0,1750.0,,,,,,,,,,,5.0,5.0,,,A,,,,,,False,cue1.png,Easy,cue2.png,Hard,Right,Hard,Mid,0.0164725999929942,,,,,,,,,,,,,41,22,Female,,,,,,,,,,,,,,,,1.5714285714285714,1.0,0.8,0.5,2.7222222222222223,2.75,2.3333333333333335,1.8888888888888888,1.75,2.3333333333333335,2.0,1.25,1.25,0.75,,,,,,,,,,,,
5,240711_151201,FalseCHOICE,9.0,6,2.0,1750.0,,,,,,,,,,,6.0,6.0,,,A,,,,,,False,cue2.png,Hard,cue1.png,Easy,Right,Easy,Mid,0.0165401000122074,,,,,,,,,,,,,41,22,Female,1.0,1.0,0.3435315624974464,,,,,,,,,,,,,1.5714285714285714,1.0,0.8,0.5,2.7222222222222223,2.75,2.3333333333333335,1.8888888888888888,1.75,2.3333333333333335,2.0,1.25,1.25,0.75,-3.3424752736549955e-05,-0.4702659513065199,,,1.467,-0.3554624504693831,,,,,,
6,240711_151217,FalseCHOICE,9.0,7,2.0,1750.0,,,,,,,,,,,7.0,7.0,,,A,,,,,,False,cue2.png,Hard,cue1.png,Easy,Right,Easy,Mid,0.014677400002256,,,,,,,,,,,,,41,22,Female,0.75,0.8333333333333334,0.3710833874993113,,,,,,,,,,,,,1.5714285714285714,1.0,0.8,0.5,2.7222222222222223,2.75,2.3333333333333335,1.8888888888888888,1.75,2.3333333333333335,2.0,1.25,1.25,0.75,,,2.8222736564044188e-05,0.050901662873755645,1.463,-0.38352527550643956,,,,,,
7,240711_151236,FalseCHOICE,9.0,8,2.0,1750.0,,,,,,,,,,,8.0,8.0,,,A,,,,,,False,cue1.png,Easy,cue2.png,Hard,Right,Hard,Mid,0.0165837000095052,,,,,,,,,,,,,41,22,Female,,,,,,,,,,,,,,,,1.5714285714285714,1.0,0.8,0.5,2.7222222222222223,2.75,2.3333333333333335,1.8888888888888888,1.75,2.3333333333333335,2.0,1.25,1.25,0.75,,,,,,,,,,,,
8,240711_151253,FalseCHOICE,9.0,9,2.0,1750.0,,,,,,,,,,,9.0,9.0,,,A,,,,,,False,cue1.png,Easy,cue2.png,Hard,Left,Easy,Mid,0.0151064000092446,,,,,,,,,,,,,41,22,Female,0.1666666666666666,0.5416666666666667,0.314861228573136,,,,,,,,,,,,,1.5714285714285714,1.0,0.8,0.5,2.7222222222222223,2.75,2.3333333333333335,1.8888888888888888,1.75,2.3333333333333335,2.0,1.25,1.25,0.75,0.0011898780643248945,1.9952216433213712,,,,,,,,,,
9,240711_151310,FalseCHOICE,9.0,10,2.0,1750.0,,,,,,,,,,,10.0,10.0,,,A,,,,,,False,cue2.png,Hard,cue1.png,Easy,Right,Easy,Mid,0.0173101999971549,,,,,,,,,,,,,41,22,Female,,,,,,,,,,,,,,,,1.5714285714285714,1.0,0.8,0.5,2.7222222222222223,2.75,2.3333333333333335,1.8888888888888888,1.75,2.3333333333333335,2.0,1.25,1.25,0.75,-4.5529244038351475e-05,-0.49466176951902213,0.00013498677983631588,1.614094575384344,,,,,,,,
0,240711_144916,OFFLINERATING,9.0,1,1.0,,,,,,,,,,,,,,,,,T0,cue1.png,Easy,63.0,1.8756502000032924,,,,,,,,,,,,,,,,,,,,,,41,22,Female,,,,,,,,,,,,,,,,1.5714285714285714,1.0,0.8,0.5,2.7222222222222223,2.75,2.3333333333333335,1.8888888888888888,1.75,2.3333333333333335,2.0,1.25,1.25,0.75,,,,,,,0.0001566058194879096,1.3639489275161831,,,1.452,0.08764987177054175
1,240711_144923,OFFLINERATING,9.0,2,3.0,,,,,,,,,,,,,,,,,T0,cue2.png,Hard,76.0,1.4186824999924283,,,,,,,,,,,,,,,,,,,,,,41,22,Female,,,,,,,,,,,,,,,,1.5714285714285714,1.0,0.8,0.5,2.7222222222222223,2.75,2.3333333333333335,1.8888888888888888,1.75,2.3333333333333335,2.0,1.25,1.25,0.75,,,,,,,-0.0001985958198986778,-0.3583504653500764,0.00013261204206712132,0.3488982464563344,1.118,-1.6601147354749057
2,240711_150539,OFFLINERATING,9.0,3,1.0,,,,,,,,,,,,,,,,,T1,cue1.png,Easy,71.0,0.484923299998627,,,,,,,,,,,,,,,,,,,,,,41,22,Female,,,,,,,,,,,,,,,,1.5714285714285714,1.0,0.8,0.5,2.7222222222222223,2.75,2.3333333333333335,1.8888888888888888,1.75,2.3333333333333335,2.0,1.25,1.25,0.75,,,,,,,-0.00033208222215312666,-1.0055984621661065,,,1.5859999999999999,0.7888488459348827
3,240711_150546,OFFLINERATING,9.0,4,3.0,,,,,,,,,,,,,,,,,T1,cue2.png,Hard,74.0,0.9351889999961712,,,,,,,,,,,,,,,,,,,,,,41,22,Female,,,,,,,,,,,,,,,,1.5714285714285714,1.0,0.8,0.5,2.7222222222222223,2.75,2.3333333333333335,1.8888888888888888,1.75,2.3333333333333335,2.0,1.25,1.25,0.75,,,,,,,,,-0.00016909460526883793,-1.361336864429824,1.585,0.7836160177694778
4,240711_150948,OFFLINERATING,9.0,5,1.0,,,,,,,,,,,,,,,,,T2,cue1.png,Easy,72.0,2.220634600002086,,,,,,,,,,,,,,,,,,,,,,41,22,Female,,,,,,,,,,,,,,,,1.5714285714285714,1.0,0.8,0.5,2.7222222222222223,2.75,2.3333333333333335,1.8888888888888888,1.75,2.3333333333333335,2.0,1.25,1.25,0.75,,,,,,,,,0.00024966877864573533,1.0124386179734897,,
5,240711_150955,OFFLINERATING,9.0,6,3.0,,,,,,,,,,,,,,,,,T2,cue2.png,Hard,67.0,1.4519341999985045,,,,,,,,,,,,,,,,,,,,,,41,22,Female,,,,,,,,,,,,,,,,1.5714285714285714,1.0,0.8,0.5,2.7222222222222223,2.75,2.3333333333333335,1.8888888888888888,1.75,2.3333333333333335,2.0,1.25,1.25,0.75,,,,,,,,,,,,
6,240711_152507,OFFLINERATING,9.0,7,1.0,,,,,,,,,,,,,,,,,T3,cue1.png,Easy,77.0,1.7647719000087818,,,,,,,,,,,,,,,,,,,,,,41,22,Female,,,,,,,,,,,,,,,,1.5714285714285714,1.0,0.8,0.5,2.7222222222222223,2.75,2.3333333333333335,1.8888888888888888,1.75,2.3333333333333335,2.0,1.25,1.25,0.75,,,,,,,,,,,,
7,240711_152515,OFFLINERATING,9.0,8,3.0,,,,,,,,,,,,,,,,,T3,cue2.png,Hard,67.0,1.1185951000079513,,,,,,,,,,,,,,,,,,,,,,41,22,Female,,,,,,,,,,,,,,,,1.5714285714285714,1.0,0.8,0.5,2.7222222222222223,2.75,2.3333333333333335,1.8888888888888888,1.75,2.3333333333333335,2.0,1.25,1.25,0.75,,,,,,,,,,,,
