,END,Phase,Block,TrialN,NbackLevel,ISI,Letter_Resp,Letter_RT,Letter_Accuracy,Trial_A_measure,Trial_ACC,Trial_RT,TrialCountCali,CaliEnd_A_measure,ISI_calibrated,TrialIndex,TrialNumber_total,TrialNumber_valid,CueLearning,TrialDemandLearning,CueMapping,OfflineRatingTimePoint,CueFigure,TrialDemand,OfflineRating,OfflineRatingRT,PhaseType,CueLeft,CueDemandLeft,CueRight,CueDemandRight,Choice,ChoiceDemand,TaskDemand,ChoiceRT,CueCheck,CueDemandCheck,CorrectAnswer,Answer,AnswerDemand,AnswerRT,AnswerACC,DemandRatingQuesIndex,QuesTLX,DemandLevel,DemandRating,DemandRatingRT,PID,Age,Gender,BAI_bis,BAI_bas_d,BAI_bas_rr,BAI_bas_fs,NFC,BFI_ext,BFI_agr,BFI_con,BFI_neu,BFI_open,UPPS_lps,UPPS_lpm,UPPS_pu,UPPS_ss,Task_A_measure,Task_ACC,Task_RT,Task_RT_z,cue_i_on_zyg_values,cue_i_on_zyg_zvalues,cue_e_on_zyg_values,cue_e_on_zyg_zvalues,cue_i_on_cor_values,cue_i_on_cor_zvalues,cue_e_on_cor_values,cue_e_on_cor_zvalues,cue_i_on_scr_values,cue_i_on_scr_zvalues,cue_e_on_scr_values,cue_e_on_scr_zvalues,cue_e_true_zyg_values,cue_e_true_zyg_zvalues,cue_e_true_cor_values,cue_e_true_cor_zvalues,cue_e_true_scr_values,cue_e_true_scr_zvalues,cue_e_false_zyg_values,cue_e_false_zyg_zvalues,cue_e_false_cor_values,cue_e_false_cor_zvalues,cue_e_false_scr_values,cue_e_false_scr_zvalues,OfflineRating_z,cue_i_off_zyg_values,cue_i_off_zyg_zvalues,cue_i_off_cor_values,cue_i_off_cor_zvalues,cue_i_off_scr_values,cue_i_off_scr_zvalues,DemandRating_z
0,240711_144729,PRACTICE,0.0,1,1.0,1750.0,,,,,,,,,,20.0,1.0,1.0,cue1.png,Easy,A,,,,,,,,,,,,,,,,,,,,,,,,,,,41,22,Female,1.5714285714285714,1.0,0.8,0.5,2.7222222222222223,2.75,2.3333333333333335,1.8888888888888888,1.75,2.3333333333333335,2.0,1.25,1.25,0.75,,,,,,,,,,,,,,,,,,,,,,,,,,,,,,,,,,,,
0,240711_144952,LEARNING,1.0,1,1.0,1750.0,,,,,,,,,,1.0,1.0,1.0,cue1.png,Easy,A,,,,,,,,,,,,,,,,,,,,,,,,,,,41,22,Female,1.5714285714285714,1.0,0.8,0.5,2.7222222222222223,2.75,2.3333333333333335,1.8888888888888888,1.75,2.3333333333333335,2.0,1.25,1.25,0.75,1.0,1.0,0.3762640499990084,-0.7763058091673992,,,,,,,0.02199018281767864,3.3198533455510018,4.756859635617631e+45,-0.16834259597659407,,,,,,,,,,,,,,,,,,,,,,
1,240711_145011,LEARNING,1.0,2,3.0,1750.0,,,,,,,,,,2.0,2.0,2.0,cue2.png,Hard,A,,,,,,,,,,,,,,,,,,,,,,,,,,,41,22,Female,1.5714285714285714,1.0,0.8,0.5,2.7222222222222223,2.75,2.3333333333333335,1.8888888888888888,1.75,2.3333333333333335,2.0,1.25,1.25,0.75,0.75,0.8333333333333334,0.4357928625013301,0.7999217596321547,,,0.011164872812423465,1.507987382640853,,,,,2.020567373391765e+44,-0.17393275038940503,1.4856517813887616e+45,-0.17359796973034627,,,,,,,,,,,,,,,,,,,,
2,240711_145030,LEARNING,1.0,3,1.0,1750.0,,,,,,,,,,3.0,3.0,3.0,cue1.png,Easy,A,,,,,,,,,,,,,,,,,,,,,,,,,,,41,22,Female,1.5714285714285714,1.0,0.8,0.5,2.7222222222222223,2.75,2.3333333333333335,1.8888888888888888,1.75,2.3333333333333335,2.0,1.25,1.25,0.75,1.0,1.0,0.3746294874999876,-0.8195864049928585,,,,,,,,,-1.03306071575636e+45,-0.175448622192194,-7.444507195460153e+44,-0.17431058723027743,,,,,,,,,,,,,,,,,,,,
3,240711_145048,LEARNING,1.0,4,3.0,1750.0,,,,,,,,,,4.0,4.0,4.0,cue2.png,Hard,A,,,,,,,,,,,,,,,,,,,,,,,,,,,41,22,Female,1.5714285714285714,1.0,0.8,0.5,2.7222222222222223,2.75,2.3333333333333335,1.8888888888888888,1.75,2.3333333333333335,2.0,1.25,1.25,0.75,0.75,0.8333333333333334,0.4107349749992863,0.1364290501973947,,,0.010690833594525728,1.280785242683515,0.015029566870958714,0.16481287615839205,,,-1.1587293927660401e+45,-0.17560285659597105,-1.0731380062270676e+45,-0.17441561752031817,,,,,,,,,,,,,,,,,,,,
4,240711_145108,LEARNING,1.0,5,3.0,1750.0,,,,,,,,,,5.0,5.0,5.0,cue2.png,Hard,A,,,,,,,,,,,,,,,,,,,,,,,,,,,41,22,Female,1.5714285714285714,1.0,0.8,0.5,2.7222222222222223,2.75,2.3333333333333335,1.8888888888888888,1.75,2.3333333333333335,2.0,1.25,1.25,0.75,1.0,1.0,0.4434327624985599,1.002214069730489,0.012481508999287093,-0.16241315391014866,0.008853528928564468,0.4001839419910204,0.029825080085170326,2.8860813033267694,,,4.822531359212519e+48,5.74455945054604,1.8522087112375007e+49,5.744562610125206,,,,,,,,,,,,,,,,,,,,
5,240711_145126,LEARNING,1.0,6,1.0,1750.0,,,,,,,,,,6.0,6.0,6.0,cue1.png,Easy,A,,,,,,,,,,,,,,,,,,,,,,,,,,,41,22,Female,1.5714285714285714,1.0,0.8,0.5,2.7222222222222223,2.75,2.3333333333333335,1.8888888888888888,1.75,2.3333333333333335,2.0,1.25,1.25,0.75,0.75,0.8333333333333334,0.3831038999996963,-0.5951975410137652,0.010967341397128526,-0.26164176812376444,0.009782021768593437,0.8452010465360643,0.012923191499785963,-0.22260273493590096,0.018327836339631164,1.9968073796271124,,,-1.7437239140874406e+44,-0.17412842170524356,,,,,,,,,,,,,,,,,,,,
6,240711_145145,LEARNING,1.0,7,3.0,1750.0,,,,,,,,,,7.0,7.0,7.0,cue2.png,Hard,A,,,,,,,,,,,,,,,,,,,,,,,,,,,41,22,Female,1.5714285714285714,1.0,0.8,0.5,2.7222222222222223,2.75,2.3333333333333335,1.8888888888888888,1.75,2.3333333333333335,2.0,1.25,1.25,0.75,1.0,1.0,0.4176999624996824,0.32085075882866376,,,,,,,0.011644461953434368,-0.41760413862195156,2.4245191006160267e+44,-0.1738831729964654,,,,,,,,,,,,,,,,,,,,,,
7,240711_145204,LEARNING,1.0,8,3.0,1750.0,,,,,,,,,,8.0,8.0,8.0,cue2.png,Hard,A,,,,,,,,,,,,,,,,,,,,,,,,,,,41,22,Female,1.5714285714285714,1.0,0.8,0.5,2.7222222222222223,2.75,2.3333333333333335,1.8888888888888888,1.75,2.3333333333333335,2.0,1.25,1.25,0.75,1.0,1.0,0.3847031499990407,-0.552851963596594,0.019273710237006095,0.28270316961840214,0.011383093188123503,1.6125781727472503,0.012185799400960939,-0.3582277590850135,0.014779451694274087,0.7149308508152222,,,,,,,,,,,,,,,,,,,,,,,,
8,240711_145222,LEARNING,1.0,9,1.0,1750.0,,,,,,,,,,9.0,9.0,9.0,cue1.png,Easy,A,,,,,,,,,,,,,,,,,,,,,,,,,,,41,22,Female,1.5714285714285714,1.0,0.8,0.5,2.7222222222222223,2.75,2.3333333333333335,1.8888888888888888,1.75,2.3333333333333335,2.0,1.25,1.25,0.75,1.0,1.0,0.3625548375039216,-1.139303789018659,0.009639944817804134,-0.34863063440942665,0.009553965311371832,0.735895923340507,,,0.011615766822834536,-0.427970437116464,,,,,,,,,,,,,,,,,,,,,,,,
9,240711_145241,LEARNING,1.0,10,1.0,1750.0,,,,,,,,,,10.0,10.0,10.0,cue1.png,Easy,A,,,,,,,,,,,,,,,,,,,,,,,,,,,41,22,Female,1.5714285714285714,1.0,0.8,0.5,2.7222222222222223,2.75,2.3333333333333335,1.8888888888888888,1.75,2.3333333333333335,2.0,1.25,1.25,0.75,1.0,1.0,0.4346484500019869,0.7696195504040901,0.010892495434568439,-0.2665466816443906,0.006505539949728533,-0.72518311720207,0.013739637562854573,-0.07243769086156353,0.013317164616755445,0.18667034063948532,,,,,,,,,,,,,,,,,,,,,,,,
10,240711_145300,LEARNING,1.0,11,3.0,1750.0,,,,,,,,,,11.0,11.0,11.0,cue2.png,Hard,A,,,,,,,,,,,,,,,,,,,,,,,,,,,41,22,Female,1.5714285714285714,1.0,0.8,0.5,2.7222222222222223,2.75,2.3333333333333335,1.8888888888888888,1.75,2.3333333333333335,2.0,1.25,1.25,0.75,0.75,0.8333333333333334,0.450010762499005,1.1763889694542269,0.008101160264185774,-0.4494724821752839,0.006697321754249802,-0.6332640633622837,0.014620968524418772,0.0896613242159881,0.010906358500064613,-0.6842487071434903,,,3.237079924010159e+44,-0.17396926274383864,,,,,,,,,,,,,,,,,,,,
11,240711_145319,LEARNING,1.0,12,1.0,1750.0,,,,,,,,,,12.0,12.0,12.0,cue1.png,Easy,A,,,,,,,,,,,,,,,,,,,,,,,,,,,41,22,Female,1.5714285714285714,1.0,0.8,0.5,2.7222222222222223,2.75,2.3333333333333335,1.8888888888888888,1.75,2.3333333333333335,2.0,1.25,1.25,0.75,1.0,1.0,0.421501287501087,0.42150375379555116,0.006640302589236188,-0.5452075133844589,0.005879268583168673,-1.025348566186298,0.015592191690530699,0.2682937852472309,,,2.0134824056051947e+44,-0.17393361993447254,,,,,,,,,,,,,,,,,,,,,,
12,240711_145338,LEARNING,1.0,13,1.0,1750.0,,,,,,,,,,13.0,13.0,13.0,cue1.png,Easy,A,,,,,,,,,,,,,,,,,,,,,,,,,,,41,22,Female,1.5714285714285714,1.0,0.8,0.5,2.7222222222222223,2.75,2.3333333333333335,1.8888888888888888,1.75,2.3333333333333335,2.0,1.25,1.25,0.75,1.0,1.0,0.4103671124994434,0.1266886406476953,0.016664544224870917,0.11171554099106144,0.010034365398326557,0.9661467626610438,0.017298105307049387,0.5820543690740823,0.01737838575614906,1.6538123157112083,-1.2364091818219847e+44,-0.17433248232664061,-1.896469367608733e+44,-0.174133302605703,,,,,,,,,,,,,,,,,,,,
13,240711_145356,LEARNING,1.0,14,1.0,1750.0,,,,,,,,,,14.0,14.0,14.0,cue1.png,Easy,A,,,,,,,,,,,,,,,,,,,,,,,,,,,41,22,Female,1.5714285714285714,1.0,0.8,0.5,2.7222222222222223,2.75,2.3333333333333335,1.8888888888888888,1.75,2.3333333333333335,2.0,1.25,1.25,0.75,1.0,1.0,0.39945203750176,-0.16232505547117682,0.009149580889546842,-0.38076587029213216,0.0058698779249386785,-1.029849412455779,0.013601820516404687,-0.09778572521494001,0.01462836377538383,0.6603493788584341,,,,,,,,,,,,,,,,,,,,,,,,
14,240711_145416,LEARNING,1.0,15,3.0,1750.0,,,,,,,,,,15.0,15.0,15.0,cue2.png,Hard,A,,,,,,,,,,,,,,,,,,,,,,,,,,,41,22,Female,1.5714285714285714,1.0,0.8,0.5,2.7222222222222223,2.75,2.3333333333333335,1.8888888888888888,1.75,2.3333333333333335,2.0,1.25,1.25,0.75,0.75,0.8333333333333334,0.4612648749971413,1.4743798353268194,0.0064525439963966265,-0.5575119801737419,,,,,0.011453161135546747,-0.4867127761856736,,,,,,,,,,,,,,,,,,,,,,,,
15,240711_145434,LEARNING,1.0,16,1.0,1750.0,,,,,,,,,,16.0,16.0,16.0,cue1.png,Easy,A,,,,,,,,,,,,,,,,,,,,,,,,,,,41,22,Female,1.5714285714285714,1.0,0.8,0.5,2.7222222222222223,2.75,2.3333333333333335,1.8888888888888888,1.75,2.3333333333333335,2.0,1.25,1.25,0.75,1.0,1.0,0.3856175750006514,-0.5286394547869792,,,0.00590133338372023,-1.0147731333660392,,,0.016392575598228237,1.2976821242009586,,,,,,,,,,,,,,,,,,,,,,,,
16,240711_145453,LEARNING,1.0,17,1.0,1750.0,,,,,,,,,,17.0,17.0,17.0,cue1.png,Easy,A,,,,,,,,,,,,,,,,,,,,,,,,,,,41,22,Female,1.5714285714285714,1.0,0.8,0.5,2.7222222222222223,2.75,2.3333333333333335,1.8888888888888888,1.75,2.3333333333333335,2.0,1.25,1.25,0.75,1.0,1.0,0.3800265874997421,-0.6766798450669511,0.00699185151542109,-0.522169302341056,0.007235822135997204,-0.37516634806471333,0.010585660515198223,-0.6525336993972363,0.00919174049621983,-1.3036653698445948,,,,,,,,,,,,,,,,,,,,,,,,
17,240711_145511,LEARNING,1.0,18,3.0,1750.0,,,,,,,,,,18.0,18.0,18.0,cue2.png,Hard,A,,,,,,,,,,,,,,,,,,,,,,,,,,,41,22,Female,1.5714285714285714,1.0,0.8,0.5,2.7222222222222223,2.75,2.3333333333333335,1.8888888888888888,1.75,2.3333333333333335,2.0,1.25,1.25,0.75,0.75,0.8333333333333334,0.4030119999988528,-0.06806295287016655,0.007448627896193254,-0.4922351740418387,0.0065100661985580035,-0.7230137325157233,0.01185562491058633,-0.41895518388632386,0.010398761400934927,-0.8676213886589318,,,,,,,,,,,,,,,,,,,,,,,,
18,240711_145530,LEARNING,1.0,19,3.0,1750.0,,,,,,,,,,19.0,19.0,19.0,cue2.png,Hard,A,,,,,,,,,,,,,,,,,,,,,,,,,,,41,22,Female,1.5714285714285714,1.0,0.8,0.5,2.7222222222222223,2.75,2.3333333333333335,1.8888888888888888,1.75,2.3333333333333335,2.0,1.25,1.25,0.75,0.75,0.8333333333333334,0.3843543000002682,-0.5620889525827165,0.0066346319706351315,-0.5455791285377053,0.007587263125408606,-0.20672428283411054,0.012340040586880284,-0.32985891081767826,0.01171659994073323,-0.39154383175101015,,,,,,,,,,,,,,,,,,,,,,,,
19,240711_145548,LEARNING,1.0,20,3.0,1750.0,,,,,,,,,,20.0,20.0,20.0,cue2.png,Hard,A,,,,,,,,,,,,,,,,,,,,,,,,,,,41,22,Female,1.5714285714285714,1.0,0.8,0.5,2.7222222222222223,2.75,2.3333333333333335,1.8888888888888888,1.75,2.3333333333333335,2.0,1.25,1.25,0.75,1.0,1.0,0.3558203624997986,-1.3176218961113575,,,,,0.012813099441687872,-0.24285144394969552,0.010960467695551486,-0.66470141601814,,,1.0959170249598361e+44,-0.17403768247573112,,,,,,,,,,,,,,,,,,,,
20,240711_145607,LEARNING,1.0,21,1.0,1750.0,,,,,,,,,,21.0,21.0,21.0,cue1.png,Easy,A,,,,,,,,,,,,,,,,,,,,,,,,,,,41,22,Female,1.5714285714285714,1.0,0.8,0.5,2.7222222222222223,2.75,2.3333333333333335,1.8888888888888888,1.75,2.3333333333333335,2.0,1.25,1.25,0.75,1.0,1.0,0.4334269249975477,0.7372755256026559,0.02305378547790199,0.5304245098733227,0.006353758598272564,-0.7979303637470856,0.03406550235522132,3.6660020180923447,0.010942221484983548,-0.6712929756725882,8.028695849284717e+43,-0.174082199637104,3.8177014004357115e+43,-0.17406050266303189,,,,,,,,,,,,,,,,,,,,
21,240711_145625,LEARNING,1.0,22,3.0,1750.0,,,,,,,,,,22.0,22.0,22.0,cue2.png,Hard,A,,,,,,,,,,,,,,,,,,,,,,,,,,,41,22,Female,1.5714285714285714,1.0,0.8,0.5,2.7222222222222223,2.75,2.3333333333333335,1.8888888888888888,1.75,2.3333333333333335,2.0,1.25,1.25,0.75,1.0,1.0,0.3272127000018372,-2.0751069594399967,0.009173180961634088,-0.3792192763449228,0.0065932801560994216,-0.6831301353070893,0.011301240754046277,-0.5209204269889239,,,-4.459825109020905e+42,-0.1741862101984617,-2.8126989110040425e+43,-0.17408168975775737,,,,,,,,,,,,,,,,,,,,
22,240711_145645,LEARNING,1.0,23,3.0,1750.0,,,,,,,,,,23.0,23.0,23.0,cue2.png,Hard,A,,,,,,,,,,,,,,,,,,,,,,,,,,,41,22,Female,1.5714285714285714,1.0,0.8,0.5,2.7222222222222223,2.75,2.3333333333333335,1.8888888888888888,1.75,2.3333333333333335,2.0,1.25,1.25,0.75,1.0,1.0,0.4572227999997267,1.3673521662324326,,,,,0.01069832679401705,-0.631811526200721,0.010703415547290457,-0.7575631400050357,-7.974468787245558e+43,-0.17427860805127635,-8.864768610760336e+43,-0.1741010288274954,,,,,,,,,,,,,,,,,,,,
23,240711_145703,LEARNING,1.0,24,3.0,1750.0,,,,,,,,,,24.0,24.0,24.0,cue2.png,Hard,A,,,,,,,,,,,,,,,,,,,,,,,,,,,41,22,Female,1.5714285714285714,1.0,0.8,0.5,2.7222222222222223,2.75,2.3333333333333335,1.8888888888888888,1.75,2.3333333333333335,2.0,1.25,1.25,0.75,0.75,0.8333333333333334,0.3345128499986458,-1.8818106849528675,0.05965883341902045,2.9292792834413657,,,0.015792146042276623,0.305070438845056,,,-1.2854159322340361e+44,-0.17433849697333756,-1.1788340670355621e+44,-0.17411037094791856,,,,,,,,,,,,,,,,,,,,
24,240711_145722,LEARNING,1.0,25,1.0,1750.0,,,,,,,,,,25.0,25.0,25.0,cue1.png,Easy,A,,,,,,,,,,,,,,,,,,,,,,,,,,,41,22,Female,1.5714285714285714,1.0,0.8,0.5,2.7222222222222223,2.75,2.3333333333333335,1.8888888888888888,1.75,2.3333333333333335,2.0,1.25,1.25,0.75,1.0,1.0,0.4001449625011446,-0.14397751179897864,,,,,0.014609259172808779,0.08750767882514887,0.015176911140514674,0.8585156045022366,-1.3595325055004957e+44,-0.17434759337329955,-1.1475426683080155e+44,-0.17410937104776503,,,,,,,,,,,,,,,,,,,,
25,240711_145740,LEARNING,1.0,26,1.0,1750.0,,,,,,,,,,26.0,26.0,26.0,cue1.png,Easy,A,,,,,,,,,,,,,,,,,,,,,,,,,,,41,22,Female,1.5714285714285714,1.0,0.8,0.5,2.7222222222222223,2.75,2.3333333333333335,1.8888888888888888,1.75,2.3333333333333335,2.0,1.25,1.25,0.75,1.0,1.0,0.3773962124996615,-0.746327960275809,,,,,0.010292130684689333,-0.7065212460697421,0.01323635719709553,0.15747814617109968,-1.0695387908758346e+44,-0.17431200215937218,-7.769131597190579e+43,-0.17409752777716647,,,,,,,,,,,,,,,,,,,,
26,240711_145759,LEARNING,1.0,27,3.0,1750.0,,,,,,,,,,27.0,27.0,27.0,cue2.png,Hard,A,,,,,,,,,,,,,,,,,,,,,,,,,,,41,22,Female,1.5714285714285714,1.0,0.8,0.5,2.7222222222222223,2.75,2.3333333333333335,1.8888888888888888,1.75,2.3333333333333335,2.0,1.25,1.25,0.75,0.1666666666666666,0.6666666666666667,0.3786726625003211,-0.7125296095837733,0.0838788643923313,4.516501270139775,0.006113220431216178,-0.9132178425742404,,,0.009088642391666523,-1.3409102160494173,-7.718915603708516e+42,-0.17419021011229277,,,,,,,,,,,,,,,,,,,,,,
27,240711_145817,LEARNING,1.0,28,1.0,1750.0,,,,,,,,,,28.0,28.0,28.0,cue1.png,Easy,A,,,,,,,,,,,,,,,,,,,,,,,,,,,41,22,Female,1.5714285714285714,1.0,0.8,0.5,2.7222222222222223,2.75,2.3333333333333335,1.8888888888888888,1.75,2.3333333333333335,2.0,1.25,1.25,0.75,1.0,1.0,0.3668905999984417,-1.0244997455924074,0.009472604874797213,-0.35959699680120594,0.0077700483677607506,-0.11911718905988426,0.012114476031053294,-0.3713459275350604,0.01050589710364626,-0.8289179344313515,1.4175170412096367e+43,-0.17416333928510463,2.459406017182201e+43,-0.17406484302433717,,,,,,,,,,,,,,,,,,,,
28,240711_145836,LEARNING,1.0,29,1.0,1750.0,,,,,,,,,,29.0,29.0,29.0,cue1.png,Easy,A,,,,,,,,,,,,,,,,,,,,,,,,,,,41,22,Female,1.5714285714285714,1.0,0.8,0.5,2.7222222222222223,2.75,2.3333333333333335,1.8888888888888888,1.75,2.3333333333333335,2.0,1.25,1.25,0.75,0.75,0.8333333333333334,0.416947749999963,0.3009333771471946,0.01149130751734257,-0.2273044649549441,0.006446334211089225,-0.7535598210880079,0.012180869299773136,-0.35913452916529887,0.010444484474822992,-0.851103637315674,7.564283044595036e+43,-0.17408789942115063,7.613269081624574e+43,-0.17404837412656032,,,,,,,,,,,,,,,,,,,,
29,240711_145855,LEARNING,1.0,30,3.0,1750.0,,,,,,,,,,30.0,30.0,30.0,cue2.png,Hard,A,,,,,,,,,,,,,,,,,,,,,,,,,,,41,22,Female,1.5714285714285714,1.0,0.8,0.5,2.7222222222222223,2.75,2.3333333333333335,1.8888888888888888,1.75,2.3333333333333335,2.0,1.25,1.25,0.75,0.75,0.8333333333333334,0.4469812749994162,1.0961729947781105,0.017978780463479314,0.1978419648562376,0.008904470769897387,0.42459984457295225,0.0123701436658342,-0.32432219457594874,,,1.119907366380728e+44,-0.1740432892782456,9.770036017184256e+43,-0.17404148229149488,,,,,,,,,,,,,,,,,,,,
30,240711_145913,LEARNING,1.0,31,3.0,1750.0,,,,,,,,,,31.0,31.0,31.0,cue2.png,Hard,A,,,,,,,,,,,,,,,,,,,,,,,,,,,41,22,Female,1.5714285714285714,1.0,0.8,0.5,2.7222222222222223,2.75,2.3333333333333335,1.8888888888888888,1.75,2.3333333333333335,2.0,1.25,1.25,0.75,0.75,0.8333333333333334,0.359242312499191,-1.2270141433045039,0.007075856563077762,-0.5166641624516296,0.007000241733948591,-0.48807762092273577,0.013450970484543691,-0.1255308546333889,0.00919764198027184,-1.3015334211841447,,,,,,,,,,,,,,,,,,,,,,,,
31,240711_145933,LEARNING,1.0,32,1.0,1750.0,,,,,,,,,,32.0,32.0,32.0,cue1.png,Easy,A,,,,,,,,,,,,,,,,,,,,,,,,,,,41,22,Female,1.5714285714285714,1.0,0.8,0.5,2.7222222222222223,2.75,2.3333333333333335,1.8888888888888888,1.75,2.3333333333333335,2.0,1.25,1.25,0.75,0.75,0.8333333333333334,0.4573254124989034,1.3700691807890295,0.008345757938287691,-0.4334431547703081,0.007408686041050784,-0.2923144496000002,,,,,9.326015186021873e+43,-0.174066277509238,7.472130632513988e+43,-0.17404882512703548,,,,,,,,,,,,,,,,,,,,
32,240711_145951,LEARNING,1.0,33,1.0,1750.0,,,,,,,,,,33.0,33.0,33.0,cue1.png,Easy,A,,,,,,,,,,,,,,,,,,,,,,,,,,,41,22,Female,1.5714285714285714,1.0,0.8,0.5,2.7222222222222223,2.75,2.3333333333333335,1.8888888888888888,1.75,2.3333333333333335,2.0,1.25,1.25,0.75,1.0,1.0,0.3778355125014059,-0.7346960001439614,0.011985440494607492,-0.19492223031899822,,,0.01378079016555595,-0.0648686882318004,0.01398276132937491,0.4271213877596565,4.388829556764759e+43,-0.17412687207424696,3.024510495683209e+43,-0.17406303726276118,,,,,,,,,,,,,,,,,,,,
33,240711_150010,LEARNING,1.0,34,1.0,1750.0,,,,,,,,,,34.0,34.0,34.0,cue1.png,Easy,A,,,,,,,,,,,,,,,,,,,,,,,,,,,41,22,Female,1.5714285714285714,1.0,0.8,0.5,2.7222222222222223,2.75,2.3333333333333335,1.8888888888888888,1.75,2.3333333333333335,2.0,1.25,1.25,0.75,1.0,1.0,0.4342307249989972,0.7585588616684705,,,0.008246729493705009,0.1093511903541848,0.010034865246947373,-0.7538388553336363,0.008227526330229898,-1.6519938718709148,-1.1895767146129815e+43,-0.1741953364032878,-2.0871390889061306e+43,-0.17407937126958806,,,,,,,,,,,,,,,,,,,,
34,240711_150029,LEARNING,1.0,35,3.0,1750.0,,,,,,,,,,35.0,35.0,35.0,cue2.png,Hard,A,,,,,,,,,,,,,,,,,,,,,,,,,,,41,22,Female,1.5714285714285714,1.0,0.8,0.5,2.7222222222222223,2.75,2.3333333333333335,1.8888888888888888,1.75,2.3333333333333335,2.0,1.25,1.25,0.75,0.75,0.8333333333333334,0.4493338124993897,1.1584644181783066,0.005868383008948921,-0.5957940601624161,0.006938871995508517,-0.5174915077400389,0.009839651509980122,-0.7897435901858392,0.013213612502408888,0.14926148050833182,-6.498337993338998e+43,-0.17426049135280283,-6.575357511747109e+43,-0.17409371313499689,,,,,,,,,,,,,,,,,,,,
35,240711_150047,LEARNING,1.0,36,3.0,1750.0,,,,,,,,,,36.0,36.0,36.0,cue2.png,Hard,A,,,,,,,,,,,,,,,,,,,,,,,,,,,41,22,Female,1.5714285714285714,1.0,0.8,0.5,2.7222222222222223,2.75,2.3333333333333335,1.8888888888888888,1.75,2.3333333333333335,2.0,1.25,1.25,0.75,1.0,1.0,0.348473362497316,-1.5121586836784173,0.014165311977940425,-0.05206774964820255,,,0.028637167726825175,2.6675942290221935,0.014586112850806465,0.6450859635443158,-1.0017219362643253e+44,-0.17430367893007914,-8.631772622010634e+43,-0.1741002843010939,,,,,,,,,,,,,,,,,,,,
36,240711_150106,LEARNING,1.0,37,1.0,1750.0,,,,,,,,,,37.0,37.0,37.0,cue1.png,Easy,A,,,,,,,,,,,,,,,,,,,,,,,,,,,41,22,Female,1.5714285714285714,1.0,0.8,0.5,2.7222222222222223,2.75,2.3333333333333335,1.8888888888888888,1.75,2.3333333333333335,2.0,1.25,1.25,0.75,1.0,1.0,0.3930715625047014,-0.33126980961032293,,,,,0.012138553886373978,-0.36691740204023904,0.010721002736094647,-0.7512096561555963,-1.0356873477713525e+44,-0.17430784753845274,-8.730837103177406e+43,-0.17410060085642207,,,,,,,,,,,,,,,,,,,,
37,240711_150125,LEARNING,1.0,38,3.0,1750.0,,,,,,,,,,38.0,38.0,38.0,cue2.png,Hard,A,,,,,,,,,,,,,,,,,,,,,,,,,,,41,22,Female,1.5714285714285714,1.0,0.8,0.5,2.7222222222222223,2.75,2.3333333333333335,1.8888888888888888,1.75,2.3333333333333335,2.0,1.25,1.25,0.75,1.0,1.0,0.3648604750014783,-1.078254202532029,0.0073497629790739115,-0.49871413231971434,0.014181028427285023,2.9535998641986954,0.01049683852523009,-0.6688703058696888,,,-7.776423552507772e+43,-0.17427617742262427,-6.246392126005141e+43,-0.1740926619434456,,,,,,,,,,,,,,,,,,,,
38,240711_150144,LEARNING,1.0,39,3.0,1750.0,,,,,,,,,,39.0,39.0,39.0,cue2.png,Hard,A,,,,,,,,,,,,,,,,,,,,,,,,,,,41,22,Female,1.5714285714285714,1.0,0.8,0.5,2.7222222222222223,2.75,2.3333333333333335,1.8888888888888888,1.75,2.3333333333333335,2.0,1.25,1.25,0.75,0.75,0.8333333333333334,0.4586663875033991,1.4055760501907129,0.006729669145024847,-0.5393510154146763,0.006885706461138549,-0.5429732036098475,0.012419157938499448,-0.3153072323537229,0.01256140327217921,-0.0863532534241453,-2.331575239962086e+43,-0.17420935226355325,-1.4077959263580788e+43,-0.1740772004643184,,,,,,,,,,,,,,,,,,,,
39,240711_150203,LEARNING,1.0,40,3.0,1750.0,,,,,,,,,,40.0,40.0,40.0,cue2.png,Hard,A,,,,,,,,,,,,,,,,,,,,,,,,,,,41,22,Female,1.5714285714285714,1.0,0.8,0.5,2.7222222222222223,2.75,2.3333333333333335,1.8888888888888888,1.75,2.3333333333333335,2.0,1.25,1.25,0.75,1.0,1.0,0.4435877249979967,1.0063172284107138,0.016999524295544566,0.13366793790850942,0.007316685189936231,-0.33640951486447834,0.02077867653892128,1.2222192937152734,0.01459136374626762,0.646982882937118,4.476391574811122e+43,-0.17412579741698403,4.0796501473052706e+43,-0.17405966561961786,,,,,,,,,,,,,,,,,,,,
40,240711_150222,LEARNING,1.0,41,1.0,1750.0,,,,,,,,,,41.0,41.0,41.0,cue1.png,Easy,A,,,,,,,,,,,,,,,,,,,,,,,,,,,41,22,Female,1.5714285714285714,1.0,0.8,0.5,2.7222222222222223,2.75,2.3333333333333335,1.8888888888888888,1.75,2.3333333333333335,2.0,1.25,1.25,0.75,1.0,1.0,0.4002117874988471,-0.14220809293715378,0.01763394976329371,0.17524402228439204,0.014246125219932501,2.984800089908832,0.01389914211497185,-0.04310077666453159,,,9.2523554691542e+43,-0.17406718154219067,8.199117509948337e+43,-0.17404650207878608,,,,,,,,,,,,,,,,,,,,
41,240711_150240,LEARNING,1.0,42,3.0,1750.0,,,,,,,,,,42.0,42.0,42.0,cue2.png,Hard,A,,,,,,,,,,,,,,,,,,,,,,,,,,,41,22,Female,1.5714285714285714,1.0,0.8,0.5,2.7222222222222223,2.75,2.3333333333333335,1.8888888888888888,1.75,2.3333333333333335,2.0,1.25,1.25,0.75,0.75,0.8333333333333334,0.4123115624988713,0.1781745609342957,0.008007878828829921,-0.455585535676774,0.006617036665504516,-0.6717438837672042,,,0.015247788527458271,0.8841205114745959,1.072032010478446e+44,-0.17404916506778115,,,,,,,,,,,,,,,,,,,,,,
42,240711_150259,LEARNING,1.0,43,3.0,1750.0,,,,,,,,,,43.0,43.0,43.0,cue2.png,Hard,A,,,,,,,,,,,,,,,,,,,,,,,,,,,41,22,Female,1.5714285714285714,1.0,0.8,0.5,2.7222222222222223,2.75,2.3333333333333335,1.8888888888888888,1.75,2.3333333333333335,2.0,1.25,1.25,0.75,0.75,0.8333333333333334,0.4475735250034631,1.1118548258907999,0.007077189242920598,-0.5165768273549028,0.007053452290921487,-0.4625743461806617,,,,,,,6.856819927580828e+43,-0.1740507913199618,,,,,,,,,,,,,,,,,,,,
43,240711_150318,LEARNING,1.0,44,1.0,1750.0,,,,,,,,,,44.0,44.0,44.0,cue1.png,Easy,A,,,,,,,,,,,,,,,,,,,,,,,,,,,41,22,Female,1.5714285714285714,1.0,0.8,0.5,2.7222222222222223,2.75,2.3333333333333335,1.8888888888888888,1.75,2.3333333333333335,2.0,1.25,1.25,0.75,0.75,0.8333333333333334,0.4295432624985551,0.634442365633501,0.024286166165666555,0.6111866577730467,0.006229521417104223,-0.8574759717009909,0.009749770347982398,-0.80627500513579,0.010486882487656187,-0.835787085433326,1.4677728189559477e+43,-0.17416272249099954,7.692915794416566e+42,-0.1740702436959418,,,,,,,,,,,,,,,,,,,,
44,240711_150337,LEARNING,1.0,45,1.0,1750.0,,,,,,,,,,45.0,45.0,45.0,cue1.png,Easy,A,,,,,,,,,,,,,,,,,,,,,,,,,,,41,22,Female,1.5714285714285714,1.0,0.8,0.5,2.7222222222222223,2.75,2.3333333333333335,1.8888888888888888,1.75,2.3333333333333335,2.0,1.25,1.25,0.75,1.0,1.0,0.3530080875043495,-1.392086431729293,0.009988143162268598,-0.32581199851771403,0.007018254672920553,-0.47944420384070513,0.012430794448618073,-0.31316698435219875,0.01428144713997345,0.5350235371493522,-6.011422854074866e+43,-0.17425451539538994,-5.789791854383829e+43,-0.17409120290134375,,,,,,,,,,,,,,,,,,,,
45,240711_150355,LEARNING,1.0,46,1.0,1750.0,,,,,,,,,,46.0,46.0,46.0,cue1.png,Easy,A,,,,,,,,,,,,,,,,,,,,,,,,,,,41,22,Female,1.5714285714285714,1.0,0.8,0.5,2.7222222222222223,2.75,2.3333333333333335,1.8888888888888888,1.75,2.3333333333333335,2.0,1.25,1.25,0.75,1.0,1.0,0.4076447250026831,0.05460418196339983,0.037374925698833765,1.4689381169905873,0.00839783423639569,0.181774145250781,0.011469357067394569,-0.48999959247760627,0.012874675930282228,0.026818487431575822,,,-9.90405957746816e+43,-0.17410434982700138,,,,,,,,,,,,,,,,,,,,
46,240711_150414,LEARNING,1.0,47,3.0,1750.0,,,,,,,,,,47.0,47.0,47.0,cue2.png,Hard,A,,,,,,,,,,,,,,,,,,,,,,,,,,,41,22,Female,1.5714285714285714,1.0,0.8,0.5,2.7222222222222223,2.75,2.3333333333333335,1.8888888888888888,1.75,2.3333333333333335,2.0,1.25,1.25,0.75,0.1666666666666666,0.6666666666666667,0.3547157625034742,-1.346869934053228,0.0062745677522949815,-0.5691753759827489,0.009098936162386799,0.517805114628835,0.009490114917674734,-0.8540321943734271,0.014372289266364925,0.5678408332677317,-9.141342924886736e+43,-0.17429292921237904,,,,,,,,,,,,,,,,,,,,,,
47,240711_150433,LEARNING,1.0,48,3.0,1750.0,,,,,,,,,,48.0,48.0,48.0,cue2.png,Hard,A,,,,,,,,,,,,,,,,,,,,,,,,,,,41,22,Female,1.5714285714285714,1.0,0.8,0.5,2.7222222222222223,2.75,2.3333333333333335,1.8888888888888888,1.75,2.3333333333333335,2.0,1.25,1.25,0.75,0.75,0.8333333333333334,0.4421844875014358,0.9691617479857296,0.006432351505452658,-0.5588352636009097,0.008788613307113079,0.36907054977882203,0.008822505004550021,-0.9768225127589938,0.011181086239118504,-0.5850015635263127,3.2017379413074477e+43,-0.1741414413664441,3.0611487574646933e+43,-0.17406292018712677,,,,,,,,,,,,,,,,,,,,
48,240711_150452,LEARNING,1.0,49,1.0,1750.0,,,,,,,,,,49.0,49.0,49.0,cue1.png,Easy,A,,,,,,,,,,,,,,,,,,,,,,,,,,,41,22,Female,1.5714285714285714,1.0,0.8,0.5,2.7222222222222223,2.75,2.3333333333333335,1.8888888888888888,1.75,2.3333333333333335,2.0,1.25,1.25,0.75,0.75,0.8333333333333334,0.4812919250016421,2.0046640290118556,,,0.006099407921577714,-0.9198380369158772,0.01379902781836918,-0.06151432342756844,0.01295052315395129,0.05421877954030552,,,1.2496992516626262e+44,-0.17403276844573112,,,,,,,,,,,,,,,,,,,,
49,240711_150511,LEARNING,1.0,50,1.0,1750.0,,,,,,,,,,50.0,50.0,50.0,cue1.png,Easy,A,,,,,,,,,,,,,,,,,,,,,,,,,,,41,22,Female,1.5714285714285714,1.0,0.8,0.5,2.7222222222222223,2.75,2.3333333333333335,1.8888888888888888,1.75,2.3333333333333335,2.0,1.25,1.25,0.75,0.75,0.8333333333333334,0.4496129499984818,1.165855531877031,0.011873370839510962,-0.20226654052268597,0.007348505170149652,-0.3211585243874644,,,0.013141364612773333,0.12316147071903498,-2.6871003490921913e+43,-0.17421371565819854,-2.4207216402947876e+43,-0.17408043721504882,,,,,,,,,,,,,,,,,,,,
0,240711_150654,TrueCHOICE,9.0,1,3.0,1750.0,,,,,,,,,,,1.0,1.0,,,A,,,,,,True,cue1.png,Easy,cue2.png,Hard,Right,Hard,Hard,0.0165707999985897,,,,,,,,,,,,,41,22,Female,1.5714285714285714,1.0,0.8,0.5,2.7222222222222223,2.75,2.3333333333333335,1.8888888888888888,1.75,2.3333333333333335,2.0,1.25,1.25,0.75,1.0,1.0,0.4342361375001928,2.1721121174030156,,,,,,,,,,,,,,,,,17284757.975012872,2.149796098104803,,,,,,,,,,,,,,
1,240711_150716,TrueCHOICE,9.0,2,1.0,1750.0,,,,,,,,,,,3.0,2.0,,,A,,,,,,True,cue1.png,Easy,cue2.png,Hard,Left,Easy,Easy,0.0153401999996276,,,,,,,,,,,,,41,22,Female,1.5714285714285714,1.0,0.8,0.5,2.7222222222222223,2.75,2.3333333333333335,1.8888888888888888,1.75,2.3333333333333335,2.0,1.25,1.25,0.75,0.75,0.8333333333333334,0.3970585749993915,0.9856114806701882,,,,,,,,,,,,,0.0059285501489036605,-0.5958279639371514,,,4821052.293573943,0.09180160254160825,,,,,,,,,,,,,,
2,240711_150734,TrueCHOICE,9.0,3,3.0,1750.0,,,,,,,,,,,4.0,3.0,,,A,,,,,,True,cue2.png,Hard,cue1.png,Easy,Left,Hard,Hard,0.015967899991665,,,,,,,,,,,,,41,22,Female,1.5714285714285714,1.0,0.8,0.5,2.7222222222222223,2.75,2.3333333333333335,1.8888888888888888,1.75,2.3333333333333335,2.0,1.25,1.25,0.75,1.0,1.0,0.351488212496406,-0.468740566341305,,,,,,,,,,,,,,,0.01360955174626044,1.0786364555375056,2637299.483486289,-0.2687774561827793,,,,,,,,,,,,,,
3,240711_150751,TrueCHOICE,9.0,4,3.0,1750.0,,,,,,,,,,,5.0,4.0,,,A,,,,,,True,cue1.png,Easy,cue2.png,Hard,Right,Hard,Hard,0.016849200008437,,,,,,,,,,,,,41,22,Female,1.5714285714285714,1.0,0.8,0.5,2.7222222222222223,2.75,2.3333333333333335,1.8888888888888888,1.75,2.3333333333333335,2.0,1.25,1.25,0.75,1.0,1.0,0.3685131125002954,0.07459937678950451,,,,,,,,,,,,,0.006661202050793631,-0.5455441535072606,0.013087162647305873,0.478194641386122,212790.57455214,-0.669109918819554,,,,,,,,,,,,,,
4,240711_150807,TrueCHOICE,9.0,5,1.0,1750.0,,,,,,,,,,,6.0,5.0,,,A,,,,,,True,cue2.png,Hard,cue1.png,Easy,Right,Easy,Easy,0.0164356000022962,,,,,,,,,,,,,41,22,Female,1.5714285714285714,1.0,0.8,0.5,2.7222222222222223,2.75,2.3333333333333335,1.8888888888888888,1.75,2.3333333333333335,2.0,1.25,1.25,0.75,1.0,1.0,0.3414578874962899,-0.7888526500482028,,,,,,,,,,,,,,,,,,,,,,,,,,,,,,,,
5,240711_150823,TrueCHOICE,9.0,6,3.0,1750.0,,,,,,,,,,,7.0,6.0,,,A,,,,,,True,cue2.png,Hard,cue1.png,Easy,Left,Hard,Hard,0.0160147999995388,,,,,,,,,,,,,41,22,Female,1.5714285714285714,1.0,0.8,0.5,2.7222222222222223,2.75,2.3333333333333335,1.8888888888888888,1.75,2.3333333333333335,2.0,1.25,1.25,0.75,0.75,0.8333333333333334,0.3434374500011472,-0.7256760452771125,,,,,,,,,,,,,0.008181049007714247,-0.4412330938251692,,,373041.65743114735,-0.6426494218451931,,,,,,,,,,,,,,
6,240711_150839,TrueCHOICE,9.0,7,3.0,1750.0,,,,,,,,,,,8.0,7.0,,,A,,,,,,True,cue1.png,Easy,cue2.png,Hard,Right,Hard,Hard,0.0149785999965388,,,,,,,,,,,,,41,22,Female,1.5714285714285714,1.0,0.8,0.5,2.7222222222222223,2.75,2.3333333333333335,1.8888888888888888,1.75,2.3333333333333335,2.0,1.25,1.25,0.75,0.75,0.8333333333333334,0.3710833874993113,0.15662823284603364,,,,,,,,,,,,,,,0.01126703864513986,-1.6138830073017352,261537.32992946557,-0.6610609037988848,,,,,,,,,,,,,,
7,240711_150855,TrueCHOICE,9.0,8,1.0,1750.0,,,,,,,,,,,9.0,8.0,,,A,,,,,,True,cue2.png,Hard,cue1.png,Easy,Right,Easy,Easy,0.0166593000030843,,,,,,,,,,,,,41,22,Female,1.5714285714285714,1.0,0.8,0.5,2.7222222222222223,2.75,2.3333333333333335,1.8888888888888888,1.75,2.3333333333333335,2.0,1.25,1.25,0.75,1.0,1.0,0.3877074250012811,0.6871748785744195,,,,,,,,,,,,,,,,,,,,,,,,,,,,,,,,
8,240711_150911,TrueCHOICE,9.0,9,3.0,1750.0,,,,,,,,,,,10.0,9.0,,,A,,,,,,True,cue1.png,Easy,cue2.png,Hard,Right,Hard,Hard,0.0172719000111101,,,,,,,,,,,,,41,22,Female,1.5714285714285714,1.0,0.8,0.5,2.7222222222222223,2.75,2.3333333333333335,1.8888888888888888,1.75,2.3333333333333335,2.0,1.25,1.25,0.75,0.75,0.8333333333333334,0.3444553749959596,-0.6931895514553328,,,,,,,,,,,,,0.04368561288459338,1.9955377038421975,,,,,,,,,,,,,,,,,,
9,240711_150927,TrueCHOICE,9.0,10,3.0,1750.0,,,,,,,,,,,11.0,10.0,,,A,,,,,,True,cue2.png,Hard,cue1.png,Easy,Left,Hard,Hard,0.0166861999896354,,,,,,,,,,,,,41,22,Female,1.5714285714285714,1.0,0.8,0.5,2.7222222222222223,2.75,2.3333333333333335,1.8888888888888888,1.75,2.3333333333333335,2.0,1.25,1.25,0.75,0.75,0.8333333333333334,0.3223187499988853,-1.3996672731612227,,,,,,,,,,,,,0.008593398214249058,-0.4129324925726166,0.012720765160326272,0.05705191037811148,,,,,,,,,,,,,,,,
0,240711_151040,FalseCHOICE,9.0,1,2.0,1750.0,,,,,,,,,,,1.0,1.0,,,A,,,,,,False,cue1.png,Easy,cue2.png,Hard,Right,Hard,Mid,0.0164935000066179,,,,,,,,,,,,,41,22,Female,1.5714285714285714,1.0,0.8,0.5,2.7222222222222223,2.75,2.3333333333333335,1.8888888888888888,1.75,2.3333333333333335,2.0,1.25,1.25,0.75,1.0,1.0,0.3808458374987822,0.12904793797731465,,,,,,,,,,,,,,,,,,,0.016790058572195538,0.5807370454124644,0.01121155592984893,-0.28807032841012015,1.0721698747528022e+46,-0.1650615716841303,,,,,,,,
1,240711_151056,FalseCHOICE,9.0,2,2.0,1750.0,,,,,,,,,,,2.0,2.0,,,A,,,,,,False,cue2.png,Hard,cue1.png,Easy,Right,Easy,Mid,0.0166120000067167,,,,,,,,,,,,,41,22,Female,1.5714285714285714,1.0,0.8,0.5,2.7222222222222223,2.75,2.3333333333333335,1.8888888888888888,1.75,2.3333333333333335,2.0,1.25,1.25,0.75,1.0,1.0,0.3782985749985528,0.0759153455555749,,,,,,,,,,,,,,,,,,,0.0059134727220724465,-0.5797764768019271,0.01384896231166643,0.19510353235725378,1.944110178740917e+45,-0.16676431604300682,,,,,,,,
2,240711_151113,FalseCHOICE,9.0,3,2.0,1750.0,,,,,,,,,,,3.0,3.0,,,A,,,,,,False,cue2.png,Hard,cue1.png,Easy,Right,Easy,Mid,0.0160001999902306,,,,,,,,,,,,,41,22,Female,1.5714285714285714,1.0,0.8,0.5,2.7222222222222223,2.75,2.3333333333333335,1.8888888888888888,1.75,2.3333333333333335,2.0,1.25,1.25,0.75,1.0,1.0,0.3416494249995594,-0.6885383961865296,,,,,,,,,,,,,,,,,,,0.007894909217242285,-0.3683605161558145,0.01716769790309086,0.8030971656590767,-1.0038132938937732e+45,-0.16733617698455033,,,,,,,,
3,240711_151129,FalseCHOICE,9.0,4,2.0,1750.0,,,,,,,,,,,4.0,4.0,,,A,,,,,,False,cue2.png,Hard,cue1.png,Easy,Left,Hard,Mid,0.0159539000014774,,,,,,,,,,,,,41,22,Female,1.5714285714285714,1.0,0.8,0.5,2.7222222222222223,2.75,2.3333333333333335,1.8888888888888888,1.75,2.3333333333333335,2.0,1.25,1.25,0.75,1.0,1.0,0.3900981999995565,0.3220402211234596,,,,,,,,,,,,,,,,,,,0.007304049128391472,-0.43140429959088994,0.010804020306332606,-0.3627310109549639,-1.0642389037169752e+45,-0.16734789881059078,,,,,,,,
4,240711_151145,FalseCHOICE,9.0,5,2.0,1750.0,,,,,,,,,,,5.0,5.0,,,A,,,,,,False,cue1.png,Easy,cue2.png,Hard,Right,Hard,Mid,0.0164725999929942,,,,,,,,,,,,,41,22,Female,1.5714285714285714,1.0,0.8,0.5,2.7222222222222223,2.75,2.3333333333333335,1.8888888888888888,1.75,2.3333333333333335,2.0,1.25,1.25,0.75,0.75,0.8333333333333334,0.2973690624985465,-1.6121693344354613,,,,,,,,,,,,,,,,,,,0.0075842086544673495,-0.40151174664565187,0.010432606125830994,-0.4307742312845688,3.1791309201255306e+49,5.999982012621574,,,,,,,,
5,240711_151201,FalseCHOICE,9.0,6,2.0,1750.0,,,,,,,,,,,6.0,6.0,,,A,,,,,,False,cue2.png,Hard,cue1.png,Easy,Right,Easy,Mid,0.0165401000122074,,,,,,,,,,,,,41,22,Female,1.5714285714285714,1.0,0.8,0.5,2.7222222222222223,2.75,2.3333333333333335,1.8888888888888888,1.75,2.3333333333333335,2.0,1.25,1.25,0.75,1.0,1.0,0.3435315624974464,-0.6492794487683131,,,,,,,,,,,,,,,,,,,0.00512663929595299,-0.6637302876139453,0.011356161220146554,-0.261578583761978,-1.7708738115538587e+44,-0.16717580231293971,,,,,,,,
6,240711_151217,FalseCHOICE,9.0,7,2.0,1750.0,,,,,,,,,,,7.0,7.0,,,A,,,,,,False,cue2.png,Hard,cue1.png,Easy,Right,Easy,Mid,0.014677400002256,,,,,,,,,,,,,41,22,Female,1.5714285714285714,1.0,0.8,0.5,2.7222222222222223,2.75,2.3333333333333335,1.8888888888888888,1.75,2.3333333333333335,2.0,1.25,1.25,0.75,1.0,1.0,0.4403655499972956,1.3705519545275644,,,,,,,,,,,,,,,,,,,0.007499963493421492,-0.41050056445319394,0.01047211555960365,-0.42353608786295777,,,,,,,,,,
7,240711_151236,FalseCHOICE,9.0,8,2.0,1750.0,,,,,,,,,,,8.0,8.0,,,A,,,,,,False,cue1.png,Easy,cue2.png,Hard,Right,Hard,Mid,0.0165837000095052,,,,,,,,,,,,,41,22,Female,1.5714285714285714,1.0,0.8,0.5,2.7222222222222223,2.75,2.3333333333333335,1.8888888888888888,1.75,2.3333333333333335,2.0,1.25,1.25,0.75,0.1666666666666666,0.5416666666666667,0.314861228573136,-1.2473054342560164,,,,,,,,,,,,,,,,,,,,,0.021571094504816302,1.609801112086715,,,,,,,,,,
8,240711_151253,FalseCHOICE,9.0,9,2.0,1750.0,,,,,,,,,,,9.0,9.0,,,A,,,,,,False,cue1.png,Easy,cue2.png,Hard,Left,Easy,Mid,0.0151064000092446,,,,,,,,,,,,,41,22,Female,1.5714285714285714,1.0,0.8,0.5,2.7222222222222223,2.75,2.3333333333333335,1.8888888888888888,1.75,2.3333333333333335,2.0,1.25,1.25,0.75,0.75,0.8333333333333334,0.3913369124984456,0.3478781574669893,,,,,,,,,,,,,,,,,,,0.00625992138722793,-0.5428109835666106,0.008899413813113537,-0.7116556510542634,,,,,,,,,,
9,240711_151310,FalseCHOICE,9.0,10,2.0,1750.0,,,,,,,,,,,10.0,10.0,,,A,,,,,,False,cue2.png,Hard,cue1.png,Easy,Right,Easy,Mid,0.0173101999971549,,,,,,,,,,,,,41,22,Female,1.5714285714285714,1.0,0.8,0.5,2.7222222222222223,2.75,2.3333333333333335,1.8888888888888888,1.75,2.3333333333333335,2.0,1.25,1.25,0.75,0.1666666666666666,0.6666666666666667,0.4166930000028515,0.8767732606062351,,,,,,,,,,,,,,,,,,,0.006640659316882992,-0.5021868831482232,0.013540917750607956,0.13866965061603892,,,,,,,,,,
10,240711_151328,FalseCHOICE,9.0,11,2.0,1750.0,,,,,,,,,,,11.0,11.0,,,A,,,,,,False,cue1.png,Easy,cue2.png,Hard,Right,Hard,Mid,0.0165125999919837,,,,,,,,,,,,,41,22,Female,1.5714285714285714,1.0,0.8,0.5,2.7222222222222223,2.75,2.3333333333333335,1.8888888888888888,1.75,2.3333333333333335,2.0,1.25,1.25,0.75,0.75,0.8333333333333334,0.4698877250011719,1.9863462402531082,,,,,,,,,,,,,,,,,,,0.0070255427890140824,-0.4611204602798834,0.008772470259548193,-0.7349117587586169,,,,,,,,,,
11,240711_151345,FalseCHOICE,9.0,12,2.0,1750.0,,,,,,,,,,,12.0,12.0,,,A,,,,,,False,cue2.png,Hard,cue1.png,Easy,Right,Easy,Mid,0.0166456000006292,,,,,,,,,,,,,41,22,Female,1.5714285714285714,1.0,0.8,0.5,2.7222222222222223,2.75,2.3333333333333335,1.8888888888888888,1.75,2.3333333333333335,2.0,1.25,1.25,0.75,1.0,1.0,0.3611108750010317,-0.2825977870929768,,,,,,,,,,,,,,,,,,,0.006108246319352295,-0.5589944596755652,0.010280459328109755,-0.4586475829853802,,,,,,,,,,
12,240711_151402,FalseCHOICE,9.0,13,2.0,1750.0,,,,,,,,,,,13.0,13.0,,,A,,,,,,False,cue1.png,Easy,cue2.png,Hard,Right,Hard,Mid,0.0165114999981597,,,,,,,,,,,,,41,22,Female,1.5714285714285714,1.0,0.8,0.5,2.7222222222222223,2.75,2.3333333333333335,1.8888888888888888,1.75,2.3333333333333335,2.0,1.25,1.25,0.75,0.75,0.8333333333333334,0.3218054499975551,-1.1024579807262973,,,,,,,,,,,,,,,,,,,,,,,,,,,,,,,,
13,240711_151418,FalseCHOICE,9.0,14,2.0,1750.0,,,,,,,,,,,14.0,14.0,,,A,,,,,,False,cue2.png,Hard,cue1.png,Easy,Right,Easy,Mid,0.0162505000043893,,,,,,,,,,,,,41,22,Female,1.5714285714285714,1.0,0.8,0.5,2.7222222222222223,2.75,2.3333333333333335,1.8888888888888888,1.75,2.3333333333333335,2.0,1.25,1.25,0.75,1.0,1.0,0.3418738250020396,-0.683857703140507,,,,,,,,,,,,,,,,,,,0.008640454812080776,-0.2888120478993304,0.009411784438607023,-0.6177891559361013,,,,,,,,,,
14,240711_151436,FalseCHOICE,9.0,15,2.0,1750.0,,,,,,,,,,,15.0,15.0,,,A,,,,,,False,cue1.png,Easy,cue2.png,Hard,Left,Easy,Mid,0.0159420999989379,,,,,,,,,,,,,41,22,Female,1.5714285714285714,1.0,0.8,0.5,2.7222222222222223,2.75,2.3333333333333335,1.8888888888888888,1.75,2.3333333333333335,2.0,1.25,1.25,0.75,0.75,0.8333333333333334,0.3775742749985511,0.06080738684001681,,,,,,,,,,,,,,,,,,,0.039970750900232555,3.0540781537046326,0.014326098698218829,0.2825151013867661,,,,,,,,,,
15,240711_151452,FalseCHOICE,9.0,16,2.0,1750.0,,,,,,,,,,,16.0,16.0,,,A,,,,,,False,cue1.png,Easy,cue2.png,Hard,Right,Hard,Mid,0.0156808999890927,,,,,,,,,,,,,41,22,Female,1.5714285714285714,1.0,0.8,0.5,2.7222222222222223,2.75,2.3333333333333335,1.8888888888888888,1.75,2.3333333333333335,2.0,1.25,1.25,0.75,0.75,0.8333333333333334,0.3296145874992362,-0.9395694994626751,,,,,,,,,,,,,,,,,,,0.010545217203194082,-0.0855770859404366,0.016844610909354046,0.74390750448143,,,,,,,,,,
16,240711_151509,FalseCHOICE,9.0,17,2.0,1750.0,,,,,,,,,,,17.0,17.0,,,A,,,,,,False,cue2.png,Hard,cue1.png,Easy,Right,Easy,Mid,0.0165789000020595,,,,,,,,,,,,,41,22,Female,1.5714285714285714,1.0,0.8,0.5,2.7222222222222223,2.75,2.3333333333333335,1.8888888888888888,1.75,2.3333333333333335,2.0,1.25,1.25,0.75,1.0,1.0,0.3459877875047823,-0.5980457803893722,,,,,,,,,,,,,,,,,,,0.007207385308235588,-0.4417181675587995,0.012776985417045673,-0.0012830459107485627,,,,,,,,,,
17,240711_151526,FalseCHOICE,9.0,18,2.0,1750.0,,,,,,,,,,,18.0,18.0,,,A,,,,,,False,cue2.png,Hard,cue1.png,Easy,Left,Hard,Mid,0.0136706999910529,,,,,,,,,,,,,41,22,Female,1.5714285714285714,1.0,0.8,0.5,2.7222222222222223,2.75,2.3333333333333335,1.8888888888888888,1.75,2.3333333333333335,2.0,1.25,1.25,0.75,0.1666666666666666,0.6666666666666667,0.4163668625005812,0.8699704552494998,,,,,,,,,,,,,,,,,,,0.008566275003955518,-0.2967269093816821,0.013090251965554937,0.05610750593442571,7.739484489421688e+46,-0.1521278003413354,,,,,,,,
18,240711_151542,FalseCHOICE,9.0,19,2.0,1750.0,,,,,,,,,,,19.0,19.0,,,A,,,,,,False,cue1.png,Easy,cue2.png,Hard,Right,Hard,Mid,0.0156576000008499,,,,,,,,,,,,,41,22,Female,1.5714285714285714,1.0,0.8,0.5,2.7222222222222223,2.75,2.3333333333333335,1.8888888888888888,1.75,2.3333333333333335,2.0,1.25,1.25,0.75,1.0,1.0,0.4248293875007221,1.0464877524070462,,,,,,,,,,,,,,,,,,,,,0.011379617930215863,-0.25728130548009315,,,,,,,,,,
19,240711_151559,FalseCHOICE,9.0,20,2.0,1750.0,,,,,,,,,,,20.0,20.0,,,A,,,,,,False,cue1.png,Easy,cue2.png,Hard,Right,Hard,Mid,0.0161681000026874,,,,,,,,,,,,,41,22,Female,1.5714285714285714,1.0,0.8,0.5,2.7222222222222223,2.75,2.3333333333333335,1.8888888888888888,1.75,2.3333333333333335,2.0,1.25,1.25,0.75,1.0,1.0,0.3906940250017214,0.3344683579926897,,,,,,,,,,,,,,,,,,,0.00656904090999012,-0.5098284474022938,0.010081626838032313,-0.4950737714328744,1.087066713715086e+44,-0.16712036177742964,,,,,,,,
20,240711_151614,FalseCHOICE,9.0,21,2.0,1750.0,,,,,,,,,,,21.0,21.0,,,A,,,,,,False,cue1.png,Easy,cue2.png,Hard,Left,Easy,Mid,0.0158936000079847,,,,,,,,,,,,,41,22,Female,1.5714285714285714,1.0,0.8,0.5,2.7222222222222223,2.75,2.3333333333333335,1.8888888888888888,1.75,2.3333333333333335,2.0,1.25,1.25,0.75,0.1666666666666666,0.6666666666666667,0.3095382749997952,-1.358335342899781,,,,,,,,,,,,,,,,,,,0.00803954059203767,-0.352928590319951,0.008646801250849875,-0.7579343693544598,3.225932471471888e+43,-0.1671351916236056,,,,,,,,
21,240711_151630,FalseCHOICE,9.0,22,2.0,1750.0,,,,,,,,,,,22.0,22.0,,,A,,,,,,False,cue2.png,Hard,cue1.png,Easy,Right,Easy,Mid,0.016967299990938,,,,,,,,,,,,,41,22,Female,1.5714285714285714,1.0,0.8,0.5,2.7222222222222223,2.75,2.3333333333333335,1.8888888888888888,1.75,2.3333333333333335,2.0,1.25,1.25,0.75,0.75,0.8333333333333334,0.2839644750019943,-1.8917716463180074,,,,,,,,,,,,,,,,,,,0.05604025580085923,4.768667454928844,,,-3.828528347600054e+43,-0.1671488764110281,,,,,,,,
22,240711_151646,FalseCHOICE,9.0,23,2.0,1750.0,,,,,,,,,,,23.0,23.0,,,A,,,,,,False,cue1.png,Easy,cue2.png,Hard,Right,Hard,Mid,0.0165264000097522,,,,,,,,,,,,,41,22,Female,1.5714285714285714,1.0,0.8,0.5,2.7222222222222223,2.75,2.3333333333333335,1.8888888888888888,1.75,2.3333333333333335,2.0,1.25,1.25,0.75,1.0,1.0,0.3372433625027042,-0.7804431460146439,,,,,,,,,,,,,,,,,,,0.007784389405031105,-0.3801527953058217,0.008716511874262709,-0.7451633564066302,-1.0073279351732264e+44,-0.16716099046087396,,,,,,,,
23,240711_151703,FalseCHOICE,9.0,24,2.0,1750.0,,,,,,,,,,,24.0,24.0,,,A,,,,,,False,cue2.png,Hard,cue1.png,Easy,Right,Easy,Mid,0.0166656999936094,,,,,,,,,,,,,41,22,Female,1.5714285714285714,1.0,0.8,0.5,2.7222222222222223,2.75,2.3333333333333335,1.8888888888888888,1.75,2.3333333333333335,2.0,1.25,1.25,0.75,1.0,1.0,0.337702562499544,-0.7708648295788797,,,,,,,,,,,,,,,,,,,0.008948251730179102,-0.25597063144096815,0.010685946978061883,-0.3843620899830294,-1.2678339977385073e+44,-0.16716604395848333,,,,,,,,
24,240711_151719,FalseCHOICE,9.0,25,2.0,1750.0,,,,,,,,,,,25.0,25.0,,,A,,,,,,False,cue2.png,Hard,cue1.png,Easy,Left,Hard,Mid,0.0161361000064061,,,,,,,,,,,,,41,22,Female,1.5714285714285714,1.0,0.8,0.5,2.7222222222222223,2.75,2.3333333333333335,1.8888888888888888,1.75,2.3333333333333335,2.0,1.25,1.25,0.75,1.0,1.0,0.3669293375023699,-0.16123220479553485,,,,,,,,,,,,,,,,,,,0.006932821132249496,-0.4710137060060877,0.009404272154378569,-0.6191654092882081,-1.1591804386713493e+44,-0.16716393621290693,,,,,,,,
25,240711_151736,FalseCHOICE,9.0,26,2.0,1750.0,,,,,,,,,,,26.0,26.0,,,A,,,,,,False,cue1.png,Easy,cue2.png,Hard,Right,Hard,Mid,0.0163388000073609,,,,,,,,,,,,,41,22,Female,1.5714285714285714,1.0,0.8,0.5,2.7222222222222223,2.75,2.3333333333333335,1.8888888888888888,1.75,2.3333333333333335,2.0,1.25,1.25,0.75,0.75,0.8333333333333334,0.3782438875005027,0.07477463526592124,,,,,,,,,,,,,,,,,,,,,0.01207174690389319,-0.1304830120255293,-7.492615024027081e+43,-0.16715598428908574,,,,,,,,
26,240711_151752,FalseCHOICE,9.0,27,2.0,1750.0,,,,,,,,,,,27.0,27.0,,,A,,,,,,False,cue1.png,Easy,cue2.png,Hard,Right,Hard,Mid,0.0165341000101761,,,,,,,,,,,,,41,22,Female,1.5714285714285714,1.0,0.8,0.5,2.7222222222222223,2.75,2.3333333333333335,1.8888888888888888,1.75,2.3333333333333335,2.0,1.25,1.25,0.75,0.75,0.8333333333333334,0.3042773749984917,-1.4680708945029681,,,,,,,,,,,,,,,,,,,0.00784607648642732,-0.3735708868749295,0.012276242440223397,-0.09301935133237875,5.121096744690831e+44,-0.16704210655021146,,,,,,,,
27,240711_151808,FalseCHOICE,9.0,28,2.0,1750.0,,,,,,,,,,,28.0,28.0,,,A,,,,,,False,cue2.png,Hard,cue1.png,Easy,Right,Easy,Mid,0.0168476999970152,,,,,,,,,,,,,41,22,Female,1.5714285714285714,1.0,0.8,0.5,2.7222222222222223,2.75,2.3333333333333335,1.8888888888888888,1.75,2.3333333333333335,2.0,1.25,1.25,0.75,1.0,1.0,0.3560459625005023,-0.38824529358991827,,,,,,,,,,,,,,,,,,,0.012811462014621303,0.15622744578950234,0.010210535571412445,-0.47145764203267637,3.4498575426258826e+43,-0.1671347572364744,,,,,,,,
28,240711_151824,FalseCHOICE,9.0,29,2.0,1750.0,,,,,,,,,,,29.0,29.0,,,A,,,,,,False,cue1.png,Easy,cue2.png,Hard,Right,Hard,Mid,0.0140795000042999,,,,,,,,,,,,,41,22,Female,1.5714285714285714,1.0,0.8,0.5,2.7222222222222223,2.75,2.3333333333333335,1.8888888888888888,1.75,2.3333333333333335,2.0,1.25,1.25,0.75,0.75,0.8333333333333334,0.3708816750022379,-0.07879157000633183,,,,,,,,,,,,,,,,,,,0.011818796534244058,0.05031169898369744,0.00973276071261132,-0.5589861794230512,8.548482324193156e+43,-0.16712486653071074,,,,,,,,
29,240711_151840,FalseCHOICE,9.0,30,2.0,1750.0,,,,,,,,,,,30.0,30.0,,,A,,,,,,False,cue1.png,Easy,cue2.png,Hard,Left,Easy,Mid,0.0164878999930806,,,,,,,,,,,,,41,22,Female,1.5714285714285714,1.0,0.8,0.5,2.7222222222222223,2.75,2.3333333333333335,1.8888888888888888,1.75,2.3333333333333335,2.0,1.25,1.25,0.75,0.1666666666666666,0.6666666666666667,0.2891208375021961,-1.7842166114218039,,,,,,,,,,,,,,,,,,,0.021907762721002134,1.1267875201867277,0.03587602741842365,4.23047030874001,1.0769223520648298e+44,-0.16712055856558436,,,,,,,,
30,240711_151856,FalseCHOICE,9.0,31,2.0,1750.0,,,,,,,,,,,31.0,31.0,,,A,,,,,,False,cue2.png,Hard,cue1.png,Easy,Right,Easy,Mid,0.0164959000103408,,,,,,,,,,,,,41,22,Female,1.5714285714285714,1.0,0.8,0.5,2.7222222222222223,2.75,2.3333333333333335,1.8888888888888888,1.75,2.3333333333333335,2.0,1.25,1.25,0.75,0.75,0.8333333333333334,0.362241474998882,-0.25901493731899766,,,,,,,,,,,,,,,,,,,,,,,1.0441848055622376e+44,-0.16712119363377187,,,,,,,,
31,240711_151914,FalseCHOICE,9.0,32,2.0,1750.0,,,,,,,,,,,32.0,32.0,,,A,,,,,,False,cue1.png,Easy,cue2.png,Hard,Right,Hard,Mid,0.0154942999943159,,,,,,,,,,,,,41,22,Female,1.5714285714285714,1.0,0.8,0.5,2.7222222222222223,2.75,2.3333333333333335,1.8888888888888888,1.75,2.3333333333333335,2.0,1.25,1.25,0.75,0.75,0.8333333333333334,0.3804277000017464,0.12032613203691864,,,,,,,,,,,,,,,,,,,0.006572506371016938,-0.5094586885057294,,,7.628346622639325e+43,-0.16712665148094272,,,,,,,,
32,240711_151931,FalseCHOICE,9.0,33,2.0,1750.0,,,,,,,,,,,33.0,33.0,,,A,,,,,,False,cue2.png,Hard,cue1.png,Easy,Right,Easy,Mid,0.0165119000012055,,,,,,,,,,,,,41,22,Female,1.5714285714285714,1.0,0.8,0.5,2.7222222222222223,2.75,2.3333333333333335,1.8888888888888888,1.75,2.3333333333333335,2.0,1.25,1.25,0.75,1.0,1.0,0.3662202499999694,-0.17602285053895644,,,,,,,,,,,,,,,,,,,0.008279868955379625,-0.32728595583214104,0.010651297970047416,-0.3907098015414479,2.626422992103117e+43,-0.1671363545983521,,,,,,,,
33,240711_151947,FalseCHOICE,9.0,34,2.0,1750.0,,,,,,,,,,,34.0,34.0,,,A,,,,,,False,cue2.png,Hard,cue1.png,Easy,Left,Hard,Mid,0.0149801000079605,,,,,,,,,,,,,41,22,Female,1.5714285714285714,1.0,0.8,0.5,2.7222222222222223,2.75,2.3333333333333335,1.8888888888888888,1.75,2.3333333333333335,2.0,1.25,1.25,0.75,0.75,0.8333333333333334,0.3318211250007152,-0.8935439886569345,,,,,,,,,,,,,,,,,,,,,0.008753837179780136,-0.7383253461191338,-2.657559615501276e+43,-0.16714660487552904,,,,,,,,
34,240711_152003,FalseCHOICE,9.0,35,2.0,1750.0,,,,,,,,,,,35.0,35.0,,,A,,,,,,False,cue2.png,Hard,cue1.png,Easy,Left,Hard,Mid,0.0156820999982301,,,,,,,,,,,,,41,22,Female,1.5714285714285714,1.0,0.8,0.5,2.7222222222222223,2.75,2.3333333333333335,1.8888888888888888,1.75,2.3333333333333335,2.0,1.25,1.25,0.75,1.0,1.0,0.4065187249962037,0.6645510781392825,,,,,,,,,,,,,,,,,,,0.009604054320643342,-0.1859975916815877,,,-7.042978028948143e+43,-0.1671551120485485,,,,,,,,
35,240711_152021,FalseCHOICE,9.0,36,2.0,1750.0,,,,,,,,,,,36.0,36.0,,,A,,,,,,False,cue1.png,Easy,cue2.png,Hard,Left,Easy,Mid,0.0163562999950954,,,,,,,,,,,,,41,22,Female,1.5714285714285714,1.0,0.8,0.5,2.7222222222222223,2.75,2.3333333333333335,1.8888888888888888,1.75,2.3333333333333335,2.0,1.25,1.25,0.75,0.75,0.8333333333333334,0.3774865874984243,0.05897833930200272,,,,,,,,,,,,,,,,,,,0.007798199288138085,-0.37867930387140536,0.01807238627680038,0.9688364227300156,-9.764031582405408e+43,-0.1671603905581893,,,,,,,,
36,240711_152041,FalseCHOICE,9.0,37,2.0,1750.0,,,,,,,,,,,37.0,37.0,,,A,,,,,,False,cue2.png,Hard,cue1.png,Easy,Left,Hard,Mid,0.0164924999990034,,,,,,,,,,,,,41,22,Female,1.5714285714285714,1.0,0.8,0.5,2.7222222222222223,2.75,2.3333333333333335,1.8888888888888888,1.75,2.3333333333333335,2.0,1.25,1.25,0.75,0.75,0.7083333333333334,0.4401022714279991,1.3650603049961367,,,,,,,,,,,,,,,,,,,0.012792045039890565,0.15415568705509564,0.01593201303126861,0.5767192231750093,-9.242372184325078e+43,-0.1671593786030374,,,,,,,,
37,240711_152100,FalseCHOICE,9.0,38,2.0,1750.0,,,,,,,,,,,38.0,38.0,,,A,,,,,,False,cue1.png,Easy,cue2.png,Hard,Right,Hard,Mid,0.0172045999934198,,,,,,,,,,,,,41,22,Female,1.5714285714285714,1.0,0.8,0.5,2.7222222222222223,2.75,2.3333333333333335,1.8888888888888888,1.75,2.3333333333333335,2.0,1.25,1.25,0.75,1.0,1.0,0.4975094624987832,2.562499864117431,,,,,,,,,,,,,,,,,,,0.00822068111812736,-0.333601199092148,0.008687523437880557,-0.750474049070808,-6.045480339128837e+43,-0.16715317702556237,,,,,,,,
38,240711_152119,FalseCHOICE,9.0,39,2.0,1750.0,,,,,,,,,,,39.0,39.0,,,A,,,,,,False,cue1.png,Easy,cue2.png,Hard,Left,Easy,Mid,0.0161040000093635,,,,,,,,,,,,,41,22,Female,1.5714285714285714,1.0,0.8,0.5,2.7222222222222223,2.75,2.3333333333333335,1.8888888888888888,1.75,2.3333333333333335,2.0,1.25,1.25,0.75,1.0,0.875,0.4783724714278443,2.1633270475509807,,,,,,,,,,,,,,,,,,,0.01966208478064782,0.8871774392080306,0.02850480294125309,2.8800591571740934,-4.0034067664488854e+42,-0.16714222614806332,,,,,,,,
39,240711_152136,FalseCHOICE,9.0,40,2.0,1750.0,,,,,,,,,,,40.0,40.0,,,A,,,,,,False,cue2.png,Hard,cue1.png,Easy,Right,Easy,Mid,0.0166203999979188,,,,,,,,,,,,,41,22,Female,1.5714285714285714,1.0,0.8,0.5,2.7222222222222223,2.75,2.3333333333333335,1.8888888888888888,1.75,2.3333333333333335,2.0,1.25,1.25,0.75,0.75,0.8333333333333334,0.4036841624983935,0.6054257803434988,,,,,,,,,,,,,,,,,,,0.00903886796637958,-0.2463020305682377,,,5.332430878466471e+43,-0.16713110527545724,,,,,,,,
40,240711_152154,FalseCHOICE,9.0,41,2.0,1750.0,,,,,,,,,,,41.0,41.0,,,A,,,,,,False,cue2.png,Hard,cue1.png,Easy,Right,Easy,Mid,0.0168353000044589,,,,,,,,,,,,,41,22,Female,1.5714285714285714,1.0,0.8,0.5,2.7222222222222223,2.75,2.3333333333333335,1.8888888888888888,1.75,2.3333333333333335,2.0,1.25,1.25,0.75,0.75,0.8333333333333334,0.3993720124999527,0.515479923444994,,,,,,,,,,,,,,,,,,,0.007642170283502113,-0.39532733775196804,0.008654562199397123,-0.7565125606037709,8.535559440367714e+43,-0.1671248915995179,,,,,,,,
41,240711_152210,FalseCHOICE,9.0,42,2.0,1750.0,,,,,,,,,,,42.0,42.0,,,A,,,,,,False,cue1.png,Easy,cue2.png,Hard,Right,Hard,Mid,0.0163890999974682,,,,,,,,,,,,,41,22,Female,1.5714285714285714,1.0,0.8,0.5,2.7222222222222223,2.75,2.3333333333333335,1.8888888888888888,1.75,2.3333333333333335,2.0,1.25,1.25,0.75,1.0,1.0,0.4462966749979387,1.4942675304578734,,,,,,,,,,,,,,,,,,,0.00802736964665672,-0.3542272098396567,0.009642193203492175,-0.5755781818322613,,,,,,,,,,
42,240711_152233,FalseCHOICE,9.0,43,2.0,1750.0,,,,,,,,,,,44.0,43.0,,,A,,,,,,False,cue2.png,Hard,cue1.png,Easy,Left,Hard,Mid,0.0161240000015823,,,,,,,,,,,,,41,22,Female,1.5714285714285714,1.0,0.8,0.5,2.7222222222222223,2.75,2.3333333333333335,1.8888888888888888,1.75,2.3333333333333335,2.0,1.25,1.25,0.75,1.0,1.0,0.3849168125016149,0.21396319722724316,,,,,,,,,,,,,,,,,,,,,0.0073338976207991645,-0.9984588179644418,6.860706093346998e+43,-0.16712814060927297,,,,,,,,
43,240711_152251,FalseCHOICE,9.0,44,2.0,1750.0,,,,,,,,,,,45.0,44.0,,,A,,,,,,False,cue1.png,Easy,cue2.png,Hard,Right,Hard,Mid,0.0165501000010408,,,,,,,,,,,,,41,22,Female,1.5714285714285714,1.0,0.8,0.5,2.7222222222222223,2.75,2.3333333333333335,1.8888888888888888,1.75,2.3333333333333335,2.0,1.25,1.25,0.75,1.0,1.0,0.3805723125005897,0.12334256122685794,,,,,,,,,,,,,,,,,,,,,0.01590503368780346,0.5717765971038449,8.466158679721669e+42,-0.16713980720554228,,,,,,,,
44,240711_152307,FalseCHOICE,9.0,45,2.0,1750.0,,,,,,,,,,,46.0,45.0,,,A,,,,,,False,cue2.png,Hard,cue1.png,Easy,Right,Easy,Mid,0.0155268000089563,,,,,,,,,,,,,41,22,Female,1.5714285714285714,1.0,0.8,0.5,2.7222222222222223,2.75,2.3333333333333335,1.8888888888888888,1.75,2.3333333333333335,2.0,1.25,1.25,0.75,1.0,1.0,0.4155046500000026,0.8519858206191677,,,,,,,,,,,,,,,,,,,0.014755201403791416,0.36362118826312323,,,-6.208446156827506e+43,-0.16715349315923006,,,,,,,,
45,240711_152324,FalseCHOICE,9.0,46,2.0,1750.0,,,,,,,,,,,47.0,46.0,,,A,,,,,,False,cue2.png,Hard,cue1.png,Easy,Right,Easy,Mid,0.015920100006042,,,,,,,,,,,,,41,22,Female,1.5714285714285714,1.0,0.8,0.5,2.7222222222222223,2.75,2.3333333333333335,1.8888888888888888,1.75,2.3333333333333335,2.0,1.25,1.25,0.75,1.0,1.0,0.3874589250026474,0.2669883673443409,,,,,,,,,,,,,,,,,,,,,,,-1.0638202508692657e+44,-0.16716208634240357,,,,,,,,
46,240711_152341,FalseCHOICE,9.0,47,2.0,1750.0,,,,,,,,,,,48.0,47.0,,,A,,,,,,False,cue1.png,Easy,cue2.png,Hard,Right,Hard,Mid,0.0163345000037224,,,,,,,,,,,,,41,22,Female,1.5714285714285714,1.0,0.8,0.5,2.7222222222222223,2.75,2.3333333333333335,1.8888888888888888,1.75,2.3333333333333335,2.0,1.25,1.25,0.75,1.0,1.0,0.4261216124996281,1.0734418901050153,,,,,,,,,,,,,,,,,,,0.008912247781353324,-0.25981219257432303,0.010557090026238114,-0.40796873298224023,-6.957098020758152e+43,-0.16715494545188203,,,,,,,,
47,240711_152357,FalseCHOICE,9.0,48,2.0,1750.0,,,,,,,,,,,49.0,48.0,,,A,,,,,,False,cue1.png,Easy,cue2.png,Hard,Left,Easy,Mid,0.0161254999984521,,,,,,,,,,,,,41,22,Female,1.5714285714285714,1.0,0.8,0.5,2.7222222222222223,2.75,2.3333333333333335,1.8888888888888888,1.75,2.3333333333333335,2.0,1.25,1.25,0.75,0.75,0.8333333333333334,0.3209462125032587,-1.1203805605836208,,,,,,,,,,,,,,,,,,,0.008037634537724695,-0.3531319631278122,,,3.881039600719949e+43,-0.1671339207962479,,,,,,,,
48,240711_152414,FalseCHOICE,9.0,49,2.0,1750.0,,,,,,,,,,,50.0,49.0,,,A,,,,,,False,cue2.png,Hard,cue1.png,Easy,Right,Easy,Mid,0.0168651999993016,,,,,,,,,,,,,41,22,Female,1.5714285714285714,1.0,0.8,0.5,2.7222222222222223,2.75,2.3333333333333335,1.8888888888888888,1.75,2.3333333333333335,2.0,1.25,1.25,0.75,0.75,0.8333333333333334,0.3738168875006522,-0.017566843722567733,,,,,,,,,,,,,,,,,,,0.016771489770990335,0.5787557853749036,0.014775623035223165,0.3648681323480404,1.3332044009991333e+44,-0.16711558700865067,,,,,,,,
49,240711_152432,FalseCHOICE,9.0,50,2.0,1750.0,,,,,,,,,,,51.0,50.0,,,A,,,,,,False,cue1.png,Easy,cue2.png,Hard,Right,Hard,Mid,0.0169619999942369,,,,,,,,,,,,,41,22,Female,1.5714285714285714,1.0,0.8,0.5,2.7222222222222223,2.75,2.3333333333333335,1.8888888888888888,1.75,2.3333333333333335,2.0,1.25,1.25,0.75,0.75,0.8333333333333334,0.3448212874991441,-0.6223774577700705,,,,,,,,,,,,,,,,,,,,,,,-4.256389149463508e+43,-0.16714970640842547,,,,,,,,
0,240711_144916,OFFLINERATING,9.0,1,1.0,,,,,,,,,,,,,,,,,T0,cue1.png,Easy,63.0,1.8756502000032924,,,,,,,,,,,,,,,,,,,,,,41,22,Female,1.5714285714285714,1.0,0.8,0.5,2.7222222222222223,2.75,2.3333333333333335,1.8888888888888888,1.75,2.3333333333333335,2.0,1.25,1.25,0.75,,,,,,,,,,,,,,,,,,,,,,,,,,,,,-1.7242487372375161,0.01226214256802146,1.135296805101209,,,155990468.71603248,1.7319145605113664,
1,240711_144923,OFFLINERATING,9.0,2,3.0,,,,,,,,,,,,,,,,,T0,cue2.png,Hard,76.0,1.4186824999924283,,,,,,,,,,,,,,,,,,,,,,41,22,Female,1.5714285714285714,1.0,0.8,0.5,2.7222222222222223,2.75,2.3333333333333335,1.8888888888888888,1.75,2.3333333333333335,2.0,1.25,1.25,0.75,,,,,,,,,,,,,,,,,,,,,,,,,,,,,1.1221301305831455,0.010764036340884098,0.1626432331985925,0.012782612933040829,-0.6352799163590293,2133522.1836396717,-0.5568308450839496,
2,240711_150539,OFFLINERATING,9.0,3,1.0,,,,,,,,,,,,,,,,,T1,cue1.png,Easy,71.0,0.484923299998627,,,,,,,,,,,,,,,,,,,,,,41,22,Female,1.5714285714285714,1.0,0.8,0.5,2.7222222222222223,2.75,2.3333333333333335,1.8888888888888888,1.75,2.3333333333333335,2.0,1.25,1.25,0.75,,,,,,,,,,,,,,,,,,,,,,,,,,,,,0.027369027575198667,0.008514408151060842,-1.2979400382998036,,,102501.77446810358,-0.5870439016597414,
3,240711_150546,OFFLINERATING,9.0,4,3.0,,,,,,,,,,,,,,,,,T1,cue2.png,Hard,74.0,0.9351889999961712,,,,,,,,,,,,,,,,,,,,,,41,22,Female,1.5714285714285714,1.0,0.8,0.5,2.7222222222222223,2.75,2.3333333333333335,1.8888888888888888,1.75,2.3333333333333335,2.0,1.25,1.25,0.75,,,,,,,,,,,,,,,,,,,,,,,,,,,,,0.6842256893799668,,,0.012655259837921894,-0.7765787452354626,35553.307606399525,-0.5880398137676754,
4,240711_150948,OFFLINERATING,9.0,5,1.0,,,,,,,,,,,,,,,,,T2,cue1.png,Easy,72.0,2.220634600002086,,,,,,,,,,,,,,,,,,,,,,41,22,Female,1.5714285714285714,1.0,0.8,0.5,2.7222222222222223,2.75,2.3333333333333335,1.8888888888888888,1.75,2.3333333333333335,2.0,1.25,1.25,0.75,,,,,,,,,,,,,,,,,,,,,,,,,,,,,0.24632124817678802,,,0.014627705607289026,1.411858661594488,,,
5,240711_150955,OFFLINERATING,9.0,6,3.0,,,,,,,,,,,,,,,,,T2,cue2.png,Hard,67.0,1.4519341999985045,,,,,,,,,,,,,,,,,,,,,,41,22,Female,1.5714285714285714,1.0,0.8,0.5,2.7222222222222223,2.75,2.3333333333333335,1.8888888888888888,1.75,2.3333333333333335,2.0,1.25,1.25,0.75,,,,,,,,,,,,,,,,,,,,,,,,,,,,,-0.8484398548311587,,,,,,,
6,240711_152507,OFFLINERATING,9.0,7,1.0,,,,,,,,,,,,,,,,,T3,cue1.png,Easy,77.0,1.7647719000087818,,,,,,,,,,,,,,,,,,,,,,41,22,Female,1.5714285714285714,1.0,0.8,0.5,2.7222222222222223,2.75,2.3333333333333335,1.8888888888888888,1.75,2.3333333333333335,2.0,1.25,1.25,0.75,,,,,,,,,,,,,,,,,,,,,,,,,,,,,1.3410823511847347,,,,,,,
7,240711_152515,OFFLINERATING,9.0,8,3.0,,,,,,,,,,,,,,,,,T3,cue2.png,Hard,67.0,1.1185951000079513,,,,,,,,,,,,,,,,,,,,,,41,22,Female,1.5714285714285714,1.0,0.8,0.5,2.7222222222222223,2.75,2.3333333333333335,1.8888888888888888,1.75,2.3333333333333335,2.0,1.25,1.25,0.75,,,,,,,,,,,,,,,,,,,,,,,,,,,,,-0.8484398548311587,,,,,,,
0,240711_151009,LEARNINGCHECK,9.0,1,,,,,,,,,,,,1.0,1.0,1.0,,,A,,,,,,,,,,,,,,,cue1.png,Easy,Left,Left,Easy,0.0160826999926939,1.0,,,,,,41,22,Female,1.5714285714285714,1.0,0.8,0.5,2.7222222222222223,2.75,2.3333333333333335,1.8888888888888888,1.75,2.3333333333333335,2.0,1.25,1.25,0.75,,,,,,,,,,,,,,,,,,,,,,,,,,,,,,,,,,,,
1,240711_151014,LEARNINGCHECK,9.0,2,,,,,,,,,,,,2.0,2.0,2.0,,,A,,,,,,,,,,,,,,,cue2.png,Hard,Right,Right,Hard,0.0162549999949987,1.0,,,,,,41,22,Female,1.5714285714285714,1.0,0.8,0.5,2.7222222222222223,2.75,2.3333333333333335,1.8888888888888888,1.75,2.3333333333333335,2.0,1.25,1.25,0.75,,,,,,,,,,,,,,,,,,,,,,,,,,,,,,,,,,,,
2,240711_152527,LEARNINGCHECK,9.0,1,,,,,,,,,,,,1.0,1.0,1.0,,,A,,,,,,,,,,,,,,,cue1.png,Easy,Middle,Middle,Mid,0.0161663000035332,1.0,,,,,,41,22,Female,1.5714285714285714,1.0,0.8,0.5,2.7222222222222223,2.75,2.3333333333333335,1.8888888888888888,1.75,2.3333333333333335,2.0,1.25,1.25,0.75,,,,,,,,,,,,,,,,,,,,,,,,,,,,,,,,,,,,
3,240711_152531,LEARNINGCHECK,9.0,2,,,,,,,,,,,,2.0,2.0,2.0,,,A,,,,,,,,,,,,,,,cue2.png,Hard,Middle,Middle,Mid,0.0148888999974587,1.0,,,,,,41,22,Female,1.5714285714285714,1.0,0.8,0.5,2.7222222222222223,2.75,2.3333333333333335,1.8888888888888888,1.75,2.3333333333333335,2.0,1.25,1.25,0.75,,,,,,,,,,,,,,,,,,,,,,,,,,,,,,,,,,,,
0,240711_152544,DEMANDRATING,9.0,-1,,,,,,,,,,,,,,,,,,,,,,,,,,,,,,,,,,,,,,,1.0,MentalDemand,1.0,54.0,5.508883699993021,41,22,Female,1.5714285714285714,1.0,0.8,0.5,2.7222222222222223,2.75,2.3333333333333335,1.8888888888888888,1.75,2.3333333333333335,2.0,1.25,1.25,0.75,,,,,,,,,,,,,,,,,,,,,,,,,,,,,,,,,,,,-0.8617949773348889
1,240711_152555,DEMANDRATING,9.0,-1,,,,,,,,,,,,,,,,,,,,,,,,,,,,,,,,,,,,,,,2.0,Effort,1.0,61.0,9.309738500000094,41,22,Female,1.5714285714285714,1.0,0.8,0.5,2.7222222222222223,2.75,2.3333333333333335,1.8888888888888888,1.75,2.3333333333333335,2.0,1.25,1.25,0.75,,,,,,,,,,,,,,,,,,,,,,,,,,,,,,,,,,,,-0.26516768533381213
2,240711_152605,DEMANDRATING,9.0,-1,,,,,,,,,,,,,,,,,,,,,,,,,,,,,,,,,,,,,,,3.0,Frustration,1.0,66.0,8.398688200002653,41,22,Female,1.5714285714285714,1.0,0.8,0.5,2.7222222222222223,2.75,2.3333333333333335,1.8888888888888888,1.75,2.3333333333333335,2.0,1.25,1.25,0.75,,,,,,,,,,,,,,,,,,,,,,,,,,,,,,,,,,,,0.16099466609552837
3,240711_152620,DEMANDRATING,9.0,-1,,,,,,,,,,,,,,,,,,,,,,,,,,,,,,,,,,,,,,,4.0,MentalDemand,2.0,65.0,13.649585399994976,41,22,Female,1.5714285714285714,1.0,0.8,0.5,2.7222222222222223,2.75,2.3333333333333335,1.8888888888888888,1.75,2.3333333333333335,2.0,1.25,1.25,0.75,,,,,,,,,,,,,,,,,,,,,,,,,,,,,,,,,,,,0.07576219580966026
4,240711_152632,DEMANDRATING,9.0,-1,,,,,,,,,,,,,,,,,,,,,,,,,,,,,,,,,,,,,,,5.0,Effort,2.0,75.0,10.949943100000382,41,22,Female,1.5714285714285714,1.0,0.8,0.5,2.7222222222222223,2.75,2.3333333333333335,1.8888888888888888,1.75,2.3333333333333335,2.0,1.25,1.25,0.75,,,,,,,,,,,,,,,,,,,,,,,,,,,,,,,,,,,,0.9280868986683413
5,240711_152636,DEMANDRATING,9.0,-1,,,,,,,,,,,,,,,,,,,,,,,,,,,,,,,,,,,,,,,6.0,Frustration,2.0,83.0,2.5592200999963097,41,22,Female,1.5714285714285714,1.0,0.8,0.5,2.7222222222222223,2.75,2.3333333333333335,1.8888888888888888,1.75,2.3333333333333335,2.0,1.25,1.25,0.75,,,,,,,,,,,,,,,,,,,,,,,,,,,,,,,,,,,,1.6099466609552862
6,240711_152649,DEMANDRATING,9.0,-1,,,,,,,,,,,,,,,,,,,,,,,,,,,,,,,,,,,,,,,7.0,MentalDemand,3.0,67.0,11.168212499993388,41,22,Female,1.5714285714285714,1.0,0.8,0.5,2.7222222222222223,2.75,2.3333333333333335,1.8888888888888888,1.75,2.3333333333333335,2.0,1.25,1.25,0.75,,,,,,,,,,,,,,,,,,,,,,,,,,,,,,,,,,,,0.24622713638139646
7,240711_152654,DEMANDRATING,9.0,-1,,,,,,,,,,,,,,,,,,,,,,,,,,,,,,,,,,,,,,,8.0,Effort,3.0,67.0,3.611699500004761,41,22,Female,1.5714285714285714,1.0,0.8,0.5,2.7222222222222223,2.75,2.3333333333333335,1.8888888888888888,1.75,2.3333333333333335,2.0,1.25,1.25,0.75,,,,,,,,,,,,,,,,,,,,,,,,,,,,,,,,,,,,0.24622713638139646
8,240711_152657,DEMANDRATING,9.0,-1,,,,,,,,,,,,,,,,,,,,,,,,,,,,,,,,,,,,,,,9.0,Frustration,3.0,39.0,1.3818063999933656,41,22,Female,1.5714285714285714,1.0,0.8,0.5,2.7222222222222223,2.75,2.3333333333333335,1.8888888888888888,1.75,2.3333333333333335,2.0,1.25,1.25,0.75,,,,,,,,,,,,,,,,,,,,,,,,,,,,,,,,,,,,-2.1402820316229105
