,END,Phase,Block,TrialN,NbackLevel,ISI,Letter_Resp,Letter_RT,Letter_Accuracy,Trial_A_measure,Trial_ACC,Trial_RT,TrialCountCali,CaliEnd_A_measure,ISI_calibrated,TrialIndex,TrialNumber_total,TrialNumber_valid,CueLearning,TrialDemandLearning,CueMapping,OfflineRatingTimePoint,CueFigure,TrialDemand,OfflineRating,OfflineRatingRT,PhaseType,CueLeft,CueDemandLeft,CueRight,CueDemandRight,Choice,ChoiceDemand,TaskDemand,ChoiceRT,CueCheck,CueDemandCheck,CorrectAnswer,Answer,AnswerDemand,AnswerRT,AnswerACC,DemandRatingQuesIndex,QuesTLX,DemandLevel,DemandRating,DemandRatingRT,PID,Age,Gender,BAI_bis,BAI_bas_d,BAI_bas_rr,BAI_bas_fs,NFC,BFI_ext,BFI_agr,BFI_con,BFI_neu,BFI_open,UPPS_lps,UPPS_lpm,UPPS_pu,UPPS_ss,Task_A_measure,Task_ACC,Task_RT,Task_RT_z,cue_i_on_zyg_values,cue_i_on_zyg_zvalues,cue_e_on_zyg_values,cue_e_on_zyg_zvalues,cue_i_on_cor_values,cue_i_on_cor_zvalues,cue_e_on_cor_values,cue_e_on_cor_zvalues,cue_i_on_scr_values,cue_i_on_scr_zvalues,cue_e_on_scr_values,cue_e_on_scr_zvalues,cue_e_true_zyg_values,cue_e_true_zyg_zvalues,cue_e_true_cor_values,cue_e_true_cor_zvalues,cue_e_true_scr_values,cue_e_true_scr_zvalues,cue_e_false_zyg_values,cue_e_false_zyg_zvalues,cue_e_false_cor_values,cue_e_false_cor_zvalues,cue_e_false_scr_values,cue_e_false_scr_zvalues,OfflineRating_z,cue_i_off_zyg_values,cue_i_off_zyg_zvalues,cue_i_off_cor_values,cue_i_off_cor_zvalues,cue_i_off_scr_values,cue_i_off_scr_zvalues,DemandRating_z
0,240712_144145,PRACTICE,0.0,1,3.0,1068.0,,,,,,,,,,10.0,1.0,1.0,cue1.png,Hard,B,,,,,,,,,,,,,,,,,,,,,,,,,,,42,21,Female,0.0,1.0,0.4,0.5,1.7222222222222223,3.125,2.2222222222222223,0.7777777777777778,2.625,3.0,1.5,1.5,0.25,2.5,,,,,,,,,,,,,,,,,,,,,,,,,,,,,,,,,,,,
0,240712_144548,LEARNING,1.0,1,1.0,1068.0,,,,,,,,,,1.0,1.0,1.0,cue2.png,Easy,B,,,,,,,,,,,,,,,,,,,,,,,,,,,42,21,Female,0.0,1.0,0.4,0.5,1.7222222222222223,3.125,2.2222222222222223,0.7777777777777778,2.625,3.0,1.5,1.5,0.25,2.5,0.15625,0.625,0.5863264909077605,-0.1789153124262423,2.5894434045447418e-06,-0.5094749127507664,-0.00035245259147765945,-0.2790165013442783,,,,,,,,,,,,,,,,,,,,,,,,,,,,
1,240712_144612,LEARNING,1.0,2,3.0,1068.0,,,,,,,,,,2.0,2.0,2.0,cue1.png,Hard,B,,,,,,,,,,,,,,,,,,,,,,,,,,,42,21,Female,0.0,1.0,0.4,0.5,1.7222222222222223,3.125,2.2222222222222223,0.7777777777777778,2.625,3.0,1.5,1.5,0.25,2.5,0.5833333333333334,0.75,0.6790982909098436,0.8099639514745339,,,-0.0005124751808158962,-0.392525392941471,-0.00012531658375631877,-0.3058826503874557,,,1.4420000000000002,-0.09583855250598973,1.1380000000000001,-0.8989778385452362,,,,,,,,,,,,,,,,,,,,
2,240712_144636,LEARNING,1.0,3,1.0,1068.0,,,,,,,,,,3.0,3.0,3.0,cue2.png,Easy,B,,,,,,,,,,,,,,,,,,,,,,,,,,,42,21,Female,0.0,1.0,0.4,0.5,1.7222222222222223,3.125,2.2222222222222223,0.7777777777777778,2.625,3.0,1.5,1.5,0.25,2.5,0.15625,0.625,0.599540272722317,-0.038066101417824356,,,-0.002990200375177968,-2.1500512626173935,,,,,1.114,-0.7853814799555424,1.587,0.1594156835358535,,,,,,,,,,,,,,,,,,,,
3,240712_144659,LEARNING,1.0,4,3.0,1068.0,,,,,,,,,,4.0,4.0,4.0,cue1.png,Hard,B,,,,,,,,,,,,,,,,,,,,,,,,,,,42,21,Female,0.0,1.0,0.4,0.5,1.7222222222222223,3.125,2.2222222222222223,0.7777777777777778,2.625,3.0,1.5,1.5,0.25,2.5,0.84375,0.875,0.5991737181849947,-0.041973303617616725,,,,,-0.0025743625806392565,-1.962311113125861,,,1.5779999999999998,0.19006949058284844,1.5939999999999999,0.17591625069524666,,,,,,,,,,,,,,,,,,,,
4,240712_144722,LEARNING,1.0,5,3.0,1068.0,,,,,,,,,,5.0,5.0,5.0,cue1.png,Hard,B,,,,,,,,,,,,,,,,,,,,,,,,,,,42,21,Female,0.0,1.0,0.4,0.5,1.7222222222222223,3.125,2.2222222222222223,0.7777777777777778,2.625,3.0,1.5,1.5,0.25,2.5,0.84375,0.875,0.5620178545412439,-0.43802752579294196,,,-0.0009415060366361706,-0.696850033022257,-0.0026333195633826555,-2.002187058460346,,,1.545,0.12069474483335095,,,,,,,,,,,,,,,,,,,,,,
5,240712_144745,LEARNING,1.0,6,1.0,1068.0,,,,,,,,,,6.0,6.0,6.0,cue2.png,Easy,B,,,,,,,,,,,,,,,,,,,,,,,,,,,42,21,Female,0.0,1.0,0.4,0.5,1.7222222222222223,3.125,2.2222222222222223,0.7777777777777778,2.625,3.0,1.5,1.5,0.25,2.5,0.15625,0.625,0.5565536272796717,-0.49627217591386963,0.0008617069002451591,0.6086530037302883,,,,,,,,,,,,,,,,,,,,,,,,,,,,,,
6,240712_144808,LEARNING,1.0,7,3.0,1068.0,,,,,,,,,,7.0,7.0,7.0,cue1.png,Hard,B,,,,,,,,,,,,,,,,,,,,,,,,,,,42,21,Female,0.0,1.0,0.4,0.5,1.7222222222222223,3.125,2.2222222222222223,0.7777777777777778,2.625,3.0,1.5,1.5,0.25,2.5,0.5833333333333334,0.75,0.5412947454526809,-0.6589206512984674,0.0002937813071039043,-0.13049326214882268,-0.00028826952190682533,-0.23348949721055576,,,0.00515686901217821,2.805418317779664,,,1.2100000000000002,-0.7292577191914754,,,,,,,,,,,,,,,,,,,,
7,240712_144831,LEARNING,1.0,8,3.0,1068.0,,,,,,,,,,8.0,8.0,8.0,cue1.png,Hard,B,,,,,,,,,,,,,,,,,,,,,,,,,,,42,21,Female,0.0,1.0,0.4,0.5,1.7222222222222223,3.125,2.2222222222222223,0.7777777777777778,2.625,3.0,1.5,1.5,0.25,2.5,0.5833333333333334,0.75,0.5709205090904355,-0.3431317656894429,0.0023701998458374915,2.571932949739397,-0.0025679737996807898,-1.8505531056024374,0.002368363932629047,1.3807346649158159,0.001985102356262155,0.7846531785677231,,,,,,,,,,,,,,,,,,,,,,,,
8,240712_144856,LEARNING,1.0,9,1.0,1068.0,,,,,,,,,,9.0,9.0,9.0,cue2.png,Easy,B,,,,,,,,,,,,,,,,,,,,,,,,,,,42,21,Female,0.0,1.0,0.4,0.5,1.7222222222222223,3.125,2.2222222222222223,0.7777777777777778,2.625,3.0,1.5,1.5,0.25,2.5,0.5833333333333334,0.75,0.6597260909038596,0.6034705247907145,-0.00042882531993778446,-1.0709544713771926,0.004537825207581086,3.1898063371628136,-0.0008096573571134144,-0.7687410600064926,0.0032051122451519512,1.561934019314282,,,,,,,,,,,,,,,,,,,,,,,,
9,240712_144920,LEARNING,1.0,10,1.0,1068.0,,,,,,,,,,10.0,10.0,10.0,cue2.png,Easy,B,,,,,,,,,,,,,,,,,,,,,,,,,,,42,21,Female,0.0,1.0,0.4,0.5,1.7222222222222223,3.125,2.2222222222222223,0.7777777777777778,2.625,3.0,1.5,1.5,0.25,2.5,0.15625,0.625,0.6945677636381746,0.9748571712264583,,,,,0.0004707625793308849,0.09727943519183249,0.0008614546615423966,0.06876568223809275,1.5699999999999998,0.17325137040115202,1.2140000000000002,-0.7198288236718221,,,,,,,,,,,,,,,,,,,,
10,240712_144954,LEARNING,1.0,11,3.0,1068.0,,,,,,,,,,11.0,11.0,11.0,cue1.png,Hard,B,,,,,,,,,,,,,,,,,,,,,,,,,,,42,21,Female,0.0,1.0,0.4,0.5,1.7222222222222223,3.125,2.2222222222222223,0.7777777777777778,2.625,3.0,1.5,1.5,0.25,2.5,,,,,0.0012975880222719054,1.1759454582422544,,,,,-0.001183013432998049,-1.2337859559703572,1.124,-0.7643588297284218,,,,,,,,,,,,,,,,,,,,,,
11,240712_145017,LEARNING,1.0,12,1.0,1068.0,,,,,,,,,,12.0,12.0,12.0,cue2.png,Easy,B,,,,,,,,,,,,,,,,,,,,,,,,,,,42,21,Female,0.0,1.0,0.4,0.5,1.7222222222222223,3.125,2.2222222222222223,0.7777777777777778,2.625,3.0,1.5,1.5,0.25,2.5,0.15625,0.625,0.5622780272705395,-0.4352542755485014,,,-0.0017564824790935385,-1.2749376208041836,0.0010075386936189415,0.4603315113702775,-0.001194210476437853,-1.2409197074407543,,,1.446,-0.17295288353192756,,,,,,,,,,,,,,,,,,,,
12,240712_145039,LEARNING,1.0,13,1.0,1068.0,,,,,,,,,,13.0,13.0,13.0,cue2.png,Easy,B,,,,,,,,,,,,,,,,,,,,,,,,,,,42,21,Female,0.0,1.0,0.4,0.5,1.7222222222222223,3.125,2.2222222222222223,0.7777777777777778,2.625,3.0,1.5,1.5,0.25,2.5,1.0,1.0,0.45574968181741,-1.5707682122608737,2.8012200314355817e-05,-0.4763875927476238,-1.6153894403870064e-06,-0.030156999076522095,-0.001631155072775425,-1.3243664749758541,0.0004399535462577958,-0.19977701093807806,,,0.5039999999999998,-2.393457778410295,,,,,,,,,,,,,,,,,,,,
13,240712_145102,LEARNING,1.0,14,1.0,1068.0,,,,,,,,,,14.0,14.0,14.0,cue2.png,Easy,B,,,,,,,,,,,,,,,,,,,,,,,,,,,42,21,Female,0.0,1.0,0.4,0.5,1.7222222222222223,3.125,2.2222222222222223,0.7777777777777778,2.625,3.0,1.5,1.5,0.25,2.5,1.0,1.0,0.5046622363628227,-1.0493962982386367,-0.00014457714489822136,-0.7010099228292834,-0.0002564343198141377,-0.21090781972203787,-0.00039745907436886715,-0.4899480243922264,7.987377113264325e-06,-0.4749870974991559,,,,,,,,,,,,,,,,,,,,,,,,
14,240712_145126,LEARNING,1.0,15,3.0,1068.0,,,,,,,,,,15.0,15.0,15.0,cue1.png,Hard,B,,,,,,,,,,,,,,,,,,,,,,,,,,,42,21,Female,0.0,1.0,0.4,0.5,1.7222222222222223,3.125,2.2222222222222223,0.7777777777777778,2.625,3.0,1.5,1.5,0.25,2.5,0.5833333333333334,0.75,0.6837729272691914,0.8597921423895726,0.0014434490652849496,1.3657813215707606,0.0018722940500438315,1.2990639834672542,0.0017988206646967894,0.9955203075845226,0.002925413215599309,1.3837348925477675,1.037,-0.9472558867043707,1.0819999999999999,-1.0309823758203838,,,,,,,,,,,,,,,,,,,,
15,240712_145149,LEARNING,1.0,16,1.0,1068.0,,,,,,,,,,16.0,16.0,16.0,cue2.png,Easy,B,,,,,,,,,,,,,,,,,,,,,,,,,,,42,21,Female,0.0,1.0,0.4,0.5,1.7222222222222223,3.125,2.2222222222222223,0.7777777777777778,2.625,3.0,1.5,1.5,0.25,2.5,1.0,1.0,0.5975774818242908,-0.0589880110755836,0.0003076298662581219,-0.1124695792751051,0.00011943622850056667,0.055708596745587716,,,0.00024938747599591304,-0.3211886131388731,,,,,,,,,,,,,,,,,,,,,,,,
16,240712_145213,LEARNING,1.0,17,1.0,1068.0,,,,,,,,,,17.0,17.0,17.0,cue2.png,Easy,B,,,,,,,,,,,,,,,,,,,,,,,,,,,42,21,Female,0.0,1.0,0.4,0.5,1.7222222222222223,3.125,2.2222222222222223,0.7777777777777778,2.625,3.0,1.5,1.5,0.25,2.5,1.0,1.0,0.5772089636381927,-0.2761014579437694,0.0015772935049917407,1.5399777638736352,0.00012667557028595575,0.060843682144161554,0.0016993563991160917,0.9282469935091909,0.0003907333303930279,-0.23113571640226777,,,,,,,,,,,,,,,,,,,,,,,,
17,240712_145238,LEARNING,1.0,18,3.0,1068.0,,,,,,,,,,18.0,18.0,18.0,cue1.png,Hard,B,,,,,,,,,,,,,,,,,,,,,,,,,,,42,21,Female,0.0,1.0,0.4,0.5,1.7222222222222223,3.125,2.2222222222222223,0.7777777777777778,2.625,3.0,1.5,1.5,0.25,2.5,0.84375,0.875,0.7691726363634437,1.7700903306813631,0.0023851849077113334,2.5914357731053137,-8.158517712194202e-05,-0.08688200270591381,,,-4.258799674533662e-05,-0.5072091880509447,,,,,,,,,,,,,,,,,,,,,,,,
18,240712_145303,LEARNING,1.0,19,3.0,1068.0,,,,,,,,,,19.0,19.0,19.0,cue1.png,Hard,B,,,,,,,,,,,,,,,,,,,,,,,,,,,42,21,Female,0.0,1.0,0.4,0.5,1.7222222222222223,3.125,2.2222222222222223,0.7777777777777778,2.625,3.0,1.5,1.5,0.25,2.5,0.84375,0.875,0.7101377181825228,1.140821453351391,0.000589017370699794,0.2537518512871432,0.0007035491462188061,0.47003766198560987,9.668783024426551e-06,-0.21458440450992128,0.0008240393484616132,0.0449280016806903,1.0579999999999998,-0.9031083212274178,,,,,,,,,,,,,,,,,,,,,,
19,240712_145328,LEARNING,1.0,20,3.0,1068.0,,,,,,,,,,20.0,20.0,20.0,cue1.png,Hard,B,,,,,,,,,,,,,,,,,,,,,,,,,,,42,21,Female,0.0,1.0,0.4,0.5,1.7222222222222223,3.125,2.2222222222222223,0.7777777777777778,2.625,3.0,1.5,1.5,0.25,2.5,0.84375,0.875,0.7477045818152626,1.5412566336041225,0.00034986775679352175,-0.057497626179681925,0.0013414639363470739,0.9225300323463089,0.002538698818258147,1.4959417917368063,0.002911520485526381,1.3748836914143265,,,1.1150000000000002,-0.9531939877832427,,,,,,,,,,,,,,,,,,,,
20,240712_145350,LEARNING,1.0,21,1.0,1068.0,,,,,,,,,,21.0,21.0,21.0,cue2.png,Easy,B,,,,,,,,,,,,,,,,,,,,,,,,,,,42,21,Female,0.0,1.0,0.4,0.5,1.7222222222222223,3.125,2.2222222222222223,0.7777777777777778,2.625,3.0,1.5,1.5,0.25,2.5,1.0,1.0,0.4865976636382667,-1.2419513783183578,-0.0008192652406289001,-1.5791059139504022,0.0009621515869638235,0.6534722416576793,-0.00011559025004430346,-0.299304180232473,0.0025782178620808727,1.1625331639849865,1.5790000000000002,0.1921717556055612,2.011,1.1588786086191103,,,,,,,,,,,,,,,,,,,,
21,240712_145415,LEARNING,1.0,22,3.0,1068.0,,,,,,,,,,22.0,22.0,22.0,cue1.png,Hard,B,,,,,,,,,,,,,,,,,,,,,,,,,,,42,21,Female,0.0,1.0,0.4,0.5,1.7222222222222223,3.125,2.2222222222222223,0.7777777777777778,2.625,3.0,1.5,1.5,0.25,2.5,1.0,1.0,0.6915708909112833,0.9429127086192216,-0.0006678901921089416,-1.3820936588028028,0.0010606552753720578,0.7233439050002887,0.0004554673171595939,0.08693438342971017,0.0016776921518397141,0.5887989774472843,1.0799999999999998,-0.8568584907277527,1.0399999999999998,-1.1299857787767442,,,,,,,,,,,,,,,,,,,,
22,240712_145439,LEARNING,1.0,23,3.0,1068.0,,,,,,,,,,23.0,23.0,23.0,cue1.png,Hard,B,,,,,,,,,,,,,,,,,,,,,,,,,,,42,21,Female,0.0,1.0,0.4,0.5,1.7222222222222223,3.125,2.2222222222222223,0.7777777777777778,2.625,3.0,1.5,1.5,0.25,2.5,0.84375,0.875,0.7246592363649556,1.2956101737453403,0.0001810360018849209,-0.2772295113237828,0.0022025987464371166,1.533359154742741,0.0011304974585275782,0.543495485504309,0.0011881107635654635,0.27688164254931147,,,1.448,-0.16823843577210087,,,,,,,,,,,,,,,,,,,,
23,240712_145503,LEARNING,1.0,24,3.0,1068.0,,,,,,,,,,24.0,24.0,24.0,cue1.png,Hard,B,,,,,,,,,,,,,,,,,,,,,,,,,,,42,21,Female,0.0,1.0,0.4,0.5,1.7222222222222223,3.125,2.2222222222222223,0.7777777777777778,2.625,3.0,1.5,1.5,0.25,2.5,0.15625,0.625,0.6150478818136352,0.12723362395927715,0.0005893957167023333,0.2542442626846299,-0.0005933374891804047,-0.4498834886478537,0.00023929143210386482,-0.05927760663488128,-0.000766580486613936,-0.9684722452966165,0.9630000000000001,-1.102823498385062,,,,,,,,,,,,,,,,,,,,,,
24,240712_145526,LEARNING,1.0,25,1.0,1068.0,,,,,,,,,,25.0,25.0,25.0,cue2.png,Easy,B,,,,,,,,,,,,,,,,,,,,,,,,,,,42,21,Female,0.0,1.0,0.4,0.5,1.7222222222222223,3.125,2.2222222222222223,0.7777777777777778,2.625,3.0,1.5,1.5,0.25,2.5,1.0,1.0,0.5816302545453337,-0.2289737435128049,0.0003579449085156488,-0.046985339699814964,-0.0004523292598410402,-0.34986206114449614,0.0007478091667324918,0.2846617275051036,-0.0008915210726760693,-1.0480731769465361,1.6,0.23631932108251405,1.799,0.6591471460774817,,,,,,,,,,,,,,,,,,,,
25,240712_145550,LEARNING,1.0,26,1.0,1068.0,,,,,,,,,,26.0,26.0,26.0,cue2.png,Easy,B,,,,,,,,,,,,,,,,,,,,,,,,,,,42,21,Female,0.0,1.0,0.4,0.5,1.7222222222222223,3.125,2.2222222222222223,0.7777777777777778,2.625,3.0,1.5,1.5,0.25,2.5,1.0,1.0,0.6139406454537741,0.115431297428165,0.002296624620842375,2.476175946580658,-0.0011717723134278524,-0.8601849094226778,0.0023589854491791315,1.3743914655869616,-0.0005090443095532183,-0.8043932996656343,1.1740000000000002,-0.6592455785928193,2.279,1.7906146084358852,,,,,,,,,,,,,,,,,,,,
26,240712_145612,LEARNING,1.0,27,3.0,1068.0,,,,,,,,,,27.0,27.0,27.0,cue1.png,Hard,B,,,,,,,,,,,,,,,,,,,,,,,,,,,42,21,Female,0.0,1.0,0.4,0.5,1.7222222222222223,3.125,2.2222222222222223,0.7777777777777778,2.625,3.0,1.5,1.5,0.25,2.5,0.84375,0.875,0.4877849999968682,-1.2292952446196463,,,0.0003805331622912865,0.24091259623448122,-1.6482277791263905e-05,-0.23227184750651897,0.0007757903540917474,0.014188071414130827,2.1130000000000004,1.3147812777337966,1.5519999999999998,0.07691284773888625,,,,,,,,,,,,,,,,,,,,
27,240712_145635,LEARNING,1.0,28,1.0,1068.0,,,,,,,,,,28.0,28.0,28.0,cue2.png,Easy,B,,,,,,,,,,,,,,,,,,,,,,,,,,,42,21,Female,0.0,1.0,0.4,0.5,1.7222222222222223,3.125,2.2222222222222223,0.7777777777777778,2.625,3.0,1.5,1.5,0.25,2.5,1.0,1.0,0.5007807545453861,-1.0907700441655757,0.00045815785281563175,0.08344023799317783,-0.0012456678603340312,-0.9126012692502242,0.0013252766680834907,0.6752356925354324,-0.0017340039770857036,-1.5848276952644411,0.51,-2.055149553673621,1.305,-0.5053214505997087,,,,,,,,,,,,,,,,,,,,
28,240712_145657,LEARNING,1.0,29,1.0,1068.0,,,,,,,,,,29.0,29.0,29.0,cue2.png,Easy,B,,,,,,,,,,,,,,,,,,,,,,,,,,,42,21,Female,0.0,1.0,0.4,0.5,1.7222222222222223,3.125,2.2222222222222223,0.7777777777777778,2.625,3.0,1.5,1.5,0.25,2.5,1.0,1.0,0.49974706363388,-1.101788430223064,0.00015403185619433614,-0.3123749840608897,0.00029285186462819305,0.1787175839384071,-0.0015659048067530688,-1.2802340258596483,0.0012727294536084748,0.33079307977492034,1.446,-0.08742949241514199,1.39,-0.3049574208070748,,,,,,,,,,,,,,,,,,,,
29,240712_145721,LEARNING,1.0,30,3.0,1068.0,,,,,,,,,,30.0,30.0,30.0,cue1.png,Hard,B,,,,,,,,,,,,,,,,,,,,,,,,,,,42,21,Female,0.0,1.0,0.4,0.5,1.7222222222222223,3.125,2.2222222222222223,0.7777777777777778,2.625,3.0,1.5,1.5,0.25,2.5,0.84375,0.875,0.6691000181811184,0.7033897061107597,-0.00043272732334605647,-1.0760328677085134,-0.00126522140383983,-0.9264711926111654,0.000769842862064718,0.2995643631167083,-0.0012763332872579329,-1.2932409943581822,1.3609999999999998,-0.26612201934566665,1.847,0.7722938923133221,,,,,,,,,,,,,,,,,,,,
30,240712_145746,LEARNING,1.0,31,3.0,1068.0,,,,,,,,,,31.0,31.0,31.0,cue1.png,Hard,B,,,,,,,,,,,,,,,,,,,,,,,,,,,42,21,Female,0.0,1.0,0.4,0.5,1.7222222222222223,3.125,2.2222222222222223,0.7777777777777778,2.625,3.0,1.5,1.5,0.25,2.5,0.84375,0.875,0.7288068272808398,1.339820447252689,-0.0003799273143371253,-1.0073144828203224,-0.0004770491461158462,-0.3673966286269098,,,0.004540328582472697,2.4126140725683083,2.616,2.372220584157957,,,,,,,,,,,,,,,,,,,,,,
31,240712_145808,LEARNING,1.0,32,1.0,1068.0,,,,,,,,,,32.0,32.0,32.0,cue2.png,Easy,B,,,,,,,,,,,,,,,,,,,,,,,,,,,42,21,Female,0.0,1.0,0.4,0.5,1.7222222222222223,3.125,2.2222222222222223,0.7777777777777778,2.625,3.0,1.5,1.5,0.25,2.5,1.0,1.0,0.4711404454508077,-1.4067139736633323,0.0007927760943438849,0.5189406392915682,0.0008273978001430904,0.557887280535625,0.002357340470262523,1.3732788732136278,,,1.381,-0.22407671889142514,1.379,-0.3308868834861213,,,,,,,,,,,,,,,,,,,,
32,240712_145838,LEARNING,1.0,33,1.0,1068.0,,,,,,,,,,33.0,33.0,33.0,cue2.png,Easy,B,,,,,,,,,,,,,,,,,,,,,,,,,,,42,21,Female,0.0,1.0,0.4,0.5,1.7222222222222223,3.125,2.2222222222222223,0.7777777777777778,2.625,3.0,1.5,1.5,0.25,2.5,0.21875,0.3295454545454546,0.6505376199958846,0.5055281721830469,5.461310446472096e-05,-0.4417669325604359,,,-0.0004813807451161849,-0.5467090016230933,0.0003705255802830343,-0.2440102817136896,2.089,1.2643269171887064,1.846,0.769936668433409,,,,,,,,,,,,,,,,,,,,
33,240712_145912,LEARNING,1.0,34,1.0,1068.0,,,,,,,,,,34.0,34.0,34.0,cue2.png,Easy,B,,,,,,,,,,,,,,,,,,,,,,,,,,,42,21,Female,0.0,1.0,0.4,0.5,1.7222222222222223,3.125,2.2222222222222223,0.7777777777777778,2.625,3.0,1.5,1.5,0.25,2.5,,,,,0.0005283131525376282,0.17474626196425483,-0.00021359742471067575,-0.180522306634372,,,,,,,1.728,0.49178425060363457,,,,,,,,,,,,,,,,,,,,
34,240712_145946,LEARNING,1.0,35,3.0,1068.0,,,,,,,,,,35.0,35.0,35.0,cue1.png,Hard,B,,,,,,,,,,,,,,,,,,,,,,,,,,,42,21,Female,0.0,1.0,0.4,0.5,1.7222222222222223,3.125,2.2222222222222223,0.7777777777777778,2.625,3.0,1.5,1.5,0.25,2.5,,,,,,,,,-0.003634159875934708,-2.6791120253565333,,,1.9,0.8669988278961288,2.024,1.1895225190579835,,,,,,,,,,,,,,,,,,,,
35,240712_150010,LEARNING,1.0,36,3.0,1068.0,,,,,,,,,,36.0,36.0,36.0,cue1.png,Hard,B,,,,,,,,,,,,,,,,,,,,,,,,,,,42,21,Female,0.0,1.0,0.4,0.5,1.7222222222222223,3.125,2.2222222222222223,0.7777777777777778,2.625,3.0,1.5,1.5,0.25,2.5,1.0,1.0,0.6697540727221746,0.7103614472335583,-0.00014108041417174857,-0.69645898254684,,,,,,,1.581,0.19637628565098483,1.0119999999999998,-1.1959880474143179,,,,,,,,,,,,,,,,,,,,
36,240712_150032,LEARNING,1.0,37,1.0,1068.0,,,,,,,,,,37.0,37.0,37.0,cue2.png,Easy,B,,,,,,,,,,,,,,,,,,,,,,,,,,,42,21,Female,0.0,1.0,0.4,0.5,1.7222222222222223,3.125,2.2222222222222223,0.7777777777777778,2.625,3.0,1.5,1.5,0.25,2.5,1.0,1.0,0.4613681272656487,-1.5108797095154685,0.000308963177509748,-0.1107342955604849,,,0.0006644679502394056,0.2282933443493379,-7.075510491303446e-05,-0.5251547421955187,1.7400000000000002,0.5306364242622014,2.0180000000000002,1.175379175778504,,,,,,,,,,,,,,,,,,,,
37,240712_150057,LEARNING,1.0,38,3.0,1068.0,,,,,,,,,,38.0,38.0,38.0,cue1.png,Hard,B,,,,,,,,,,,,,,,,,,,,,,,,,,,42,21,Female,0.0,1.0,0.4,0.5,1.7222222222222223,3.125,2.2222222222222223,0.7777777777777778,2.625,3.0,1.5,1.5,0.25,2.5,1.0,1.0,0.7683812363671181,1.761654587860808,-0.00047204743173299025,-1.127207373029557,0.00026862793378057154,0.16153481273084513,0.00021009793713902894,-0.0790228200968218,,,1.8110000000000002,0.6798972408747569,2.404,2.0852675934250526,,,,,,,,,,,,,,,,,,,,
38,240712_150122,LEARNING,1.0,39,3.0,1068.0,,,,,,,,,,39.0,39.0,39.0,cue1.png,Hard,B,,,,,,,,,,,,,,,,,,,,,,,,,,,42,21,Female,0.0,1.0,0.4,0.5,1.7222222222222223,3.125,2.2222222222222223,0.7777777777777778,2.625,3.0,1.5,1.5,0.25,2.5,1.0,1.0,0.6733144090950108,0.7483120185443491,0.0003966636361168491,0.003406477946092012,-0.001969984403784546,-1.426381032173561,-0.0009179304129888028,-0.8419722576760853,-0.0009895487029345411,-1.1105275878144962,1.921,0.9111463933730821,1.9970000000000003,1.1258774743003241,,,,,,,,,,,,,,,,,,,,
39,240712_150145,LEARNING,1.0,40,3.0,1068.0,,,,,,,,,,40.0,40.0,40.0,cue1.png,Hard,B,,,,,,,,,,,,,,,,,,,,,,,,,,,42,21,Female,0.0,1.0,0.4,0.5,1.7222222222222223,3.125,2.2222222222222223,0.7777777777777778,2.625,3.0,1.5,1.5,0.25,2.5,0.15625,0.5340909090909091,0.4768327700032387,-1.3460379739180877,-0.00020801280263764215,-0.7835704379882052,,,-0.00025950461183417255,-0.39664161095814265,0.0013885522260899718,0.4045849586702131,1.9649999999999999,1.003646054372412,1.5599999999999998,0.09577063877819299,,,,,,,,,,,,,,,,,,,,
40,240712_150208,LEARNING,1.0,41,1.0,1068.0,,,,,,,,,,41.0,41.0,41.0,cue2.png,Easy,B,,,,,,,,,,,,,,,,,,,,,,,,,,,42,21,Female,0.0,1.0,0.4,0.5,1.7222222222222223,3.125,2.2222222222222223,0.7777777777777778,2.625,3.0,1.5,1.5,0.25,2.5,1.0,1.0,0.5427706363685005,-0.6431887379109851,0.00044853569357642883,0.07091714842432638,0.002590291235507606,1.8083612334925865,,,0.0024691385238866112,1.0930375963901469,0.8549999999999998,-1.3298681208379641,1.629,0.2584190864922139,,,,,,,,,,,,,,,,,,,,
41,240712_150232,LEARNING,1.0,42,3.0,1068.0,,,,,,,,,,42.0,42.0,42.0,cue1.png,Hard,B,,,,,,,,,,,,,,,,,,,,,,,,,,,42,21,Female,0.0,1.0,0.4,0.5,1.7222222222222223,3.125,2.2222222222222223,0.7777777777777778,2.625,3.0,1.5,1.5,0.25,2.5,1.0,1.0,0.6592273636355954,0.5981544583360673,1.2073276752680266e-05,-0.49713185216298506,,,0.0029558287706253263,1.7780703947279808,-0.00016023878067299852,-0.5821657118287985,,,1.559,0.09341341489827991,,,,,,,,,,,,,,,,,,,,
42,240712_150257,LEARNING,1.0,43,3.0,1068.0,,,,,,,,,,43.0,43.0,43.0,cue1.png,Hard,B,,,,,,,,,,,,,,,,,,,,,,,,,,,42,21,Female,0.0,1.0,0.4,0.5,1.7222222222222223,3.125,2.2222222222222223,0.7777777777777778,2.625,3.0,1.5,1.5,0.25,2.5,0.84375,0.875,0.7343988454535562,1.3994272546470843,0.0007452242533781453,0.4570526629263935,0.0007662696497382207,0.5145272235178169,0.00103663421300866,0.48001045840378664,0.00018448932571070355,-0.362535891776498,1.979,1.0330777646903813,,,,,,,,,,,,,,,,,,,,,,
43,240712_150319,LEARNING,1.0,44,1.0,1068.0,,,,,,,,,,44.0,44.0,44.0,cue2.png,Easy,B,,,,,,,,,,,,,,,,,,,,,,,,,,,42,21,Female,0.0,1.0,0.4,0.5,1.7222222222222223,3.125,2.2222222222222223,0.7777777777777778,2.625,3.0,1.5,1.5,0.25,2.5,0.84375,0.875,0.5371308545449707,-0.7033046707492825,0.0003787211905576294,-0.019945333974343688,0.0014188365743536516,0.9774127986882164,0.0013905031010205925,0.719352021986748,0.0014385895235200933,0.43646423519850663,2.272,1.6490414163450113,0.7469999999999999,-1.8206523755913528,,,,,,,,,,,,,,,,,,,,
44,240712_150342,LEARNING,1.0,45,1.0,1068.0,,,,,,,,,,45.0,45.0,45.0,cue2.png,Easy,B,,,,,,,,,,,,,,,,,,,,,,,,,,,42,21,Female,0.0,1.0,0.4,0.5,1.7222222222222223,3.125,2.2222222222222223,0.7777777777777778,2.625,3.0,1.5,1.5,0.25,2.5,1.0,1.0,0.5261033818136308,-0.8208494323795233,,,,,0.0016712286658845709,0.9092226150465961,0.0003936962853552245,-0.229247987339509,1.876,0.8165444673510396,1.5919999999999999,0.17120180293541995,,,,,,,,,,,,,,,,,,,,
45,240712_150404,LEARNING,1.0,46,1.0,1068.0,,,,,,,,,,46.0,46.0,46.0,cue2.png,Easy,B,,,,,,,,,,,,,,,,,,,,,,,,,,,42,21,Female,0.0,1.0,0.4,0.5,1.7222222222222223,3.125,2.2222222222222223,0.7777777777777778,2.625,3.0,1.5,1.5,0.25,2.5,1.0,1.0,0.4761007909123277,-1.3538403335208393,-1.49317969274196e-05,-0.5322785326639137,9.319667003030666e-05,0.03709607953613609,0.00012036486547817044,-0.13971437678345422,,,0.6700000000000002,-1.7187871500396927,1.069,-1.0616262862592571,,,,,,,,,,,,,,,,,,,,
46,240712_150429,LEARNING,1.0,47,3.0,1068.0,,,,,,,,,,47.0,47.0,47.0,cue1.png,Hard,B,,,,,,,,,,,,,,,,,,,,,,,,,,,42,21,Female,0.0,1.0,0.4,0.5,1.7222222222222223,3.125,2.2222222222222223,0.7777777777777778,2.625,3.0,1.5,1.5,0.25,2.5,1.0,1.0,0.7547324818257369,1.6161688869933,,,0.0008431034317811325,0.5690277629290191,0.0004359068385838211,0.0737045243339916,0.0006496772507321559,-0.0661598830583559,0.7690000000000001,-1.5106629127911997,2.1839999999999997,1.5666783398441173,,,,,,,,,,,,,,,,,,,,
47,240712_150454,LEARNING,1.0,48,3.0,1068.0,,,,,,,,,,48.0,48.0,48.0,cue1.png,Hard,B,,,,,,,,,,,,,,,,,,,,,,,,,,,42,21,Female,0.0,1.0,0.4,0.5,1.7222222222222223,3.125,2.2222222222222223,0.7777777777777778,2.625,3.0,1.5,1.5,0.25,2.5,0.84375,0.875,0.6902034363645891,0.9283366472997004,-0.00028486698525017696,-0.8835949531382338,-0.001946975524467938,-1.4100601339871093,-0.0008337280193836481,-0.785021411683074,-0.0007385487429726256,-0.9506129332832218,1.23,-0.5415187373209448,1.581,0.14527234025637345,,,,,,,,,,,,,,,,,,,,
48,240712_150516,LEARNING,1.0,49,1.0,1068.0,,,,,,,,,,49.0,49.0,49.0,cue2.png,Easy,B,,,,,,,,,,,,,,,,,,,,,,,,,,,42,21,Female,0.0,1.0,0.4,0.5,1.7222222222222223,3.125,2.2222222222222223,0.7777777777777778,2.625,3.0,1.5,1.5,0.25,2.5,1.0,1.0,0.4863910090987867,-1.2441541639588019,0.00015256126147424184,-0.3142889400598913,0.00038323762054452573,0.2428309507615862,0.0019343260348123883,1.0871702611578973,-0.00020985464176464293,-0.6137764869338859,,,,,,,,,,,,,,,,,,,,,,,,
49,240712_150539,LEARNING,1.0,50,1.0,1068.0,,,,,,,,,,50.0,50.0,50.0,cue2.png,Easy,B,,,,,,,,,,,,,,,,,,,,,,,,,,,42,21,Female,0.0,1.0,0.4,0.5,1.7222222222222223,3.125,2.2222222222222223,0.7777777777777778,2.625,3.0,1.5,1.5,0.25,2.5,1.0,1.0,0.5107006999976214,-0.9850307100519549,,,-0.00011099129953959707,-0.10774066007174497,-0.0009507032235730357,-0.86413836493775,0.0005149258671960817,-0.1520113746245386,1.6290000000000002,0.2972850067411638,1.2880000000000003,-0.5453942565582347,,,,,,,,,,,,,,,,,,,,
0,240712_150715,TrueCHOICE,9.0,1,1.0,1068.0,,,,,,,,,,,2.0,1.0,,,B,,,,,,True,cue2.png,Easy,cue1.png,Hard,Left,Easy,Easy,0.0160589999868534,,,,,,,,,,,,,42,21,Female,0.0,1.0,0.4,0.5,1.7222222222222223,3.125,2.2222222222222223,0.7777777777777778,2.625,3.0,1.5,1.5,0.25,2.5,1.0,1.0,0.5354639818198682,-0.46533020985305246,,,,,,,,,,,,,0.00048162073741283163,0.6161185699159989,,,1.458,-0.7308239700314467,,,,,,,,,,,,,,
1,240712_150738,TrueCHOICE,9.0,2,1.0,1068.0,,,,,,,,,,,3.0,2.0,,,B,,,,,,True,cue2.png,Easy,cue1.png,Hard,Left,Easy,Easy,0.0160467999812681,,,,,,,,,,,,,42,21,Female,0.0,1.0,0.4,0.5,1.7222222222222223,3.125,2.2222222222222223,0.7777777777777778,2.625,3.0,1.5,1.5,0.25,2.5,1.0,1.0,0.6058670909101651,0.4511479345838541,,,,,,,,,,,,,,,0.0010908363703607017,-0.5998576182641898,1.8399999999999999,0.6113623595455356,,,,,,,,,,,,,,
2,240712_150800,TrueCHOICE,9.0,3,3.0,1068.0,,,,,,,,,,,4.0,3.0,,,B,,,,,,True,cue1.png,Hard,cue2.png,Easy,Left,Hard,Hard,0.013799000007566,,,,,,,,,,,,,42,21,Female,0.0,1.0,0.4,0.5,1.7222222222222223,3.125,2.2222222222222223,0.7777777777777778,2.625,3.0,1.5,1.5,0.25,2.5,0.84375,0.875,0.6708350545430387,1.2968736351595775,,,,,,,,,,,,,,,,,,,,,,,,,,,,,,,,
3,240712_150823,TrueCHOICE,9.0,4,1.0,1068.0,,,,,,,,,,,5.0,4.0,,,B,,,,,,True,cue2.png,Easy,cue1.png,Hard,Left,Easy,Easy,0.0173259000002872,,,,,,,,,,,,,42,21,Female,0.0,1.0,0.4,0.5,1.7222222222222223,3.125,2.2222222222222223,0.7777777777777778,2.625,3.0,1.5,1.5,0.25,2.5,1.0,1.0,0.5594096545431636,-0.15361548605310862,,,,,,,,,,,,,0.0003084882097956249,0.3451363526959077,0.00097679717163818,-0.7670215444033943,1.549,-0.4110884831426892,,,,,,,,,,,,,,
4,240712_150845,TrueCHOICE,9.0,5,3.0,1068.0,,,,,,,,,,,6.0,5.0,,,B,,,,,,True,cue1.png,Hard,cue2.png,Easy,Left,Hard,Hard,0.0165044000023044,,,,,,,,,,,,,42,21,Female,0.0,1.0,0.4,0.5,1.7222222222222223,3.125,2.2222222222222223,0.7777777777777778,2.625,3.0,1.5,1.5,0.25,2.5,0.84375,0.875,0.5877368272684346,0.2151357670073633,,,,,,,,,,,,,,,,,,,,,,,,,,,,,,,,
5,240712_150905,TrueCHOICE,9.0,6,1.0,1068.0,,,,,,,,,,,7.0,6.0,,,B,,,,,,True,cue1.png,Hard,cue2.png,Easy,Right,Easy,Easy,0.0173455000040121,,,,,,,,,,,,,42,21,Female,0.0,1.0,0.4,0.5,1.7222222222222223,3.125,2.2222222222222223,0.7777777777777778,2.625,3.0,1.5,1.5,0.25,2.5,1.0,1.0,0.4500068454442292,-1.5777753672677195,,,,,,,,,,,,,-0.0011552319798750236,-1.945837780505302,,,1.464,-0.7097425093574627,,,,,,,,,,,,,,
6,240712_150928,TrueCHOICE,9.0,7,1.0,1068.0,,,,,,,,,,,8.0,7.0,,,B,,,,,,True,cue2.png,Easy,cue1.png,Hard,Left,Easy,Easy,0.0161417000053916,,,,,,,,,,,,,42,21,Female,0.0,1.0,0.4,0.5,1.7222222222222223,3.125,2.2222222222222223,0.7777777777777778,2.625,3.0,1.5,1.5,0.25,2.5,0.84375,0.875,0.6185050090954808,0.6156630527041114,,,,,,,,,,,,,0.0006193083846572165,0.8316234461377278,0.0012990017431656186,-0.2947191974921326,1.458,-0.7308239700314467,,,,,,,,,,,,,,
7,240712_150949,TrueCHOICE,9.0,8,1.0,1068.0,,,,,,,,,,,9.0,8.0,,,B,,,,,,True,cue1.png,Hard,cue2.png,Easy,Right,Easy,Easy,0.0160349000070709,,,,,,,,,,,,,42,21,Female,0.0,1.0,0.4,0.5,1.7222222222222223,3.125,2.2222222222222223,0.7777777777777778,2.625,3.0,1.5,1.5,0.25,2.5,0.84375,0.875,0.4500938636351334,-1.5766426009572172,,,,,,,,,,,,,,,0.0007793721434777561,-1.0564162717877932,2.2270000000000003,1.9711165730175066,,,,,,,,,,,,,,
8,240712_151012,TrueCHOICE,9.0,9,1.0,1068.0,,,,,,,,,,,10.0,9.0,,,B,,,,,,True,cue2.png,Easy,cue1.png,Hard,Left,Easy,Easy,0.0146626000059768,,,,,,,,,,,,,42,21,Female,0.0,1.0,0.4,0.5,1.7222222222222223,3.125,2.2222222222222223,0.7777777777777778,2.625,3.0,1.5,1.5,0.25,2.5,1.0,1.0,0.689164936367888,1.5354843485165666,,,,,,,,,,,,,,,0.002237151756101785,1.0804644343355394,,,,,,,,,,,,,,,,
9,240712_151033,TrueCHOICE,9.0,10,1.0,1068.0,,,,,,,,,,,11.0,10.0,,,B,,,,,,True,cue1.png,Hard,cue2.png,Easy,Right,Easy,Easy,0.0165393000061158,,,,,,,,,,,,,42,21,Female,0.0,1.0,0.4,0.5,1.7222222222222223,3.125,2.2222222222222223,0.7777777777777778,2.625,3.0,1.5,1.5,0.25,2.5,1.0,1.0,0.5450194545450028,-0.340941073840368,,,,,,,,,,,,,0.00018570495163185066,0.15295941175566777,0.002617195558200958,1.63755019761197,,,,,,,,,,,,,,,,
0,240712_151222,FalseCHOICE,9.0,1,2.0,1068.0,,,,,,,,,,,2.0,1.0,,,B,,,,,,False,cue2.png,Easy,cue1.png,Hard,Left,Easy,Mid,0.0160396000137552,,,,,,,,,,,,,42,21,Female,0.0,1.0,0.4,0.5,1.7222222222222223,3.125,2.2222222222222223,0.7777777777777778,2.625,3.0,1.5,1.5,0.25,2.5,0.5833333333333334,0.75,0.6263135818193074,-0.28027595018172013,,,,,,,,,,,,,,,,,,,-0.001472434508371521,-1.7838454429498527,0.00014029062844718963,-0.12417596916257788,,,,,,,,,,
1,240712_151245,FalseCHOICE,9.0,2,2.0,1068.0,,,,,,,,,,,3.0,2.0,,,B,,,,,,False,cue1.png,Hard,cue2.png,Easy,Right,Easy,Mid,0.015557600010652,,,,,,,,,,,,,42,21,Female,0.0,1.0,0.4,0.5,1.7222222222222223,3.125,2.2222222222222223,0.7777777777777778,2.625,3.0,1.5,1.5,0.25,2.5,1.0,1.0,0.6882019272677347,0.9101170705174538,,,,,,,,,,,,,,,,,,,0.0004274017910684395,0.5184545860752222,0.0013095323365892352,0.6460600711617378,1.4590000000000003,0.016713861246378702,,,,,,,,
2,240712_151306,FalseCHOICE,9.0,3,2.0,1068.0,,,,,,,,,,,4.0,3.0,,,B,,,,,,False,cue1.png,Hard,cue2.png,Easy,Left,Hard,Mid,0.0159733000036794,,,,,,,,,,,,,42,21,Female,0.0,1.0,0.4,0.5,1.7222222222222223,3.125,2.2222222222222223,0.7777777777777778,2.625,3.0,1.5,1.5,0.25,2.5,1.0,1.0,0.6044333909098483,-0.7011310621008184,,,,,,,,,,,,,,,,,,,0.0011694716773256015,1.4177254975596092,0.001759150863764749,0.9422455318894581,1.459,0.01671386124637824,,,,,,,,
3,240712_151327,FalseCHOICE,9.0,4,2.0,1068.0,,,,,,,,,,,5.0,4.0,,,B,,,,,,False,cue1.png,Hard,cue2.png,Easy,Right,Easy,Mid,0.0164557000098284,,,,,,,,,,,,,42,21,Female,0.0,1.0,0.4,0.5,1.7222222222222223,3.125,2.2222222222222223,0.7777777777777778,2.625,3.0,1.5,1.5,0.25,2.5,0.84375,0.875,0.6182193999967157,-0.4359637049612128,,,,,,,,,,,,,,,,,,,,,-0.002108675787743556,-1.6056788741365131,1.949,1.040437862587073,,,,,,,,
4,240712_151349,FalseCHOICE,9.0,5,2.0,1068.0,,,,,,,,,,,6.0,5.0,,,B,,,,,,False,cue2.png,Easy,cue1.png,Hard,Left,Easy,Mid,0.0160192000039387,,,,,,,,,,,,,42,21,Female,0.0,1.0,0.4,0.5,1.7222222222222223,3.125,2.2222222222222223,0.7777777777777778,2.625,3.0,1.5,1.5,0.25,2.5,1.0,1.0,0.6676904909069311,0.5155893042393476,,,,,,,,,,,,,,,,,,,-0.0020941792195860623,-2.537301341806712,-0.002668781760834303,-1.9746477570212522,1.588,0.2862248738442346,,,,,,,,
5,240712_151411,FalseCHOICE,9.0,6,2.0,1068.0,,,,,,,,,,,7.0,6.0,,,B,,,,,,False,cue1.png,Hard,cue2.png,Easy,Right,Easy,Mid,0.0164279000018723,,,,,,,,,,,,,42,21,Female,0.0,1.0,0.4,0.5,1.7222222222222223,3.125,2.2222222222222223,0.7777777777777778,2.625,3.0,1.5,1.5,0.25,2.5,0.84375,0.875,0.607568809093209,-0.6408227779577863,,,,,,,,,,,,,,,,,,,,,-0.0012545618797027399,-1.0430327506410935,1.58,0.26951101259785587,,,,,,,,
6,240712_151434,FalseCHOICE,9.0,7,2.0,1068.0,,,,,,,,,,,8.0,7.0,,,B,,,,,,False,cue1.png,Hard,cue2.png,Easy,Right,Easy,Mid,0.0165993999980855,,,,,,,,,,,,,42,21,Female,0.0,1.0,0.4,0.5,1.7222222222222223,3.125,2.2222222222222223,0.7777777777777778,2.625,3.0,1.5,1.5,0.25,2.5,0.84375,0.875,0.6549173000014641,0.26990302525170157,,,,,,,,,,,,,,,,,,,,,0.0026225316815868312,1.510996216867984,,,,,,,,,,
7,240712_151455,FalseCHOICE,9.0,8,2.0,1068.0,,,,,,,,,,,9.0,8.0,,,B,,,,,,False,cue2.png,Easy,cue1.png,Hard,Left,Easy,Mid,0.0161351999850012,,,,,,,,,,,,,42,21,Female,0.0,1.0,0.4,0.5,1.7222222222222223,3.125,2.2222222222222223,0.7777777777777778,2.625,3.0,1.5,1.5,0.25,2.5,0.84375,0.875,0.6052782999997196,-0.6848796358198193,,,,,,,,,,,,,,,,,,,-7.478323519367717e-05,-0.09011395263521914,0.00017354761115601514,-0.10226798683830378,,,,,,,,,,
8,240712_151518,FalseCHOICE,9.0,9,2.0,1068.0,,,,,,,,,,,10.0,9.0,,,B,,,,,,False,cue2.png,Easy,cue1.png,Hard,Left,Easy,Mid,0.016179700003704,,,,,,,,,,,,,42,21,Female,0.0,1.0,0.4,0.5,1.7222222222222223,3.125,2.2222222222222223,0.7777777777777778,2.625,3.0,1.5,1.5,0.25,2.5,1.0,1.0,0.7230371181847824,1.5801554734172802,,,,,,,,,,,,,,,,,,,0.00042830200856554344,0.5195455067878764,0.000904434868968497,0.3792027847402554,,,,,,,,,,
9,240712_151541,FalseCHOICE,9.0,10,2.0,1068.0,,,,,,,,,,,11.0,10.0,,,B,,,,,,False,cue1.png,Hard,cue2.png,Easy,Left,Hard,Mid,0.0127004999958444,,,,,,,,,,,,,42,21,Female,0.0,1.0,0.4,0.5,1.7222222222222223,3.125,2.2222222222222223,0.7777777777777778,2.625,3.0,1.5,1.5,0.25,2.5,1.0,1.0,0.6980719181777783,1.099961672252218,,,,,,,,,,,,,,,,,,,0.00012111088527317921,0.14727862659365137,0.0003471752590763289,0.012108938902289217,0.8210000000000002,-1.3162165731523219,,,,,,,,
10,240712_151604,FalseCHOICE,9.0,11,2.0,1068.0,,,,,,,,,,,12.0,11.0,,,B,,,,,,False,cue2.png,Easy,cue1.png,Hard,Left,Easy,Mid,0.0164364000083878,,,,,,,,,,,,,42,21,Female,0.0,1.0,0.4,0.5,1.7222222222222223,3.125,2.2222222222222223,0.7777777777777778,2.625,3.0,1.5,1.5,0.25,2.5,0.84375,0.875,0.5891580181778409,-0.9949456237441398,,,,,,,,,,,,,,,,,,,-6.146271731416767e-05,-0.07397159936527471,-0.0001005339420635503,-0.2828187564590962,,,,,,,,,,
11,240712_151628,FalseCHOICE,9.0,12,2.0,1068.0,,,,,,,,,,,13.0,12.0,,,B,,,,,,False,cue1.png,Hard,cue2.png,Easy,Right,Easy,Mid,0.0166463999776169,,,,,,,,,,,,,42,21,Female,0.0,1.0,0.4,0.5,1.7222222222222223,3.125,2.2222222222222223,0.7777777777777778,2.625,3.0,1.5,1.5,0.25,2.5,1.0,0.8181818181818181,0.6550682111087048,0.2728057289433857,,,,,,,,,,,,,,,,,,,-2.025897861250873e-05,-0.024039208434153376,0.0018859018444345194,1.0257425306523926,,,,,,,,,,
12,240712_151650,FalseCHOICE,9.0,13,2.0,1068.0,,,,,,,,,,,14.0,13.0,,,B,,,,,,False,cue2.png,Easy,cue1.png,Hard,Left,Easy,Mid,0.0167569000041112,,,,,,,,,,,,,42,21,Female,0.0,1.0,0.4,0.5,1.7222222222222223,3.125,2.2222222222222223,0.7777777777777778,2.625,3.0,1.5,1.5,0.25,2.5,1.0,1.0,0.6041393727249339,-0.7067863626706545,,,,,,,,,,,,,,,,,,,0.0010460258017536313,1.2681286912473217,0.0022576756824604863,1.2706479312237744,1.4689999999999999,0.037606187804351154,,,,,,,,
13,240712_151713,FalseCHOICE,9.0,14,2.0,1068.0,,,,,,,,,,,15.0,14.0,,,B,,,,,,False,cue1.png,Hard,cue2.png,Easy,Right,Easy,Mid,0.0168919000134337,,,,,,,,,,,,,42,21,Female,0.0,1.0,0.4,0.5,1.7222222222222223,3.125,2.2222222222222223,0.7777777777777778,2.625,3.0,1.5,1.5,0.25,2.5,0.84375,0.875,0.7427246272722683,1.9588353887209504,,,,,,,,,,,,,,,,,,,-6.660246222646047e-05,-0.08020015435406055,0.0007953896256591205,0.30736941116322253,,,,,,,,,,
14,240712_151735,FalseCHOICE,9.0,15,2.0,1068.0,,,,,,,,,,,16.0,15.0,,,B,,,,,,False,cue2.png,Easy,cue1.png,Hard,Left,Easy,Mid,0.0160449999966658,,,,,,,,,,,,,42,21,Female,0.0,1.0,0.4,0.5,1.7222222222222223,3.125,2.2222222222222223,0.7777777777777778,2.625,3.0,1.5,1.5,0.25,2.5,0.84375,0.875,0.6348287545419722,-0.11649063477762693,,,,,,,,,,,,,,,,,,,-0.001147884106999683,-1.3905418732061081,-0.00041248954015505636,-0.48831899046359073,,,,,,,,,,
15,240712_151758,FalseCHOICE,9.0,16,2.0,1068.0,,,,,,,,,,,17.0,16.0,,,B,,,,,,False,cue2.png,Easy,cue1.png,Hard,Left,Easy,Mid,0.0166313000081572,,,,,,,,,,,,,42,21,Female,0.0,1.0,0.4,0.5,1.7222222222222223,3.125,2.2222222222222223,0.7777777777777778,2.625,3.0,1.5,1.5,0.25,2.5,1.0,1.0,0.7536860272759275,2.169672727591502,,,,,,,,,,,,,,,,,,,-0.0002778637426112795,-0.33621529213473245,-0.0016041846712444591,-1.2733461859975344,,,,,,,,,,
16,240712_151822,FalseCHOICE,9.0,17,2.0,1068.0,,,,,,,,,,,18.0,17.0,,,B,,,,,,False,cue1.png,Hard,cue2.png,Easy,Left,Hard,Mid,0.0165098000143189,,,,,,,,,,,,,42,21,Female,0.0,1.0,0.4,0.5,1.7222222222222223,3.125,2.2222222222222223,0.7777777777777778,2.625,3.0,1.5,1.5,0.25,2.5,0.84375,0.875,0.6476300636396363,0.12973648432302462,,,,,,,,,,,,,,,,,,,0.0012297465000244605,1.490769015093184,0.002417413448981531,1.3758749205782053,,,,,,,,,,
17,240712_151845,FalseCHOICE,9.0,18,2.0,1068.0,,,,,,,,,,,19.0,18.0,,,B,,,,,,False,cue1.png,Hard,cue2.png,Easy,Left,Hard,Mid,0.016124599991599,,,,,,,,,,,,,42,21,Female,0.0,1.0,0.4,0.5,1.7222222222222223,3.125,2.2222222222222223,0.7777777777777778,2.625,3.0,1.5,1.5,0.25,2.5,0.84375,0.875,0.7263511909060815,1.643900093005008,,,,,,,,,,,,,,,,,,,2.5776853069419282e-05,0.031748912178522506,0.001326550034115052,0.6572704512452112,,,,,,,,,,
18,240712_151908,FalseCHOICE,9.0,19,2.0,1068.0,,,,,,,,,,,20.0,19.0,,,B,,,,,,False,cue2.png,Easy,cue1.png,Hard,Right,Hard,Mid,0.0166214000200852,,,,,,,,,,,,,42,21,Female,0.0,1.0,0.4,0.5,1.7222222222222223,3.125,2.2222222222222223,0.7777777777777778,2.625,3.0,1.5,1.5,0.25,2.5,1.0,1.0,0.6280587999975648,-0.24670750488007462,,,,,,,,,,,,,,,,,,,-5.727270612993938e-05,-0.06889397090122869,-0.0005992186612499874,-0.6113264899770503,,,,,,,,,,
19,240712_151931,FalseCHOICE,9.0,20,2.0,1068.0,,,,,,,,,,,21.0,20.0,,,B,,,,,,False,cue2.png,Easy,cue1.png,Hard,Right,Hard,Mid,0.0165120000019669,,,,,,,,,,,,,42,21,Female,0.0,1.0,0.4,0.5,1.7222222222222223,3.125,2.2222222222222223,0.7777777777777778,2.625,3.0,1.5,1.5,0.25,2.5,0.84375,0.875,0.59759432727217,-0.8326772128893207,,,,,,,,,,,,,,,,,,,,,0.0026370338497536863,1.5205494961490535,2.165,1.4917121162392974,,,,,,,,
20,240712_151952,FalseCHOICE,9.0,21,2.0,1068.0,,,,,,,,,,,22.0,21.0,,,B,,,,,,False,cue2.png,Easy,cue1.png,Hard,Left,Easy,Mid,0.016207700013183,,,,,,,,,,,,,42,21,Female,0.0,1.0,0.4,0.5,1.7222222222222223,3.125,2.2222222222222223,0.7777777777777778,2.625,3.0,1.5,1.5,0.25,2.5,1.0,1.0,0.65220310909155,0.21769684826318775,,,,,,,,,,,,,,,,,,,-0.0008554482483412954,-1.0361560316072038,,,1.9090000000000003,0.9568685563551799,,,,,,,,
21,240712_152013,FalseCHOICE,9.0,22,2.0,1068.0,,,,,,,,,,,23.0,22.0,,,B,,,,,,False,cue1.png,Hard,cue2.png,Easy,Right,Easy,Mid,0.0162635000015143,,,,,,,,,,,,,42,21,Female,0.0,1.0,0.4,0.5,1.7222222222222223,3.125,2.2222222222222223,0.7777777777777778,2.625,3.0,1.5,1.5,0.25,2.5,0.84375,0.875,0.5506659454523205,-1.7353224167040957,,,,,,,,,,,,,,,,,,,-0.00021623028374372815,-0.26152532322451183,0.0023907128040890485,1.3582859149407216,1.4420000000000002,-0.018803093902176275,,,,,,,,
22,240712_152037,FalseCHOICE,9.0,23,2.0,1068.0,,,,,,,,,,,24.0,23.0,,,B,,,,,,False,cue2.png,Easy,cue1.png,Hard,Right,Hard,Mid,0.0176377000170759,,,,,,,,,,,,,42,21,Female,0.0,1.0,0.4,0.5,1.7222222222222223,3.125,2.2222222222222223,0.7777777777777778,2.625,3.0,1.5,1.5,0.25,2.5,1.0,1.0,0.7154624363571532,1.4344600550587365,,,,,,,,,,,,,,,,,,,4.942377392476178e-05,0.06040522671870545,,,1.27,-0.3781511106993184,,,,,,,,
23,240712_152100,FalseCHOICE,9.0,24,2.0,1068.0,,,,,,,,,,,25.0,24.0,,,B,,,,,,False,cue1.png,Hard,cue2.png,Easy,Right,Easy,Mid,0.0163863000052515,,,,,,,,,,,,,42,21,Female,0.0,1.0,0.4,0.5,1.7222222222222223,3.125,2.2222222222222223,0.7777777777777778,2.625,3.0,1.5,1.5,0.25,2.5,0.84375,0.7840909090909091,0.6401999899942894,-0.013177464120988107,,,,,,,,,,,,,,,,,,,-5.9835460854406556e-05,-0.07199962283464223,-0.0014411246549872123,-1.16593067012719,0.8420000000000001,-1.272342687380578,,,,,,,,
24,240712_152123,FalseCHOICE,9.0,25,2.0,1068.0,,,,,,,,,,,26.0,25.0,,,B,,,,,,False,cue1.png,Hard,cue2.png,Easy,Right,Easy,Mid,0.0169543999945744,,,,,,,,,,,,,42,21,Female,0.0,1.0,0.4,0.5,1.7222222222222223,3.125,2.2222222222222223,0.7777777777777778,2.625,3.0,1.5,1.5,0.25,2.5,0.5833333333333334,0.75,0.6596433999895287,0.3608073207237263,,,,,,,,,,,,,,,,,,,0.0013983862320685165,1.6951336017127066,,,2.186,1.5355860020110412,,,,,,,,
25,240712_152145,FalseCHOICE,9.0,26,2.0,1068.0,,,,,,,,,,,27.0,26.0,,,B,,,,,,False,cue2.png,Easy,cue1.png,Hard,Left,Easy,Mid,0.01601859999937,,,,,,,,,,,,,42,21,Female,0.0,1.0,0.4,0.5,1.7222222222222223,3.125,2.2222222222222223,0.7777777777777778,2.625,3.0,1.5,1.5,0.25,2.5,1.0,1.0,0.6400927545433991,-0.015240087243102872,,,,,,,,,,,,,,,,,,,,,-0.0008311373723443403,-0.7641025571208441,1.206,-0.511862000670348,,,,,,,,
26,240712_152208,FalseCHOICE,9.0,27,2.0,1068.0,,,,,,,,,,,28.0,27.0,,,B,,,,,,False,cue2.png,Easy,cue1.png,Hard,Left,Easy,Mid,0.0165748000144958,,,,,,,,,,,,,42,21,Female,0.0,1.0,0.4,0.5,1.7222222222222223,3.125,2.2222222222222223,0.7777777777777778,2.625,3.0,1.5,1.5,0.25,2.5,1.0,0.9090909090909092,0.6880725099996198,0.9076277906440681,,,,,,,,,,,,,,,,,,,0.00010034036578491319,0.12210805393178717,,,0.996,-0.9506008583877885,,,,,,,,
27,240712_152231,FalseCHOICE,9.0,28,2.0,1068.0,,,,,,,,,,,29.0,28.0,,,B,,,,,,False,cue1.png,Hard,cue2.png,Easy,Right,Easy,Mid,0.0165490000217687,,,,,,,,,,,,,42,21,Female,0.0,1.0,0.4,0.5,1.7222222222222223,3.125,2.2222222222222223,0.7777777777777778,2.625,3.0,1.5,1.5,0.25,2.5,1.0,0.9090909090909092,0.6298303800023859,-0.21263200232674398,,,,,,,,,,,,,,,,,,,,,-0.0023963700670993834,-1.7951970045726109,,,,,,,,,,
28,240712_152253,FalseCHOICE,9.0,29,2.0,1068.0,,,,,,,,,,,30.0,29.0,,,B,,,,,,False,cue2.png,Easy,cue1.png,Hard,Left,Easy,Mid,0.0166345000034198,,,,,,,,,,,,,42,21,Female,0.0,1.0,0.4,0.5,1.7222222222222223,3.125,2.2222222222222223,0.7777777777777778,2.625,3.0,1.5,1.5,0.25,2.5,1.0,1.0,0.6452960545482876,0.08484292459932666,,,,,,,,,,,,,,,,,,,0.00025003352850847763,0.3035124059724926,-0.00032207864405310246,-0.4287609622724837,0.5900000000000001,-1.7988293166415068,,,,,,,,
29,240712_152315,FalseCHOICE,9.0,30,2.0,1068.0,,,,,,,,,,,31.0,30.0,,,B,,,,,,False,cue2.png,Easy,cue1.png,Hard,Left,Easy,Mid,0.0151208999741356,,,,,,,,,,,,,42,21,Female,0.0,1.0,0.4,0.5,1.7222222222222223,3.125,2.2222222222222223,0.7777777777777778,2.625,3.0,1.5,1.5,0.25,2.5,1.0,1.0,0.596051163638053,-0.862359234706828,,,,,,,,,,,,,,,,,,,0.00048553708958368365,0.5889053399104254,0.0029249387435806443,1.7102063685194744,1.0989999999999998,-0.7354098948406634,,,,,,,,
30,240712_152336,FalseCHOICE,9.0,31,2.0,1068.0,,,,,,,,,,,32.0,31.0,,,B,,,,,,False,cue1.png,Hard,cue2.png,Easy,Right,Easy,Mid,0.0167720000026747,,,,,,,,,,,,,42,21,Female,0.0,1.0,0.4,0.5,1.7222222222222223,3.125,2.2222222222222223,0.7777777777777778,2.625,3.0,1.5,1.5,0.25,2.5,1.0,1.0,0.5915140181790445,-0.9496290792820306,,,,,,,,,,,,,,,,,,,-0.00011419723849318388,-0.13787746834822984,,,1.393,-0.12117549403624606,,,,,,,,
31,240712_152359,FalseCHOICE,9.0,32,2.0,1068.0,,,,,,,,,,,33.0,32.0,,,B,,,,,,False,cue2.png,Easy,cue1.png,Hard,Left,Easy,Mid,0.0148527999990619,,,,,,,,,,,,,42,21,Female,0.0,1.0,0.4,0.5,1.7222222222222223,3.125,2.2222222222222223,0.7777777777777778,2.625,3.0,1.5,1.5,0.25,2.5,1.0,1.0,0.6884026363682509,0.9139776150305478,,,,,,,,,,,,,,,,,,,1.2805839863389186e-05,0.016030103095060488,,,1.52,0.14415705325001563,,,,,,,,
32,240712_152421,FalseCHOICE,9.0,33,2.0,1068.0,,,,,,,,,,,34.0,33.0,,,B,,,,,,False,cue1.png,Hard,cue2.png,Easy,Right,Easy,Mid,0.0155816999904345,,,,,,,,,,,,,42,21,Female,0.0,1.0,0.4,0.5,1.7222222222222223,3.125,2.2222222222222223,0.7777777777777778,2.625,3.0,1.5,1.5,0.25,2.5,0.84375,0.7840909090909091,0.6235079199977918,-0.3342415268436057,,,,,,,,,,,,,,,,,,,6.821898931305562e-05,0.08318204435649737,0.0015073925434996895,0.7764001550359472,1.0110000000000001,-0.9192623685508282,,,,,,,,
33,240712_152444,FalseCHOICE,9.0,34,2.0,1068.0,,,,,,,,,,,35.0,34.0,,,B,,,,,,False,cue1.png,Hard,cue2.png,Easy,Right,Easy,Mid,0.0180200999893713,,,,,,,,,,,,,42,21,Female,0.0,1.0,0.4,0.5,1.7222222222222223,3.125,2.2222222222222223,0.7777777777777778,2.625,3.0,1.5,1.5,0.25,2.5,1.0,1.0,0.7142478272699836,1.4110976243818751,,,,,,,,,,,,,,,,,,,0.0011526146096398114,1.3972974072900883,,,2.0020000000000002,1.151167193344332,,,,,,,,
34,240712_152506,FalseCHOICE,9.0,35,2.0,1068.0,,,,,,,,,,,36.0,35.0,,,B,,,,,,False,cue1.png,Hard,cue2.png,Easy,Right,Easy,Mid,0.0163909000111743,,,,,,,,,,,,,42,21,Female,0.0,1.0,0.4,0.5,1.7222222222222223,3.125,2.2222222222222223,0.7777777777777778,2.625,3.0,1.5,1.5,0.25,2.5,1.0,1.0,0.6601900090966162,0.3713210880802921,,,,,,,,,,,,,,,,,,,0.00025487239923737033,0.30937634920952956,0.0006318924976904438,0.1996659486763261,0.8710000000000002,-1.211754940362455,,,,,,,,
35,240712_152528,FalseCHOICE,9.0,36,2.0,1068.0,,,,,,,,,,,37.0,36.0,,,B,,,,,,False,cue2.png,Easy,cue1.png,Hard,Right,Hard,Mid,0.0166337999980896,,,,,,,,,,,,,42,21,Female,0.0,1.0,0.4,0.5,1.7222222222222223,3.125,2.2222222222222223,0.7777777777777778,2.625,3.0,1.5,1.5,0.25,2.5,1.0,1.0,0.6118311999995388,-0.5588377071076556,,,,,,,,,,,,,,,,,,,,,-0.0005440019813621397,-0.5749525934759991,0.8460000000000001,-1.2639857567573887,,,,,,,,
36,240712_152551,FalseCHOICE,9.0,37,2.0,1068.0,,,,,,,,,,,38.0,37.0,,,B,,,,,,False,cue1.png,Hard,cue2.png,Easy,Right,Easy,Mid,0.0158721999905537,,,,,,,,,,,,,42,21,Female,0.0,1.0,0.4,0.5,1.7222222222222223,3.125,2.2222222222222223,0.7777777777777778,2.625,3.0,1.5,1.5,0.25,2.5,1.0,0.9090909090909092,0.6398841199959862,-0.019253073974571527,,,,,,,,,,,,,,,,,,,0.0004807258513171036,0.5830748828315396,-0.00011922330811294825,-0.29513034541612576,2.077,1.3078596425291318,,,,,,,,
37,240712_152613,FalseCHOICE,9.0,38,2.0,1068.0,,,,,,,,,,,39.0,38.0,,,B,,,,,,False,cue2.png,Easy,cue1.png,Hard,Left,Easy,Mid,0.0161068000015802,,,,,,,,,,,,,42,21,Female,0.0,1.0,0.4,0.5,1.7222222222222223,3.125,2.2222222222222223,0.7777777777777778,2.625,3.0,1.5,1.5,0.25,2.5,1.0,1.0,0.7169955000016753,1.4639478083587099,,,,,,,,,,,,,,,,,,,-0.0024061546182444454,-2.915366004324233,0.0007290175919369944,0.2636469437842263,0.9919999999999998,-0.9589577890109783,,,,,,,,
38,240712_152634,FalseCHOICE,9.0,39,2.0,1068.0,,,,,,,,,,,40.0,39.0,,,B,,,,,,False,cue2.png,Easy,cue1.png,Hard,Right,Hard,Mid,0.0163878999883309,,,,,,,,,,,,,42,21,Female,0.0,1.0,0.4,0.5,1.7222222222222223,3.125,2.2222222222222223,0.7777777777777778,2.625,3.0,1.5,1.5,0.25,2.5,0.84375,0.875,0.5810757272808008,-1.1504046622009747,,,,,,,,,,,,,,,,,,,0.0008699411377693258,1.0547420288693885,0.0035114477337519524,2.0965681952131217,1.682,0.48261274348918387,,,,,,,,
39,240712_152657,FalseCHOICE,9.0,40,2.0,1068.0,,,,,,,,,,,41.0,40.0,,,B,,,,,,False,cue1.png,Hard,cue2.png,Easy,Right,Easy,Mid,0.0168417000095359,,,,,,,,,,,,,42,21,Female,0.0,1.0,0.4,0.5,1.7222222222222223,3.125,2.2222222222222223,0.7777777777777778,2.625,3.0,1.5,1.5,0.25,2.5,0.84375,0.875,0.6256141454531726,-0.29372927750267536,,,,,,,,,,,,,,,,,,,-2.3239910935376595e-05,-0.027651625238424123,-0.0004727763432544581,-0.5280328222399832,1.448,-0.006267697967392709,,,,,,,,
40,240712_152720,FalseCHOICE,9.0,41,2.0,1068.0,,,,,,,,,,,42.0,41.0,,,B,,,,,,False,cue1.png,Hard,cue2.png,Easy,Left,Hard,Mid,0.0153232000011485,,,,,,,,,,,,,42,21,Female,0.0,1.0,0.4,0.5,1.7222222222222223,3.125,2.2222222222222223,0.7777777777777778,2.625,3.0,1.5,1.5,0.25,2.5,1.0,1.0,0.6295864818173207,-0.21732326843119587,,,,,,,,,,,,,,,,,,,-1.090245221757602e-05,-0.012700583628964876,0.0006605919108756365,0.21857163961898005,1.4000000000000001,-0.10655086544566446,,,,,,,,
41,240712_152744,FalseCHOICE,9.0,42,2.0,1068.0,,,,,,,,,,,43.0,42.0,,,B,,,,,,False,cue2.png,Easy,cue1.png,Hard,Right,Hard,Mid,0.0173853999876882,,,,,,,,,,,,,42,21,Female,0.0,1.0,0.4,0.5,1.7222222222222223,3.125,2.2222222222222223,0.7777777777777778,2.625,3.0,1.5,1.5,0.25,2.5,0.84375,0.875,0.6377470999961422,-0.06035764179709734,,,,,,,,,,,,,,,,,,,-0.0013563743169538681,-1.6431989134839795,-0.0015130890321635847,-1.2133370845022073,,,,,,,,,,
42,240712_152806,FalseCHOICE,9.0,43,2.0,1068.0,,,,,,,,,,,44.0,43.0,,,B,,,,,,False,cue1.png,Hard,cue2.png,Easy,Right,Easy,Mid,0.0165124999766703,,,,,,,,,,,,,42,21,Female,0.0,1.0,0.4,0.5,1.7222222222222223,3.125,2.2222222222222223,0.7777777777777778,2.625,3.0,1.5,1.5,0.25,2.5,1.0,1.0,0.6287025999997489,-0.23432431667600934,,,,,,,,,,,,,,,,,,,,,0.001537844617543709,0.7964604084189705,0.488,-2.011931047532835,,,,,,,,
43,240712_152828,FalseCHOICE,9.0,44,2.0,1068.0,,,,,,,,,,,45.0,44.0,,,B,,,,,,False,cue2.png,Easy,cue1.png,Hard,Left,Easy,Mid,0.0160451000265311,,,,,,,,,,,,,42,21,Female,0.0,1.0,0.4,0.5,1.7222222222222223,3.125,2.2222222222222223,0.7777777777777778,2.625,3.0,1.5,1.5,0.25,2.5,0.84375,0.875,0.6946546818230259,1.0342327490227792,,,,,,,,,,,,,,,,,,,,,0.00021636352238351732,-0.07406307617090027,1.8659999999999999,0.8670315521558936,,,,,,,,
44,240712_152850,FalseCHOICE,9.0,45,2.0,1068.0,,,,,,,,,,,46.0,45.0,,,B,,,,,,False,cue1.png,Hard,cue2.png,Easy,Right,Easy,Mid,0.0162150999822188,,,,,,,,,,,,,42,21,Female,0.0,1.0,0.4,0.5,1.7222222222222223,3.125,2.2222222222222223,0.7777777777777778,2.625,3.0,1.5,1.5,0.25,2.5,1.0,1.0,0.6697963545448147,0.5560945941920372,,,,,,,,,,,,,,,,,,,-0.000433381181570438,-0.5246777424706495,,,2.277,1.7257061736885992,,,,,,,,
45,240712_152912,FalseCHOICE,9.0,46,2.0,1068.0,,,,,,,,,,,47.0,46.0,,,B,,,,,,False,cue1.png,Hard,cue2.png,Easy,Right,Easy,Mid,0.0166470000112894,,,,,,,,,,,,,42,21,Female,0.0,1.0,0.4,0.5,1.7222222222222223,3.125,2.2222222222222223,0.7777777777777778,2.625,3.0,1.5,1.5,0.25,2.5,0.84375,0.875,0.5913176181837282,-0.9534067401969548,,,,,,,,,,,,,,,,,,,5.199593842355153e-05,0.06352228180496029,-0.0009711437521360815,-0.8563315281197408,1.2000000000000002,-0.5243973966051316,,,,,,,,
46,240712_152934,FalseCHOICE,9.0,47,2.0,1068.0,,,,,,,,,,,48.0,47.0,,,B,,,,,,False,cue2.png,Easy,cue1.png,Hard,Right,Hard,Mid,0.0165477999835275,,,,,,,,,,,,,42,21,Female,0.0,1.0,0.4,0.5,1.7222222222222223,3.125,2.2222222222222223,0.7777777777777778,2.625,3.0,1.5,1.5,0.25,2.5,0.84375,0.7840909090909091,0.623435809998773,-0.33562852853079844,,,,,,,,,,,,,,,,,,,0.0009739869561668159,1.1808290453071166,0.0006525401952017611,0.2132675852431592,2.219,1.6045306796523533,,,,,,,,
47,240712_152956,FalseCHOICE,9.0,48,2.0,1068.0,,,,,,,,,,,49.0,48.0,,,B,,,,,,False,cue2.png,Easy,cue1.png,Hard,Left,Easy,Mid,0.0166871999972499,,,,,,,,,,,,,42,21,Female,0.0,1.0,0.4,0.5,1.7222222222222223,3.125,2.2222222222222223,0.7777777777777778,2.625,3.0,1.5,1.5,0.25,2.5,0.84375,0.875,0.5776914545488332,-1.2154995457543556,,,,,,,,,,,,,,,,,,,0.00013532720078565826,0.16450654440249546,-0.0017021691205105598,-1.3378932798024634,1.5270000000000001,0.1587816818405972,,,,,,,,
48,240712_153017,FalseCHOICE,9.0,49,2.0,1068.0,,,,,,,,,,,50.0,49.0,,,B,,,,,,False,cue1.png,Hard,cue2.png,Easy,Right,Easy,Mid,0.0165323999826796,,,,,,,,,,,,,42,21,Female,0.0,1.0,0.4,0.5,1.7222222222222223,3.125,2.2222222222222223,0.7777777777777778,2.625,3.0,1.5,1.5,0.25,2.5,0.5833333333333334,0.75,0.5614635454548988,-1.5276356932953787,,,,,,,,,,,,,,,,,,,,,-0.0004411340779175458,-0.5071885323123493,,,,,,,,,,
49,240712_153037,FalseCHOICE,9.0,50,2.0,1068.0,,,,,,,,,,,51.0,50.0,,,B,,,,,,False,cue2.png,Easy,cue1.png,Hard,Left,Easy,Mid,0.0162829000037163,,,,,,,,,,,,,42,21,Female,0.0,1.0,0.4,0.5,1.7222222222222223,3.125,2.2222222222222223,0.7777777777777778,2.625,3.0,1.5,1.5,0.25,2.5,0.84375,0.875,0.486106090906436,-2.977100649938925,,,,,,,,,,,,,,,,,,,,,-2.7347376026440502e-05,-0.23460722719460195,1.936,1.0132778380617073,,,,,,,,
0,240712_144442,OFFLINERATING,9.0,1,1.0,,,,,,,,,,,,,,,,,T0,cue2.png,Easy,0.0,1.3017451999767218,,,,,,,,,,,,,,,,,,,,,,42,21,Female,0.0,1.0,0.4,0.5,1.7222222222222223,3.125,2.2222222222222223,0.7777777777777778,2.625,3.0,1.5,1.5,0.25,2.5,,,,,,,,,,,,,,,,,,,,,,,,,,,,,-0.7694127308096826,0.0001473384886405628,1.304784854409021,,,,,
1,240712_144450,OFFLINERATING,9.0,2,3.0,,,,,,,,,,,,,,,,,T0,cue1.png,Hard,0.0,1.385247199999867,,,,,,,,,,,,,,,,,,,,,,42,21,Female,0.0,1.0,0.4,0.5,1.7222222222222223,3.125,2.2222222222222223,0.7777777777777778,2.625,3.0,1.5,1.5,0.25,2.5,,,,,,,,,,,,,,,,,,,,,,,,,,,,,-0.7694127308096826,,,,,1.5919999999999999,1.277949713141502,
2,240712_150614,OFFLINERATING,9.0,3,1.0,,,,,,,,,,,,,,,,,T1,cue2.png,Easy,49.0,2.6620076000108384,,,,,,,,,,,,,,,,,,,,,,42,21,Female,0.0,1.0,0.4,0.5,1.7222222222222223,3.125,2.2222222222222223,0.7777777777777778,2.625,3.0,1.5,1.5,0.25,2.5,,,,,,,,,,,,,,,,,,,,,,,,,,,,,1.3696637973987968,-0.0002976265104228516,-1.124782480845167,,,,,
3,240712_150622,OFFLINERATING,9.0,4,3.0,,,,,,,,,,,,,,,,,T1,cue1.png,Hard,0.0,2.3026058000104968,,,,,,,,,,,,,,,,,,,,,,42,21,Female,0.0,1.0,0.4,0.5,1.7222222222222223,3.125,2.2222222222222223,0.7777777777777778,2.625,3.0,1.5,1.5,0.25,2.5,,,,,,,,,,,,,,,,,,,,,,,,,,,,,-0.7694127308096826,-0.00012459402292952634,-0.1800023735638542,-0.001266328071620382,-1.2433995961791786,,,
4,240712_151058,OFFLINERATING,9.0,5,1.0,,,,,,,,,,,,,,,,,T2,cue2.png,Easy,51.0,2.9529232000058983,,,,,,,,,,,,,,,,,,,,,,42,21,Female,0.0,1.0,0.4,0.5,1.7222222222222223,3.125,2.2222222222222223,0.7777777777777778,2.625,3.0,1.5,1.5,0.25,2.5,,,,,,,,,,,,,,,,,,,,,,,,,,,,,1.4569730434481225,,,-0.0010454606129453392,1.2051962275269008,1.464,-1.163506455248241,
5,240712_151105,OFFLINERATING,9.0,6,3.0,,,,,,,,,,,,,,,,,T2,cue1.png,Hard,41.0,1.4854396999871824,,,,,,,,,,,,,,,,,,,,,,42,21,Female,0.0,1.0,0.4,0.5,1.7222222222222223,3.125,2.2222222222222223,0.7777777777777778,2.625,3.0,1.5,1.5,0.25,2.5,,,,,,,,,,,,,,,,,,,,,,,,,,,,,1.020426813201494,,,-0.0011507253301910958,0.03820336865227784,1.5190000000000001,-0.11444325789326941,
6,240712_153107,OFFLINERATING,9.0,7,1.0,,,,,,,,,,,,,,,,,T3,cue2.png,Easy,0.0,1.6426544999994803,,,,,,,,,,,,,,,,,,,,,,42,21,Female,0.0,1.0,0.4,0.5,1.7222222222222223,3.125,2.2222222222222223,0.7777777777777778,2.625,3.0,1.5,1.5,0.25,2.5,,,,,,,,,,,,,,,,,,,,,,,,,,,,,-0.7694127308096826,,,,,,,
7,240712_153115,OFFLINERATING,9.0,8,3.0,,,,,,,,,,,,,,,,,T3,cue1.png,Hard,0.0,1.7188377000275068,,,,,,,,,,,,,,,,,,,,,,42,21,Female,0.0,1.0,0.4,0.5,1.7222222222222223,3.125,2.2222222222222223,0.7777777777777778,2.625,3.0,1.5,1.5,0.25,2.5,,,,,,,,,,,,,,,,,,,,,,,,,,,,,-0.7694127308096826,,,,,,,
0,240712_151128,LEARNINGCHECK,9.0,1,,,,,,,,,,,,1.0,1.0,1.0,,,B,,,,,,,,,,,,,,,cue2.png,Easy,Left,Left,Easy,0.0151959000213537,1.0,,,,,,42,21,Female,0.0,1.0,0.4,0.5,1.7222222222222223,3.125,2.2222222222222223,0.7777777777777778,2.625,3.0,1.5,1.5,0.25,2.5,,,,,,,,,,,,,,,,,,,,,,,,,,,,,,,,,,,,
1,240712_151137,LEARNINGCHECK,9.0,2,,,,,,,,,,,,2.0,2.0,2.0,,,B,,,,,,,,,,,,,,,cue1.png,Hard,Right,Right,Hard,0.0156461000151466,1.0,,,,,,42,21,Female,0.0,1.0,0.4,0.5,1.7222222222222223,3.125,2.2222222222222223,0.7777777777777778,2.625,3.0,1.5,1.5,0.25,2.5,,,,,,,,,,,,,,,,,,,,,,,,,,,,,,,,,,,,
2,240712_153139,LEARNINGCHECK,9.0,1,,,,,,,,,,,,1.0,1.0,1.0,,,B,,,,,,,,,,,,,,,cue2.png,Easy,Middle,Middle,Mid,0.0152340999920852,1.0,,,,,,42,21,Female,0.0,1.0,0.4,0.5,1.7222222222222223,3.125,2.2222222222222223,0.7777777777777778,2.625,3.0,1.5,1.5,0.25,2.5,,,,,,,,,,,,,,,,,,,,,,,,,,,,,,,,,,,,
3,240712_153147,LEARNINGCHECK,9.0,2,,,,,,,,,,,,2.0,2.0,2.0,,,B,,,,,,,,,,,,,,,cue1.png,Hard,Middle,Middle,Mid,0.0149112999788485,1.0,,,,,,42,21,Female,0.0,1.0,0.4,0.5,1.7222222222222223,3.125,2.2222222222222223,0.7777777777777778,2.625,3.0,1.5,1.5,0.25,2.5,,,,,,,,,,,,,,,,,,,,,,,,,,,,,,,,,,,,
0,240712_153202,DEMANDRATING,9.0,-1,,,,,,,,,,,,,,,,,,,,,,,,,,,,,,,,,,,,,,,1.0,MentalDemand,1.0,100.0,3.2365906000195537,42,21,Female,0.0,1.0,0.4,0.5,1.7222222222222223,3.125,2.2222222222222223,0.7777777777777778,2.625,3.0,1.5,1.5,0.25,2.5,,,,,,,,,,,,,,,,,,,,,,,,,,,,,,,,,,,,0.9505416412576074
1,240712_153209,DEMANDRATING,9.0,-1,,,,,,,,,,,,,,,,,,,,,,,,,,,,,,,,,,,,,,,2.0,Effort,1.0,8.0,5.404151099995943,42,21,Female,0.0,1.0,0.4,0.5,1.7222222222222223,3.125,2.2222222222222223,0.7777777777777778,2.625,3.0,1.5,1.5,0.25,2.5,,,,,,,,,,,,,,,,,,,,,,,,,,,,,,,,,,,,-1.7822655773580138
2,240712_153218,DEMANDRATING,9.0,-1,,,,,,,,,,,,,,,,,,,,,,,,,,,,,,,,,,,,,,,3.0,Frustration,1.0,6.0,6.762708599999314,42,21,Female,0.0,1.0,0.4,0.5,1.7222222222222223,3.125,2.2222222222222223,0.7777777777777778,2.625,3.0,1.5,1.5,0.25,2.5,,,,,,,,,,,,,,,,,,,,,,,,,,,,,,,,,,,,-1.8416744299366143
3,240712_153225,DEMANDRATING,9.0,-1,,,,,,,,,,,,,,,,,,,,,,,,,,,,,,,,,,,,,,,4.0,MentalDemand,2.0,75.0,5.995122799999081,42,21,Female,0.0,1.0,0.4,0.5,1.7222222222222223,3.125,2.2222222222222223,0.7777777777777778,2.625,3.0,1.5,1.5,0.25,2.5,,,,,,,,,,,,,,,,,,,,,,,,,,,,,,,,,,,,0.20793098402510163
4,240712_153234,DEMANDRATING,9.0,-1,,,,,,,,,,,,,,,,,,,,,,,,,,,,,,,,,,,,,,,5.0,Effort,2.0,83.0,7.246757799992338,42,21,Female,0.0,1.0,0.4,0.5,1.7222222222222223,3.125,2.2222222222222223,0.7777777777777778,2.625,3.0,1.5,1.5,0.25,2.5,,,,,,,,,,,,,,,,,,,,,,,,,,,,,,,,,,,,0.44556639433950346
5,240712_153241,DEMANDRATING,9.0,-1,,,,,,,,,,,,,,,,,,,,,,,,,,,,,,,,,,,,,,,6.0,Frustration,2.0,100.0,5.671115099976305,42,21,Female,0.0,1.0,0.4,0.5,1.7222222222222223,3.125,2.2222222222222223,0.7777777777777778,2.625,3.0,1.5,1.5,0.25,2.5,,,,,,,,,,,,,,,,,,,,,,,,,,,,,,,,,,,,0.9505416412576074
6,240712_153246,DEMANDRATING,9.0,-1,,,,,,,,,,,,,,,,,,,,,,,,,,,,,,,,,,,,,,,7.0,MentalDemand,3.0,81.0,3.0828585000126623,42,21,Female,0.0,1.0,0.4,0.5,1.7222222222222223,3.125,2.2222222222222223,0.7777777777777778,2.625,3.0,1.5,1.5,0.25,2.5,,,,,,,,,,,,,,,,,,,,,,,,,,,,,,,,,,,,0.386157541760903
7,240712_153251,DEMANDRATING,9.0,-1,,,,,,,,,,,,,,,,,,,,,,,,,,,,,,,,,,,,,,,8.0,Effort,3.0,79.0,3.450413900020066,42,21,Female,0.0,1.0,0.4,0.5,1.7222222222222223,3.125,2.2222222222222223,0.7777777777777778,2.625,3.0,1.5,1.5,0.25,2.5,,,,,,,,,,,,,,,,,,,,,,,,,,,,,,,,,,,,0.32674868918230254
8,240712_153258,DEMANDRATING,9.0,-1,,,,,,,,,,,,,,,,,,,,,,,,,,,,,,,,,,,,,,,9.0,Frustration,3.0,80.0,6.005218400008744,42,21,Female,0.0,1.0,0.4,0.5,1.7222222222222223,3.125,2.2222222222222223,0.7777777777777778,2.625,3.0,1.5,1.5,0.25,2.5,,,,,,,,,,,,,,,,,,,,,,,,,,,,,,,,,,,,0.35645311547160274
