,END,Phase,Block,TrialN,NbackLevel,ISI,Letter_Resp,Letter_RT,Letter_Accuracy,Trial_A_measure,Trial_ACC,Trial_RT,TrialCountCali,CaliEnd_A_measure,ISI_calibrated,TrialIndex,TrialNumber_total,TrialNumber_valid,CueLearning,TrialDemandLearning,CueMapping,OfflineRatingTimePoint,CueFigure,TrialDemand,OfflineRating,OfflineRatingRT,PhaseType,CueLeft,CueDemandLeft,CueRight,CueDemandRight,Choice,ChoiceDemand,TaskDemand,ChoiceRT,CueCheck,CueDemandCheck,CorrectAnswer,Answer,AnswerDemand,AnswerRT,AnswerACC,DemandRatingQuesIndex,QuesTLX,DemandLevel,DemandRating,DemandRatingRT,PID,Age,Gender,BAI_bis,BAI_bas_d,BAI_bas_rr,BAI_bas_fs,NFC,BFI_ext,BFI_agr,BFI_con,BFI_neu,BFI_open,UPPS_lps,UPPS_lpm,UPPS_pu,UPPS_ss,Task_A_measure,Task_ACC,Task_RT,Task_RT_z,Task_RT_log,Task_RT_log_z,cue_i_on_zyg_values,cue_i_on_zyg_zvalues,cue_e_on_zyg_values,cue_e_on_zyg_zvalues,cue_i_on_cor_values,cue_i_on_cor_zvalues,cue_e_on_cor_values,cue_e_on_cor_zvalues,cue_i_on_scr_values,cue_i_on_scr_zvalues,cue_e_on_scr_values,cue_e_on_scr_zvalues,cue_e_true_zyg_values,cue_e_true_zyg_zvalues,cue_e_true_cor_values,cue_e_true_cor_zvalues,cue_e_true_scr_values,cue_e_true_scr_zvalues,cue_e_false_zyg_values,cue_e_false_zyg_zvalues,cue_e_false_cor_values,cue_e_false_cor_zvalues,cue_e_false_scr_values,cue_e_false_scr_zvalues,OfflineRating_z,cue_i_off_zyg_values,cue_i_off_zyg_zvalues,cue_i_off_cor_values,cue_i_off_cor_zvalues,cue_i_off_scr_values,cue_i_off_scr_zvalues,DemandRating_z
0,240715_093244,PRACTICE,0.0,1,3.0,303.0,,,,,,,,,,2.0,1.0,1.0,cue2.png,Hard,A,,,,,,,,,,,,,,,,,,,,,,,,,,,43,22,Female,0.14285714285714285,1.5,0.6,1.0,2.2777777777777777,1.375,3.6666666666666665,3.5555555555555554,2.5,3.5555555555555554,0.75,1.25,0.75,2.25,,,,,,,,,,,,,,,,,,,,,,,,,,,,,,,,,,,,,,
0,240715_093612,LEARNING,1.0,1,1.0,303.0,,,,,,,,,,1.0,1.0,1.0,cue1.png,Easy,A,,,,,,,,,,,,,,,,,,,,,,,,,,,43,22,Female,0.14285714285714285,1.5,0.6,1.0,2.2777777777777777,1.375,3.6666666666666665,3.5555555555555554,2.5,3.5555555555555554,0.75,1.25,0.75,2.25,1.0,0.9473684210526316,0.5383859555586241,1.019669302802524,-0.6191795865070375,1.0465178923413168,,,,,,,,,,,,,,,,,,,,,,,,,,,,,,,,
1,240715_093644,LEARNING,1.0,2,3.0,303.0,,,,,,,,,,2.0,2.0,2.0,cue2.png,Hard,A,,,,,,,,,,,,,,,,,,,,,,,,,,,43,22,Female,0.14285714285714285,1.5,0.6,1.0,2.2777777777777777,1.375,3.6666666666666665,3.5555555555555554,2.5,3.5555555555555554,0.75,1.25,0.75,2.25,0.8535714285714285,0.7180451127819549,0.5945776333333924,2.010541091008662,-0.5199039854502522,1.9098819742137918,-4.578238694136075e-05,-0.2635269486048885,0.0005487902263221394,0.9867696085497975,,,,,1.451,0.05092665766391517,1.4510000000000003,0.11897019571373771,,,,,,,,,,,,,,,,,,,,
2,240715_093716,LEARNING,1.0,3,1.0,303.0,,,,,,,,,,3.0,3.0,3.0,cue1.png,Easy,A,,,,,,,,,,,,,,,,,,,,,,,,,,,43,22,Female,0.14285714285714285,1.5,0.6,1.0,2.2777777777777777,1.375,3.6666666666666665,3.5555555555555554,2.5,3.5555555555555554,0.75,1.25,0.75,2.25,0.95,0.8947368421052632,0.5619330588276225,1.4348937852739088,-0.5763725485892578,1.4187952555216639,-5.4046924407637545e-05,-0.2762855182601874,0.00044540928299730085,0.7934225154354317,-2.827979591835464e-05,-0.15808454036042896,-0.0005601359433585074,-0.6103875175162843,1.4640000000000002,0.07433234376197745,1.168,-0.3828847903264112,,,,,,,,,,,,,,,,,,,,
3,240715_093749,LEARNING,1.0,4,3.0,303.0,,,,,,,,,,4.0,4.0,4.0,cue2.png,Hard,A,,,,,,,,,,,,,,,,,,,,,,,,,,,43,22,Female,0.14285714285714285,1.5,0.6,1.0,2.2777777777777777,1.375,3.6666666666666665,3.5555555555555554,2.5,3.5555555555555554,0.75,1.25,0.75,2.25,0.9166666666666666,0.7894736842105263,0.6541466333243685,3.0609678424450446,-0.42442374268014,2.7402391945042717,-0.00012066018283639476,-0.3791212669149275,0.0001916234637638868,0.3187823269797408,,,,,1.939,0.9295401050373215,1.5850000000000002,0.3565976449341611,,,,,,,,,,,,,,,,,,,,
4,240715_093820,LEARNING,1.0,5,3.0,303.0,,,,,,,,,,5.0,5.0,5.0,cue2.png,Hard,A,,,,,,,,,,,,,,,,,,,,,,,,,,,43,22,Female,0.14285714285714285,1.5,0.6,1.0,2.2777777777777777,1.375,3.6666666666666665,3.5555555555555554,2.5,3.5555555555555554,0.75,1.25,0.75,2.25,0.013095238095238,0.575187969924812,0.4705016866675578,-0.17738708652210475,-0.7539557351224102,-0.1255816423778073,0.00147692804874805,2.0871922825520426,-0.0016852631977479497,-3.191444688149952,,,,,1.5870000000000002,0.2957861429974877,1.5539999999999998,0.3016241305622714,,,,,,,,,,,,,,,,,,,,
5,240715_093850,LEARNING,1.0,6,1.0,303.0,,,,,,,,,,6.0,6.0,6.0,cue1.png,Easy,A,,,,,,,,,,,,,,,,,,,,,,,,,,,43,22,Female,0.14285714285714285,1.5,0.6,1.0,2.2777777777777777,1.375,3.6666666666666665,3.5555555555555554,2.5,3.5555555555555554,0.75,1.25,0.75,2.25,1.0,1.0,0.5327618894639032,0.9204957481241496,-0.6296806910982286,0.9551935747092876,1.2213761262245583e-05,-0.17399406190504793,-6.757280918450815e-05,-0.1659767041231331,-0.0008432525872124376,-1.2592653848721924,7.642834787064887e-05,0.32930781998050823,1.5790000000000002,0.2813826438602187,,,,,,,,,,,,,,,,,,,,,,
6,240715_093922,LEARNING,1.0,7,3.0,303.0,,,,,,,,,,7.0,7.0,7.0,cue2.png,Hard,A,,,,,,,,,,,,,,,,,,,,,,,,,,,43,22,Female,0.14285714285714285,1.5,0.6,1.0,2.2777777777777777,1.375,3.6666666666666665,3.5555555555555554,2.5,3.5555555555555554,0.75,1.25,0.75,2.25,0.8269230769230769,0.8461538461538461,0.5750353684293499,1.6659370546479317,-0.5533237297645555,1.6192425163894342,-6.271442804912757e-05,-0.2896661762097394,-0.0001107454785011933,-0.24671992280455227,0.00011682647619986816,0.03798120438839021,0.00033773599764222017,0.7150498157629815,,,1.452,0.12074353488702387,,,,,,,,,,,,,,,,,,,,
7,240715_093952,LEARNING,1.0,8,3.0,303.0,,,,,,,,,,8.0,8.0,8.0,cue2.png,Hard,A,,,,,,,,,,,,,,,,,,,,,,,,,,,43,22,Female,0.14285714285714285,1.5,0.6,1.0,2.2777777777777777,1.375,3.6666666666666665,3.5555555555555554,2.5,3.5555555555555554,0.75,1.25,0.75,2.25,0.6625000000000001,0.7330827067669172,0.5106593388934724,0.5307441928240245,-0.6720525668779793,0.5867006596286316,-0.0005738016163037551,-1.0786687692629149,-0.0001232556977426233,-0.27011702527588116,0.0012412452292608813,1.5572814869346208,-0.0013233714305061605,-1.7370747014610008,,,2.613,2.1795903150729323,,,,,,,,,,,,,,,,,,,,
8,240715_094022,LEARNING,1.0,9,1.0,303.0,,,,,,,,,,9.0,9.0,9.0,cue1.png,Easy,A,,,,,,,,,,,,,,,,,,,,,,,,,,,43,22,Female,0.14285714285714285,1.5,0.6,1.0,2.2777777777777777,1.375,3.6666666666666665,3.5555555555555554,2.5,3.5555555555555554,0.75,1.25,0.75,2.25,0.9262820512820512,0.9230769230769232,0.5156983894810668,0.6196017116652387,-0.6622332009065074,0.6720961424691784,0.00016554041925571916,0.0627074902394314,-0.0003039525501827515,-0.6080633626819567,4.237723506063211e-05,-0.06261366099452126,-0.0001902961915556797,-0.06443058091366434,,,0.08899999999999997,-2.296317758302807,,,,,,,,,,,,,,,,,,,,
9,240715_094053,LEARNING,1.0,10,1.0,303.0,,,,,,,,,,10.0,10.0,10.0,cue1.png,Easy,A,,,,,,,,,,,,,,,,,,,,,,,,,,,43,22,Female,0.14285714285714285,1.5,0.6,1.0,2.2777777777777777,1.375,3.6666666666666665,3.5555555555555554,2.5,3.5555555555555554,0.75,1.25,0.75,2.25,0.8071428571428572,0.8045112781954888,0.5266498777782544,0.8127178673359905,-0.6412193197735626,0.8548462844758198,0.000961453758382907,1.2914169997881217,,,-0.0011913426934238545,-1.729600298158592,0.0006336102944115843,1.151819048643538,1.175,-0.4459940625718639,1.449,0.11542351736716383,,,,,,,,,,,,,,,,,,,,
10,240715_094123,LEARNING,1.0,11,3.0,303.0,,,,,,,,,,11.0,11.0,11.0,cue2.png,Hard,A,,,,,,,,,,,,,,,,,,,,,,,,,,,43,22,Female,0.14285714285714285,1.5,0.6,1.0,2.2777777777777777,1.375,3.6666666666666665,3.5555555555555554,2.5,3.5555555555555554,0.75,1.25,0.75,2.25,0.8535714285714285,0.8233082706766918,0.5097970294163507,0.5155384156089816,-0.6737426140160028,0.5720029294702798,6.350086643014093e-05,-0.09481841458379275,9.388680701556424e-05,0.13599139989729797,-0.00047841137167994353,-0.7662965862515322,-0.0005005245213794782,-0.5223892177890346,,,,,,,,,,,,,,,,,,,,,,,,
11,240715_094155,LEARNING,1.0,12,1.0,303.0,,,,,,,,,,12.0,12.0,12.0,cue1.png,Easy,A,,,,,,,,,,,,,,,,,,,,,,,,,,,43,22,Female,0.14285714285714285,1.5,0.6,1.0,2.2777777777777777,1.375,3.6666666666666665,3.5555555555555554,2.5,3.5555555555555554,0.75,1.25,0.75,2.25,0.9178571428571428,0.7706766917293233,0.5561523687429144,1.3329583573221175,-0.5867129777732456,1.3288682739313489,-5.427756004553353e-05,-0.2766415673268287,0.00044522862928802077,0.793084649786055,-0.00035161135922777594,-0.5949660261545944,-0.0007440303108608151,-0.8818521317191447,,,,,,,,,,,,,,,,,,,,,,,,
12,240715_094226,LEARNING,1.0,13,1.0,303.0,,,,,,,,,,13.0,13.0,13.0,cue1.png,Easy,A,,,,,,,,,,,,,,,,,,,,,,,,,,,43,22,Female,0.14285714285714285,1.5,0.6,1.0,2.2777777777777777,1.375,3.6666666666666665,3.5555555555555554,2.5,3.5555555555555554,0.75,1.25,0.75,2.25,0.95,0.8421052631578947,0.503958356257499,0.41258052677618995,-0.6852616407977399,0.4718261098326899,,,-0.0008849252213053967,-1.6946212284531745,-4.695743771857084e-05,-0.18332153181678365,-3.663719275239126e-05,0.1624006233014894,0.665,-1.36421713257276,1.063,-0.5690854035215192,,,,,,,,,,,,,,,,,,,,
13,240715_094256,LEARNING,1.0,14,1.0,303.0,,,,,,,,,,14.0,14.0,14.0,cue1.png,Easy,A,,,,,,,,,,,,,,,,,,,,,,,,,,,43,22,Female,0.14285714285714285,1.5,0.6,1.0,2.2777777777777777,1.375,3.6666666666666665,3.5555555555555554,2.5,3.5555555555555554,0.75,1.25,0.75,2.25,0.9178571428571428,0.9285714285714286,0.5246165842032305,0.7768632119774587,-0.6450875990043818,0.8212052557538452,6.189950058341828e-05,-0.09729055991344929,-0.00017990538888923652,-0.3760654985318094,0.0006354364742116548,0.7387204213088086,-0.00028305874998415387,-0.20136654300037718,,,1.484,0.1774903884321997,,,,,,,,,,,,,,,,,,,,
14,240715_094328,LEARNING,1.0,15,3.0,303.0,,,,,,,,,,15.0,15.0,15.0,cue2.png,Hard,A,,,,,,,,,,,,,,,,,,,,,,,,,,,43,22,Female,0.14285714285714285,1.5,0.6,1.0,2.2777777777777777,1.375,3.6666666666666665,3.5555555555555554,2.5,3.5555555555555554,0.75,1.25,0.75,2.25,0.9,0.8421052631578947,0.5916998500069894,1.9597948875916293,-0.524755782794553,1.867687643330843,0.0011228003427836935,1.5404994976437918,-0.0002629425787933331,-0.5313649064497211,-0.0005416938626832358,-0.8518030812293105,0.0007061461548910561,1.2588963868370813,,,,,,,,,,,,,,,,,,,,,,,,
15,240715_094357,LEARNING,1.0,16,1.0,303.0,,,,,,,,,,16.0,16.0,16.0,cue1.png,Easy,A,,,,,,,,,,,,,,,,,,,,,,,,,,,43,22,Female,0.14285714285714285,1.5,0.6,1.0,2.2777777777777777,1.375,3.6666666666666665,3.5555555555555554,2.5,3.5555555555555554,0.75,1.25,0.75,2.25,0.9178571428571428,0.9285714285714286,0.4602066526299734,-0.35892747097819755,-0.7760796455314826,-0.3179853084793295,,,,,0.0015597175402336776,1.9875972129280894,0.00021900310815595528,0.5397764864307208,,,,,,,,,,,,,,,,,,,,,,,,
16,240715_094427,LEARNING,1.0,17,1.0,303.0,,,,,,,,,,17.0,17.0,17.0,cue1.png,Easy,A,,,,,,,,,,,,,,,,,,,,,,,,,,,43,22,Female,0.14285714285714285,1.5,0.6,1.0,2.2777777777777777,1.375,3.6666666666666665,3.5555555555555554,2.5,3.5555555555555554,0.75,1.25,0.75,2.25,1.0,1.0,0.4844285263159116,0.06819576583082716,-0.7247853790373303,0.12810241927680438,0.000897707956926507,1.1930079537364826,-0.0003644692415461937,-0.7212440513438442,-0.0010245647190092605,-1.5042520255859524,0.0014546450504362733,2.3638294343808006,0.6659999999999999,-1.3624166951806016,,,,,,,,,,,,,,,,,,,,,,
17,240715_094456,LEARNING,1.0,18,3.0,303.0,,,,,,,,,,18.0,18.0,18.0,cue2.png,Hard,A,,,,,,,,,,,,,,,,,,,,,,,,,,,43,22,Female,0.14285714285714285,1.5,0.6,1.0,2.2777777777777777,1.375,3.6666666666666665,3.5555555555555554,2.5,3.5555555555555554,0.75,1.25,0.75,2.25,0.9262820512820512,0.9230769230769232,0.4762656999978629,-0.07574573281958216,-0.7417793872098111,-0.01968833803903232,-8.074738044158746e-05,-0.31750496091229546,-0.00019650748373986875,-0.4071153871838457,0.0016217386553549961,2.0713993528969685,0.000598722940030336,1.1003183837439174,,,,,,,,,,,,,,,,,,,,,,,,
18,240715_094524,LEARNING,1.0,19,3.0,303.0,,,,,,,,,,19.0,19.0,19.0,cue2.png,Hard,A,,,,,,,,,,,,,,,,,,,,,,,,,,,43,22,Female,0.14285714285714285,1.5,0.6,1.0,2.2777777777777777,1.375,3.6666666666666665,3.5555555555555554,2.5,3.5555555555555554,0.75,1.25,0.75,2.25,0.9178571428571428,0.8759398496240602,0.4158220277782271,-1.1415962635348156,-0.8774979281018358,-1.199983518355205,0.0009997175197778083,1.3504875608476647,-7.353385320998159e-05,-0.177125282354138,-0.000507857173811862,-0.8060833786516379,-0.0009860374656268794,-1.2391027631289249,,,,,,,,,,,,,,,,,,,,,,,,
19,240715_094555,LEARNING,1.0,20,3.0,303.0,,,,,,,,,,20.0,20.0,20.0,cue2.png,Hard,A,,,,,,,,,,,,,,,,,,,,,,,,,,,43,22,Female,0.14285714285714285,1.5,0.6,1.0,2.2777777777777777,1.375,3.6666666666666665,3.5555555555555554,2.5,3.5555555555555554,0.75,1.25,0.75,2.25,0.8535714285714285,0.8759398496240602,0.5057169444496847,0.4435910873380916,-0.681778164537068,0.502120645967498,-0.0005001027017588083,-0.964894376130999,0.00044595251486728976,0.7944384889753463,0.0007028609429490752,0.8298235037898011,,,1.979,1.0015576007236664,,,,,,,,,,,,,,,,,,,,,,
20,240715_094624,LEARNING,1.0,21,1.0,303.0,,,,,,,,,,21.0,21.0,21.0,cue1.png,Easy,A,,,,,,,,,,,,,,,,,,,,,,,,,,,43,22,Female,0.14285714285714285,1.5,0.6,1.0,2.2777777777777777,1.375,3.6666666666666665,3.5555555555555554,2.5,3.5555555555555554,0.75,1.25,0.75,2.25,0.6625000000000001,0.7857142857142857,0.4807526947299361,0.003376953491046069,-0.7324022892664798,0.06186089933946214,2.1346509890505464e-05,-0.15989517131456435,7.690124835117761e-05,0.10422434218760465,0.0003356693608889995,0.33367891988476983,-0.0007010306078671152,-0.8183760288750712,0.8909999999999998,-0.9573182819449123,1.9890000000000003,1.0730266709420055,,,,,,,,,,,,,,,,,,,,
21,240715_094654,LEARNING,1.0,22,3.0,303.0,,,,,,,,,,22.0,22.0,22.0,cue2.png,Hard,A,,,,,,,,,,,,,,,,,,,,,,,,,,,43,22,Female,0.14285714285714285,1.5,0.6,1.0,2.2777777777777777,1.375,3.6666666666666665,3.5555555555555554,2.5,3.5555555555555554,0.75,1.25,0.75,2.25,1.0,0.9473684210526316,0.488107555552334,0.13307096484105174,-0.717219496691665,0.1939001681233129,-0.0010871751469406989,-1.8712009559152085,-6.449486307235405e-05,-0.1602202086375219,-0.00018325987850434378,-0.367491651920009,-0.0004731246168664313,-0.48194151616089115,0.9299999999999999,-0.8871012236507259,2.158,1.3727209912274643,,,,,,,,,,,,,,,,,,,,
22,240715_094723,LEARNING,1.0,23,3.0,303.0,,,,,,,,,,23.0,23.0,23.0,cue2.png,Hard,A,,,,,,,,,,,,,,,,,,,,,,,,,,,43,22,Female,0.14285714285714285,1.5,0.6,1.0,2.2777777777777777,1.375,3.6666666666666665,3.5555555555555554,2.5,3.5555555555555554,0.75,1.25,0.75,2.25,0.8071428571428572,0.8571428571428572,0.4710920684156008,-0.16697642356321546,-0.7527017297252379,-0.11467600990751327,0.0004889571902514651,0.5619895634683882,,,,,,,2.016,1.0681737842335353,1.322,-0.10979055764025253,,,,,,,,,,,,,,,,,,,,
23,240715_094753,LEARNING,1.0,24,3.0,303.0,,,,,,,,,,24.0,24.0,24.0,cue2.png,Hard,A,,,,,,,,,,,,,,,,,,,,,,,,,,,43,22,Female,0.14285714285714285,1.5,0.6,1.0,2.2777777777777777,1.375,3.6666666666666665,3.5555555555555554,2.5,3.5555555555555554,0.75,1.25,0.75,2.25,0.8071428571428572,0.8571428571428572,0.5148607473667269,0.6048309133445408,-0.6638588083439705,0.6579588211355347,0.0018616287368583922,2.6810828112991256,0.0001880681558273328,0.3121330506958206,,,-0.00029766165009139506,-0.22292332419872135,2.315,1.6065045644889624,1.271,-0.2002308554778767,,,,,,,,,,,,,,,,,,,,
24,240715_094822,LEARNING,1.0,25,1.0,303.0,,,,,,,,,,25.0,25.0,25.0,cue1.png,Easy,A,,,,,,,,,,,,,,,,,,,,,,,,,,,43,22,Female,0.14285714285714285,1.5,0.6,1.0,2.2777777777777777,1.375,3.6666666666666665,3.5555555555555554,2.5,3.5555555555555554,0.75,1.25,0.75,2.25,1.0,1.0,0.4784165631648839,-0.03781788092244928,-0.7372734549448673,0.019498129043423632,,,5.709478338301183e-05,0.0671815149188165,,,,,1.9500000000000002,0.9493449163510665,1.7880000000000003,0.71658549711137,,,,,,,,,,,,,,,,,,,,
25,240715_094851,LEARNING,1.0,26,1.0,303.0,,,,,,,,,,26.0,26.0,26.0,cue1.png,Easy,A,,,,,,,,,,,,,,,,,,,,,,,,,,,43,22,Female,0.14285714285714285,1.5,0.6,1.0,2.2777777777777777,1.375,3.6666666666666665,3.5555555555555554,2.5,3.5555555555555554,0.75,1.25,0.75,2.25,0.725,0.8045112781954888,0.4346784444383552,-0.809086325496074,-0.8331487294302308,-0.8142945395396672,0.0002246952954717157,0.15402918993914655,0.0012973666313310234,2.3867865481098316,,,,,1.8800000000000001,0.8233142988999631,0.8849999999999998,-0.8847397763665596,,,,,,,,,,,,,,,,,,,,
26,240715_094920,LEARNING,1.0,27,3.0,303.0,,,,,,,,,,27.0,27.0,27.0,cue2.png,Hard,A,,,,,,,,,,,,,,,,,,,,,,,,,,,43,22,Female,0.14285714285714285,1.5,0.6,1.0,2.2777777777777777,1.375,3.6666666666666665,3.5555555555555554,2.5,3.5555555555555554,0.75,1.25,0.75,2.25,0.8071428571428572,0.8571428571428572,0.4730442789518029,-0.13255156882378236,-0.7485662818657023,-0.07871151202109743,-0.00035267922407581373,-0.737305994262093,3.222353936132476e-05,0.02066633930640875,,,,,1.1780000000000002,-0.4405927503953878,1.684,0.5321582230895482,,,,,,,,,,,,,,,,,,,,
27,240715_094949,LEARNING,1.0,28,1.0,303.0,,,,,,,,,,28.0,28.0,28.0,cue1.png,Easy,A,,,,,,,,,,,,,,,,,,,,,,,,,,,43,22,Female,0.14285714285714285,1.5,0.6,1.0,2.2777777777777777,1.375,3.6666666666666665,3.5555555555555554,2.5,3.5555555555555554,0.75,1.25,0.75,2.25,0.8071428571428572,0.8571428571428572,0.4151595105282276,-1.1532789481995398,-0.8790924698812453,-1.2138506728698353,-8.13957825106671e-05,-0.3185059465084948,4.4788585405733036e-05,0.04416598101407734,-2.0747358597684312e-06,-0.1226765973296259,,,1.379,-0.07870483457150555,2.137,1.335480868588443,,,,,,,,,,,,,,,,,,,,
28,240715_095017,LEARNING,1.0,29,1.0,303.0,,,,,,,,,,29.0,29.0,29.0,cue1.png,Easy,A,,,,,,,,,,,,,,,,,,,,,,,,,,,43,22,Female,0.14285714285714285,1.5,0.6,1.0,2.2777777777777777,1.375,3.6666666666666665,3.5555555555555554,2.5,3.5555555555555554,0.75,1.25,0.75,2.25,0.9262820512820512,0.9230769230769232,0.4276627421066606,-0.9327996900051805,-0.8494203797563875,-0.9558032113064254,-0.00043962554137488754,-0.8715313698573347,-0.00036081617911486825,-0.7144119507714713,-0.00036195602763514426,-0.6089436102098018,0.0006992314942294662,1.2486889742102718,1.6989999999999998,0.49743513091925246,,,,,,,,,,,,,,,,,,,,,,
29,240715_095046,LEARNING,1.0,30,3.0,303.0,,,,,,,,,,30.0,30.0,30.0,cue2.png,Hard,A,,,,,,,,,,,,,,,,,,,,,,,,,,,43,22,Female,0.14285714285714285,1.5,0.6,1.0,2.2777777777777777,1.375,3.6666666666666665,3.5555555555555554,2.5,3.5555555555555554,0.75,1.25,0.75,2.25,0.8717948717948717,0.8704453441295548,0.4494274611222661,-0.5490053826481409,-0.7997808149067471,-0.5241058267048971,-1.6183383476104946e-05,-0.21783280673913358,0.0009919983428264508,1.8156748034031793,0.000606154037500267,0.6991543661819785,-0.00021543691990580979,-0.10154328977496939,1.3310000000000002,-0.16512582939511897,0.7310000000000001,-1.1578340090527175,,,,,,,,,,,,,,,,,,,,
30,240715_095114,LEARNING,1.0,31,3.0,303.0,,,,,,,,,,31.0,31.0,31.0,cue2.png,Hard,A,,,,,,,,,,,,,,,,,,,,,,,,,,,43,22,Female,0.14285714285714285,1.5,0.6,1.0,2.2777777777777777,1.375,3.6666666666666665,3.5555555555555554,2.5,3.5555555555555554,0.75,1.25,0.75,2.25,0.9178571428571428,0.8759398496240602,0.4143081444360885,-1.1682917521509948,-0.8811452717862136,-1.231703150347511,-8.992515566341557e-06,-0.2067317391375729,,,4.492438809552968e-05,-0.059171980290536795,-0.00044032826978002235,-0.4335275933746841,,,,,,,,,,,,,,,,,,,,,,,,
31,240715_095142,LEARNING,1.0,32,1.0,303.0,,,,,,,,,,32.0,32.0,32.0,cue1.png,Easy,A,,,,,,,,,,,,,,,,,,,,,,,,,,,43,22,Female,0.14285714285714285,1.5,0.6,1.0,2.2777777777777777,1.375,3.6666666666666665,3.5555555555555554,2.5,3.5555555555555554,0.75,1.25,0.75,2.25,1.0,1.0,0.3871100631536376,-1.6478967844858583,-0.9490462254728367,-1.8222132446090855,-0.0007292604618677596,-1.3186619349729185,0.0015571716540813156,2.8726840869574155,-0.0009077378359936897,-1.3463970308241202,-0.0009497019253736517,-1.1854642882225568,1.0290000000000001,-0.7088579218270222,1.529,0.257290651230103,,,,,,,,,,,,,,,,,,,,
32,240715_095209,LEARNING,1.0,33,1.0,303.0,,,,,,,,,,33.0,33.0,33.0,cue1.png,Easy,A,,,,,,,,,,,,,,,,,,,,,,,,,,,43,22,Female,0.14285714285714285,1.5,0.6,1.0,2.2777777777777777,1.375,3.6666666666666665,3.5555555555555554,2.5,3.5555555555555554,0.75,1.25,0.75,2.25,0.8269230769230769,0.8461538461538461,0.3884276841999963,-1.6246621423807295,-0.9456482675561819,-1.7926624306555554,-1.8465778332366067e-05,-0.2213563062541793,,,,,-0.0006000843538978562,-0.6693593066057228,2.355,1.6785220601753073,,,,,,,,,,,,,,,,,,,,,,
33,240715_095238,LEARNING,1.0,34,1.0,303.0,,,,,,,,,,34.0,34.0,34.0,cue1.png,Easy,A,,,,,,,,,,,,,,,,,,,,,,,,,,,43,22,Female,0.14285714285714285,1.5,0.6,1.0,2.2777777777777777,1.375,3.6666666666666665,3.5555555555555554,2.5,3.5555555555555554,0.75,1.25,0.75,2.25,0.9178571428571428,0.9285714285714286,0.4629514631508898,-0.3105260810063767,-0.7701330615986595,-0.26627001365575287,,,,,0.0008738574580339107,1.0608718147287368,-0.0008430418008511017,-1.0280127580446152,,,1.32,-0.11333723598682602,,,,,,,,,,,,,,,,,,,,
34,240715_095309,LEARNING,1.0,35,3.0,303.0,,,,,,,,,,35.0,35.0,35.0,cue2.png,Hard,A,,,,,,,,,,,,,,,,,,,,,,,,,,,43,22,Female,0.14285714285714285,1.5,0.6,1.0,2.2777777777777777,1.375,3.6666666666666665,3.5555555555555554,2.5,3.5555555555555554,0.75,1.25,0.75,2.25,0.9262820512820512,0.8704453441295548,0.5340392444405653,0.9430203471399038,-0.6272859512605746,0.9760197630098439,,,,,5.9704706275439876e-06,-0.11180601690214588,0.0002974015974754147,0.6555082293125525,0.32199999999999984,-1.9817671580831668,1.162,-0.39352482536613165,,,,,,,,,,,,,,,,,,,,
35,240715_095339,LEARNING,1.0,36,3.0,303.0,,,,,,,,,,36.0,36.0,36.0,cue2.png,Hard,A,,,,,,,,,,,,,,,,,,,,,,,,,,,43,22,Female,0.14285714285714285,1.5,0.6,1.0,2.2777777777777777,1.375,3.6666666666666665,3.5555555555555554,2.5,3.5555555555555554,0.75,1.25,0.75,2.25,0.6625000000000001,0.7857142857142857,0.5017816000035964,0.3741960818333156,-0.6895903137101524,0.434181203380664,3.6708985937420995e-05,-0.13617899584531182,0.00017284675664702145,0.2836653932147005,0.00010786589738895694,0.025873784548464722,-0.0003305688471478647,-0.27150088355936863,0.6949999999999998,-1.3102040108080018,1.3289999999999997,-0.09737718342724591,,,,,,,,,,,,,,,,,,,,
36,240715_095407,LEARNING,1.0,37,1.0,303.0,,,,,,,,,,37.0,37.0,37.0,cue1.png,Easy,A,,,,,,,,,,,,,,,,,,,,,,,,,,,43,22,Female,0.14285714285714285,1.5,0.6,1.0,2.2777777777777777,1.375,3.6666666666666665,3.5555555555555554,2.5,3.5555555555555554,0.75,1.25,0.75,2.25,0.9178571428571428,0.9285714285714286,0.4166403736943673,-1.1271657301638907,-0.8755318424785049,-1.1828851810900516,6.947578146101335e-05,-0.08559450218495157,-0.00048481243878675806,-0.9463146167133268,-0.00041219583859014846,-0.676827002203412,0.0005635629945901872,1.0484153202953654,1.106,-0.5702242426308085,0.899,-0.8599130279405449,,,,,,,,,,,,,,,,,,,,
37,240715_095437,LEARNING,1.0,38,3.0,303.0,,,,,,,,,,38.0,38.0,38.0,cue2.png,Hard,A,,,,,,,,,,,,,,,,,,,,,,,,,,,43,22,Female,0.14285714285714285,1.5,0.6,1.0,2.2777777777777777,1.375,3.6666666666666665,3.5555555555555554,2.5,3.5555555555555554,0.75,1.25,0.75,2.25,0.8535714285714285,0.8759398496240602,0.4882203888975912,0.13506064343780785,-0.716988358483646,0.1959102937194081,,,,,0.0007303997934549082,0.8670336474667983,-0.001804507038609707,-2.447326429162497,1.624,0.36240232650735643,1.44,0.09946346480758293,,,,,,,,,,,,,,,,,,,,
38,240715_095506,LEARNING,1.0,39,3.0,303.0,,,,,,,,,,39.0,39.0,39.0,cue2.png,Hard,A,,,,,,,,,,,,,,,,,,,,,,,,,,,43,22,Female,0.14285714285714285,1.5,0.6,1.0,2.2777777777777777,1.375,3.6666666666666665,3.5555555555555554,2.5,3.5555555555555554,0.75,1.25,0.75,2.25,0.1607142857142857,0.5902255639097744,0.435003855559949,-0.8033480967631949,-0.8324003845765277,-0.8077864543640175,-8.832798793560531e-05,-0.32920769795433336,-0.00014820319012762108,-0.3167748035665653,0.0020117720952451583,2.598407563863232,0.00032223241839620786,0.6921634532498426,1.77,0.6252661857625148,1.9899999999999998,1.0748000101152912,,,,,,,,,,,,,,,,,,,,
39,240715_095535,LEARNING,1.0,40,3.0,303.0,,,,,,,,,,40.0,40.0,40.0,cue2.png,Hard,A,,,,,,,,,,,,,,,,,,,,,,,,,,,43,22,Female,0.14285714285714285,1.5,0.6,1.0,2.2777777777777777,1.375,3.6666666666666665,3.5555555555555554,2.5,3.5555555555555554,0.75,1.25,0.75,2.25,0.725,0.6992481203007519,0.433838837503572,-0.8238917710318621,-0.835082156003973,-0.8311088528345518,,,-6.936667699283371e-05,-0.16933166602439342,-0.000584114199366291,-0.9091208992867036,0.0005020624749349709,0.957628337158053,1.819,0.713487617978287,1.363,-0.0370836515354962,,,,,,,,,,,,,,,,,,,,
40,240715_095604,LEARNING,1.0,41,1.0,303.0,,,,,,,,,,41.0,41.0,41.0,cue1.png,Easy,A,,,,,,,,,,,,,,,,,,,,,,,,,,,43,22,Female,0.14285714285714285,1.5,0.6,1.0,2.2777777777777777,1.375,3.6666666666666665,3.5555555555555554,2.5,3.5555555555555554,0.75,1.25,0.75,2.25,1.0,1.0,0.4557952894737306,-0.43671648657893336,-0.7857114968581581,-0.40175004411291987,-0.00018547126799620334,-0.47917486916684454,-0.0007010407984064109,-1.3507133718106106,0.0003816304858256861,0.39578100588463,-0.0007216319813884951,-0.8487877483365727,1.521,0.17695727511501827,1.616,0.41157115930605,,,,,,,,,,,,,,,,,,,,
41,240715_095633,LEARNING,1.0,42,3.0,303.0,,,,,,,,,,42.0,42.0,42.0,cue2.png,Hard,A,,,,,,,,,,,,,,,,,,,,,,,,,,,43,22,Female,0.14285714285714285,1.5,0.6,1.0,2.2777777777777777,1.375,3.6666666666666665,3.5555555555555554,2.5,3.5555555555555554,0.75,1.25,0.75,2.25,0.7019230769230769,0.7692307692307692,0.4458202052597986,-0.6126149456387168,-0.8078395354598775,-0.5941896116163633,,,2.191754980662968e-06,-0.03550028119726845,0.0004779333977562193,0.5259042726015669,0.000594419793571152,1.0939660848167296,,,,,,,,,,,,,,,,,,,,,,,,
42,240715_095704,LEARNING,1.0,43,3.0,303.0,,,,,,,,,,43.0,43.0,43.0,cue2.png,Hard,A,,,,,,,,,,,,,,,,,,,,,,,,,,,43,22,Female,0.14285714285714285,1.5,0.6,1.0,2.2777777777777777,1.375,3.6666666666666665,3.5555555555555554,2.5,3.5555555555555554,0.75,1.25,0.75,2.25,0.5224358974358974,0.5303643724696356,0.4350697923084506,-0.8021853825235855,-0.832248818674516,-0.8064683404020726,9.830588414378285e-05,-0.04108736857360834,0.00017276481966698506,0.28351215146240943,-0.0010124521115594852,-1.4878856248382617,-0.0006301404528884979,-0.7137280788947118,1.184,-0.4297901260424365,,,,,,,,,,,,,,,,,,,,,,
43,240715_095732,LEARNING,1.0,44,1.0,303.0,,,,,,,,,,44.0,44.0,44.0,cue1.png,Easy,A,,,,,,,,,,,,,,,,,,,,,,,,,,,43,22,Female,0.14285714285714285,1.5,0.6,1.0,2.2777777777777777,1.375,3.6666666666666665,3.5555555555555554,2.5,3.5555555555555554,0.75,1.25,0.75,2.25,0.9178571428571428,0.9285714285714286,0.4205611894814003,-1.058026919863609,-0.8661652941474752,-1.1014276898832442,,,,,-0.0008015228503778374,-1.2028806965247296,0.001088639133034238,1.823531998885607,1.0150000000000001,-0.7340640453172429,0.44199999999999995,-1.6703290301325866,,,,,,,,,,,,,,,,,,,,
44,240715_095801,LEARNING,1.0,45,1.0,303.0,,,,,,,,,,45.0,45.0,45.0,cue1.png,Easy,A,,,,,,,,,,,,,,,,,,,,,,,,,,,43,22,Female,0.14285714285714285,1.5,0.6,1.0,2.2777777777777777,1.375,3.6666666666666665,3.5555555555555554,2.5,3.5555555555555554,0.75,1.25,0.75,2.25,0.8269230769230769,0.7935222672064777,0.4745161333283047,-0.10659720981942701,-0.7454596608182688,-0.0516943496993203,-8.545245962837851e-05,-0.3247685350425262,0.00027510232472699805,0.47490776542733065,4.137706508198363e-05,-0.06396507791728084,-0.0009258947611942058,-1.1503201849690607,2.252,1.493077008782969,1.968,1.0357865483029833,,,,,,,,,,,,,,,,,,,,
45,240715_095830,LEARNING,1.0,46,1.0,303.0,,,,,,,,,,46.0,46.0,46.0,cue1.png,Easy,A,,,,,,,,,,,,,,,,,,,,,,,,,,,43,22,Female,0.14285714285714285,1.5,0.6,1.0,2.2777777777777777,1.375,3.6666666666666665,3.5555555555555554,2.5,3.5555555555555554,0.75,1.25,0.75,2.25,0.9178571428571428,0.9285714285714286,0.421531578957863,-1.0409152835167987,-0.8638605839246454,-1.0813844566584214,1.2831736970631696e-06,-0.1908684076736745,-0.00011611075528995818,-0.2567542737932265,-1.0164344436164492e-05,-0.13360717329373917,-0.0005047485946003578,-0.5286247889098104,1.9699999999999998,0.9853536641942382,-0.07700000000000018,-2.5906920610684065,,,,,,,,,,,,,,,,,,,,
46,240715_095859,LEARNING,1.0,47,3.0,303.0,,,,,,,,,,47.0,47.0,47.0,cue2.png,Hard,A,,,,,,,,,,,,,,,,,,,,,,,,,,,43,22,Female,0.14285714285714285,1.5,0.6,1.0,2.2777777777777777,1.375,3.6666666666666665,3.5555555555555554,2.5,3.5555555555555554,0.75,1.25,0.75,2.25,0.8269230769230769,0.8461538461538461,0.4865349842063886,0.10534058476796658,-0.7204464699591769,0.1658363459688755,0.00015245193896370243,0.0425018479794621,5.3818256289242614e-05,0.06105362549629341,9.423524917279158e-05,0.007456226472586038,6.182956584071045e-06,0.22561166928192564,0.19599999999999995,-2.2086222694951525,0.8160000000000001,-1.0071001793233445,,,,,,,,,,,,,,,,,,,,
47,240715_095928,LEARNING,1.0,48,3.0,303.0,,,,,,,,,,48.0,48.0,48.0,cue2.png,Hard,A,,,,,,,,,,,,,,,,,,,,,,,,,,,43,22,Female,0.14285714285714285,1.5,0.6,1.0,2.2777777777777777,1.375,3.6666666666666665,3.5555555555555554,2.5,3.5555555555555554,0.75,1.25,0.75,2.25,0.7019230769230769,0.7692307692307692,0.442072042098612,-0.6787092371973326,-0.8162824190127267,-0.6676143235230925,0.0018235848905166548,2.6223517491571555,,,0.0007176421282259898,0.8497956528725601,0.00015875164209063625,0.45083335449725737,2.041,1.1131847190375006,2.074,1.2237605006713779,,,,,,,,,,,,,,,,,,,,
48,240715_095956,LEARNING,1.0,49,1.0,303.0,,,,,,,,,,49.0,49.0,49.0,cue1.png,Easy,A,,,,,,,,,,,,,,,,,,,,,,,,,,,43,22,Female,0.14285714285714285,1.5,0.6,1.0,2.2777777777777777,1.375,3.6666666666666665,3.5555555555555554,2.5,3.5555555555555554,0.75,1.25,0.75,2.25,0.9178571428571428,0.9285714285714286,0.4299458368485303,-0.8925400953622119,-0.8440960390456302,-0.9094993412680078,0.00019954442145329833,0.11520195013716082,5.9480733206840504e-05,0.07164381181723502,0.0003997763297739071,0.4202994388639099,8.38707296691556e-05,0.34029425382904177,,,,,,,,,,,,,,,,,,,,,,,,
49,240715_100024,LEARNING,1.0,50,1.0,303.0,,,,,,,,,,50.0,50.0,50.0,cue1.png,Easy,A,,,,,,,,,,,,,,,,,,,,,,,,,,,43,22,Female,0.14285714285714285,1.5,0.6,1.0,2.2777777777777777,1.375,3.6666666666666665,3.5555555555555554,2.5,3.5555555555555554,0.75,1.25,0.75,2.25,1.0,1.0,0.4116748526300254,-1.2147266454318275,-0.887521433854636,-1.2871543312164617,-0.001157750756608004,-1.980153675360154,-0.00012902616200814168,-0.28090917376839974,,,,,0.8219999999999998,-1.081548462003857,1.3090000000000002,-0.13284396689298,,,,,,,,,,,,,,,,,,,,
0,240715_100203,TrueCHOICE,9.0,1,1.0,303.0,,,,,,,,,,,1.0,1.0,,,A,,,,,,True,cue1.png,Easy,cue2.png,Hard,Left,Easy,Easy,0.0161238000146113,,,,,,,,,,,,,43,22,Female,0.14285714285714285,1.5,0.6,1.0,2.2777777777777777,1.375,3.6666666666666665,3.5555555555555554,2.5,3.5555555555555554,0.75,1.25,0.75,2.25,1.0,0.8947368421052632,0.4346359000020824,0.6423120190160108,-0.833246609872625,0.670738185279906,,,,,,,,,,,,,,,,,1.462,-0.45691024787443785,,,,,,,,,,,,,,
1,240715_100235,TrueCHOICE,9.0,2,1.0,303.0,,,,,,,,,,,3.0,2.0,,,A,,,,,,True,cue1.png,Easy,cue2.png,Hard,Left,Easy,Easy,0.0159514999832026,,,,,,,,,,,,,43,22,Female,0.14285714285714285,1.5,0.6,1.0,2.2777777777777777,1.375,3.6666666666666665,3.5555555555555554,2.5,3.5555555555555554,0.75,1.25,0.75,2.25,,,,,,,,,,,,,,,,,,,4.750653349485387e-05,0.8869291820441414,-0.0006556523974383449,-1.7154626999788203,1.4599999999999997,-0.46028050260059317,,,,,,,,,,,,,,
2,240715_100303,TrueCHOICE,9.0,3,3.0,303.0,,,,,,,,,,,4.0,3.0,,,A,,,,,,True,cue2.png,Hard,cue1.png,Easy,Left,Hard,Hard,0.0161055999924428,,,,,,,,,,,,,43,22,Female,0.14285714285714285,1.5,0.6,1.0,2.2777777777777777,1.375,3.6666666666666665,3.5555555555555554,2.5,3.5555555555555554,0.75,1.25,0.75,2.25,0.0871794871794871,0.6153846153846154,0.4122090894716644,-0.24373693304086885,-0.8862245596488998,-0.21957795093271767,,,,,,,,,,,,,-5.588446140476029e-05,-0.48552477584437065,-0.0003982265882604731,-0.6898704544097918,1.116,-1.0399643154992466,,,,,,,,,,,,,,
3,240715_100330,TrueCHOICE,9.0,4,1.0,303.0,,,,,,,,,,,5.0,4.0,,,A,,,,,,True,cue1.png,Easy,cue2.png,Hard,Left,Easy,Easy,0.0162882999866269,,,,,,,,,,,,,43,22,Female,0.14285714285714285,1.5,0.6,1.0,2.2777777777777777,1.375,3.6666666666666665,3.5555555555555554,2.5,3.5555555555555554,0.75,1.25,0.75,2.25,1.0,1.0,0.4315548736761373,0.5205853854556736,-0.8403606069585344,0.5511845516398367,,,,,,,,,,,,,-0.00012306812173752853,-1.3773479043351218,5.670703518384588e-05,1.1225989244112218,1.3570000000000002,-0.6338486209975731,,,,,,,,,,,,,,
4,240715_100357,TrueCHOICE,9.0,5,1.0,303.0,,,,,,,,,,,6.0,5.0,,,A,,,,,,True,cue2.png,Hard,cue1.png,Easy,Right,Easy,Easy,0.0165872999932616,,,,,,,,,,,,,43,22,Female,0.14285714285714285,1.5,0.6,1.0,2.2777777777777777,1.375,3.6666666666666665,3.5555555555555554,2.5,3.5555555555555554,0.75,1.25,0.75,2.25,1.0,0.9473684210526316,0.4700979166599508,2.0433620102713776,-0.7548142726573608,1.9888257239353093,,,,,,,,,,,,,,,,,1.595,-0.2327883085851326,,,,,,,,,,,,,,
5,240715_100422,TrueCHOICE,9.0,6,1.0,303.0,,,,,,,,,,,7.0,6.0,,,A,,,,,,True,cue2.png,Hard,cue1.png,Easy,Right,Easy,Easy,0.0165681999642401,,,,,,,,,,,,,43,22,Female,0.14285714285714285,1.5,0.6,1.0,2.2777777777777777,1.375,3.6666666666666665,3.5555555555555554,2.5,3.5555555555555554,0.75,1.25,0.75,2.25,1.0,1.0,0.3982870263127169,-0.7937763359120006,-0.9205823619770175,-0.7969748858217627,,,,,,,,,,,,,0.000125610474604508,1.9237125422073205,-5.538677738600815e-05,0.6760137691967517,,,,,,,,,,,,,,,,
6,240715_100448,TrueCHOICE,9.0,7,1.0,303.0,,,,,,,,,,,8.0,7.0,,,A,,,,,,True,cue1.png,Easy,cue2.png,Hard,Left,Easy,Easy,0.0160966999828815,,,,,,,,,,,,,43,22,Female,0.14285714285714285,1.5,0.6,1.0,2.2777777777777777,1.375,3.6666666666666665,3.5555555555555554,2.5,3.5555555555555554,0.75,1.25,0.75,2.25,,,,,,,,,,,,,,,,,,,-6.041255433143983e-05,-0.5456325160295026,-0.00029528049667995864,-0.2797300975675518,,,,,,,,,,,,,,,,
7,240715_100513,TrueCHOICE,9.0,8,1.0,303.0,,,,,,,,,,,9.0,8.0,,,A,,,,,,True,cue2.png,Hard,cue1.png,Easy,Right,Easy,Easy,0.0158428000286221,,,,,,,,,,,,,43,22,Female,0.14285714285714285,1.5,0.6,1.0,2.2777777777777777,1.375,3.6666666666666665,3.5555555555555554,2.5,3.5555555555555554,0.75,1.25,0.75,2.25,0.9262820512820512,0.9230769230769232,0.3829538315706151,-1.3995673874079955,-0.9598408412695767,-1.456729703532497,,,,,,,,,,,,,-3.2539785699713455e-05,-0.1756380918239339,,,,,,,,,,,,,,,,,,
8,240715_100539,TrueCHOICE,9.0,9,1.0,303.0,,,,,,,,,,,10.0,9.0,,,A,,,,,,True,cue1.png,Easy,cue2.png,Hard,Left,Easy,Easy,0.0161369999987073,,,,,,,,,,,,,43,22,Female,0.14285714285714285,1.5,0.6,1.0,2.2777777777777777,1.375,3.6666666666666665,3.5555555555555554,2.5,3.5555555555555554,0.75,1.25,0.75,2.25,0.9262820512820512,0.8704453441295548,0.4007001277770743,-0.6984383911426889,-0.9145419424554514,-0.6954631626944096,,,,,,,,,,,,,,,-2.5667010231586462e-06,0.8864505583481908,3.002,2.1381858912648855,,,,,,,,,,,,,,
9,240715_100606,TrueCHOICE,9.0,10,1.0,303.0,,,,,,,,,,,11.0,10.0,,,A,,,,,,True,cue2.png,Hard,cue1.png,Easy,Right,Easy,Easy,0.0166033999994397,,,,,,,,,,,,,43,22,Female,0.14285714285714285,1.5,0.6,1.0,2.2777777777777777,1.375,3.6666666666666665,3.5555555555555554,2.5,3.5555555555555554,0.75,1.25,0.75,2.25,0.9178571428571428,0.9285714285714286,0.4165878105283666,-0.07074036723949721,-0.8756580099967568,-0.04200275787366509,,,,,,,,,,,,,-3.63712450923365e-05,-0.226498436218533,,,2.14,0.6856061042920958,,,,,,,,,,,,,,
0,240715_100802,FalseCHOICE,9.0,1,2.0,303.0,,,,,,,,,,,1.0,1.0,,,A,,,,,,False,cue1.png,Easy,cue2.png,Hard,Left,Easy,Mid,0.0161558000254444,,,,,,,,,,,,,43,22,Female,0.14285714285714285,1.5,0.6,1.0,2.2777777777777777,1.375,3.6666666666666665,3.5555555555555554,2.5,3.5555555555555554,0.75,1.25,0.75,2.25,0.8269230769230769,0.8461538461538461,0.4887016526313106,1.607724680455057,-0.7160030930229581,1.5274466998592011,,,,,,,,,,,,,,,,,,,-0.00024742922099714633,-0.6179252309153683,-0.0007013945602090442,-0.44664604450876,1.5949999999999998,-0.002468039995048795,,,,,,,,
1,240715_100829,FalseCHOICE,9.0,2,2.0,303.0,,,,,,,,,,,2.0,2.0,,,A,,,,,,False,cue2.png,Hard,cue1.png,Easy,Left,Hard,Mid,0.0163424999918788,,,,,,,,,,,,,43,22,Female,0.14285714285714285,1.5,0.6,1.0,2.2777777777777777,1.375,3.6666666666666665,3.5555555555555554,2.5,3.5555555555555554,0.75,1.25,0.75,2.25,,,,,,,,,,,,,,,,,,,,,,,,,-8.168649823471225e-05,-0.45964210312745235,-0.0002470226437184418,0.37522793465165893,1.5019999999999998,-0.15002157398471178,,,,,,,,
2,240715_100857,FalseCHOICE,9.0,3,2.0,303.0,,,,,,,,,,,3.0,3.0,,,A,,,,,,False,cue2.png,Hard,cue1.png,Easy,Left,Hard,Mid,0.0161254000267945,,,,,,,,,,,,,43,22,Female,0.14285714285714285,1.5,0.6,1.0,2.2777777777777777,1.375,3.6666666666666665,3.5555555555555554,2.5,3.5555555555555554,0.75,1.25,0.75,2.25,,,,,,,,,,,,,,,,,,,,,,,,,0.00033730736425933256,-0.059505928373305775,-0.0009348277627506769,-0.8688831328456658,1.4510000000000003,-0.23093802810807457,,,,,,,,
3,240715_100924,FalseCHOICE,9.0,4,2.0,303.0,,,,,,,,,,,4.0,4.0,,,A,,,,,,False,cue2.png,Hard,cue1.png,Easy,Right,Easy,Mid,0.0167859999928623,,,,,,,,,,,,,43,22,Female,0.14285714285714285,1.5,0.6,1.0,2.2777777777777777,1.375,3.6666666666666665,3.5555555555555554,2.5,3.5555555555555554,0.75,1.25,0.75,2.25,0.7019230769230769,0.7692307692307692,0.4266459263223958,-0.12330741563602043,-0.851800822099982,-0.08029603613015417,,,,,,,,,,,,,,,,,,,0.003225753250862778,2.6989394607074932,-0.002459582687143847,-3.6268801645160353,1.049,-0.8687500782569412,,,,,,,,
4,240715_100951,FalseCHOICE,9.0,5,2.0,303.0,,,,,,,,,,,5.0,5.0,,,A,,,,,,False,cue1.png,Easy,cue2.png,Hard,Left,Easy,Mid,0.0160131999873556,,,,,,,,,,,,,43,22,Female,0.14285714285714285,1.5,0.6,1.0,2.2777777777777777,1.375,3.6666666666666665,3.5555555555555554,2.5,3.5555555555555554,0.75,1.25,0.75,2.25,,,,,,,,,,,,,,,,,,,,,,,,,-0.0002665771427841773,-0.6362113607711799,-1.9723050833459974e-05,0.7863704680828311,,,,,,,,,,
5,240715_101021,FalseCHOICE,9.0,6,2.0,303.0,,,,,,,,,,,6.0,6.0,,,A,,,,,,False,cue2.png,Hard,cue1.png,Easy,Right,Easy,Mid,0.0164686000207439,,,,,,,,,,,,,43,22,Female,0.14285714285714285,1.5,0.6,1.0,2.2777777777777777,1.375,3.6666666666666665,3.5555555555555554,2.5,3.5555555555555554,0.75,1.25,0.75,2.25,0.0535714285714285,0.6090225563909775,0.4831280235255904,1.4522494093143983,-0.7274736013923172,1.3916445282449597,,,,,,,,,,,,,,,,,,,,,-0.00044347773465731356,0.019877347486591628,2.072,0.7543387956293525,,,,,,,,
6,240715_101049,FalseCHOICE,9.0,7,2.0,303.0,,,,,,,,,,,7.0,7.0,,,A,,,,,,False,cue2.png,Hard,cue1.png,Easy,Right,Easy,Mid,0.0142560000531375,,,,,,,,,,,,,43,22,Female,0.14285714285714285,1.5,0.6,1.0,2.2777777777777777,1.375,3.6666666666666665,3.5555555555555554,2.5,3.5555555555555554,0.75,1.25,0.75,2.25,1.0,1.0,0.4026946421210213,-0.7914237066095137,-0.9095767161026824,-0.76431906456715,,,,,,,,,,,,,,,,,,,0.0009958542165866909,0.5694016570937684,-0.0005730725952062784,-0.2145355637266836,,,,,,,,,,
7,240715_101115,FalseCHOICE,9.0,8,2.0,303.0,,,,,,,,,,,8.0,8.0,,,A,,,,,,False,cue1.png,Easy,cue2.png,Hard,Right,Hard,Mid,0.017171099956613,,,,,,,,,,,,,43,22,Female,0.14285714285714285,1.5,0.6,1.0,2.2777777777777777,1.375,3.6666666666666665,3.5555555555555554,2.5,3.5555555555555554,0.75,1.25,0.75,2.25,,,,,,,,,,,,,,,,,,,,,,,,,0.002213059800466641,1.731824379288257,-0.00021794371135916077,0.4278262951147076,,,,,,,,,,
8,240715_101142,FalseCHOICE,9.0,9,2.0,303.0,,,,,,,,,,,9.0,9.0,,,A,,,,,,False,cue1.png,Easy,cue2.png,Hard,Right,Hard,Mid,0.0163521000067703,,,,,,,,,,,,,43,22,Female,0.14285714285714285,1.5,0.6,1.0,2.2777777777777777,1.375,3.6666666666666665,3.5555555555555554,2.5,3.5555555555555554,0.75,1.25,0.75,2.25,0.9178571428571428,0.9285714285714286,0.4272887421048884,-0.10537619772021756,-0.8502952832626932,-0.062471591304365026,,,,,,,,,,,,,,,,,,,0.00015357104207675736,-0.23497281632223374,-0.0011541506558893936,-1.2655973054492902,1.9969999999999999,0.6353440101538175,,,,,,,,
9,240715_101208,FalseCHOICE,9.0,10,2.0,303.0,,,,,,,,,,,10.0,10.0,,,A,,,,,,False,cue2.png,Hard,cue1.png,Easy,Right,Easy,Mid,0.0165936999837867,,,,,,,,,,,,,43,22,Female,0.14285714285714285,1.5,0.6,1.0,2.2777777777777777,1.375,3.6666666666666665,3.5555555555555554,2.5,3.5555555555555554,0.75,1.25,0.75,2.25,,,,,,,,,,,,,,,,,,,,,,,,,0.0005917436248093523,0.18347890059105953,-0.0008099154563731567,-0.6429400880344418,,,,,,,,,,
10,240715_101235,FalseCHOICE,9.0,11,2.0,303.0,,,,,,,,,,,11.0,11.0,,,A,,,,,,False,cue1.png,Easy,cue2.png,Hard,Left,Easy,Mid,0.0138249000301584,,,,,,,,,,,,,43,22,Female,0.14285714285714285,1.5,0.6,1.0,2.2777777777777777,1.375,3.6666666666666665,3.5555555555555554,2.5,3.5555555555555554,0.75,1.25,0.75,2.25,0.6625000000000001,0.7857142857142857,0.4408616263137542,0.27323669748812074,-0.819024225303361,0.307754160057811,,,,,,,,,,,,,,,,,,,0.0005590571547194,0.15226355287652055,-0.0009496413870973344,-0.895678214024119,,,,,,,,,,
11,240715_101301,FalseCHOICE,9.0,12,2.0,303.0,,,,,,,,,,,12.0,12.0,,,A,,,,,,False,cue2.png,Hard,cue1.png,Easy,Left,Hard,Mid,0.0149457000079564,,,,,,,,,,,,,43,22,Female,0.14285714285714285,1.5,0.6,1.0,2.2777777777777777,1.375,3.6666666666666665,3.5555555555555554,2.5,3.5555555555555554,0.75,1.25,0.75,2.25,,,,,,,,,,,,,,,,,,,,,,,,,-0.0007430345437743763,-1.091224808296871,6.131675581929133e-05,0.932956350587445,,,,,,,,,,
12,240715_101327,FalseCHOICE,9.0,13,2.0,303.0,,,,,,,,,,,13.0,13.0,,,A,,,,,,False,cue1.png,Easy,cue2.png,Hard,Right,Hard,Mid,0.0157517000334337,,,,,,,,,,,,,43,22,Female,0.14285714285714285,1.5,0.6,1.0,2.2777777777777777,1.375,3.6666666666666665,3.5555555555555554,2.5,3.5555555555555554,0.75,1.25,0.75,2.25,1.0,1.0,0.4110961789479724,-0.5570645141709863,-0.8889280798235865,-0.5198547777824041,,,,,,,,,,,,,,,,,,,-2.7235564204510822e-05,-0.4076418463099796,-0.0001385406266766684,0.5714516531026093,,,,,,,,,,
13,240715_101352,FalseCHOICE,9.0,14,2.0,303.0,,,,,,,,,,,14.0,14.0,,,A,,,,,,False,cue2.png,Hard,cue1.png,Easy,Right,Easy,Mid,0.0149668000522069,,,,,,,,,,,,,43,22,Female,0.14285714285714285,1.5,0.6,1.0,2.2777777777777777,1.375,3.6666666666666665,3.5555555555555554,2.5,3.5555555555555554,0.75,1.25,0.75,2.25,0.8071428571428572,0.8571428571428572,0.420653405271495,-0.2904675939565912,-0.8659460497571871,-0.2477648676736347,,,,,,,,,,,,,,,,,,,,,,,1.9969999999999999,0.6353440101538175,,,,,,,,
14,240715_101419,FalseCHOICE,9.0,15,2.0,303.0,,,,,,,,,,,15.0,15.0,,,A,,,,,,False,cue1.png,Easy,cue2.png,Hard,Left,Easy,Mid,0.015049900044687,,,,,,,,,,,,,43,22,Female,0.14285714285714285,1.5,0.6,1.0,2.2777777777777777,1.375,3.6666666666666665,3.5555555555555554,2.5,3.5555555555555554,0.75,1.25,0.75,2.25,,,,,,,,,,,,,,,,,,,,,,,,,0.0006425002803785076,0.23195114761125116,,,,,,,,,,,,
15,240715_101445,FalseCHOICE,9.0,16,2.0,303.0,,,,,,,,,,,16.0,16.0,,,A,,,,,,False,cue1.png,Easy,cue2.png,Hard,Right,Hard,Mid,0.0165450999629683,,,,,,,,,,,,,43,22,Female,0.14285714285714285,1.5,0.6,1.0,2.2777777777777777,1.375,3.6666666666666665,3.5555555555555554,2.5,3.5555555555555554,0.75,1.25,0.75,2.25,1.0,1.0,0.4111900157785337,-0.554446954516806,-0.8886998458301899,-0.5171526593634649,,,,,,,,,,,,,,,,,,,-0.0008290988880414424,-1.17341564825992,,,,,,,,,,,,
16,240715_101511,FalseCHOICE,9.0,17,2.0,303.0,,,,,,,,,,,17.0,17.0,,,A,,,,,,False,cue2.png,Hard,cue1.png,Easy,Left,Hard,Mid,0.0167435000184923,,,,,,,,,,,,,43,22,Female,0.14285714285714285,1.5,0.6,1.0,2.2777777777777777,1.375,3.6666666666666665,3.5555555555555554,2.5,3.5555555555555554,0.75,1.25,0.75,2.25,0.8717948717948717,0.8704453441295548,0.403460299990709,-0.7700658331965696,-0.9076771852311015,-0.7418300510812211,,,,,,,,,,,,,,,,,,,-0.001154823657517132,-1.4844804989593288,-0.00029848917980866956,0.28213457814146703,,,,,,,,,,
17,240715_101537,FalseCHOICE,9.0,18,2.0,303.0,,,,,,,,,,,18.0,18.0,,,A,,,,,,False,cue2.png,Hard,cue1.png,Easy,Right,Easy,Mid,0.016458700003568,,,,,,,,,,,,,43,22,Female,0.14285714285714285,1.5,0.6,1.0,2.2777777777777777,1.375,3.6666666666666665,3.5555555555555554,2.5,3.5555555555555554,0.75,1.25,0.75,2.25,0.6625000000000001,0.7857142857142857,0.4138191052602212,-0.4811090283173552,-0.8823263444604789,-0.4416952080524852,,,,,,,,,,,,,,,,,,,-0.0007859788691386271,-1.1322363352351517,-0.00019815344825982201,0.46362318680579334,,,,,,,,,,
18,240715_101603,FalseCHOICE,9.0,19,2.0,303.0,,,,,,,,,,,19.0,19.0,,,A,,,,,,False,cue1.png,Easy,cue2.png,Hard,Right,Hard,Mid,0.0168699999921955,,,,,,,,,,,,,43,22,Female,0.14285714285714285,1.5,0.6,1.0,2.2777777777777777,1.375,3.6666666666666665,3.5555555555555554,2.5,3.5555555555555554,0.75,1.25,0.75,2.25,0.0871794871794871,0.6153846153846154,0.4155942263161322,-0.43159238086192814,-0.8780459122594068,-0.391018117758396,,,,,,,,,,,,,,,,,,,-0.0006140599396575316,-0.9680549737208858,-0.0007656879438287063,-0.5629407738074003,,,,,,,,,,
19,240715_101629,FalseCHOICE,9.0,20,2.0,303.0,,,,,,,,,,,20.0,20.0,,,A,,,,,,False,cue1.png,Easy,cue2.png,Hard,Left,Easy,Mid,0.0155726000084541,,,,,,,,,,,,,43,22,Female,0.14285714285714285,1.5,0.6,1.0,2.2777777777777777,1.375,3.6666666666666665,3.5555555555555554,2.5,3.5555555555555554,0.75,1.25,0.75,2.25,0.0535714285714285,0.7142857142857143,0.4456056105371221,0.4055691902724303,-0.8083209994763308,0.4344722848160029,,,,,,,,,,,,,,,,,,,-0.0013472870211509737,-1.6682816497598523,-0.0003835105633515114,0.12834676628508704,1.1360000000000001,-0.7307161271053206,,,,,,,,
20,240715_101655,FalseCHOICE,9.0,21,2.0,303.0,,,,,,,,,,,21.0,21.0,,,A,,,,,,False,cue1.png,Easy,cue2.png,Hard,Left,Easy,Mid,0.0167899000225588,,,,,,,,,,,,,43,22,Female,0.14285714285714285,1.5,0.6,1.0,2.2777777777777777,1.375,3.6666666666666665,3.5555555555555554,2.5,3.5555555555555554,0.75,1.25,0.75,2.25,0.8071428571428572,0.8571428571428572,0.4121200473746285,-0.528503908822607,-0.8864405949517956,-0.490404832185473,,,,,,,,,,,,,,,,,,,0.0015885771050768785,1.1354478227295794,,,1.8200000000000003,0.3545163164315562,,,,,,,,
21,240715_101722,FalseCHOICE,9.0,22,2.0,303.0,,,,,,,,,,,22.0,22.0,,,A,,,,,,False,cue2.png,Hard,cue1.png,Easy,Left,Hard,Mid,0.0161472000181674,,,,,,,,,,,,,43,22,Female,0.14285714285714285,1.5,0.6,1.0,2.2777777777777777,1.375,3.6666666666666665,3.5555555555555554,2.5,3.5555555555555554,0.75,1.25,0.75,2.25,0.6025641025641025,0.6113360323886639,0.354081400004361,-2.147480389921534,-1.0382284487661766,-2.28745859030148,,,,,,,,,,,,,,,,,,,,,-0.0002662165923256613,0.3405096645625736,2.933,2.1203989328884907,,,,,,,,
22,240715_101749,FalseCHOICE,9.0,23,2.0,303.0,,,,,,,,,,,23.0,23.0,,,A,,,,,,False,cue1.png,Easy,cue2.png,Hard,Left,Easy,Mid,0.0160593999898992,,,,,,,,,,,,,43,22,Female,0.14285714285714285,1.5,0.6,1.0,2.2777777777777777,1.375,3.6666666666666665,3.5555555555555554,2.5,3.5555555555555554,0.75,1.25,0.75,2.25,0.8535714285714285,0.8233082706766918,0.4053164705880643,-0.7182883249639245,-0.9030871081571331,-0.6874869989296032,,,,,,,,,,,,,,,,,,,-7.039090278982384e-05,-0.4488548893816848,0.00027396616347781077,1.3175994336993568,2.348,1.19223960617932,,,,,,,,
23,240715_101815,FalseCHOICE,9.0,24,2.0,303.0,,,,,,,,,,,24.0,24.0,,,A,,,,,,False,cue2.png,Hard,cue1.png,Easy,Left,Hard,Mid,0.0166464999783784,,,,,,,,,,,,,43,22,Female,0.14285714285714285,1.5,0.6,1.0,2.2777777777777777,1.375,3.6666666666666665,3.5555555555555554,2.5,3.5555555555555554,0.75,1.25,0.75,2.25,0.0535714285714285,0.7142857142857143,0.4410505157919894,0.2785057317721019,-0.8185958618142893,0.31282566083031266,,,,,,,,,,,,,,,,,,,,,-0.0019296548935117614,-2.6683397076497677,1.1590000000000003,-0.6942243928928231,,,,,,,,
24,240715_101841,FalseCHOICE,9.0,25,2.0,303.0,,,,,,,,,,,25.0,25.0,,,A,,,,,,False,cue2.png,Hard,cue1.png,Easy,Left,Hard,Mid,0.0156771999900229,,,,,,,,,,,,,43,22,Female,0.14285714285714285,1.5,0.6,1.0,2.2777777777777777,1.375,3.6666666666666665,3.5555555555555554,2.5,3.5555555555555554,0.75,1.25,0.75,2.25,0.9178571428571428,0.9285714285714286,0.3893937578908854,-1.1624492167154088,-0.9431642162421525,-1.1619697450041249,,,,,,,,,,,,,,,,,,,,,0.0002245697707136977,1.228250580031698,0.44000000000000017,-1.8349877363182827,,,,,,,,
25,240715_101909,FalseCHOICE,9.0,26,2.0,303.0,,,,,,,,,,,26.0,26.0,,,A,,,,,,False,cue1.png,Easy,cue2.png,Hard,Left,Easy,Mid,0.0151257999823428,,,,,,,,,,,,,43,22,Female,0.14285714285714285,1.5,0.6,1.0,2.2777777777777777,1.375,3.6666666666666665,3.5555555555555554,2.5,3.5555555555555554,0.75,1.25,0.75,2.25,0.5857142857142856,0.7518796992481204,0.4517626882366398,0.5773196434527775,-0.7945982630494631,0.59693913870337,,,,,,,,,,,,,,,,,,,0.00029027271748168805,-0.10442368332678464,-0.00011495146630144393,0.6141200408242347,1.114,-0.7656212641781441,,,,,,,,
26,240715_101937,FalseCHOICE,9.0,27,2.0,303.0,,,,,,,,,,,27.0,27.0,,,A,,,,,,False,cue1.png,Easy,cue2.png,Hard,Left,Easy,Mid,0.0132525999797508,,,,,,,,,,,,,43,22,Female,0.14285714285714285,1.5,0.6,1.0,2.2777777777777777,1.375,3.6666666666666665,3.5555555555555554,2.5,3.5555555555555554,0.75,1.25,0.75,2.25,0.8269230769230769,0.8461538461538461,0.4723759736730962,1.1523231253033601,-0.7499800560855082,1.1251850720243948,,,,,,,,,,,,,,,,,,,0.0009613613418792987,0.5364612057479301,-0.0009849587593069907,-0.9595607476446584,2.387,1.2541168946265981,,,,,,,,
27,240715_102005,FalseCHOICE,9.0,28,2.0,303.0,,,,,,,,,,,28.0,28.0,,,A,,,,,,False,cue2.png,Hard,cue1.png,Easy,Left,Hard,Mid,0.0160543000092729,,,,,,,,,,,,,43,22,Female,0.14285714285714285,1.5,0.6,1.0,2.2777777777777777,1.375,3.6666666666666665,3.5555555555555554,2.5,3.5555555555555554,0.75,1.25,0.75,2.25,0.7019230769230769,0.7165991902834008,0.4544030110992025,0.6509709225690216,-0.7887707850584129,0.6659320848514952,,,,,,,,,,,,,,,,,,,,,-0.0001572300621220284,0.5376459531456721,1.193,-0.6402800901439143,,,,,,,,
28,240715_102033,FalseCHOICE,9.0,29,2.0,303.0,,,,,,,,,,,29.0,29.0,,,A,,,,,,False,cue1.png,Easy,cue2.png,Hard,Right,Hard,Mid,0.0159372999914921,,,,,,,,,,,,,43,22,Female,0.14285714285714285,1.5,0.6,1.0,2.2777777777777777,1.375,3.6666666666666665,3.5555555555555554,2.5,3.5555555555555554,0.75,1.25,0.75,2.25,0.725,0.7518796992481204,0.4486813823528149,0.49136723099976426,-0.801442259277314,0.5159113829724564,,,,,,,,,,,,,,,,,,,,,,,1.7870000000000001,0.3021586108223207,,,,,,,,
29,240715_102100,FalseCHOICE,9.0,30,2.0,303.0,,,,,,,,,,,30.0,30.0,,,A,,,,,,False,cue1.png,Easy,cue2.png,Hard,Left,Easy,Mid,0.0150341999833472,,,,,,,,,,,,,43,22,Female,0.14285714285714285,1.5,0.6,1.0,2.2777777777777777,1.375,3.6666666666666665,3.5555555555555554,2.5,3.5555555555555554,0.75,1.25,0.75,2.25,0.6625000000000001,0.6804511278195489,0.4122078588321421,-0.5260544257466383,-0.8862275451273639,-0.48788248287991426,,,,,,,,,,,,,,,,,,,0.0004245914133963833,0.023849721112487947,-0.0003074186900863026,0.26598276092416345,1.619,0.035610291357122695,,,,,,,,
30,240715_102129,FalseCHOICE,9.0,31,2.0,303.0,,,,,,,,,,,31.0,31.0,,,A,,,,,,False,cue2.png,Hard,cue1.png,Easy,Left,Hard,Mid,0.016276000009384,,,,,,,,,,,,,43,22,Female,0.14285714285714285,1.5,0.6,1.0,2.2777777777777777,1.375,3.6666666666666665,3.5555555555555554,2.5,3.5555555555555554,0.75,1.25,0.75,2.25,0.8071428571428572,0.8045112781954888,0.4910470888911125,1.6731501566607816,-0.7112152517308975,1.5841311312609532,,,,,,,,,,,,,,,,,,,0.0008412138040158981,0.42172115700205276,-0.0004625695817916343,-0.01465624009733901,,,,,,,,,,
31,240715_102158,FalseCHOICE,9.0,32,2.0,303.0,,,,,,,,,,,32.0,32.0,,,A,,,,,,False,cue1.png,Easy,cue2.png,Hard,Left,Easy,Mid,0.0161077000084333,,,,,,,,,,,,,43,22,Female,0.14285714285714285,1.5,0.6,1.0,2.2777777777777777,1.375,3.6666666666666665,3.5555555555555554,2.5,3.5555555555555554,0.75,1.25,0.75,2.25,0.7875000000000001,0.7706766917293233,0.4825097937537066,1.4350040132559818,-0.7287540604739535,1.3764848580411617,,,,,,,,,,,,,,,,,,,-0.0003159034288293763,-0.6833176150143081,-0.000757139629704434,-0.5474784692735015,1.056,-0.8576438982792244,,,,,,,,
32,240715_102226,FalseCHOICE,9.0,33,2.0,303.0,,,,,,,,,,,33.0,33.0,,,A,,,,,,False,cue2.png,Hard,cue1.png,Easy,Right,Easy,Mid,0.0165470000356435,,,,,,,,,,,,,43,22,Female,0.14285714285714285,1.5,0.6,1.0,2.2777777777777777,1.375,3.6666666666666665,3.5555555555555554,2.5,3.5555555555555554,0.75,1.25,0.75,2.25,0.0871794871794871,0.5101214574898786,0.431303629418835,0.006618282338459509,-0.8409429602957308,0.04825286202012186,,,,,,,,,,,,,,,,,,,,,-0.00016309880943318061,0.527030484780995,1.35,-0.3911843392151283,,,,,,,,
33,240715_102254,FalseCHOICE,9.0,34,2.0,303.0,,,,,,,,,,,34.0,34.0,,,A,,,,,,False,cue2.png,Hard,cue1.png,Easy,Left,Hard,Mid,0.0161362999933771,,,,,,,,,,,,,43,22,Female,0.14285714285714285,1.5,0.6,1.0,2.2777777777777777,1.375,3.6666666666666665,3.5555555555555554,2.5,3.5555555555555554,0.75,1.25,0.75,2.25,0.079326923076923,0.6396761133603239,0.4085080666732715,-0.6292593893625599,-0.8952436178188579,-0.5946259864379126,,,,,,,,,,,,,,,,,,,0.0006412470223157211,0.23075429502673311,1.878691779605684e-05,0.856027812663762,0.7660000000000002,-1.317757068784625,,,,,,,,
34,240715_102327,FalseCHOICE,9.0,35,2.0,303.0,,,,,,,,,,,36.0,35.0,,,A,,,,,,False,cue2.png,Hard,cue1.png,Easy,Right,Easy,Mid,0.0168839999823831,,,,,,,,,,,,,43,22,Female,0.14285714285714285,1.5,0.6,1.0,2.2777777777777777,1.375,3.6666666666666665,3.5555555555555554,2.5,3.5555555555555554,0.75,1.25,0.75,2.25,0.0534188034188034,0.4008097165991902,0.3363274083433983,-2.6427244427567476,-1.0896701638738158,-2.8964897158826064,,,,,,,,,,,,,,,,,,,9.1173254228691e-05,-0.29456226232038585,,,0.9049999999999999,-1.0972200663699678,,,,,,,,
35,240715_102355,FalseCHOICE,9.0,36,2.0,303.0,,,,,,,,,,,37.0,36.0,,,A,,,,,,False,cue1.png,Easy,cue2.png,Hard,Left,Easy,Mid,0.0162869999767281,,,,,,,,,,,,,43,22,Female,0.14285714285714285,1.5,0.6,1.0,2.2777777777777777,1.375,3.6666666666666665,3.5555555555555554,2.5,3.5555555555555554,0.75,1.25,0.75,2.25,0.8717948717948717,0.7125506072874495,0.467709553342623,1.022154261825879,-0.759907788239916,1.0076482077146542,,,,,,,,,,,,,,,,,,,-0.00019767839978884457,-0.5704135485946034,-0.0008813080746778697,-0.7720760076616158,1.9429999999999998,0.5496677646114324,,,,,,,,
36,240715_102423,FalseCHOICE,9.0,37,2.0,303.0,,,,,,,,,,,38.0,37.0,,,A,,,,,,False,cue2.png,Hard,cue1.png,Easy,Right,Easy,Mid,0.0166861999896354,,,,,,,,,,,,,43,22,Female,0.14285714285714285,1.5,0.6,1.0,2.2777777777777777,1.375,3.6666666666666665,3.5555555555555554,2.5,3.5555555555555554,0.75,1.25,0.75,2.25,0.7875000000000001,0.6127819548872181,0.3941921923094644,-1.028597846606553,-0.9309166908790876,-1.016968277968218,,,,,,,,,,,,,,,,,,,0.0011568639614290906,0.723164824448743,,,0.732,-1.3717013715335344,,,,,,,,
37,240715_102452,FalseCHOICE,9.0,38,2.0,303.0,,,,,,,,,,,39.0,38.0,,,A,,,,,,False,cue1.png,Easy,cue2.png,Hard,Right,Hard,Mid,0.0165198000031523,,,,,,,,,,,,,43,22,Female,0.14285714285714285,1.5,0.6,1.0,2.2777777777777777,1.375,3.6666666666666665,3.5555555555555554,2.5,3.5555555555555554,0.75,1.25,0.75,2.25,0.1785714285714285,0.4511278195488722,0.3784394857232525,-1.4680164518339776,-0.9716990980854796,-1.4998012339232256,,,,,,,,,,,,,,,,,,,-0.00013132257944661364,-0.5070442095633162,3.360266365395794e-05,0.8828267312600316,0.44499999999999984,-1.8270547506199142,,,,,,,,
38,240715_102520,FalseCHOICE,9.0,39,2.0,303.0,,,,,,,,,,,40.0,39.0,,,A,,,,,,False,cue1.png,Easy,cue2.png,Hard,Right,Hard,Mid,0.0167099999962374,,,,,,,,,,,,,43,22,Female,0.14285714285714285,1.5,0.6,1.0,2.2777777777777777,1.375,3.6666666666666665,3.5555555555555554,2.5,3.5555555555555554,0.75,1.25,0.75,2.25,0.9178571428571428,0.9285714285714286,0.4325057578910338,0.04015141606800736,-0.8381596396559681,0.08120528008279532,,,,,,,,,,,,,,,,,,,0.0020644314104511946,1.5898853182083506,,,1.082,-0.8163923726477057,,,,,,,,
39,240715_102548,FalseCHOICE,9.0,40,2.0,303.0,,,,,,,,,,,41.0,40.0,,,A,,,,,,False,cue2.png,Hard,cue1.png,Easy,Left,Hard,Mid,0.0159986999933607,,,,,,,,,,,,,43,22,Female,0.14285714285714285,1.5,0.6,1.0,2.2777777777777777,1.375,3.6666666666666665,3.5555555555555554,2.5,3.5555555555555554,0.75,1.25,0.75,2.25,0.6025641025641025,0.7165991902834008,0.436059177772323,0.13927335422371492,-0.8299773160078245,0.17807782352094942,,,,,,,,,,,,,,,,,,,-8.861060091435976e-05,-0.4662545722059904,-0.00035921699363030985,0.17228929902123583,1.8490000000000002,0.40052763348209613,,,,,,,,
40,240715_102617,FalseCHOICE,9.0,41,2.0,303.0,,,,,,,,,,,42.0,41.0,,,A,,,,,,False,cue2.png,Hard,cue1.png,Easy,Right,Easy,Mid,0.016551700013224,,,,,,,,,,,,,43,22,Female,0.14285714285714285,1.5,0.6,1.0,2.2777777777777777,1.375,3.6666666666666665,3.5555555555555554,2.5,3.5555555555555554,0.75,1.25,0.75,2.25,0.079326923076923,0.3765182186234818,0.4245867615413422,-0.18074740609556475,-0.8566389088581552,-0.13757533597122434,,,,,,,,,,,,,,,,,,,,,-0.0008575365142042025,-0.7290776922106004,2.327,1.1589210662461702,,,,,,,,
41,240715_102644,FalseCHOICE,9.0,42,2.0,303.0,,,,,,,,,,,43.0,42.0,,,A,,,,,,False,cue1.png,Easy,cue2.png,Hard,Right,Hard,Mid,0.0171033000224269,,,,,,,,,,,,,43,22,Female,0.14285714285714285,1.5,0.6,1.0,2.2777777777777777,1.375,3.6666666666666665,3.5555555555555554,2.5,3.5555555555555554,0.75,1.25,0.75,2.25,1.0,1.0,0.4655731315816458,0.9625592033355618,-0.7644860913141208,0.9534445508439598,,,,,,,,,,,,,,,,,,,-7.386515500866671e-06,-0.38868614520851585,0.0002781780787542692,1.325218002194712,,,,,,,,,,
42,240715_102711,FalseCHOICE,9.0,43,2.0,303.0,,,,,,,,,,,44.0,43.0,,,A,,,,,,False,cue2.png,Hard,cue1.png,Easy,Left,Hard,Mid,0.0167547999881207,,,,,,,,,,,,,43,22,Female,0.14285714285714285,1.5,0.6,1.0,2.2777777777777777,1.375,3.6666666666666665,3.5555555555555554,2.5,3.5555555555555554,0.75,1.25,0.75,2.25,0.6625000000000001,0.7857142857142857,0.4608813420881664,0.8316826721209227,-0.7746146615500847,0.8335299150580205,,,,,,,,,,,,,,,,,,,0.0014928067354119364,1.0439877971711735,-1.71472114137549e-05,0.7910296807601952,1.94,0.5449079731924111,,,,,,,,
43,240715_102738,FalseCHOICE,9.0,44,2.0,303.0,,,,,,,,,,,45.0,44.0,,,A,,,,,,False,cue1.png,Easy,cue2.png,Hard,Left,Easy,Mid,0.0140171000384725,,,,,,,,,,,,,43,22,Female,0.14285714285714285,1.5,0.6,1.0,2.2777777777777777,1.375,3.6666666666666665,3.5555555555555554,2.5,3.5555555555555554,0.75,1.25,0.75,2.25,0.9262820512820512,0.9230769230769232,0.4603597052628174,0.8171317170215145,-0.7757471271140063,0.8201223765334238,,,,,,,,,,,,,,,,,,,0.000817049665858439,0.3986445759967789,-0.0005341508074061356,-0.1441333151405248,1.7950000000000002,0.31485138793971107,,,,,,,,
44,240715_102804,FalseCHOICE,9.0,45,2.0,303.0,,,,,,,,,,,46.0,45.0,,,A,,,,,,False,cue2.png,Hard,cue1.png,Easy,Left,Hard,Mid,0.0162964000483043,,,,,,,,,,,,,43,22,Female,0.14285714285714285,1.5,0.6,1.0,2.2777777777777777,1.375,3.6666666666666665,3.5555555555555554,2.5,3.5555555555555554,0.75,1.25,0.75,2.25,0.9178571428571428,0.9285714285714286,0.4222187736947824,-0.24680195431152388,-0.8622316782022231,-0.2037895086831193,,,,,,,,,,,,,,,,,,,0.0018951785614325098,1.4282500446760558,,,2.782,1.8808227647977476,,,,,,,,
45,240715_102831,FalseCHOICE,9.0,46,2.0,303.0,,,,,,,,,,,47.0,46.0,,,A,,,,,,False,cue2.png,Hard,cue1.png,Easy,Right,Easy,Mid,0.0166877000010572,,,,,,,,,,,,,43,22,Female,0.14285714285714285,1.5,0.6,1.0,2.2777777777777777,1.375,3.6666666666666665,3.5555555555555554,2.5,3.5555555555555554,0.75,1.25,0.75,2.25,0.0535714285714285,0.5563909774436091,0.3907236812483461,-1.1253512701754613,-0.9397546663997737,-1.121603245289177,,,,,,,,,,,,,,,,,,,,,0.0002030646180016405,1.189351773150273,1.026,-0.9052418124694384,,,,,,,,
46,240715_102859,FalseCHOICE,9.0,47,2.0,303.0,,,,,,,,,,,48.0,47.0,,,A,,,,,,False,cue1.png,Easy,cue2.png,Hard,Right,Hard,Mid,0.0165068000205792,,,,,,,,,,,,,43,22,Female,0.14285714285714285,1.5,0.6,1.0,2.2777777777777777,1.375,3.6666666666666665,3.5555555555555554,2.5,3.5555555555555554,0.75,1.25,0.75,2.25,0.95,0.8421052631578947,0.4097594750055577,-0.594351603774495,-0.8921849377559772,-0.5584135203956959,,,,,,,,,,,,,,,,,,,-5.002760844539239e-05,-0.42940808733099994,-0.0003368270873159388,0.21278846001196952,1.398,-0.3150276765107864,,,,,,,,
47,240715_102928,FalseCHOICE,9.0,48,2.0,303.0,,,,,,,,,,,49.0,48.0,,,A,,,,,,False,cue1.png,Easy,cue2.png,Hard,Right,Hard,Mid,0.0165079999715089,,,,,,,,,,,,,43,22,Female,0.14285714285714285,1.5,0.6,1.0,2.2777777777777777,1.375,3.6666666666666665,3.5555555555555554,2.5,3.5555555555555554,0.75,1.25,0.75,2.25,0.6025641025641025,0.4534412955465586,0.4417081230964798,0.2968495562409368,-0.8171059700201664,0.33046485646113716,,,,,,,,,,,,,,,,,,,-0.0003610550525870891,-0.7264370963041,-0.00039313486050729114,0.11093820930133558,1.883,0.4544719362310049,,,,,,,,
48,240715_102958,FalseCHOICE,9.0,49,2.0,303.0,,,,,,,,,,,50.0,49.0,,,A,,,,,,False,cue2.png,Hard,cue1.png,Easy,Left,Hard,Mid,0.0161141999997198,,,,,,,,,,,,,43,22,Female,0.14285714285714285,1.5,0.6,1.0,2.2777777777777777,1.375,3.6666666666666665,3.5555555555555554,2.5,3.5555555555555554,0.75,1.25,0.75,2.25,0.9178571428571428,0.9285714285714286,0.5122933421118528,2.2658101484832693,-0.6688578841943311,2.0856104301814824,,,,,,,,,,,,,,,,,,,-0.0007494057099190002,-1.0973092268958886,,,2.87,2.020443313089042,,,,,,,,
49,240715_103028,FalseCHOICE,9.0,50,2.0,303.0,,,,,,,,,,,51.0,50.0,,,A,,,,,,False,cue1.png,Easy,cue2.png,Hard,Left,Easy,Mid,0.0167876000050455,,,,,,,,,,,,,43,22,Female,0.14285714285714285,1.5,0.6,1.0,2.2777777777777777,1.375,3.6666666666666665,3.5555555555555554,2.5,3.5555555555555554,0.75,1.25,0.75,2.25,0.013095238095238,0.5225563909774436,0.4570148928614799,0.7238288428710127,-0.7830393003005833,0.733788543486438,,,,,,,,,,,,,,,,,,,0.003070086354556731,2.55027867590987,,,1.7280000000000002,0.2085493795815668,,,,,,,,
0,240715_093516,OFFLINERATING,9.0,1,1.0,,,,,,,,,,,,,,,,,T0,cue1.png,Easy,37.0,2.923371799988672,,,,,,,,,,,,,,,,,,,,,,43,22,Female,0.14285714285714285,1.5,0.6,1.0,2.2777777777777777,1.375,3.6666666666666665,3.5555555555555554,2.5,3.5555555555555554,0.75,1.25,0.75,2.25,,,,,,,,,,,,,,,,,,,,,,,,,,,,,,,0.21862441348765968,,,,,,,
1,240715_093532,OFFLINERATING,9.0,2,3.0,,,,,,,,,,,,,,,,,T0,cue2.png,Hard,31.0,1.001509099965915,,,,,,,,,,,,,,,,,,,,,,43,22,Female,0.14285714285714285,1.5,0.6,1.0,2.2777777777777777,1.375,3.6666666666666665,3.5555555555555554,2.5,3.5555555555555554,0.75,1.25,0.75,2.25,,,,,,,,,,,,,,,,,,,,,,,,,,,,,,,-0.014574960899177312,,,,,1.464,-1.0,
2,240715_100049,OFFLINERATING,9.0,3,1.0,,,,,,,,,,,,,,,,,T1,cue1.png,Easy,67.0,1.08603890001541,,,,,,,,,,,,,,,,,,,,,,43,22,Female,0.14285714285714285,1.5,0.6,1.0,2.2777777777777777,1.375,3.6666666666666665,3.5555555555555554,2.5,3.5555555555555554,0.75,1.25,0.75,2.25,,,,,,,,,,,,,,,,,,,,,,,,,,,,,,,1.3846212854218445,5.6308306841350644e-05,1.0901820411015781,0.00010047661138223082,0.9067607234896041,1.951,1.0,
3,240715_100058,OFFLINERATING,9.0,4,3.0,,,,,,,,,,,,,,,,,T1,cue2.png,Hard,32.0,2.069027499994263,,,,,,,,,,,,,,,,,,,,,,43,22,Female,0.14285714285714285,1.5,0.6,1.0,2.2777777777777777,1.375,3.6666666666666665,3.5555555555555554,2.5,3.5555555555555554,0.75,1.25,0.75,2.25,,,,,,,,,,,,,,,,,,,,,,,,,,,,,,,0.024291601498628853,,,-6.897451663286005e-05,0.12697550537774377,,,
4,240715_100630,OFFLINERATING,9.0,5,1.0,,,,,,,,,,,,,,,,,T2,cue1.png,Easy,72.0,1.8192465000320224,,,,,,,,,,,,,,,,,,,,,,43,22,Female,0.14285714285714285,1.5,0.6,1.0,2.2777777777777777,1.375,3.6666666666666665,3.5555555555555554,2.5,3.5555555555555554,0.75,1.25,0.75,2.25,,,,,,,,,,,,,,,,,,,,,,,,,,,,,,,1.5789540974108753,-2.7581950765635972e-05,-1.325236736391553,-0.0004579506199696229,-1.663026243998315,,,
5,240715_100639,OFFLINERATING,9.0,6,3.0,,,,,,,,,,,,,,,,,T2,cue2.png,Hard,12.0,2.3357894000364468,,,,,,,,,,,,,,,,,,,,,,43,22,Female,0.14285714285714285,1.5,0.6,1.0,2.2777777777777777,1.375,3.6666666666666665,3.5555555555555554,2.5,3.5555555555555554,0.75,1.25,0.75,2.25,,,,,,,,,,,,,,,,,,,,,,,,,,,,,,,-0.7530396464574944,,,4.0180874260714074e-05,0.6292900151309672,,,
6,240715_103047,OFFLINERATING,9.0,7,1.0,,,,,,,,,,,,,,,,,T3,cue1.png,Easy,0.0,1.3193643999984488,,,,,,,,,,,,,,,,,,,,,,43,22,Female,0.14285714285714285,1.5,0.6,1.0,2.2777777777777777,1.375,3.6666666666666665,3.5555555555555554,2.5,3.5555555555555554,0.75,1.25,0.75,2.25,,,,,,,,,,,,,,,,,,,,,,,,,,,,,,,-1.2194383952311685,,,,,,,
7,240715_103054,OFFLINERATING,9.0,8,3.0,,,,,,,,,,,,,,,,,T3,cue2.png,Hard,0.0,1.0516521999961697,,,,,,,,,,,,,,,,,,,,,,43,22,Female,0.14285714285714285,1.5,0.6,1.0,2.2777777777777777,1.375,3.6666666666666665,3.5555555555555554,2.5,3.5555555555555554,0.75,1.25,0.75,2.25,,,,,,,,,,,,,,,,,,,,,,,,,,,,,,,-1.2194383952311685,2.6608755775772274e-05,0.23505469528997483,,,,,
0,240715_100700,LEARNINGCHECK,9.0,1,,,,,,,,,,,,1.0,1.0,1.0,,,A,,,,,,,,,,,,,,,cue1.png,Easy,Left,Left,Easy,0.0138218000065535,1.0,,,,,,43,22,Female,0.14285714285714285,1.5,0.6,1.0,2.2777777777777777,1.375,3.6666666666666665,3.5555555555555554,2.5,3.5555555555555554,0.75,1.25,0.75,2.25,,,,,,,,,,,,,,,,,,,,,,,,,,,,,,,,,,,,,,
1,240715_103114,LEARNINGCHECK,9.0,1,,,,,,,,,,,,1.0,1.0,1.0,,,A,,,,,,,,,,,,,,,cue1.png,Easy,Middle,Middle,Mid,0.0146087000030092,1.0,,,,,,43,22,Female,0.14285714285714285,1.5,0.6,1.0,2.2777777777777777,1.375,3.6666666666666665,3.5555555555555554,2.5,3.5555555555555554,0.75,1.25,0.75,2.25,,,,,,,,,,,,,,,,,,,,,,,,,,,,,,,,,,,,,,
2,240715_100705,LEARNINGCHECK,9.0,2,,,,,,,,,,,,2.0,2.0,2.0,,,A,,,,,,,,,,,,,,,cue2.png,Hard,Right,Right,Hard,0.0147814999800175,1.0,,,,,,43,22,Female,0.14285714285714285,1.5,0.6,1.0,2.2777777777777777,1.375,3.6666666666666665,3.5555555555555554,2.5,3.5555555555555554,0.75,1.25,0.75,2.25,,,,,,,,,,,,,,,,,,,,,,,,,,,,,,,,,,,,,,
3,240715_103120,LEARNINGCHECK,9.0,2,,,,,,,,,,,,2.0,2.0,2.0,,,A,,,,,,,,,,,,,,,cue2.png,Hard,Middle,Middle,Mid,0.0150344999856315,1.0,,,,,,43,22,Female,0.14285714285714285,1.5,0.6,1.0,2.2777777777777777,1.375,3.6666666666666665,3.5555555555555554,2.5,3.5555555555555554,0.75,1.25,0.75,2.25,,,,,,,,,,,,,,,,,,,,,,,,,,,,,,,,,,,,,,
0,240715_103134,DEMANDRATING,9.0,-1,,,,,,,,,,,,,,,,,,,,,,,,,,,,,,,,,,,,,,,1.0,MentalDemand,1.0,91.0,3.810003200022038,43,22,Female,0.14285714285714285,1.5,0.6,1.0,2.2777777777777777,1.375,3.6666666666666665,3.5555555555555554,2.5,3.5555555555555554,0.75,1.25,0.75,2.25,,,,,,,,,,,,,,,,,,,,,,,,,,,,,,,,,,,,,,0.9189917253582703
1,240715_103146,DEMANDRATING,9.0,-1,,,,,,,,,,,,,,,,,,,,,,,,,,,,,,,,,,,,,,,2.0,Effort,1.0,39.0,10.252409899956549,43,22,Female,0.14285714285714285,1.5,0.6,1.0,2.2777777777777777,1.375,3.6666666666666665,3.5555555555555554,2.5,3.5555555555555554,0.75,1.25,0.75,2.25,,,,,,,,,,,,,,,,,,,,,,,,,,,,,,,,,,,,,,-1.3327785755195851
2,240715_103153,DEMANDRATING,9.0,-1,,,,,,,,,,,,,,,,,,,,,,,,,,,,,,,,,,,,,,,3.0,Frustration,1.0,56.0,6.015435999957845,43,22,Female,0.14285714285714285,1.5,0.6,1.0,2.2777777777777777,1.375,3.6666666666666665,3.5555555555555554,2.5,3.5555555555555554,0.75,1.25,0.75,2.25,,,,,,,,,,,,,,,,,,,,,,,,,,,,,,,,,,,,,,-0.5966229002325939
3,240715_103204,DEMANDRATING,9.0,-1,,,,,,,,,,,,,,,,,,,,,,,,,,,,,,,,,,,,,,,4.0,MentalDemand,2.0,66.0,8.823435900034383,43,22,Female,0.14285714285714285,1.5,0.6,1.0,2.2777777777777777,1.375,3.6666666666666665,3.5555555555555554,2.5,3.5555555555555554,0.75,1.25,0.75,2.25,,,,,,,,,,,,,,,,,,,,,,,,,,,,,,,,,,,,,,-0.16359015006377556
4,240715_103212,DEMANDRATING,9.0,-1,,,,,,,,,,,,,,,,,,,,,,,,,,,,,,,,,,,,,,,5.0,Effort,2.0,69.0,6.952737100014929,43,22,Female,0.14285714285714285,1.5,0.6,1.0,2.2777777777777777,1.375,3.6666666666666665,3.5555555555555554,2.5,3.5555555555555554,0.75,1.25,0.75,2.25,,,,,,,,,,,,,,,,,,,,,,,,,,,,,,,,,,,,,,-0.03368032501313004
5,240715_103216,DEMANDRATING,9.0,-1,,,,,,,,,,,,,,,,,,,,,,,,,,,,,,,,,,,,,,,6.0,Frustration,2.0,100.0,2.31569680001121,43,22,Female,0.14285714285714285,1.5,0.6,1.0,2.2777777777777777,1.375,3.6666666666666665,3.5555555555555554,2.5,3.5555555555555554,0.75,1.25,0.75,2.25,,,,,,,,,,,,,,,,,,,,,,,,,,,,,,,,,,,,,,1.308721200510207
6,240715_103220,DEMANDRATING,9.0,-1,,,,,,,,,,,,,,,,,,,,,,,,,,,,,,,,,,,,,,,7.0,MentalDemand,3.0,100.0,2.32768639997812,43,22,Female,0.14285714285714285,1.5,0.6,1.0,2.2777777777777777,1.375,3.6666666666666665,3.5555555555555554,2.5,3.5555555555555554,0.75,1.25,0.75,2.25,,,,,,,,,,,,,,,,,,,,,,,,,,,,,,,,,,,,,,1.308721200510207
7,240715_103227,DEMANDRATING,9.0,-1,,,,,,,,,,,,,,,,,,,,,,,,,,,,,,,,,,,,,,,8.0,Effort,3.0,74.0,5.380095499975141,43,22,Female,0.14285714285714285,1.5,0.6,1.0,2.2777777777777777,1.375,3.6666666666666665,3.5555555555555554,2.5,3.5555555555555554,0.75,1.25,0.75,2.25,,,,,,,,,,,,,,,,,,,,,,,,,,,,,,,,,,,,,,0.18283605007127915
8,240715_103232,DEMANDRATING,9.0,-1,,,,,,,,,,,,,,,,,,,,,,,,,,,,,,,,,,,,,,,9.0,Frustration,3.0,33.0,4.044082899985369,43,22,Female,0.14285714285714285,1.5,0.6,1.0,2.2777777777777777,1.375,3.6666666666666665,3.5555555555555554,2.5,3.5555555555555554,0.75,1.25,0.75,2.25,,,,,,,,,,,,,,,,,,,,,,,,,,,,,,,,,,,,,,-1.5925982256208762
