,END,Phase,Block,TrialN,NbackLevel,ISI,Letter_Resp,Letter_RT,Letter_Accuracy,Trial_A_measure,Trial_ACC,Trial_RT,TrialCountCali,CaliEnd_A_measure,ISI_calibrated,TrialIndex,TrialNumber_total,TrialNumber_valid,CueLearning,TrialDemandLearning,CueMapping,OfflineRatingTimePoint,CueFigure,TrialDemand,OfflineRating,OfflineRatingRT,PhaseType,CueLeft,CueDemandLeft,CueRight,CueDemandRight,Choice,ChoiceDemand,TaskDemand,ChoiceRT,CueCheck,CueDemandCheck,CorrectAnswer,Answer,AnswerDemand,AnswerRT,AnswerACC,DemandRatingQuesIndex,QuesTLX,DemandLevel,DemandRating,DemandRatingRT,PID,Age,Gender,BAI_bis,BAI_bas_d,BAI_bas_rr,BAI_bas_fs,NFC,BFI_ext,BFI_agr,BFI_con,BFI_neu,BFI_open,UPPS_lps,UPPS_lpm,UPPS_pu,UPPS_ss,Task_A_measure,Task_ACC,Task_RT,Task_RT_z,cue_i_on_zyg_values,cue_i_on_zyg_zvalues,cue_e_on_zyg_values,cue_e_on_zyg_zvalues,cue_i_on_cor_values,cue_i_on_cor_zvalues,cue_e_on_cor_values,cue_e_on_cor_zvalues,cue_i_on_scr_values,cue_i_on_scr_zvalues,cue_e_on_scr_values,cue_e_on_scr_zvalues,cue_e_true_zyg_values,cue_e_true_zyg_zvalues,cue_e_true_cor_values,cue_e_true_cor_zvalues,cue_e_true_scr_values,cue_e_true_scr_zvalues,cue_e_false_zyg_values,cue_e_false_zyg_zvalues,cue_e_false_cor_values,cue_e_false_cor_zvalues,cue_e_false_scr_values,cue_e_false_scr_zvalues,OfflineRating_z,cue_i_off_zyg_values,cue_i_off_zyg_zvalues,cue_i_off_cor_values,cue_i_off_cor_zvalues,cue_i_off_scr_values,cue_i_off_scr_zvalues,DemandRating_z
0,240715_093244,PRACTICE,0.0,1,3.0,303.0,,,,,,,,,,2.0,1.0,1.0,cue2.png,Hard,A,,,,,,,,,,,,,,,,,,,,,,,,,,,43,22,Female,0.14285714285714285,1.5,0.6,1.0,2.2777777777777777,1.375,3.6666666666666665,3.5555555555555554,2.5,3.5555555555555554,0.75,1.25,0.75,2.25,,,,,,,,,,,,,,,,,,,,,,,,,,,,,,,,,,,,
0,240715_093612,LEARNING,1.0,1,1.0,303.0,,,,,,,,,,1.0,1.0,1.0,cue1.png,Easy,A,,,,,,,,,,,,,,,,,,,,,,,,,,,43,22,Female,0.14285714285714285,1.5,0.6,1.0,2.2777777777777777,1.375,3.6666666666666665,3.5555555555555554,2.5,3.5555555555555554,0.75,1.25,0.75,2.25,1.0,0.9473684210526316,0.5383859555586241,1.019669302802524,,,,,,,,,,,,,,,,,,,,,,,,,,,,,,,,
1,240715_093644,LEARNING,1.0,2,3.0,303.0,,,,,,,,,,2.0,2.0,2.0,cue2.png,Hard,A,,,,,,,,,,,,,,,,,,,,,,,,,,,43,22,Female,0.14285714285714285,1.5,0.6,1.0,2.2777777777777777,1.375,3.6666666666666665,3.5555555555555554,2.5,3.5555555555555554,0.75,1.25,0.75,2.25,0.8535714285714285,0.7180451127819549,0.5945776333333924,2.010541091008662,0.011812462283848225,-0.3204539951250053,0.0208761591237797,0.35335147818521356,,,,,7.075866581713206e+43,-0.17102035607380417,1.7594577126661824e+43,-0.20583672350177862,,,,,,,,,,,,,,,,,,,,
2,240715_093716,LEARNING,1.0,3,1.0,303.0,,,,,,,,,,3.0,3.0,3.0,cue1.png,Easy,A,,,,,,,,,,,,,,,,,,,,,,,,,,,43,22,Female,0.14285714285714285,1.5,0.6,1.0,2.2777777777777777,1.375,3.6666666666666665,3.5555555555555554,2.5,3.5555555555555554,0.75,1.25,0.75,2.25,0.95,0.8947368421052632,0.5619330588276225,1.4348937852739088,0.008312743229511315,-0.5913916753175132,0.01307803766000518,-0.18773131148020428,0.01467023635219179,-1.728369049690035,0.015360670715065437,-1.288290355803881,-3.621795727499638e+43,-0.17174106439383072,-6.149422131413463e+43,-0.21042443329501076,,,,,,,,,,,,,,,,,,,,
3,240715_093749,LEARNING,1.0,4,3.0,303.0,,,,,,,,,,4.0,4.0,4.0,cue2.png,Hard,A,,,,,,,,,,,,,,,,,,,,,,,,,,,43,22,Female,0.14285714285714285,1.5,0.6,1.0,2.2777777777777777,1.375,3.6666666666666665,3.5555555555555554,2.5,3.5555555555555554,0.75,1.25,0.75,2.25,0.9166666666666666,0.7894736842105263,0.6541466333243685,3.0609678424450446,0.018003748207229386,0.15885666365793166,0.012077401225480643,-0.2571617705912281,,,,,-4.973964358651072e+43,-0.17183216085531752,-5.907652862024015e+43,-0.21028419001571616,,,,,,,,,,,,,,,,,,,,
4,240715_093820,LEARNING,1.0,5,3.0,303.0,,,,,,,,,,5.0,5.0,5.0,cue2.png,Hard,A,,,,,,,,,,,,,,,,,,,,,,,,,,,43,22,Female,0.14285714285714285,1.5,0.6,1.0,2.2777777777777777,1.375,3.6666666666666665,3.5555555555555554,2.5,3.5555555555555554,0.75,1.25,0.75,2.25,0.013095238095238,0.575187969924812,0.4705016866675578,-0.17738708652210475,0.042230705250636165,2.03443451363705,0.018341537676163408,0.17748347587299956,,,,,8.909592103578351e+47,5.830951857959334,1.0051902741090965e+47,5.623957340072867,,,,,,,,,,,,,,,,,,,,
5,240715_093850,LEARNING,1.0,6,1.0,303.0,,,,,,,,,,6.0,6.0,6.0,cue1.png,Easy,A,,,,,,,,,,,,,,,,,,,,,,,,,,,43,22,Female,0.14285714285714285,1.5,0.6,1.0,2.2777777777777777,1.375,3.6666666666666665,3.5555555555555554,2.5,3.5555555555555554,0.75,1.25,0.75,2.25,1.0,1.0,0.5327618894639032,0.9204957481241496,0.007320101190839602,-0.668239024217133,0.006181060245725425,-0.6662870504378213,0.015481448096223496,-1.5657377782220252,0.015573838432550316,-1.2550338575617852,-7.411894568829384e+42,-0.17154699611555219,,,,,,,,,,,,,,,,,,,,,,
6,240715_093922,LEARNING,1.0,7,3.0,303.0,,,,,,,,,,7.0,7.0,7.0,cue2.png,Hard,A,,,,,,,,,,,,,,,,,,,,,,,,,,,43,22,Female,0.14285714285714285,1.5,0.6,1.0,2.2777777777777777,1.375,3.6666666666666665,3.5555555555555554,2.5,3.5555555555555554,0.75,1.25,0.75,2.25,0.8269230769230769,0.8461538461538461,0.5750353684293499,1.6659370546479317,0.010892330190833514,-0.39168784300863696,0.00821189527887957,-0.5253749230499734,0.018826810408699463,-0.8950614345892794,0.021490721082557403,-0.3319353707442129,,,5.414297571754138e+42,-0.2065432658807248,,,,,,,,,,,,,,,,,,,,
7,240715_093952,LEARNING,1.0,8,3.0,303.0,,,,,,,,,,8.0,8.0,8.0,cue2.png,Hard,A,,,,,,,,,,,,,,,,,,,,,,,,,,,43,22,Female,0.14285714285714285,1.5,0.6,1.0,2.2777777777777777,1.375,3.6666666666666665,3.5555555555555554,2.5,3.5555555555555554,0.75,1.25,0.75,2.25,0.6625000000000001,0.7330827067669172,0.5106593388934724,0.5307441928240245,0.00928168641147415,-0.5163790203348126,0.00977739866687532,-0.41675043645504445,0.019007211389635105,-0.8588947480003671,0.0502102389186947,4.148623907651627,,,2.0492258830530346e+43,-0.2056686374644056,,,,,,,,,,,,,,,,,,,,
8,240715_094022,LEARNING,1.0,9,1.0,303.0,,,,,,,,,,9.0,9.0,9.0,cue1.png,Easy,A,,,,,,,,,,,,,,,,,,,,,,,,,,,43,22,Female,0.14285714285714285,1.5,0.6,1.0,2.2777777777777777,1.375,3.6666666666666665,3.5555555555555554,2.5,3.5555555555555554,0.75,1.25,0.75,2.25,0.9262820512820512,0.9230769230769232,0.5156983894810668,0.6196017116652387,0.013455548594301817,-0.19325121501650025,0.008615018356931441,-0.49740370451175403,0.020335200277050897,-0.5926602872140393,0.024407517848705627,0.12311686545022797,,,2.080479383272738e+46,0.9999678844690308,,,,,,,,,,,,,,,,,,,,
9,240715_094053,LEARNING,1.0,10,1.0,303.0,,,,,,,,,,10.0,10.0,10.0,cue1.png,Easy,A,,,,,,,,,,,,,,,,,,,,,,,,,,,43,22,Female,0.14285714285714285,1.5,0.6,1.0,2.2777777777777777,1.375,3.6666666666666665,3.5555555555555554,2.5,3.5555555555555554,0.75,1.25,0.75,2.25,0.8071428571428572,0.8045112781954888,0.5266498777782544,0.8127178673359905,0.03711636146859974,1.638497463120157,,,0.0169980337498268,-1.2616935444565833,0.022154094551325172,-0.22844184527878583,2.059749801058661e+43,-0.1713582950546345,2.7769638289791103e+43,-0.20524649797471153,,,,,,,,,,,,,,,,,,,,
10,240715_094123,LEARNING,1.0,11,3.0,303.0,,,,,,,,,,11.0,11.0,11.0,cue2.png,Hard,A,,,,,,,,,,,,,,,,,,,,,,,,,,,43,22,Female,0.14285714285714285,1.5,0.6,1.0,2.2777777777777777,1.375,3.6666666666666665,3.5555555555555554,2.5,3.5555555555555554,0.75,1.25,0.75,2.25,0.8535714285714285,0.8233082706766918,0.5097970294163507,0.5155384156089816,0.009577259576593994,-0.49349663850890907,0.010452427294616786,-0.3699126980716285,0.0171277633178818,-1.235685434052605,0.025828180765317503,0.34475583755333217,,,,,,,,,,,,,,,,,,,,,,,,
11,240715_094155,LEARNING,1.0,12,1.0,303.0,,,,,,,,,,12.0,12.0,12.0,cue1.png,Easy,A,,,,,,,,,,,,,,,,,,,,,,,,,,,43,22,Female,0.14285714285714285,1.5,0.6,1.0,2.2777777777777777,1.375,3.6666666666666665,3.5555555555555554,2.5,3.5555555555555554,0.75,1.25,0.75,2.25,0.9178571428571428,0.7706766917293233,0.5561523687429144,1.3329583573221175,0.009294340716266804,-0.5153993622731972,0.016084442401083535,0.020871987624941694,0.02441227197928041,0.224708740882665,0.017494115799128025,-0.9554495601859039,,,,,,,,,,,,,,,,,,,,,,,,
12,240715_094226,LEARNING,1.0,13,1.0,303.0,,,,,,,,,,13.0,13.0,13.0,cue1.png,Easy,A,,,,,,,,,,,,,,,,,,,,,,,,,,,43,22,Female,0.14285714285714285,1.5,0.6,1.0,2.2777777777777777,1.375,3.6666666666666665,3.5555555555555554,2.5,3.5555555555555554,0.75,1.25,0.75,2.25,0.95,0.8421052631578947,0.503958356257499,0.41258052677618995,,,0.017227672045159403,0.10019646184842496,0.02603168603414036,0.5493679543527612,0.023924246520199144,0.047721246092098914,-8.000020732335625e+42,-0.1715509583589565,8.473204341723057e+42,-0.20636582764899244,,,,,,,,,,,,,,,,,,,,
13,240715_094256,LEARNING,1.0,14,1.0,303.0,,,,,,,,,,14.0,14.0,14.0,cue1.png,Easy,A,,,,,,,,,,,,,,,,,,,,,,,,,,,43,22,Female,0.14285714285714285,1.5,0.6,1.0,2.2777777777777777,1.375,3.6666666666666665,3.5555555555555554,2.5,3.5555555555555554,0.75,1.25,0.75,2.25,0.9178571428571428,0.9285714285714286,0.5246165842032305,0.7768632119774587,0.011422690825492566,-0.35062892433861376,0.00974393681620377,-0.4190722304400238,0.025618428883871832,0.4665183946836768,0.03134506252377755,1.205449805039714,,,-8.950498157147563e+42,-0.2073765256512926,,,,,,,,,,,,,,,,,,,,
14,240715_094328,LEARNING,1.0,15,3.0,303.0,,,,,,,,,,15.0,15.0,15.0,cue2.png,Hard,A,,,,,,,,,,,,,,,,,,,,,,,,,,,43,22,Female,0.14285714285714285,1.5,0.6,1.0,2.2777777777777777,1.375,3.6666666666666665,3.5555555555555554,2.5,3.5555555555555554,0.75,1.25,0.75,2.25,0.9,0.8421052631578947,0.5916998500069894,1.9597948875916293,0.023905239427108323,0.6157322916627067,0.008402908653883401,-0.5121212118464994,0.02413480769946539,0.1690828590518558,0.030419483197847562,1.061049294545463,,,,,,,,,,,,,,,,,,,,,,,,
15,240715_094357,LEARNING,1.0,16,1.0,303.0,,,,,,,,,,16.0,16.0,16.0,cue1.png,Easy,A,,,,,,,,,,,,,,,,,,,,,,,,,,,43,22,Female,0.14285714285714285,1.5,0.6,1.0,2.2777777777777777,1.375,3.6666666666666665,3.5555555555555554,2.5,3.5555555555555554,0.75,1.25,0.75,2.25,0.9178571428571428,0.9285714285714286,0.4602066526299734,-0.35892747097819755,,,,,0.024049590578961215,0.15199857894817076,0.027976858697708395,0.679973124319357,,,,,,,,,,,,,,,,,,,,,,,,
16,240715_094427,LEARNING,1.0,17,1.0,303.0,,,,,,,,,,17.0,17.0,17.0,cue1.png,Easy,A,,,,,,,,,,,,,,,,,,,,,,,,,,,43,22,Female,0.14285714285714285,1.5,0.6,1.0,2.2777777777777777,1.375,3.6666666666666665,3.5555555555555554,2.5,3.5555555555555554,0.75,1.25,0.75,2.25,1.0,1.0,0.4844285263159116,0.06819576583082716,0.02032405853909816,0.3384880823182921,0.010743184638772016,-0.3497381219737756,0.024289889828205027,0.20017363647766573,0.026407485565677846,0.43513373014482176,2.6175049084658112e+42,-0.17147942741279054,,,,,,,,,,,,,,,,,,,,,,
17,240715_094456,LEARNING,1.0,18,3.0,303.0,,,,,,,,,,18.0,18.0,18.0,cue2.png,Hard,A,,,,,,,,,,,,,,,,,,,,,,,,,,,43,22,Female,0.14285714285714285,1.5,0.6,1.0,2.2777777777777777,1.375,3.6666666666666665,3.5555555555555554,2.5,3.5555555555555554,0.75,1.25,0.75,2.25,0.9262820512820512,0.9230769230769232,0.4762656999978629,-0.07574573281958216,0.01129914504590151,-0.3601934654918515,0.010196321048715113,-0.3876829626958654,0.026666005971226453,0.6765360564479244,0.027093237131556834,0.5421184838131942,,,,,,,,,,,,,,,,,,,,,,,,
18,240715_094524,LEARNING,1.0,19,3.0,303.0,,,,,,,,,,19.0,19.0,19.0,cue2.png,Hard,A,,,,,,,,,,,,,,,,,,,,,,,,,,,43,22,Female,0.14285714285714285,1.5,0.6,1.0,2.2777777777777777,1.375,3.6666666666666665,3.5555555555555554,2.5,3.5555555555555554,0.75,1.25,0.75,2.25,0.9178571428571428,0.8759398496240602,0.4158220277782271,-1.1415962635348156,0.04030805196747414,1.8855885027811508,0.011077314507009835,-0.3265540869396317,0.026646477866315292,0.6726210730241406,0.018351452245704197,-0.821695686171338,,,,,,,,,,,,,,,,,,,,,,,,
19,240715_094555,LEARNING,1.0,20,3.0,303.0,,,,,,,,,,20.0,20.0,20.0,cue2.png,Hard,A,,,,,,,,,,,,,,,,,,,,,,,,,,,43,22,Female,0.14285714285714285,1.5,0.6,1.0,2.2777777777777777,1.375,3.6666666666666665,3.5555555555555554,2.5,3.5555555555555554,0.75,1.25,0.75,2.25,0.8535714285714285,0.8759398496240602,0.5057169444496847,0.4435910873380916,0.011946353773646435,-0.31008852033110956,0.05523828781137319,2.737612423016115,0.026278284026020896,0.5988057802423014,,,5.93110740918572e+42,-0.17145710346179546,,,,,,,,,,,,,,,,,,,,,,
20,240715_094624,LEARNING,1.0,21,1.0,303.0,,,,,,,,,,21.0,21.0,21.0,cue1.png,Easy,A,,,,,,,,,,,,,,,,,,,,,,,,,,,43,22,Female,0.14285714285714285,1.5,0.6,1.0,2.2777777777777777,1.375,3.6666666666666665,3.5555555555555554,2.5,3.5555555555555554,0.75,1.25,0.75,2.25,0.6625000000000001,0.7857142857142857,0.4807526947299361,0.003376953491046069,0.00848718903085732,-0.5778866081957855,0.009018673332641468,-0.4693955795634424,0.025347347931719305,0.4121722387710215,0.02936713733730273,0.8968718164816539,2.5718388126125098e+42,-0.17147973506818545,7.531144462609886e+42,-0.20642047378622586,,,,,,,,,,,,,,,,,,,,
21,240715_094654,LEARNING,1.0,22,3.0,303.0,,,,,,,,,,22.0,22.0,22.0,cue2.png,Hard,A,,,,,,,,,,,,,,,,,,,,,,,,,,,43,22,Female,0.14285714285714285,1.5,0.6,1.0,2.2777777777777777,1.375,3.6666666666666665,3.5555555555555554,2.5,3.5555555555555554,0.75,1.25,0.75,2.25,1.0,0.9473684210526316,0.488107555552334,0.13307096484105174,0.01646307718827665,0.03958256612784546,0.056298079460701325,2.8111474435651567,0.023037047884324664,-0.050995407586066153,0.024626888204183742,0.15734104314187763,-8.71068803553675e+41,-0.17150293015597504,3.2948579007980796e+42,-0.20666620837481126,,,,,,,,,,,,,,,,,,,,
22,240715_094723,LEARNING,1.0,23,3.0,303.0,,,,,,,,,,23.0,23.0,23.0,cue2.png,Hard,A,,,,,,,,,,,,,,,,,,,,,,,,,,,43,22,Female,0.14285714285714285,1.5,0.6,1.0,2.2777777777777777,1.375,3.6666666666666665,3.5555555555555554,2.5,3.5555555555555554,0.75,1.25,0.75,2.25,0.8071428571428572,0.8571428571428572,0.4710920684156008,-0.16697642356321546,0.017141363851099076,0.09209347116832028,,,,,,,-3.8374712097407796e+42,-0.17152291499783012,-1.3482681804326262e+42,-0.2069355425335546,,,,,,,,,,,,,,,,,,,,
23,240715_094753,LEARNING,1.0,24,3.0,303.0,,,,,,,,,,24.0,24.0,24.0,cue2.png,Hard,A,,,,,,,,,,,,,,,,,,,,,,,,,,,43,22,Female,0.14285714285714285,1.5,0.6,1.0,2.2777777777777777,1.375,3.6666666666666665,3.5555555555555554,2.5,3.5555555555555554,0.75,1.25,0.75,2.25,0.8071428571428572,0.8571428571428572,0.5148607473667269,0.6048309133445408,0.07249429027172834,4.377349871303384,0.013316543233466536,-0.17118229238134602,,,0.02612072952793613,0.39039664810638336,-5.220846029435873e+42,-0.17153223488205763,-5.263569843056219e+42,-0.2071626577273013,,,,,,,,,,,,,,,,,,,,
24,240715_094822,LEARNING,1.0,25,1.0,303.0,,,,,,,,,,25.0,25.0,25.0,cue1.png,Easy,A,,,,,,,,,,,,,,,,,,,,,,,,,,,43,22,Female,0.14285714285714285,1.5,0.6,1.0,2.2777777777777777,1.375,3.6666666666666665,3.5555555555555554,2.5,3.5555555555555554,0.75,1.25,0.75,2.25,1.0,1.0,0.4784165631648839,-0.03781788092244928,,,0.008197251821197113,-0.5263909783871439,,,,,-5.336671789586038e+42,-0.17153301520757736,-7.268434937962154e+42,-0.20727895408546249,,,,,,,,,,,,,,,,,,,,
25,240715_094851,LEARNING,1.0,26,1.0,303.0,,,,,,,,,,26.0,26.0,26.0,cue1.png,Easy,A,,,,,,,,,,,,,,,,,,,,,,,,,,,43,22,Female,0.14285714285714285,1.5,0.6,1.0,2.2777777777777777,1.375,3.6666666666666665,3.5555555555555554,2.5,3.5555555555555554,0.75,1.25,0.75,2.25,0.725,0.8045112781954888,0.4346784444383552,-0.809086325496074,0.00703326869644057,-0.6904447297122641,0.02304278824879067,0.5036858550703665,,,,,-3.78719435876855e+42,-0.17152257627948445,-6.973638167875061e+42,-0.20726185378736964,,,,,,,,,,,,,,,,,,,,
26,240715_094920,LEARNING,1.0,27,3.0,303.0,,,,,,,,,,27.0,27.0,27.0,cue2.png,Hard,A,,,,,,,,,,,,,,,,,,,,,,,,,,,43,22,Female,0.14285714285714285,1.5,0.6,1.0,2.2777777777777777,1.375,3.6666666666666665,3.5555555555555554,2.5,3.5555555555555554,0.75,1.25,0.75,2.25,0.8071428571428572,0.8571428571428572,0.4730442789518029,-0.13255156882378236,0.007641630022973791,-0.6433472330359266,0.00705481232020006,-0.6056606275064906,,,,,1.084566630597068e+43,-0.17142399376564135,-2.9047912734325626e+42,-0.20702583188398,,,,,,,,,,,,,,,,,,,,
27,240715_094949,LEARNING,1.0,28,1.0,303.0,,,,,,,,,,28.0,28.0,28.0,cue1.png,Easy,A,,,,,,,,,,,,,,,,,,,,,,,,,,,43,22,Female,0.14285714285714285,1.5,0.6,1.0,2.2777777777777777,1.375,3.6666666666666665,3.5555555555555554,2.5,3.5555555555555554,0.75,1.25,0.75,2.25,0.8071428571428572,0.8571428571428572,0.4151595105282276,-1.1532789481995398,0.00782301472573357,-0.6293049771219148,0.008718921506846267,-0.49019424945618656,0.02845788968037495,1.0357718886281886,,,1.0592776032904478e+42,-0.17148992528934406,-1.0191484534025976e+42,-0.20691645126115435,,,,,,,,,,,,,,,,,,,,
28,240715_095017,LEARNING,1.0,29,1.0,303.0,,,,,,,,,,29.0,29.0,29.0,cue1.png,Easy,A,,,,,,,,,,,,,,,,,,,,,,,,,,,43,22,Female,0.14285714285714285,1.5,0.6,1.0,2.2777777777777777,1.375,3.6666666666666665,3.5555555555555554,2.5,3.5555555555555554,0.75,1.25,0.75,2.25,0.9262820512820512,0.9230769230769232,0.4276627421066606,-0.9327996900051805,0.024874469857215347,0.6907671845292539,0.006587325080302801,-0.6380978370410753,0.020088264074713088,-0.6421659173446973,0.019400931466529464,-0.6579654352952067,3.2857752880333216e+42,-0.17147492523270053,,,,,,,,,,,,,,,,,,,,,,
29,240715_095046,LEARNING,1.0,30,3.0,303.0,,,,,,,,,,30.0,30.0,30.0,cue2.png,Hard,A,,,,,,,,,,,,,,,,,,,,,,,,,,,43,22,Female,0.14285714285714285,1.5,0.6,1.0,2.2777777777777777,1.375,3.6666666666666665,3.5555555555555554,2.5,3.5555555555555554,0.75,1.25,0.75,2.25,0.8717948717948717,0.8704453441295548,0.4494274611222661,-0.5490053826481409,0.00798743528616299,-0.616576033876172,0.020749132694325777,0.3445375843353353,0.02684252233414592,0.7119239570148318,0.019683676832117088,-0.6138540620320739,4.531617040436066e+42,-0.17146653191750288,4.9236195008982606e+42,-0.2065717286799501,,,,,,,,,,,,,,,,,,,,
30,240715_095114,LEARNING,1.0,31,3.0,303.0,,,,,,,,,,31.0,31.0,31.0,cue2.png,Hard,A,,,,,,,,,,,,,,,,,,,,,,,,,,,43,22,Female,0.14285714285714285,1.5,0.6,1.0,2.2777777777777777,1.375,3.6666666666666665,3.5555555555555554,2.5,3.5555555555555554,0.75,1.25,0.75,2.25,0.9178571428571428,0.8759398496240602,0.4143081444360885,-1.1682917521509948,0.0061098521170159775,-0.7619328526147475,,,0.022007013984203544,-0.25749602109950076,0.026844554585617506,0.5033212834235159,,,,,,,,,,,,,,,,,,,,,,,,
31,240715_095142,LEARNING,1.0,32,1.0,303.0,,,,,,,,,,32.0,32.0,32.0,cue1.png,Easy,A,,,,,,,,,,,,,,,,,,,,,,,,,,,43,22,Female,0.14285714285714285,1.5,0.6,1.0,2.2777777777777777,1.375,3.6666666666666665,3.5555555555555554,2.5,3.5555555555555554,0.75,1.25,0.75,2.25,1.0,1.0,0.3871100631536376,-1.6478967844858583,0.010777527165921248,-0.40057554649736904,0.07302134571567805,3.9715130007823847,0.025993195370182784,0.5416513678201781,0.025678704288594933,0.3214358703274719,3.5614368837125994e+42,-0.17147306808298152,5.903856754934009e+42,-0.20651486798489987,,,,,,,,,,,,,,,,,,,,
32,240715_095209,LEARNING,1.0,33,1.0,303.0,,,,,,,,,,33.0,33.0,33.0,cue1.png,Easy,A,,,,,,,,,,,,,,,,,,,,,,,,,,,43,22,Female,0.14285714285714285,1.5,0.6,1.0,2.2777777777777777,1.375,3.6666666666666665,3.5555555555555554,2.5,3.5555555555555554,0.75,1.25,0.75,2.25,0.8269230769230769,0.8461538461538461,0.3884276841999963,-1.6246621423807295,0.007600010203177972,-0.6465693137945336,,,,,0.025429704025021954,0.2825891025077454,1.581727790274868e+42,-0.17148640550917457,,,,,,,,,,,,,,,,,,,,,,
33,240715_095238,LEARNING,1.0,34,1.0,303.0,,,,,,,,,,34.0,34.0,34.0,cue1.png,Easy,A,,,,,,,,,,,,,,,,,,,,,,,,,,,43,22,Female,0.14285714285714285,1.5,0.6,1.0,2.2777777777777777,1.375,3.6666666666666665,3.5555555555555554,2.5,3.5555555555555554,0.75,1.25,0.75,2.25,0.9178571428571428,0.9285714285714286,0.4629514631508898,-0.3105260810063767,,,,,0.02484777048326829,0.3120172345614709,0.018101432511387624,-0.8607015025908819,,,8.781680401284904e+41,-0.2068063934826846,,,,,,,,,,,,,,,,,,,,
34,240715_095309,LEARNING,1.0,35,3.0,303.0,,,,,,,,,,35.0,35.0,35.0,cue2.png,Hard,A,,,,,,,,,,,,,,,,,,,,,,,,,,,43,22,Female,0.14285714285714285,1.5,0.6,1.0,2.2777777777777777,1.375,3.6666666666666665,3.5555555555555554,2.5,3.5555555555555554,0.75,1.25,0.75,2.25,0.9262820512820512,0.8704453441295548,0.5340392444405653,0.9430203471399038,,,,,0.016925490944715446,-1.2762368849813162,0.020208221165568724,-0.5320194019383239,-2.9187164920833346e+42,-0.17151672528880826,-2.5576173292912843e+42,-0.2070056933392696,,,,,,,,,,,,,,,,,,,,
35,240715_095339,LEARNING,1.0,36,3.0,303.0,,,,,,,,,,36.0,36.0,36.0,cue2.png,Hard,A,,,,,,,,,,,,,,,,,,,,,,,,,,,43,22,Female,0.14285714285714285,1.5,0.6,1.0,2.2777777777777777,1.375,3.6666666666666665,3.5555555555555554,2.5,3.5555555555555554,0.75,1.25,0.75,2.25,0.6625000000000001,0.7857142857142857,0.5017816000035964,0.3741960818333156,0.008684647176423681,-0.562599994880763,0.008377043341238231,-0.5139159101705292,0.018723291190190058,-0.9158149089459096,0.02136509707693246,-0.351534091279968,-4.022049341036909e+42,-0.1715241585124511,-4.782430620878872e+42,-0.2071347482487783,,,,,,,,,,,,,,,,,,,,
36,240715_095407,LEARNING,1.0,37,1.0,303.0,,,,,,,,,,37.0,37.0,37.0,cue1.png,Easy,A,,,,,,,,,,,,,,,,,,,,,,,,,,,43,22,Female,0.14285714285714285,1.5,0.6,1.0,2.2777777777777777,1.375,3.6666666666666665,3.5555555555555554,2.5,3.5555555555555554,0.75,1.25,0.75,2.25,0.9178571428571428,0.9285714285714286,0.4166403736943673,-1.1271657301638907,0.009885630312927328,-0.46962350736774694,0.011042674733710112,-0.32895761261661177,0.02625440163319666,0.5940178516413165,0.023055460854725117,-0.0878188314463514,-4.142642414084129e+42,-0.1715249709556613,-5.798035945113599e+42,-0.20719366054209806,,,,,,,,,,,,,,,,,,,,
37,240715_095437,LEARNING,1.0,38,3.0,303.0,,,,,,,,,,38.0,38.0,38.0,cue2.png,Hard,A,,,,,,,,,,,,,,,,,,,,,,,,,,,43,22,Female,0.14285714285714285,1.5,0.6,1.0,2.2777777777777777,1.375,3.6666666666666665,3.5555555555555554,2.5,3.5555555555555554,0.75,1.25,0.75,2.25,0.8535714285714285,0.8759398496240602,0.4882203888975912,0.13506064343780785,,,,,0.02825101013203376,0.9942967938271196,0.021186940882729932,-0.3793284084928223,-2.6941508883921228e+42,-0.17151521237604012,-4.8562050629698715e+42,-0.20713902768830889,,,,,,,,,,,,,,,,,,,,
38,240715_095506,LEARNING,1.0,39,3.0,303.0,,,,,,,,,,39.0,39.0,39.0,cue2.png,Hard,A,,,,,,,,,,,,,,,,,,,,,,,,,,,43,22,Female,0.14285714285714285,1.5,0.6,1.0,2.2777777777777777,1.375,3.6666666666666665,3.5555555555555554,2.5,3.5555555555555554,0.75,1.25,0.75,2.25,0.1607142857142857,0.5902255639097744,0.435003855559949,-0.8033480967631949,0.0078088282677434085,-0.6304032498570477,0.009359869065214316,-0.4457212703519142,0.027329392005141718,0.8095313131900937,0.021222292563438078,-0.37381315918022895,-8.30567589874528e+41,-0.17150265729672012,-2.203886246743439e+42,-0.20698517443414563,,,,,,,,,,,,,,,,,,,,
39,240715_095535,LEARNING,1.0,40,3.0,303.0,,,,,,,,,,40.0,40.0,40.0,cue2.png,Hard,A,,,,,,,,,,,,,,,,,,,,,,,,,,,43,22,Female,0.14285714285714285,1.5,0.6,1.0,2.2777777777777777,1.375,3.6666666666666665,3.5555555555555554,2.5,3.5555555555555554,0.75,1.25,0.75,2.25,0.725,0.6992481203007519,0.433838837503572,-0.8238917710318621,,,0.0061624232190403555,-0.6675802047489809,0.03924269011654758,3.197902578140183,0.023184450262802983,-0.06769507127476342,2.0717483058844015e+42,-0.17148310420976562,1.9300752004013273e+42,-0.2067453754260711,,,,,,,,,,,,,,,,,,,,
40,240715_095604,LEARNING,1.0,41,1.0,303.0,,,,,,,,,,41.0,41.0,41.0,cue1.png,Easy,A,,,,,,,,,,,,,,,,,,,,,,,,,,,43,22,Female,0.14285714285714285,1.5,0.6,1.0,2.2777777777777777,1.375,3.6666666666666665,3.5555555555555554,2.5,3.5555555555555554,0.75,1.25,0.75,2.25,1.0,1.0,0.4557952894737306,-0.43671648657893336,0.015411838291632823,-0.04180117455609786,0.02682916636686365,0.7664086203379095,0.02304179670409141,-0.05004336688606342,0.01558745652531118,-1.252909285964801,3.567481044997547e+42,-0.17147302736308215,4.511900642586774e+42,-0.20659561128628084,,,,,,,,,,,,,,,,,,,,
41,240715_095633,LEARNING,1.0,42,3.0,303.0,,,,,,,,,,42.0,42.0,42.0,cue2.png,Hard,A,,,,,,,,,,,,,,,,,,,,,,,,,,,43,22,Female,0.14285714285714285,1.5,0.6,1.0,2.2777777777777777,1.375,3.6666666666666665,3.5555555555555554,2.5,3.5555555555555554,0.75,1.25,0.75,2.25,0.7019230769230769,0.7692307692307692,0.4458202052597986,-0.6126149456387168,,,0.009340359894454399,-0.4470749395128618,0.03187108312906294,1.7200469800705447,0.023011916114935006,-0.09461228769464593,,,,,,,,,,,,,,,,,,,,,,,,
42,240715_095704,LEARNING,1.0,43,3.0,303.0,,,,,,,,,,43.0,43.0,43.0,cue2.png,Hard,A,,,,,,,,,,,,,,,,,,,,,,,,,,,43,22,Female,0.14285714285714285,1.5,0.6,1.0,2.2777777777777777,1.375,3.6666666666666665,3.5555555555555554,2.5,3.5555555555555554,0.75,1.25,0.75,2.25,0.5224358974358974,0.5303643724696356,0.4350697923084506,-0.8021853825235855,0.00818832727124221,-0.601023583076105,0.009649627458230267,-0.425616007776772,0.01897376813775307,-0.8655994322158208,0.01844276513901578,-0.807449874883741,3.2849179103941295e+42,-0.17147493100890826,,,,,,,,,,,,,,,,,,,,,,
43,240715_095732,LEARNING,1.0,44,1.0,303.0,,,,,,,,,,44.0,44.0,44.0,cue1.png,Easy,A,,,,,,,,,,,,,,,,,,,,,,,,,,,43,22,Female,0.14285714285714285,1.5,0.6,1.0,2.2777777777777777,1.375,3.6666666666666665,3.5555555555555554,2.5,3.5555555555555554,0.75,1.25,0.75,2.25,0.9178571428571428,0.9285714285714286,0.4205611894814003,-1.058026919863609,,,,,0.019580330622789206,-0.7439961284027456,0.033341196984650434,1.5168686398063567,5.504457908405198e+41,-0.17149335332165735,1.523971908155738e+42,-0.20676893228984486,,,,,,,,,,,,,,,,,,,,
44,240715_095801,LEARNING,1.0,45,1.0,303.0,,,,,,,,,,45.0,45.0,45.0,cue1.png,Easy,A,,,,,,,,,,,,,,,,,,,,,,,,,,,43,22,Female,0.14285714285714285,1.5,0.6,1.0,2.2777777777777777,1.375,3.6666666666666665,3.5555555555555554,2.5,3.5555555555555554,0.75,1.25,0.75,2.25,0.8269230769230769,0.7935222672064777,0.4745161333283047,-0.10659720981942701,0.01938511855006884,0.26579818392421006,0.026980847019954464,0.776933179527441,0.01929307485532756,-0.801585002137025,0.013476891674617224,-1.5821805146249828,-2.79621933399914e+42,-0.17151590001765596,-2.497500809430714e+42,-0.2070022061558462,,,,,,,,,,,,,,,,,,,,
45,240715_095830,LEARNING,1.0,46,1.0,303.0,,,,,,,,,,46.0,46.0,46.0,cue1.png,Easy,A,,,,,,,,,,,,,,,,,,,,,,,,,,,43,22,Female,0.14285714285714285,1.5,0.6,1.0,2.2777777777777777,1.375,3.6666666666666665,3.5555555555555554,2.5,3.5555555555555554,0.75,1.25,0.75,2.25,0.9178571428571428,0.9285714285714286,0.421531578957863,-1.0409152835167987,0.009729959040569343,-0.48167510715345596,0.007736826465676062,-0.5583381898989579,0.02087626144842391,-0.48418864970416076,0.018347136049196362,-0.8223690600915027,-4.6008739749971485e+42,-0.17152805809085875,-5.949606461421252e+42,-0.20720245270427196,,,,,,,,,,,,,,,,,,,,
46,240715_095859,LEARNING,1.0,47,3.0,303.0,,,,,,,,,,47.0,47.0,47.0,cue2.png,Hard,A,,,,,,,,,,,,,,,,,,,,,,,,,,,43,22,Female,0.14285714285714285,1.5,0.6,1.0,2.2777777777777777,1.375,3.6666666666666665,3.5555555555555554,2.5,3.5555555555555554,0.75,1.25,0.75,2.25,0.8269230769230769,0.8461538461538461,0.4865349842063886,0.10534058476796658,0.008124146366418368,-0.6059922749041188,0.009270091278651811,-0.4519506187185545,0.02877681788861617,1.0997104353700073,0.02775720223787702,0.6457043112155842,-3.3707610181434976e+42,-0.171519770741558,-4.740765200039499e+42,-0.20713233135962344,,,,,,,,,,,,,,,,,,,,
47,240715_095928,LEARNING,1.0,48,3.0,303.0,,,,,,,,,,48.0,48.0,48.0,cue2.png,Hard,A,,,,,,,,,,,,,,,,,,,,,,,,,,,43,22,Female,0.14285714285714285,1.5,0.6,1.0,2.2777777777777777,1.375,3.6666666666666665,3.5555555555555554,2.5,3.5555555555555554,0.75,1.25,0.75,2.25,0.7019230769230769,0.7692307692307692,0.442072042098612,-0.6787092371973326,0.03376887381230471,1.3793450780320706,,,0.026639659737939487,0.6712541785049879,0.029068937829033602,0.8503494277280683,1.9805355414380895e+42,-0.17148371871596643,1.433177993775824e+42,-0.20677419897916594,,,,,,,,,,,,,,,,,,,,
48,240715_095956,LEARNING,1.0,49,1.0,303.0,,,,,,,,,,49.0,49.0,49.0,cue1.png,Easy,A,,,,,,,,,,,,,,,,,,,,,,,,,,,43,22,Female,0.14285714285714285,1.5,0.6,1.0,2.2777777777777777,1.375,3.6666666666666665,3.5555555555555554,2.5,3.5555555555555554,0.75,1.25,0.75,2.25,0.9178571428571428,0.9285714285714286,0.4299458368485303,-0.8925400953622119,0.016106418319698387,0.011971113616269976,0.011190054084416947,-0.3187315048815659,0.015390924507246051,-1.5838858961228848,0.01856921203261888,-0.7877227748122761,,,,,,,,,,,,,,,,,,,,,,,,
49,240715_100024,LEARNING,1.0,50,1.0,303.0,,,,,,,,,,50.0,50.0,50.0,cue1.png,Easy,A,,,,,,,,,,,,,,,,,,,,,,,,,,,43,22,Female,0.14285714285714285,1.5,0.6,1.0,2.2777777777777777,1.375,3.6666666666666665,3.5555555555555554,2.5,3.5555555555555554,0.75,1.25,0.75,2.25,1.0,1.0,0.4116748526300254,-1.2147266454318275,0.01004172516562533,-0.4575391152713073,0.007292862901060352,-0.5891431786604177,,,,,-6.813406110612968e+41,-0.1715016519450639,-1.4035120392281482e+42,-0.2069387470681664,,,,,,,,,,,,,,,,,,,,
0,240715_100203,TrueCHOICE,9.0,1,1.0,303.0,,,,,,,,,,,1.0,1.0,,,A,,,,,,True,cue1.png,Easy,cue2.png,Hard,Left,Easy,Easy,0.0161238000146113,,,,,,,,,,,,,43,22,Female,0.14285714285714285,1.5,0.6,1.0,2.2777777777777777,1.375,3.6666666666666665,3.5555555555555554,2.5,3.5555555555555554,0.75,1.25,0.75,2.25,0.8269230769230769,0.8461538461538461,0.4887016526313106,2.470676571788178,,,,,,,,,,,,,,,,,11767518.788388224,-0.46892290199538955,,,,,,,,,,,,,,
1,240715_100235,TrueCHOICE,9.0,2,1.0,303.0,,,,,,,,,,,3.0,2.0,,,A,,,,,,True,cue1.png,Easy,cue2.png,Hard,Left,Easy,Easy,0.0159514999832026,,,,,,,,,,,,,43,22,Female,0.14285714285714285,1.5,0.6,1.0,2.2777777777777777,1.375,3.6666666666666665,3.5555555555555554,2.5,3.5555555555555554,0.75,1.25,0.75,2.25,0.9262820512820512,0.9230769230769232,0.4397096210496353,0.7964488238328813,,,,,,,,,,,,,0.009487633965517266,-0.015305129341327528,0.01840743668833401,-0.04843384559449729,3777455.859466408,-0.4704508269746443,,,,,,,,,,,,,,
2,240715_100303,TrueCHOICE,9.0,3,3.0,303.0,,,,,,,,,,,4.0,3.0,,,A,,,,,,True,cue2.png,Hard,cue1.png,Easy,Left,Hard,Hard,0.0161055999924428,,,,,,,,,,,,,43,22,Female,0.14285714285714285,1.5,0.6,1.0,2.2777777777777777,1.375,3.6666666666666665,3.5555555555555554,2.5,3.5555555555555554,0.75,1.25,0.75,2.25,0.0871794871794871,0.6153846153846154,0.4122090894716644,-0.14333978188358468,,,,,,,,,,,,,0.007081341508911229,-0.9977327895141469,0.017166744567701026,-0.5955232240822522,2819454.0802549236,-0.47063402388581377,,,,,,,,,,,,,,
3,240715_100330,TrueCHOICE,9.0,4,1.0,303.0,,,,,,,,,,,5.0,4.0,,,A,,,,,,True,cue1.png,Easy,cue2.png,Hard,Left,Easy,Easy,0.0162882999866269,,,,,,,,,,,,,43,22,Female,0.14285714285714285,1.5,0.6,1.0,2.2777777777777777,1.375,3.6666666666666665,3.5555555555555554,2.5,3.5555555555555554,0.75,1.25,0.75,2.25,1.0,1.0,0.4315548736761373,0.5177728047028126,,,,,,,,,,,,,0.014821823058442336,2.1625078356185377,0.02139589108192783,1.2693400240389399,-42747.29780460884,-0.47118135736993005,,,,,,,,,,,,,,
4,240715_100357,TrueCHOICE,9.0,5,1.0,303.0,,,,,,,,,,,6.0,5.0,,,A,,,,,,True,cue2.png,Hard,cue1.png,Easy,Right,Easy,Easy,0.0165872999932616,,,,,,,,,,,,,43,22,Female,0.14285714285714285,1.5,0.6,1.0,2.2777777777777777,1.375,3.6666666666666665,3.5555555555555554,2.5,3.5555555555555554,0.75,1.25,0.75,2.25,1.0,1.0,0.3982870263127169,-0.6191049971030803,,,,,,,,,,,,,,,,,15152930331.080215,2.4264937025627376,,,,,,,,,,,,,,
5,240715_100422,TrueCHOICE,9.0,6,1.0,303.0,,,,,,,,,,,7.0,6.0,,,A,,,,,,True,cue2.png,Hard,cue1.png,Easy,Right,Easy,Easy,0.0165681999642401,,,,,,,,,,,,,43,22,Female,0.14285714285714285,1.5,0.6,1.0,2.2777777777777777,1.375,3.6666666666666665,3.5555555555555554,2.5,3.5555555555555554,0.75,1.25,0.75,2.25,0.9262820512820512,0.9230769230769232,0.3906369736865407,-0.8805338451538123,,,,,,,,,,,,,0.010511786593759523,0.4028301922658473,0.01770947661516511,-0.35620282090194744,,,,,,,,,,,,,,,,
6,240715_100448,TrueCHOICE,9.0,7,1.0,303.0,,,,,,,,,,,8.0,7.0,,,A,,,,,,True,cue1.png,Easy,cue2.png,Hard,Left,Easy,Easy,0.0160966999828815,,,,,,,,,,,,,43,22,Female,0.14285714285714285,1.5,0.6,1.0,2.2777777777777777,1.375,3.6666666666666665,3.5555555555555554,2.5,3.5555555555555554,0.75,1.25,0.75,2.25,1.0,1.0,0.4026946421210213,-0.4684814681259769,,,,,,,,,,,,,0.0071171272139781885,-0.9831224014875165,0.02136612415499803,1.2562141491480712,,,,,,,,,,,,,,,,
7,240715_100513,TrueCHOICE,9.0,8,1.0,303.0,,,,,,,,,,,9.0,8.0,,,A,,,,,,True,cue2.png,Hard,cue1.png,Easy,Right,Easy,Easy,0.0158428000286221,,,,,,,,,,,,,43,22,Female,0.14285714285714285,1.5,0.6,1.0,2.2777777777777777,1.375,3.6666666666666665,3.5555555555555554,2.5,3.5555555555555554,0.75,1.25,0.75,2.25,0.9262820512820512,0.9230769230769232,0.3829538315706151,-1.1430934759076834,,,,,,,,,,,,,0.00849460168095906,-0.42073481064058305,,,,,,,,,,,,,,,,,,
8,240715_100539,TrueCHOICE,9.0,9,1.0,303.0,,,,,,,,,,,10.0,9.0,,,A,,,,,,True,cue1.png,Easy,cue2.png,Hard,Left,Easy,Easy,0.0161369999987073,,,,,,,,,,,,,43,22,Female,0.14285714285714285,1.5,0.6,1.0,2.2777777777777777,1.375,3.6666666666666665,3.5555555555555554,2.5,3.5555555555555554,0.75,1.25,0.75,2.25,0.9262820512820512,0.8704453441295548,0.4007001277770743,-0.5366409453006262,,,,,,,,,,,,,,,0.015057978174343324,-1.5253942826083078,2075664927.7655547,-0.0742476117194206,,,,,,,,,,,,,,
9,240715_100606,TrueCHOICE,9.0,10,1.0,303.0,,,,,,,,,,,11.0,10.0,,,A,,,,,,True,cue2.png,Hard,cue1.png,Easy,Right,Easy,Easy,0.0166033999994397,,,,,,,,,,,,,43,22,Female,0.14285714285714285,1.5,0.6,1.0,2.2777777777777777,1.375,3.6666666666666665,3.5555555555555554,2.5,3.5555555555555554,0.75,1.25,0.75,2.25,0.9178571428571428,0.9285714285714286,0.4165878105283666,0.0062963131508769745,,,,,,,,,,,,,0.00916153524216557,-0.1484428969008094,,,607662.9592365478,-0.47105698061753926,,,,,,,,,,,,,,
0,240715_100802,FalseCHOICE,9.0,1,2.0,303.0,,,,,,,,,,,1.0,1.0,,,A,,,,,,False,cue1.png,Easy,cue2.png,Hard,Left,Easy,Mid,0.0161558000254444,,,,,,,,,,,,,43,22,Female,0.14285714285714285,1.5,0.6,1.0,2.2777777777777777,1.375,3.6666666666666665,3.5555555555555554,2.5,3.5555555555555554,0.75,1.25,0.75,2.25,1.0,0.8947368421052632,0.4346359000020824,0.056311358007423075,,,,,,,,,,,,,,,,,,,0.01834092641463983,-0.22837820910577736,0.02370188851225393,0.8141202401345297,4.160266382610406e+43,-0.1525727375804264,,,,,,,,
1,240715_100829,FalseCHOICE,9.0,2,2.0,303.0,,,,,,,,,,,2.0,2.0,,,A,,,,,,False,cue2.png,Hard,cue1.png,Easy,Left,Hard,Mid,0.0163424999918788,,,,,,,,,,,,,43,22,Female,0.14285714285714285,1.5,0.6,1.0,2.2777777777777777,1.375,3.6666666666666665,3.5555555555555554,2.5,3.5555555555555554,0.75,1.25,0.75,2.25,0.7019230769230769,0.7692307692307692,0.4732491684293276,1.2011854195881504,,,,,,,,,,,,,,,,,,,0.006544195386545851,-0.586949095658615,0.02541991413760032,1.1639625768837425,7.887092660393113e+42,-0.16627692892386278,,,,,,,,
2,240715_100857,FalseCHOICE,9.0,3,2.0,303.0,,,,,,,,,,,3.0,3.0,,,A,,,,,,False,cue2.png,Hard,cue1.png,Easy,Left,Hard,Mid,0.0161254000267945,,,,,,,,,,,,,43,22,Female,0.14285714285714285,1.5,0.6,1.0,2.2777777777777777,1.375,3.6666666666666665,3.5555555555555554,2.5,3.5555555555555554,0.75,1.25,0.75,2.25,0.9178571428571428,0.8759398496240602,0.4636124777704632,0.9154598743497552,,,,,,,,,,,,,,,,,,,0.02069930862080497,-0.15669333331424173,0.01204551543803829,-1.5594722919803636,-4.301831317019226e+42,-0.17123129691116648,,,,,,,,
3,240715_100924,FalseCHOICE,9.0,4,2.0,303.0,,,,,,,,,,,4.0,4.0,,,A,,,,,,False,cue2.png,Hard,cue1.png,Easy,Right,Easy,Mid,0.0167859999928623,,,,,,,,,,,,,43,22,Female,0.14285714285714285,1.5,0.6,1.0,2.2777777777777777,1.375,3.6666666666666665,3.5555555555555554,2.5,3.5555555555555554,0.75,1.25,0.75,2.25,0.7019230769230769,0.7692307692307692,0.4266459263223958,-0.18058942742651654,,,,,,,,,,,,,,,,,,,0.06274208185580529,1.1212297146989778,0.022565389715414212,0.5826944750392546,-4.722613697938791e+42,-0.17140233011815936,,,,,,,,
4,240715_100951,FalseCHOICE,9.0,5,2.0,303.0,,,,,,,,,,,5.0,5.0,,,A,,,,,,False,cue1.png,Easy,cue2.png,Hard,Left,Easy,Mid,0.0160131999873556,,,,,,,,,,,,,43,22,Female,0.14285714285714285,1.5,0.6,1.0,2.2777777777777777,1.375,3.6666666666666665,3.5555555555555554,2.5,3.5555555555555554,0.75,1.25,0.75,2.25,1.0,0.9473684210526316,0.4700979166599508,1.1077515674637792,,,,,,,,,,,,,,,,,,,0.005496182768110151,-0.6188042606883263,0.016308973914446055,-0.6913023101042157,,,,,,,,,,
5,240715_101021,FalseCHOICE,9.0,6,2.0,303.0,,,,,,,,,,,6.0,6.0,,,A,,,,,,False,cue2.png,Hard,cue1.png,Easy,Right,Easy,Mid,0.0164686000207439,,,,,,,,,,,,,43,22,Female,0.14285714285714285,1.5,0.6,1.0,2.2777777777777777,1.375,3.6666666666666665,3.5555555555555554,2.5,3.5555555555555554,0.75,1.25,0.75,2.25,0.0535714285714285,0.6090225563909775,0.4831280235255904,1.4940910817735762,,,,,,,,,,,,,,,,,,,,,0.014328089144490677,-1.0946707736056809,-6.5214407116885465e+41,-0.1697478276822157,,,,,,,,
6,240715_101049,FalseCHOICE,9.0,7,2.0,303.0,,,,,,,,,,,7.0,7.0,,,A,,,,,,False,cue2.png,Hard,cue1.png,Easy,Right,Easy,Mid,0.0142560000531375,,,,,,,,,,,,,43,22,Female,0.14285714285714285,1.5,0.6,1.0,2.2777777777777777,1.375,3.6666666666666665,3.5555555555555554,2.5,3.5555555555555554,0.75,1.25,0.75,2.25,0.5256410256410255,0.6923076923076923,0.4592587578931431,0.7863731339117129,,,,,,,,,,,,,,,,,,,0.03810752193183116,0.3724429558297614,0.017386386964590064,-0.47190820238799247,,,,,,,,,,
7,240715_101115,FalseCHOICE,9.0,8,2.0,303.0,,,,,,,,,,,8.0,8.0,,,A,,,,,,False,cue1.png,Easy,cue2.png,Hard,Right,Hard,Mid,0.017171099956613,,,,,,,,,,,,,43,22,Female,0.14285714285714285,1.5,0.6,1.0,2.2777777777777777,1.375,3.6666666666666665,3.5555555555555554,2.5,3.5555555555555554,0.75,1.25,0.75,2.25,0.9178571428571428,0.9285714285714286,0.4272887421048884,-0.16153009508491117,,,,,,,,,,,,,,,,,,,0.03801837445823062,0.36973324849077366,0.03888943846941472,3.906767921357144,,,,,,,,,,
8,240715_101142,FalseCHOICE,9.0,9,2.0,303.0,,,,,,,,,,,9.0,9.0,,,A,,,,,,False,cue1.png,Easy,cue2.png,Hard,Right,Hard,Mid,0.0163521000067703,,,,,,,,,,,,,43,22,Female,0.14285714285714285,1.5,0.6,1.0,2.2777777777777777,1.375,3.6666666666666665,3.5555555555555554,2.5,3.5555555555555554,0.75,1.25,0.75,2.25,0.8071428571428572,0.8045112781954888,0.4259559499947095,-0.2010470585167508,,,,,,,,,,,,,,,,,,,0.008950980292306732,-0.5137929818720566,0.02281677644416537,0.6338844685507394,1.4971871724980633e+46,5.916055405108065,,,,,,,,
9,240715_101208,FalseCHOICE,9.0,10,2.0,303.0,,,,,,,,,,,10.0,10.0,,,A,,,,,,False,cue2.png,Hard,cue1.png,Easy,Right,Easy,Mid,0.0165936999837867,,,,,,,,,,,,,43,22,Female,0.14285714285714285,1.5,0.6,1.0,2.2777777777777777,1.375,3.6666666666666665,3.5555555555555554,2.5,3.5555555555555554,0.75,1.25,0.75,2.25,0.8269230769230769,0.8461538461538461,0.4206974789481855,-0.3569594521045134,,,,,,,,,,,,,,,,,,,0.03194566420746245,0.18514846028031715,0.015369090675827457,-0.882691159966949,,,,,,,,,,
10,240715_101235,FalseCHOICE,9.0,11,2.0,303.0,,,,,,,,,,,11.0,11.0,,,A,,,,,,False,cue1.png,Easy,cue2.png,Hard,Left,Easy,Mid,0.0138249000301584,,,,,,,,,,,,,43,22,Female,0.14285714285714285,1.5,0.6,1.0,2.2777777777777777,1.375,3.6666666666666665,3.5555555555555554,2.5,3.5555555555555554,0.75,1.25,0.75,2.25,0.6625000000000001,0.7857142857142857,0.4408616263137542,0.24090263605899692,,,,,,,,,,,,,,,,,,,0.012632195978541707,-0.40189954554109714,0.014807797129326707,-0.9969876192357009,,,,,,,,,,
11,240715_101301,FalseCHOICE,9.0,12,2.0,303.0,,,,,,,,,,,12.0,12.0,,,A,,,,,,False,cue2.png,Hard,cue1.png,Easy,Left,Hard,Mid,0.0149457000079564,,,,,,,,,,,,,43,22,Female,0.14285714285714285,1.5,0.6,1.0,2.2777777777777777,1.375,3.6666666666666665,3.5555555555555554,2.5,3.5555555555555554,0.75,1.25,0.75,2.25,1.0,1.0,0.4110961789479724,-0.6416356728810724,,,,,,,,,,,,,,,,,,,0.017698864554012993,-0.24789418264441682,0.016303656158866926,-0.6923851670829574,,,,,,,,,,
12,240715_101327,FalseCHOICE,9.0,13,2.0,303.0,,,,,,,,,,,13.0,13.0,,,A,,,,,,False,cue1.png,Easy,cue2.png,Hard,Right,Hard,Mid,0.0157517000334337,,,,,,,,,,,,,43,22,Female,0.14285714285714285,1.5,0.6,1.0,2.2777777777777777,1.375,3.6666666666666665,3.5555555555555554,2.5,3.5555555555555554,0.75,1.25,0.75,2.25,0.6625000000000001,0.7857142857142857,0.4077989842074825,-0.7393966987698769,,,,,,,,,,,,,,,,,,,0.008210743412818697,-0.5362930620641889,0.020535103128557837,0.1692662971718777,,,,,,,,,,
13,240715_101352,FalseCHOICE,9.0,14,2.0,303.0,,,,,,,,,,,14.0,14.0,,,A,,,,,,False,cue2.png,Hard,cue1.png,Easy,Right,Easy,Mid,0.0149668000522069,,,,,,,,,,,,,43,22,Female,0.14285714285714285,1.5,0.6,1.0,2.2777777777777777,1.375,3.6666666666666665,3.5555555555555554,2.5,3.5555555555555554,0.75,1.25,0.75,2.25,0.8071428571428572,0.8571428571428572,0.420653405271495,-0.35826622594927454,,,,,,,,,,,,,,,,,,,,,,,-9.055072852213333e+41,-0.16985081089871523,,,,,,,,
14,240715_101419,FalseCHOICE,9.0,15,2.0,303.0,,,,,,,,,,,15.0,15.0,,,A,,,,,,False,cue1.png,Easy,cue2.png,Hard,Left,Easy,Mid,0.015049900044687,,,,,,,,,,,,,43,22,Female,0.14285714285714285,1.5,0.6,1.0,2.2777777777777777,1.375,3.6666666666666665,3.5555555555555554,2.5,3.5555555555555554,0.75,1.25,0.75,2.25,0.7019230769230769,0.7692307692307692,0.4370698105286513,0.12847621593255165,,,,,,,,,,,,,,,,,,,0.021294567631153376,-0.13859996909657174,,,,,,,,,,,,
15,240715_101445,FalseCHOICE,9.0,16,2.0,303.0,,,,,,,,,,,16.0,16.0,,,A,,,,,,False,cue1.png,Easy,cue2.png,Hard,Right,Hard,Mid,0.0165450999629683,,,,,,,,,,,,,43,22,Female,0.14285714285714285,1.5,0.6,1.0,2.2777777777777777,1.375,3.6666666666666665,3.5555555555555554,2.5,3.5555555555555554,0.75,1.25,0.75,2.25,1.0,1.0,0.4111900157785337,-0.6388534335704323,,,,,,,,,,,,,,,,,,,0.006207157094641872,-0.5971936387309673,,,,,,,,,,,,
16,240715_101511,FalseCHOICE,9.0,17,2.0,303.0,,,,,,,,,,,17.0,17.0,,,A,,,,,,False,cue2.png,Hard,cue1.png,Easy,Left,Hard,Mid,0.0167435000184923,,,,,,,,,,,,,43,22,Female,0.14285714285714285,1.5,0.6,1.0,2.2777777777777777,1.375,3.6666666666666665,3.5555555555555554,2.5,3.5555555555555554,0.75,1.25,0.75,2.25,0.8717948717948717,0.8704453441295548,0.403460299990709,-0.8680376355124618,,,,,,,,,,,,,,,,,,,0.02154337655085925,-0.13103722695141973,0.015899490169110554,-0.7746856707570046,,,,,,,,,,
17,240715_101537,FalseCHOICE,9.0,18,2.0,303.0,,,,,,,,,,,18.0,18.0,,,A,,,,,,False,cue2.png,Hard,cue1.png,Easy,Right,Easy,Mid,0.016458700003568,,,,,,,,,,,,,43,22,Female,0.14285714285714285,1.5,0.6,1.0,2.2777777777777777,1.375,3.6666666666666665,3.5555555555555554,2.5,3.5555555555555554,0.75,1.25,0.75,2.25,0.6625000000000001,0.7857142857142857,0.4138191052602212,-0.560901566873882,,,,,,,,,,,,,,,,,,,0.007352772014513578,-0.5623717752428306,0.017100930468139576,-0.530035838137516,,,,,,,,,,
18,240715_101603,FalseCHOICE,9.0,19,2.0,303.0,,,,,,,,,,,19.0,19.0,,,A,,,,,,False,cue1.png,Easy,cue2.png,Hard,Right,Hard,Mid,0.0168699999921955,,,,,,,,,,,,,43,22,Female,0.14285714285714285,1.5,0.6,1.0,2.2777777777777777,1.375,3.6666666666666665,3.5555555555555554,2.5,3.5555555555555554,0.75,1.25,0.75,2.25,0.0871794871794871,0.6153846153846154,0.4155942263161322,-0.5082696572776377,,,,,,,,,,,,,,,,,,,0.012403093084478418,-0.40886330759013045,0.016215293454836244,-0.7103785045533112,,,,,,,,,,
19,240715_101629,FalseCHOICE,9.0,20,2.0,303.0,,,,,,,,,,,20.0,20.0,,,A,,,,,,False,cue1.png,Easy,cue2.png,Hard,Left,Easy,Mid,0.0155726000084541,,,,,,,,,,,,,43,22,Female,0.14285714285714285,1.5,0.6,1.0,2.2777777777777777,1.375,3.6666666666666665,3.5555555555555554,2.5,3.5555555555555554,0.75,1.25,0.75,2.25,0.0535714285714285,0.7142857142857143,0.4456056105371221,0.38156061988431483,,,,,,,,,,,,,,,,,,,0.005495163940717942,-0.6188352287455278,0.014661092929809553,-1.0268610618740526,4.3926001371374696e+41,-0.1693042103892229,,,,,,,,
20,240715_101655,FalseCHOICE,9.0,21,2.0,303.0,,,,,,,,,,,21.0,21.0,,,A,,,,,,False,cue1.png,Easy,cue2.png,Hard,Left,Easy,Mid,0.0167899000225588,,,,,,,,,,,,,43,22,Female,0.14285714285714285,1.5,0.6,1.0,2.2777777777777777,1.375,3.6666666666666665,3.5555555555555554,2.5,3.5555555555555554,0.75,1.25,0.75,2.25,0.8071428571428572,0.8571428571428572,0.4121200473746285,-0.6112782218831423,,,,,,,,,,,,,,,,,,,0.04223953122111504,0.4980386170832561,,,1.37952819745016e+41,-0.16942668114372994,,,,,,,,
21,240715_101722,FalseCHOICE,9.0,22,2.0,303.0,,,,,,,,,,,22.0,22.0,,,A,,,,,,False,cue2.png,Hard,cue1.png,Easy,Left,Hard,Mid,0.0161472000181674,,,,,,,,,,,,,43,22,Female,0.14285714285714285,1.5,0.6,1.0,2.2777777777777777,1.375,3.6666666666666665,3.5555555555555554,2.5,3.5555555555555554,0.75,1.25,0.75,2.25,0.6025641025641025,0.6113360323886639,0.354081400004361,-2.3321100667358636,,,,,,,,,,,,,,,,,,,,,0.0175068108800617,-0.44738622590082966,-1.4833979894527464e+41,-0.16954304900258843,,,,,,,,
22,240715_101749,FalseCHOICE,9.0,23,2.0,303.0,,,,,,,,,,,23.0,23.0,,,A,,,,,,False,cue1.png,Easy,cue2.png,Hard,Left,Easy,Mid,0.0160593999898992,,,,,,,,,,,,,43,22,Female,0.14285714285714285,1.5,0.6,1.0,2.2777777777777777,1.375,3.6666666666666665,3.5555555555555554,2.5,3.5555555555555554,0.75,1.25,0.75,2.25,0.8535714285714285,0.8233082706766918,0.4053164705880643,-0.8130026266324191,,,,,,,,,,,,,,,,,,,0.006063467913426402,-0.6015611840258274,0.020620647220202827,0.18668567932465455,-3.823386571253362e+41,-0.16963816129093984,,,,,,,,
23,240715_101815,FalseCHOICE,9.0,24,2.0,303.0,,,,,,,,,,,24.0,24.0,,,A,,,,,,False,cue2.png,Hard,cue1.png,Easy,Left,Hard,Mid,0.0166464999783784,,,,,,,,,,,,,43,22,Female,0.14285714285714285,1.5,0.6,1.0,2.2777777777777777,1.375,3.6666666666666665,3.5555555555555554,2.5,3.5555555555555554,0.75,1.25,0.75,2.25,0.0535714285714285,0.7142857142857143,0.4410505157919894,0.24650316336334727,,,,,,,,,,,,,,,,,,,,,0.012969168053807552,-1.371388491204638,-5.085898252204167e+41,-0.16968947794093528,,,,,,,,
24,240715_101841,FalseCHOICE,9.0,25,2.0,303.0,,,,,,,,,,,25.0,25.0,,,A,,,,,,False,cue2.png,Hard,cue1.png,Easy,Left,Hard,Mid,0.0156771999900229,,,,,,,,,,,,,43,22,Female,0.14285714285714285,1.5,0.6,1.0,2.2777777777777777,1.375,3.6666666666666665,3.5555555555555554,2.5,3.5555555555555554,0.75,1.25,0.75,2.25,0.9178571428571428,0.9285714285714286,0.3893937578908854,-1.2851072036212883,,,,,,,,,,,,,,,,,,,,,0.027413078177823146,1.569831473755096,-4.686568787981663e+41,-0.169673246605687,,,,,,,,
25,240715_101909,FalseCHOICE,9.0,26,2.0,303.0,,,,,,,,,,,26.0,26.0,,,A,,,,,,False,cue1.png,Easy,cue2.png,Hard,Left,Easy,Mid,0.0151257999823428,,,,,,,,,,,,,43,22,Female,0.14285714285714285,1.5,0.6,1.0,2.2777777777777777,1.375,3.6666666666666665,3.5555555555555554,2.5,3.5555555555555554,0.75,1.25,0.75,2.25,0.5857142857142856,0.7518796992481204,0.4517626882366398,0.5641164832035968,,,,,,,,,,,,,,,,,,,0.018434351474312157,-0.22553848118512046,0.019105840250146697,-0.12177515054310964,-3.1385121422538376e+41,-0.16961032355930214,,,,,,,,
26,240715_101937,FalseCHOICE,9.0,27,2.0,303.0,,,,,,,,,,,27.0,27.0,,,A,,,,,,False,cue1.png,Easy,cue2.png,Hard,Left,Easy,Mid,0.0132525999797508,,,,,,,,,,,,,43,22,Female,0.14285714285714285,1.5,0.6,1.0,2.2777777777777777,1.375,3.6666666666666665,3.5555555555555554,2.5,3.5555555555555554,0.75,1.25,0.75,2.25,0.8269230769230769,0.8461538461538461,0.4723759736730962,1.17529540644406,,,,,,,,,,,,,,,,,,,0.026858934453674325,0.030533322143595155,0.01891937962884542,-0.15974421136814643,1.1547905813045182e+42,-0.16901337243301132,,,,,,,,
27,240715_102005,FalseCHOICE,9.0,28,2.0,303.0,,,,,,,,,,,28.0,28.0,,,A,,,,,,False,cue2.png,Hard,cue1.png,Easy,Left,Hard,Mid,0.0160543000092729,,,,,,,,,,,,,43,22,Female,0.14285714285714285,1.5,0.6,1.0,2.2777777777777777,1.375,3.6666666666666665,3.5555555555555554,2.5,3.5555555555555554,0.75,1.25,0.75,2.25,0.7019230769230769,0.7165991902834008,0.4544030110992025,0.6424014169237824,,,,,,,,,,,,,,,,,,,,,0.014246681150782063,-1.1112479202610717,1.4732734307232377e+41,-0.16942287073041087,,,,,,,,
28,240715_102033,FalseCHOICE,9.0,29,2.0,303.0,,,,,,,,,,,29.0,29.0,,,A,,,,,,False,cue1.png,Easy,cue2.png,Hard,Right,Hard,Mid,0.0159372999914921,,,,,,,,,,,,,43,22,Female,0.14285714285714285,1.5,0.6,1.0,2.2777777777777777,1.375,3.6666666666666665,3.5555555555555554,2.5,3.5555555555555554,0.75,1.25,0.75,2.25,0.725,0.7518796992481204,0.4486813823528149,0.472756509653726,,,,,,,,,,,,,,,,,,,,,,,3.2720182701819436e+41,-0.16934975809252373,,,,,,,,
29,240715_102100,FalseCHOICE,9.0,30,2.0,303.0,,,,,,,,,,,30.0,30.0,,,A,,,,,,False,cue1.png,Easy,cue2.png,Hard,Left,Easy,Mid,0.0150341999833472,,,,,,,,,,,,,43,22,Female,0.14285714285714285,1.5,0.6,1.0,2.2777777777777777,1.375,3.6666666666666665,3.5555555555555554,2.5,3.5555555555555554,0.75,1.25,0.75,2.25,0.6625000000000001,0.6804511278195489,0.4122078588321421,-0.6086746334247766,,,,,,,,,,,,,,,,,,,0.015233845881710832,-0.32282035741196136,0.016815285160230696,-0.5882019216498867,4.32168894966203e+41,-0.16930709267906097,,,,,,,,
30,240715_102129,FalseCHOICE,9.0,31,2.0,303.0,,,,,,,,,,,31.0,31.0,,,A,,,,,,False,cue2.png,Hard,cue1.png,Easy,Left,Hard,Mid,0.016276000009384,,,,,,,,,,,,,43,22,Female,0.14285714285714285,1.5,0.6,1.0,2.2777777777777777,1.375,3.6666666666666665,3.5555555555555554,2.5,3.5555555555555554,0.75,1.25,0.75,2.25,0.8071428571428572,0.8045112781954888,0.4910470888911125,1.7288894528576302,,,,,,,,,,,,,,,,,,,0.024963736383107372,-0.02707270877616022,0.014239186416157703,-1.1127740764694651,,,,,,,,,,
31,240715_102158,FalseCHOICE,9.0,32,2.0,303.0,,,,,,,,,,,32.0,32.0,,,A,,,,,,False,cue1.png,Easy,cue2.png,Hard,Left,Easy,Mid,0.0161077000084333,,,,,,,,,,,,,43,22,Female,0.14285714285714285,1.5,0.6,1.0,2.2777777777777777,1.375,3.6666666666666665,3.5555555555555554,2.5,3.5555555555555554,0.75,1.25,0.75,2.25,0.7875000000000001,0.7706766917293233,0.4825097937537066,1.4757607186948754,,,,,,,,,,,,,,,,,,,0.007870489018146179,-0.5466353611011567,0.021709905282869636,0.4084917923094046,2.9288727381603775e+41,-0.16936370574895332,,,,,,,,
32,240715_102226,FalseCHOICE,9.0,33,2.0,303.0,,,,,,,,,,,33.0,33.0,,,A,,,,,,False,cue2.png,Hard,cue1.png,Easy,Right,Easy,Mid,0.0165470000356435,,,,,,,,,,,,,43,22,Female,0.14285714285714285,1.5,0.6,1.0,2.2777777777777777,1.375,3.6666666666666665,3.5555555555555554,2.5,3.5555555555555554,0.75,1.25,0.75,2.25,0.0871794871794871,0.5101214574898786,0.431303629418835,-0.042489658128175505,,,,,,,,,,,,,,,,,,,,,0.018445731300617496,-0.25619343511660264,1.0729687919146563e+41,-0.16943914170306895,,,,,,,,
33,240715_102254,FalseCHOICE,9.0,34,2.0,303.0,,,,,,,,,,,34.0,34.0,,,A,,,,,,False,cue2.png,Hard,cue1.png,Easy,Left,Hard,Mid,0.0161362999933771,,,,,,,,,,,,,43,22,Female,0.14285714285714285,1.5,0.6,1.0,2.2777777777777777,1.375,3.6666666666666665,3.5555555555555554,2.5,3.5555555555555554,0.75,1.25,0.75,2.25,0.079326923076923,0.6396761133603239,0.4085080666732715,-0.7183725753100065,,,,,,,,,,,,,,,,,,,0.01750623612891762,-0.2537492746183909,0.023212385541970595,0.7144425284385383,-1.0694162133140725e+41,-0.16952622210250418,,,,,,,,
34,240715_102327,FalseCHOICE,9.0,35,2.0,303.0,,,,,,,,,,,36.0,35.0,,,A,,,,,,False,cue2.png,Hard,cue1.png,Easy,Right,Easy,Mid,0.0168839999823831,,,,,,,,,,,,,43,22,Female,0.14285714285714285,1.5,0.6,1.0,2.2777777777777777,1.375,3.6666666666666665,3.5555555555555554,2.5,3.5555555555555554,0.75,1.25,0.75,2.25,0.0534188034188034,0.4008097165991902,0.3363274083433983,-2.8585116216950084,,,,,,,,,,,,,,,,,,,0.007738149759343043,-0.5506579166075742,,,-2.934852840324475e+41,-0.1696020455264941,,,,,,,,
35,240715_102355,FalseCHOICE,9.0,36,2.0,303.0,,,,,,,,,,,37.0,36.0,,,A,,,,,,False,cue1.png,Easy,cue2.png,Hard,Left,Easy,Mid,0.0162869999767281,,,,,,,,,,,,,43,22,Female,0.14285714285714285,1.5,0.6,1.0,2.2777777777777777,1.375,3.6666666666666665,3.5555555555555554,2.5,3.5555555555555554,0.75,1.25,0.75,2.25,0.8717948717948717,0.7125506072874495,0.467709553342623,1.0369371732668304,,,,,,,,,,,,,,,,,,,0.008570762353314205,-0.5253500041643476,0.02745522055908789,1.5784129459522072,-3.589746436360032e+41,-0.16962866464294196,,,,,,,,
36,240715_102423,FalseCHOICE,9.0,37,2.0,303.0,,,,,,,,,,,38.0,37.0,,,A,,,,,,False,cue2.png,Hard,cue1.png,Easy,Right,Easy,Mid,0.0166861999896354,,,,,,,,,,,,,43,22,Female,0.14285714285714285,1.5,0.6,1.0,2.2777777777777777,1.375,3.6666666666666665,3.5555555555555554,2.5,3.5555555555555554,0.75,1.25,0.75,2.25,0.7875000000000001,0.6127819548872181,0.3941921923094644,-1.142834784688964,,,,,,,,,,,,,,,,,,,0.03933186260244338,0.4096577502214118,,,-3.721182460416236e+41,-0.16963400705406184,,,,,,,,
37,240715_102452,FalseCHOICE,9.0,38,2.0,303.0,,,,,,,,,,,39.0,38.0,,,A,,,,,,False,cue1.png,Easy,cue2.png,Hard,Right,Hard,Mid,0.0165198000031523,,,,,,,,,,,,,43,22,Female,0.14285714285714285,1.5,0.6,1.0,2.2777777777777777,1.375,3.6666666666666665,3.5555555555555554,2.5,3.5555555555555554,0.75,1.25,0.75,2.25,0.1785714285714285,0.4511278195488722,0.3784394857232525,-1.609898721641803,,,,,,,,,,,,,,,,,,,0.007289523600971293,-0.5642942603501799,0.020082228247226816,0.07704717983017723,-2.6467529796429614e+41,-0.1695903352825911,,,,,,,,
38,240715_102520,FalseCHOICE,9.0,39,2.0,303.0,,,,,,,,,,,40.0,39.0,,,A,,,,,,False,cue1.png,Easy,cue2.png,Hard,Right,Hard,Mid,0.0167099999962374,,,,,,,,,,,,,43,22,Female,0.14285714285714285,1.5,0.6,1.0,2.2777777777777777,1.375,3.6666666666666665,3.5555555555555554,2.5,3.5555555555555554,0.75,1.25,0.75,2.25,0.9178571428571428,0.9285714285714286,0.4325057578910338,-0.006846839932112528,,,,,,,,,,,,,,,,,,,0.0707305440304892,1.3640452843130144,,,-5.736039353338334e+40,-0.16950606908093893,,,,,,,,
39,240715_102548,FalseCHOICE,9.0,40,2.0,303.0,,,,,,,,,,,41.0,40.0,,,A,,,,,,False,cue2.png,Hard,cue1.png,Easy,Left,Hard,Mid,0.0159986999933607,,,,,,,,,,,,,43,22,Female,0.14285714285714285,1.5,0.6,1.0,2.2777777777777777,1.375,3.6666666666666665,3.5555555555555554,2.5,3.5555555555555554,0.75,1.25,0.75,2.25,0.6025641025641025,0.7165991902834008,0.436059177772323,0.09851119935582253,,,,,,,,,,,,,,,,,,,0.0063415470229530235,-0.5931087515174213,0.0215844997820806,0.3829554133462588,2.087142173809061e+41,-0.1693979191296396,,,,,,,,
40,240715_102617,FalseCHOICE,9.0,41,2.0,303.0,,,,,,,,,,,42.0,41.0,,,A,,,,,,False,cue2.png,Hard,cue1.png,Easy,Right,Easy,Mid,0.016551700013224,,,,,,,,,,,,,43,22,Female,0.14285714285714285,1.5,0.6,1.0,2.2777777777777777,1.375,3.6666666666666665,3.5555555555555554,2.5,3.5555555555555554,0.75,1.25,0.75,2.25,0.079326923076923,0.3765182186234818,0.4245867615413422,-0.24164316471350095,,,,,,,,,,,,,,,,,,,,,0.02224305177921451,0.5170566549978413,3.4841945110341978e+41,-0.1693411338761672,,,,,,,,
41,240715_102644,FalseCHOICE,9.0,42,2.0,303.0,,,,,,,,,,,43.0,42.0,,,A,,,,,,False,cue1.png,Easy,cue2.png,Hard,Right,Hard,Mid,0.0171033000224269,,,,,,,,,,,,,43,22,Female,0.14285714285714285,1.5,0.6,1.0,2.2777777777777777,1.375,3.6666666666666665,3.5555555555555554,2.5,3.5555555555555554,0.75,1.25,0.75,2.25,1.0,1.0,0.4655731315816458,0.9735927852270564,,,,,,,,,,,,,,,,,,,0.005112753814903807,-0.6304588842746233,0.02234082557861402,0.5369663780835356,,,,,,,,,,
42,240715_102711,FalseCHOICE,9.0,43,2.0,303.0,,,,,,,,,,,44.0,43.0,,,A,,,,,,False,cue2.png,Hard,cue1.png,Easy,Left,Hard,Mid,0.0167547999881207,,,,,,,,,,,,,43,22,Female,0.14285714285714285,1.5,0.6,1.0,2.2777777777777777,1.375,3.6666666666666665,3.5555555555555554,2.5,3.5555555555555554,0.75,1.25,0.75,2.25,0.6625000000000001,0.7857142857142857,0.4608813420881664,0.8344823625079197,,,,,,,,,,,,,,,,,,,0.03843237674883801,0.3823171726325096,0.021996195924161202,0.46678928535097597,2.9966976254410647e+41,-0.16936094890634024,,,,,,,,
43,240715_102738,FalseCHOICE,9.0,44,2.0,303.0,,,,,,,,,,,45.0,44.0,,,A,,,,,,False,cue1.png,Easy,cue2.png,Hard,Left,Easy,Mid,0.0140171000384725,,,,,,,,,,,,,43,22,Female,0.14285714285714285,1.5,0.6,1.0,2.2777777777777777,1.375,3.6666666666666665,3.5555555555555554,2.5,3.5555555555555554,0.75,1.25,0.75,2.25,0.9262820512820512,0.9230769230769232,0.4603597052628174,0.819015956911288,,,,,,,,,,,,,,,,,,,0.046213286832028924,0.6188240337343912,0.021996041831979757,0.4667579074902291,1.1251665155395216e+40,-0.16947818069737525,,,,,,,,
44,240715_102804,FalseCHOICE,9.0,45,2.0,303.0,,,,,,,,,,,46.0,45.0,,,A,,,,,,False,cue2.png,Hard,cue1.png,Easy,Left,Hard,Mid,0.0162964000483043,,,,,,,,,,,,,43,22,Female,0.14285714285714285,1.5,0.6,1.0,2.2777777777777777,1.375,3.6666666666666665,3.5555555555555554,2.5,3.5555555555555554,0.75,1.25,0.75,2.25,0.9178571428571428,0.9285714285714286,0.4222187736947824,-0.31185343113455855,,,,,,,,,,,,,,,,,,,0.04309632811580061,0.5240816303037382,,,-2.2851622883849504e+41,-0.16957563789545016,,,,,,,,
45,240715_102831,FalseCHOICE,9.0,46,2.0,303.0,,,,,,,,,,,47.0,46.0,,,A,,,,,,False,cue2.png,Hard,cue1.png,Easy,Right,Easy,Mid,0.0166877000010572,,,,,,,,,,,,,43,22,Female,0.14285714285714285,1.5,0.6,1.0,2.2777777777777777,1.375,3.6666666666666665,3.5555555555555554,2.5,3.5555555555555554,0.75,1.25,0.75,2.25,0.0535714285714285,0.5563909774436091,0.3907236812483461,-1.24567529801309,,,,,,,,,,,,,,,,,,,,,0.020120675653656772,0.08487624262700871,-4.242403839873899e+41,-0.1696551928660455,,,,,,,,
46,240715_102859,FalseCHOICE,9.0,47,2.0,303.0,,,,,,,,,,,48.0,47.0,,,A,,,,,,False,cue1.png,Easy,cue2.png,Hard,Right,Hard,Mid,0.0165068000205792,,,,,,,,,,,,,43,22,Female,0.14285714285714285,1.5,0.6,1.0,2.2777777777777777,1.375,3.6666666666666665,3.5555555555555554,2.5,3.5555555555555554,0.75,1.25,0.75,2.25,0.95,0.8421052631578947,0.4097594750055577,-0.6812686211917488,,,,,,,,,,,,,,,,,,,0.006561375728254834,-0.5864268857054338,0.019812627379839482,0.022148233013022968,-3.3575020920439052e+41,-0.16961922472891144,,,,,,,,
47,240715_102928,FalseCHOICE,9.0,48,2.0,303.0,,,,,,,,,,,49.0,48.0,,,A,,,,,,False,cue1.png,Easy,cue2.png,Hard,Right,Hard,Mid,0.0165079999715089,,,,,,,,,,,,,43,22,Female,0.14285714285714285,1.5,0.6,1.0,2.2777777777777777,1.375,3.6666666666666665,3.5555555555555554,2.5,3.5555555555555554,0.75,1.25,0.75,2.25,0.6025641025641025,0.4534412955465586,0.4417081230964798,0.2660010607515371,,,,,,,,,,,,,,,,,,,0.008504509836209458,-0.5273638013542665,0.02126026991490734,0.3169323385432206,1.5766569823092499e+41,-0.16941866855342344,,,,,,,,
48,240715_102958,FalseCHOICE,9.0,49,2.0,303.0,,,,,,,,,,,50.0,49.0,,,A,,,,,,False,cue2.png,Hard,cue1.png,Easy,Left,Hard,Mid,0.0161141999997198,,,,,,,,,,,,,43,22,Female,0.14285714285714285,1.5,0.6,1.0,2.2777777777777777,1.375,3.6666666666666665,3.5555555555555554,2.5,3.5555555555555554,0.75,1.25,0.75,2.25,0.9178571428571428,0.9285714285714286,0.5122933421118528,2.3588357176767616,,,,,,,,,,,,,,,,,,,0.03981601004681414,0.4243737912955774,,,5.313920984108945e+41,-0.16926676194407114,,,,,,,,
49,240715_103028,FalseCHOICE,9.0,50,2.0,303.0,,,,,,,,,,,51.0,50.0,,,A,,,,,,False,cue1.png,Easy,cue2.png,Hard,Left,Easy,Mid,0.0167876000050455,,,,,,,,,,,,,43,22,Female,0.14285714285714285,1.5,0.6,1.0,2.2777777777777777,1.375,3.6666666666666665,3.5555555555555554,2.5,3.5555555555555554,0.75,1.25,0.75,2.25,0.013095238095238,0.5225563909774436,0.4570148928614799,0.7198430789053729,,,,,,,,,,,,,,,,,,,0.20358358845119878,5.402217707311302,,,-2.672194411592795e+41,-0.16959136938712926,,,,,,,,
0,240715_093516,OFFLINERATING,9.0,1,1.0,,,,,,,,,,,,,,,,,T0,cue1.png,Easy,37.0,2.923371799988672,,,,,,,,,,,,,,,,,,,,,,43,22,Female,0.14285714285714285,1.5,0.6,1.0,2.2777777777777777,1.375,3.6666666666666665,3.5555555555555554,2.5,3.5555555555555554,0.75,1.25,0.75,2.25,,,,,,,,,,,,,,,,,,,,,,,,,,,,,0.21862441348765968,,,,,,,
1,240715_093532,OFFLINERATING,9.0,2,3.0,,,,,,,,,,,,,,,,,T0,cue2.png,Hard,31.0,1.001509099965915,,,,,,,,,,,,,,,,,,,,,,43,22,Female,0.14285714285714285,1.5,0.6,1.0,2.2777777777777777,1.375,3.6666666666666665,3.5555555555555554,2.5,3.5555555555555554,0.75,1.25,0.75,2.25,,,,,,,,,,,,,,,,,,,,,,,,,,,,,-0.014574960899177312,,,,,40531.41382292571,1.0,
2,240715_100049,OFFLINERATING,9.0,3,1.0,,,,,,,,,,,,,,,,,T1,cue1.png,Easy,67.0,1.08603890001541,,,,,,,,,,,,,,,,,,,,,,43,22,Female,0.14285714285714285,1.5,0.6,1.0,2.2777777777777777,1.375,3.6666666666666665,3.5555555555555554,2.5,3.5555555555555554,0.75,1.25,0.75,2.25,,,,,,,,,,,,,,,,,,,,,,,,,,,,,1.3846212854218445,0.004813231675431542,-0.9751125635794202,0.021770436258973402,1.0084399650236646,3924.3702124813126,-1.0,
3,240715_100058,OFFLINERATING,9.0,4,3.0,,,,,,,,,,,,,,,,,T1,cue2.png,Hard,32.0,2.069027499994263,,,,,,,,,,,,,,,,,,,,,,43,22,Female,0.14285714285714285,1.5,0.6,1.0,2.2777777777777777,1.375,3.6666666666666665,3.5555555555555554,2.5,3.5555555555555554,0.75,1.25,0.75,2.25,,,,,,,,,,,,,,,,,,,,,,,,,,,,,0.024291601498628853,,,0.016487657150959466,-1.6294422812775702,,,
4,240715_100630,OFFLINERATING,9.0,5,1.0,,,,,,,,,,,,,,,,,T2,cue1.png,Easy,72.0,1.8192465000320224,,,,,,,,,,,,,,,,,,,,,,43,22,Female,0.14285714285714285,1.5,0.6,1.0,2.2777777777777777,1.375,3.6666666666666665,3.5555555555555554,2.5,3.5555555555555554,0.75,1.25,0.75,2.25,,,,,,,,,,,,,,,,,,,,,,,,,,,,,1.5789540974108753,0.009687840186469256,1.3746113061609033,0.02089328768400437,0.5704480282097255,,,
5,240715_100639,OFFLINERATING,9.0,6,3.0,,,,,,,,,,,,,,,,,T2,cue2.png,Hard,12.0,2.3357894000364468,,,,,,,,,,,,,,,,,,,,,,43,22,Female,0.14285714285714285,1.5,0.6,1.0,2.2777777777777777,1.375,3.6666666666666665,3.5555555555555554,2.5,3.5555555555555554,0.75,1.25,0.75,2.25,,,,,,,,,,,,,,,,,,,,,,,,,,,,,-0.7530396464574944,,,0.019852117710331428,0.0505542880441783,,,
6,240715_103047,OFFLINERATING,9.0,7,1.0,,,,,,,,,,,,,,,,,T3,cue1.png,Easy,0.0,1.3193643999984488,,,,,,,,,,,,,,,,,,,,,,43,22,Female,0.14285714285714285,1.5,0.6,1.0,2.2777777777777777,1.375,3.6666666666666665,3.5555555555555554,2.5,3.5555555555555554,0.75,1.25,0.75,2.25,,,,,,,,,,,,,,,,,,,,,,,,,,,,,-1.2194383952311685,,,,,,,
7,240715_103054,OFFLINERATING,9.0,8,3.0,,,,,,,,,,,,,,,,,T3,cue2.png,Hard,0.0,1.0516521999961697,,,,,,,,,,,,,,,,,,,,,,43,22,Female,0.14285714285714285,1.5,0.6,1.0,2.2777777777777777,1.375,3.6666666666666665,3.5555555555555554,2.5,3.5555555555555554,0.75,1.25,0.75,2.25,,,,,,,,,,,,,,,,,,,,,,,,,,,,,-1.2194383952311685,0.006007368598089424,-0.3994987425814836,,,,,
0,240715_100700,LEARNINGCHECK,9.0,1,,,,,,,,,,,,1.0,1.0,1.0,,,A,,,,,,,,,,,,,,,cue1.png,Easy,Left,Left,Easy,0.0138218000065535,1.0,,,,,,43,22,Female,0.14285714285714285,1.5,0.6,1.0,2.2777777777777777,1.375,3.6666666666666665,3.5555555555555554,2.5,3.5555555555555554,0.75,1.25,0.75,2.25,,,,,,,,,,,,,,,,,,,,,,,,,,,,,,,,,,,,
1,240715_100705,LEARNINGCHECK,9.0,2,,,,,,,,,,,,2.0,2.0,2.0,,,A,,,,,,,,,,,,,,,cue2.png,Hard,Right,Right,Hard,0.0147814999800175,1.0,,,,,,43,22,Female,0.14285714285714285,1.5,0.6,1.0,2.2777777777777777,1.375,3.6666666666666665,3.5555555555555554,2.5,3.5555555555555554,0.75,1.25,0.75,2.25,,,,,,,,,,,,,,,,,,,,,,,,,,,,,,,,,,,,
2,240715_103114,LEARNINGCHECK,9.0,1,,,,,,,,,,,,1.0,1.0,1.0,,,A,,,,,,,,,,,,,,,cue1.png,Easy,Middle,Middle,Mid,0.0146087000030092,1.0,,,,,,43,22,Female,0.14285714285714285,1.5,0.6,1.0,2.2777777777777777,1.375,3.6666666666666665,3.5555555555555554,2.5,3.5555555555555554,0.75,1.25,0.75,2.25,,,,,,,,,,,,,,,,,,,,,,,,,,,,,,,,,,,,
3,240715_103120,LEARNINGCHECK,9.0,2,,,,,,,,,,,,2.0,2.0,2.0,,,A,,,,,,,,,,,,,,,cue2.png,Hard,Middle,Middle,Mid,0.0150344999856315,1.0,,,,,,43,22,Female,0.14285714285714285,1.5,0.6,1.0,2.2777777777777777,1.375,3.6666666666666665,3.5555555555555554,2.5,3.5555555555555554,0.75,1.25,0.75,2.25,,,,,,,,,,,,,,,,,,,,,,,,,,,,,,,,,,,,
0,240715_103134,DEMANDRATING,9.0,-1,,,,,,,,,,,,,,,,,,,,,,,,,,,,,,,,,,,,,,,1.0,MentalDemand,1.0,91.0,3.810003200022038,43,22,Female,0.14285714285714285,1.5,0.6,1.0,2.2777777777777777,1.375,3.6666666666666665,3.5555555555555554,2.5,3.5555555555555554,0.75,1.25,0.75,2.25,,,,,,,,,,,,,,,,,,,,,,,,,,,,,,,,,,,,0.9189917253582703
1,240715_103146,DEMANDRATING,9.0,-1,,,,,,,,,,,,,,,,,,,,,,,,,,,,,,,,,,,,,,,2.0,Effort,1.0,39.0,10.252409899956549,43,22,Female,0.14285714285714285,1.5,0.6,1.0,2.2777777777777777,1.375,3.6666666666666665,3.5555555555555554,2.5,3.5555555555555554,0.75,1.25,0.75,2.25,,,,,,,,,,,,,,,,,,,,,,,,,,,,,,,,,,,,-1.3327785755195851
2,240715_103153,DEMANDRATING,9.0,-1,,,,,,,,,,,,,,,,,,,,,,,,,,,,,,,,,,,,,,,3.0,Frustration,1.0,56.0,6.015435999957845,43,22,Female,0.14285714285714285,1.5,0.6,1.0,2.2777777777777777,1.375,3.6666666666666665,3.5555555555555554,2.5,3.5555555555555554,0.75,1.25,0.75,2.25,,,,,,,,,,,,,,,,,,,,,,,,,,,,,,,,,,,,-0.5966229002325939
3,240715_103204,DEMANDRATING,9.0,-1,,,,,,,,,,,,,,,,,,,,,,,,,,,,,,,,,,,,,,,4.0,MentalDemand,2.0,66.0,8.823435900034383,43,22,Female,0.14285714285714285,1.5,0.6,1.0,2.2777777777777777,1.375,3.6666666666666665,3.5555555555555554,2.5,3.5555555555555554,0.75,1.25,0.75,2.25,,,,,,,,,,,,,,,,,,,,,,,,,,,,,,,,,,,,-0.16359015006377556
4,240715_103212,DEMANDRATING,9.0,-1,,,,,,,,,,,,,,,,,,,,,,,,,,,,,,,,,,,,,,,5.0,Effort,2.0,69.0,6.952737100014929,43,22,Female,0.14285714285714285,1.5,0.6,1.0,2.2777777777777777,1.375,3.6666666666666665,3.5555555555555554,2.5,3.5555555555555554,0.75,1.25,0.75,2.25,,,,,,,,,,,,,,,,,,,,,,,,,,,,,,,,,,,,-0.03368032501313004
5,240715_103216,DEMANDRATING,9.0,-1,,,,,,,,,,,,,,,,,,,,,,,,,,,,,,,,,,,,,,,6.0,Frustration,2.0,100.0,2.31569680001121,43,22,Female,0.14285714285714285,1.5,0.6,1.0,2.2777777777777777,1.375,3.6666666666666665,3.5555555555555554,2.5,3.5555555555555554,0.75,1.25,0.75,2.25,,,,,,,,,,,,,,,,,,,,,,,,,,,,,,,,,,,,1.308721200510207
6,240715_103220,DEMANDRATING,9.0,-1,,,,,,,,,,,,,,,,,,,,,,,,,,,,,,,,,,,,,,,7.0,MentalDemand,3.0,100.0,2.32768639997812,43,22,Female,0.14285714285714285,1.5,0.6,1.0,2.2777777777777777,1.375,3.6666666666666665,3.5555555555555554,2.5,3.5555555555555554,0.75,1.25,0.75,2.25,,,,,,,,,,,,,,,,,,,,,,,,,,,,,,,,,,,,1.308721200510207
7,240715_103227,DEMANDRATING,9.0,-1,,,,,,,,,,,,,,,,,,,,,,,,,,,,,,,,,,,,,,,8.0,Effort,3.0,74.0,5.380095499975141,43,22,Female,0.14285714285714285,1.5,0.6,1.0,2.2777777777777777,1.375,3.6666666666666665,3.5555555555555554,2.5,3.5555555555555554,0.75,1.25,0.75,2.25,,,,,,,,,,,,,,,,,,,,,,,,,,,,,,,,,,,,0.18283605007127915
8,240715_103232,DEMANDRATING,9.0,-1,,,,,,,,,,,,,,,,,,,,,,,,,,,,,,,,,,,,,,,9.0,Frustration,3.0,33.0,4.044082899985369,43,22,Female,0.14285714285714285,1.5,0.6,1.0,2.2777777777777777,1.375,3.6666666666666665,3.5555555555555554,2.5,3.5555555555555554,0.75,1.25,0.75,2.25,,,,,,,,,,,,,,,,,,,,,,,,,,,,,,,,,,,,-1.5925982256208762
