,END,Phase,Block,TrialN,NbackLevel,ISI,Letter_Resp,Letter_RT,Letter_Accuracy,Trial_A_measure,Trial_ACC,Trial_RT,TrialCountCali,CaliEnd_A_measure,ISI_calibrated,TrialIndex,TrialNumber_total,TrialNumber_valid,CueLearning,TrialDemandLearning,CueMapping,OfflineRatingTimePoint,CueFigure,TrialDemand,OfflineRating,OfflineRatingRT,PhaseType,CueLeft,CueDemandLeft,CueRight,CueDemandRight,Choice,ChoiceDemand,TaskDemand,ChoiceRT,CueCheck,CueDemandCheck,CorrectAnswer,Answer,AnswerDemand,AnswerRT,AnswerACC,DemandRatingQuesIndex,QuesTLX,DemandLevel,DemandRating,DemandRatingRT,PID,Age,Gender,BAI_bis,BAI_bas_d,BAI_bas_rr,BAI_bas_fs,NFC,BFI_ext,BFI_agr,BFI_con,BFI_neu,BFI_open,UPPS_lps,UPPS_lpm,UPPS_pu,UPPS_ss,Task_A_measure,Task_ACC,Task_RT,Task_RT_z,cue_i_on_zyg_values,cue_i_on_zyg_zvalues,cue_e_on_zyg_values,cue_e_on_zyg_zvalues,cue_i_on_cor_values,cue_i_on_cor_zvalues,cue_e_on_cor_values,cue_e_on_cor_zvalues,cue_i_on_scr_values,cue_i_on_scr_zvalues,cue_e_on_scr_values,cue_e_on_scr_zvalues,cue_e_true_zyg_values,cue_e_true_zyg_zvalues,cue_e_true_cor_values,cue_e_true_cor_zvalues,cue_e_true_scr_values,cue_e_true_scr_zvalues,cue_e_false_zyg_values,cue_e_false_zyg_zvalues,cue_e_false_cor_values,cue_e_false_cor_zvalues,cue_e_false_scr_values,cue_e_false_scr_zvalues,OfflineRating_z,cue_i_off_zyg_values,cue_i_off_zyg_zvalues,cue_i_off_cor_values,cue_i_off_cor_zvalues,cue_i_off_scr_values,cue_i_off_scr_zvalues,DemandRating_z
0,240717_092311,PRACTICE,0.0,1,3.0,679.0,,,,,,,,,,24.0,1.0,1.0,cue2.png,Hard,A,,,,,,,,,,,,,,,,,,,,,,,,,,,45,28,Male,1.2857142857142858,0.0,0.0,0.75,2.2777777777777777,2.125,3.0,2.3333333333333335,1.75,3.4444444444444446,2.25,1.75,0.75,0.75,,,,,,,,,,,,,,,,,,,,,,,,,,,,,,,,,,,,
0,240717_092627,LEARNING,1.0,1,1.0,679.0,,,,,,,,,,1.0,1.0,1.0,cue1.png,Easy,A,,,,,,,,,,,,,,,,,,,,,,,,,,,45,28,Male,1.2857142857142858,0.0,0.0,0.75,2.2777777777777777,2.125,3.0,2.3333333333333335,1.75,3.4444444444444446,2.25,1.75,0.75,0.75,0.725,0.8,0.5325702928572095,-0.08256584657895169,0.011516180872200892,-1.1195947143040215,0.01051269963854466,-1.1358887348752598,0.006644137315374623,-1.116802245064704,,,,,2.192222182010803e+45,-0.18828649359631489,,,,,,,,,,,,,,,,,,,,
1,240717_092656,LEARNING,1.0,2,3.0,679.0,,,,,,,,,,2.0,2.0,2.0,cue2.png,Hard,A,,,,,,,,,,,,,,,,,,,,,,,,,,,45,28,Male,1.2857142857142858,0.0,0.0,0.75,2.2777777777777777,2.125,3.0,2.3333333333333335,1.75,3.4444444444444446,2.25,1.75,0.75,0.75,0.5625,0.7285714285714286,0.672486592317,1.7019208908087442,0.012796859041995762,-0.5020156775138004,0.012657502099110797,-0.4351781358154118,0.0062931806556694395,-1.21497750179348,0.007136988310165605,-1.1967572540142124,1.8142278561121144e+44,-0.17631633345569844,5.1156434280656256e+44,-0.1905039749303327,,,,,,,,,,,,,,,,,,,,
2,240717_092721,LEARNING,1.0,3,1.0,679.0,,,,,,,,,,3.0,3.0,3.0,cue1.png,Easy,A,,,,,,,,,,,,,,,,,,,,,,,,,,,45,28,Male,1.2857142857142858,0.0,0.0,0.75,2.2777777777777777,2.125,3.0,2.3333333333333335,1.75,3.4444444444444446,2.25,1.75,0.75,0.75,1.0,1.0,0.5405681285857489,0.0194382218568745,0.01513808013816747,0.6269869896576579,0.012640686226001497,-0.44067191006118633,0.007651026490645104,-0.8351389668620783,0.010269425487504133,0.6386024690358567,-1.9029777701138862e+44,-0.17722241929622895,-2.0583016966717414e+44,-0.19145051437663102,,,,,,,,,,,,,,,,,,,,
3,240717_092749,LEARNING,1.0,4,3.0,679.0,,,,,,,,,,4.0,4.0,4.0,cue2.png,Hard,A,,,,,,,,,,,,,,,,,,,,,,,,,,,45,28,Male,1.2857142857142858,0.0,0.0,0.75,2.2777777777777777,2.125,3.0,2.3333333333333335,1.75,3.4444444444444446,2.25,1.75,0.75,0.75,0.9375,0.9285714285714286,0.6392504999843928,1.2780291341004772,0.012894990532985139,-0.45469391228552686,0.01334183687146816,-0.2116048058177206,0.014340906130784523,1.036262053728385,0.00870675834000915,-0.2769965296590432,-2.3341054572606587e+44,-0.17732750863807978,-3.2248569531418792e+44,-0.19160443116123652,,,,,,,,,,,,,,,,,,,,
4,240717_092815,LEARNING,1.0,5,3.0,679.0,,,,,,,,,,5.0,5.0,5.0,cue2.png,Hard,A,,,,,,,,,,,,,,,,,,,,,,,,,,,45,28,Male,1.2857142857142858,0.0,0.0,0.75,2.2777777777777777,2.125,3.0,2.3333333333333335,1.75,3.4444444444444446,2.25,1.75,0.75,0.75,1.0,1.0,0.5919032357051037,0.6741640698856924,0.01092206713800987,-1.4060930683474129,0.014902749963558637,0.2983481469359676,,,0.007454379126492095,-1.0107914108790712,2.3932322011776222e+48,5.65685418224938,4.5872351156386406e+48,5.861277429971357,,,,,,,,,,,,,,,,,,,,
5,240717_092841,LEARNING,1.0,6,1.0,679.0,,,,,,,,,,6.0,6.0,6.0,cue1.png,Easy,A,,,,,,,,,,,,,,,,,,,,,,,,,,,45,28,Male,1.2857142857142858,0.0,0.0,0.75,2.2777777777777777,2.125,3.0,2.3333333333333335,1.75,3.4444444444444446,2.25,1.75,0.75,0.75,0.8875,0.9,0.5031512928627697,-0.4577745643622102,0.015020321819822855,0.570200616209165,0.012842525182851087,-0.3747307807646639,,,0.00891685700271025,-0.153895378204854,-3.46719599117315e+43,-0.17684307426269052,,,,,,,,,,,,,,,,,,,,,,
6,240717_092906,LEARNING,1.0,7,3.0,679.0,,,,,,,,,,7.0,7.0,7.0,cue2.png,Hard,A,,,,,,,,,,,,,,,,,,,,,,,,,,,45,28,Male,1.2857142857142858,0.0,0.0,0.75,2.2777777777777777,2.125,3.0,2.3333333333333335,1.75,3.4444444444444446,2.25,1.75,0.75,0.75,0.725,0.8,0.5124110356887935,-0.3396761846276244,0.012261208879524706,-0.7603212527922378,0.013347219099010885,-0.20984642295725744,,,0.00712726455000849,-1.2024546061839798,,,1.0522343355821565e+43,-0.1911650561185578,,,,,,,,,,,,,,,,,,,,
7,240717_092932,LEARNING,1.0,8,3.0,679.0,,,,,,,,,,8.0,8.0,8.0,cue2.png,Hard,A,,,,,,,,,,,,,,,,,,,,,,,,,,,45,28,Male,1.2857142857142858,0.0,0.0,0.75,2.2777777777777777,2.125,3.0,2.3333333333333335,1.75,3.4444444444444446,2.25,1.75,0.75,0.75,0.6875,0.6857142857142857,0.4307916272770274,-1.380646767658826,0.011141978665081513,-1.30004554425342,0.009874749618020795,-1.3443080878321407,0.008636219443270324,-0.559544905952644,0.007997499643276411,-0.6925658680080018,,,,,,,,,,,,,,,,,,,,,,,,
8,240717_092957,LEARNING,1.0,9,1.0,679.0,,,,,,,,,,9.0,9.0,9.0,cue1.png,Easy,A,,,,,,,,,,,,,,,,,,,,,,,,,,,45,28,Male,1.2857142857142858,0.0,0.0,0.75,2.2777777777777777,2.125,3.0,2.3333333333333335,1.75,3.4444444444444446,2.25,1.75,0.75,0.75,0.8875,0.8285714285714286,0.4423604153741438,-1.2330989193619548,0.012172468666235597,-0.8031142797526527,0.015554805500023819,0.5113757958580997,0.008923416480627604,-0.47920551903808806,0.008810533244744945,-0.21619266684150842,,,6.266160532439107e+47,0.6355862528939935,,,,,,,,,,,,,,,,,,,,
9,240717_093022,LEARNING,1.0,10,1.0,679.0,,,,,,,,,,10.0,10.0,10.0,cue1.png,Easy,A,,,,,,,,,,,,,,,,,,,,,,,,,,,45,28,Male,1.2857142857142858,0.0,0.0,0.75,2.2777777777777777,2.125,3.0,2.3333333333333335,1.75,3.4444444444444446,2.25,1.75,0.75,0.75,0.8875,0.9,0.4518076214257495,-1.1126096413468227,0.01532728071656302,0.7182248304528918,0.012825095746243891,-0.38042500724512035,0.024109856845496325,3.7689904914598316,0.00778423321652771,-0.8175230779291103,,,,,,,,,,,,,,,,,,,,,,,,
10,240717_093047,LEARNING,1.0,11,3.0,679.0,,,,,,,,,,11.0,11.0,11.0,cue2.png,Hard,A,,,,,,,,,,,,,,,,,,,,,,,,,,,45,28,Male,1.2857142857142858,0.0,0.0,0.75,2.2777777777777777,2.125,3.0,2.3333333333333335,1.75,3.4444444444444446,2.25,1.75,0.75,0.75,0.8875,0.9,0.4950626571246955,-0.5609366923907726,0.012361774580499687,-0.7118256430386879,0.012805699622323877,-0.3867617538039829,0.007823207348609744,-0.7869737605124985,0.00810218829843375,-0.6312266199215295,,,1.1360658330077637e+44,-0.19102904546095867,,,,,,,,,,,,,,,,,,,,
11,240717_093112,LEARNING,1.0,12,1.0,679.0,,,,,,,,,,12.0,12.0,12.0,cue1.png,Easy,A,,,,,,,,,,,,,,,,,,,,,,,,,,,45,28,Male,1.2857142857142858,0.0,0.0,0.75,2.2777777777777777,2.125,3.0,2.3333333333333335,1.75,3.4444444444444446,2.25,1.75,0.75,0.75,0.8875,0.9,0.4993356571399739,-0.5064390256745864,0.013982098815151736,0.06954027989614774,0.022769241521669398,2.868344271766997,0.01021669573994783,-0.11742858791382164,0.012812485951038911,2.1286341867727945,4.860589871111924e+43,-0.17664008068064196,1.4984924247382648e+43,-0.19115916813255748,,,,,,,,,,,,,,,,,,,,
12,240717_093136,LEARNING,1.0,13,1.0,679.0,,,,,,,,,,13.0,13.0,13.0,cue1.png,Easy,A,,,,,,,,,,,,,,,,,,,,,,,,,,,45,28,Male,1.2857142857142858,0.0,0.0,0.75,2.2777777777777777,2.125,3.0,2.3333333333333335,1.75,3.4444444444444446,2.25,1.75,0.75,0.75,0.8875,0.9,0.4674131214435744,-0.9135777349883005,0.013547161214019433,-0.1401988654303953,0.007973105782319273,-1.965578352022884,0.008998991066474836,-0.4580645770939869,,,-1.4484229507749546e+43,-0.1767938657482558,,,,,,,,,,,,,,,,,,,,,,
13,240717_093202,LEARNING,1.0,14,1.0,679.0,,,,,,,,,,14.0,14.0,14.0,cue1.png,Easy,A,,,,,,,,,,,,,,,,,,,,,,,,,,,45,28,Male,1.2857142857142858,0.0,0.0,0.75,2.2777777777777777,2.125,3.0,2.3333333333333335,1.75,3.4444444444444446,2.25,1.75,0.75,0.75,1.0,1.0,0.5351084571365001,-0.05019420359530474,0.0138086623911506,-0.014095642231046633,0.016104281642374294,0.6908905828627108,0.007506624665947024,-0.8755333740340258,,,,,,,,,,,,,,,,,,,,,,,,,,
14,240717_093229,LEARNING,1.0,15,3.0,679.0,,,,,,,,,,15.0,15.0,15.0,cue2.png,Hard,A,,,,,,,,,,,,,,,,,,,,,,,,,,,45,28,Male,1.2857142857142858,0.0,0.0,0.75,2.2777777777777777,2.125,3.0,2.3333333333333335,1.75,3.4444444444444446,2.25,1.75,0.75,0.75,0.5625,0.7285714285714286,0.5722132076849588,0.423038261124302,0.014211325425615476,0.1800797992193813,0.012585149185025606,-0.45881595547689125,0.006721372429198455,-1.095196793455663,0.007452898511794594,-1.0116589336504163,,,,,,,,,,,,,,,,,,,,,,,,
15,240717_093254,LEARNING,1.0,16,1.0,679.0,,,,,,,,,,16.0,16.0,16.0,cue1.png,Easy,A,,,,,,,,,,,,,,,,,,,,,,,,,,,45,28,Male,1.2857142857142858,0.0,0.0,0.75,2.2777777777777777,2.125,3.0,2.3333333333333335,1.75,3.4444444444444446,2.25,1.75,0.75,0.75,0.725,0.8,0.5170385142721768,-0.2806575128111487,0.010898163827274803,-1.417619917143644,0.015401683826112178,0.4613506854675831,,,0.008319278114504475,-0.5040292071264584,,,,,,,,,,,,,,,,,,,,,,,,
16,240717_093320,LEARNING,1.0,17,1.0,679.0,,,,,,,,,,17.0,17.0,17.0,cue1.png,Easy,A,,,,,,,,,,,,,,,,,,,,,,,,,,,45,28,Male,1.2857142857142858,0.0,0.0,0.75,2.2777777777777777,2.125,3.0,2.3333333333333335,1.75,3.4444444444444446,2.25,1.75,0.75,0.75,0.8875,0.9,0.5259628856937135,-0.16683644619674282,0.013115525218633427,-0.34834588359747715,0.01807351137695472,1.334241274767499,,,0.007659888543231038,-0.8903791935427152,,,,,,,,,,,,,,,,,,,,,,,,
17,240717_093346,LEARNING,1.0,18,3.0,679.0,,,,,,,,,,18.0,18.0,18.0,cue2.png,Hard,A,,,,,,,,,,,,,,,,,,,,,,,,,,,45,28,Male,1.2857142857142858,0.0,0.0,0.75,2.2777777777777777,2.125,3.0,2.3333333333333335,1.75,3.4444444444444446,2.25,1.75,0.75,0.75,0.725,0.7285714285714286,0.5244121999981312,-0.1866138278764147,0.013757939618406306,-0.038555589994323174,0.01551376667590917,0.4979683424637687,,,,,,,,,,,,,,,,,,,,,,,,,,,,
18,240717_093414,LEARNING,1.0,19,3.0,679.0,,,,,,,,,,19.0,19.0,19.0,cue2.png,Hard,A,,,,,,,,,,,,,,,,,,,,,,,,,,,45,28,Male,1.2857142857142858,0.0,0.0,0.75,2.2777777777777777,2.125,3.0,2.3333333333333335,1.75,3.4444444444444446,2.25,1.75,0.75,0.75,0.8875,0.8285714285714286,0.6804353999994839,1.8032996575586056,0.013482557337613969,-0.17135267183110203,0.012790817444408981,-0.391623786552355,0.007946631545412329,-0.752447553721564,,,,,4.941724076439914e+43,-0.19111373769610432,,,,,,,,,,,,,,,,,,,,
19,240717_093442,LEARNING,1.0,20,3.0,679.0,,,,,,,,,,20.0,20.0,20.0,cue2.png,Hard,A,,,,,,,,,,,,,,,,,,,,,,,,,,,45,28,Male,1.2857142857142858,0.0,0.0,0.75,2.2777777777777777,2.125,3.0,2.3333333333333335,1.75,3.4444444444444446,2.25,1.75,0.75,0.75,0.8875,0.8285714285714286,0.6638862692500249,1.5922327236007696,0.014497720985806404,0.3181877941671202,0.014321388910373371,0.10841650552038265,0.008480730571124376,-0.6030407608374597,0.00912457639097015,-0.032188292850715415,3.033624517674996e+43,-0.17668461379514633,3.5880149627601804e+43,-0.19113159870636623,,,,,,,,,,,,,,,,,,,,
20,240717_093507,LEARNING,1.0,21,1.0,679.0,,,,,,,,,,21.0,21.0,21.0,cue1.png,Easy,A,,,,,,,,,,,,,,,,,,,,,,,,,,,45,28,Male,1.2857142857142858,0.0,0.0,0.75,2.2777777777777777,2.125,3.0,2.3333333333333335,1.75,3.4444444444444446,2.25,1.75,0.75,0.75,1.0,1.0,0.4980053214406195,-0.5234060725514487,0.016881162446886307,1.467550308884907,0.011687343700251276,-0.7521305290294513,0.01284741883142607,0.6184797008907102,0.005745448708539158,-2.012089084555281,1.6680512983632905e+43,-0.17671790026575468,1.5801177570982755e+43,-0.19115809115753812,,,,,,,,,,,,,,,,,,,,
21,240717_093533,LEARNING,1.0,22,3.0,679.0,,,,,,,,,,22.0,22.0,22.0,cue2.png,Hard,A,,,,,,,,,,,,,,,,,,,,,,,,,,,45,28,Male,1.2857142857142858,0.0,0.0,0.75,2.2777777777777777,2.125,3.0,2.3333333333333335,1.75,3.4444444444444446,2.25,1.75,0.75,0.75,0.0291666666666666,0.7,0.5467618500198503,0.09843269067074048,0.01686213718801187,1.4583757939072353,0.011831411399099281,-0.7050633676376684,0.007822748140357579,-0.787102217650443,0.011482677075637592,1.3494716653587788,1.5779082066030188e+42,-0.17675471355433642,-5.819699294444939e+42,-0.1911866180175306,,,,,,,,,,,,,,,,,,,,
22,240717_093600,LEARNING,1.0,23,3.0,679.0,,,,,,,,,,23.0,23.0,23.0,cue2.png,Hard,A,,,,,,,,,,,,,,,,,,,,,,,,,,,45,28,Male,1.2857142857142858,0.0,0.0,0.75,2.2777777777777777,2.125,3.0,2.3333333333333335,1.75,3.4444444444444446,2.25,1.75,0.75,0.75,0.0291666666666666,0.6285714285714286,0.5899535077086722,0.6492973190884025,0.014345308614460347,0.24469026160131702,0.014524617924010002,0.1748117687252173,0.008676527846668138,-0.5482691893008165,0.008173017450265354,-0.5897263550702561,-1.4057885247121058e+43,-0.1767928265146578,,,,,,,,,,,,,,,,,,,,,,
23,240717_093628,LEARNING,1.0,24,3.0,679.0,,,,,,,,,,24.0,24.0,24.0,cue2.png,Hard,A,,,,,,,,,,,,,,,,,,,,,,,,,,,45,28,Male,1.2857142857142858,0.0,0.0,0.75,2.2777777777777777,2.125,3.0,2.3333333333333335,1.75,3.4444444444444446,2.25,1.75,0.75,0.75,0.15,0.5285714285714286,0.6879322230726337,1.8989138311626073,0.013204631484553723,-0.305376335761861,,,0.02030631314950525,2.705001909089794,,,-2.3376301515947937e+43,-0.17681554057970114,-3.639016932034241e+43,-0.19122695308459375,,,,,,,,,,,,,,,,,,,,
24,240717_093654,LEARNING,1.0,25,1.0,679.0,,,,,,,,,,25.0,25.0,25.0,cue1.png,Easy,A,,,,,,,,,,,,,,,,,,,,,,,,,,,45,28,Male,1.2857142857142858,0.0,0.0,0.75,2.2777777777777777,2.125,3.0,2.3333333333333335,1.75,3.4444444444444446,2.25,1.75,0.75,0.75,0.8875,0.9,0.53761967142678,-0.01816627966474972,0.019194817547788737,2.5832598777526035,0.016917574546127398,0.956594752956555,0.01326682182396428,0.7358018696731586,0.009053619619767611,-0.07376333253067102,,,-3.6543717460179063e+43,-0.19122715567796286,,,,,,,,,,,,,,,,,,,,
25,240717_093719,LEARNING,1.0,26,1.0,679.0,,,,,,,,,,26.0,26.0,26.0,cue1.png,Easy,A,,,,,,,,,,,,,,,,,,,,,,,,,,,45,28,Male,1.2857142857142858,0.0,0.0,0.75,2.2777777777777777,2.125,3.0,2.3333333333333335,1.75,3.4444444444444446,2.25,1.75,0.75,0.75,0.8875,0.9,0.5166277285731796,-0.28589665674648224,0.014623993134432514,0.37907977605702414,0.013972668569184818,-0.005511020986691226,0.006566256173555779,-1.1385884140429994,0.00836876649651488,-0.4750329406544888,-2.098258893433561e+43,-0.17680970579600988,-2.4713022017246433e+43,-0.19121154610788785,,,,,,,,,,,,,,,,,,,,
26,240717_093748,LEARNING,1.0,27,3.0,679.0,,,,,,,,,,27.0,27.0,27.0,cue2.png,Hard,A,,,,,,,,,,,,,,,,,,,,,,,,,,,45,28,Male,1.2857142857142858,0.0,0.0,0.75,2.2777777777777777,2.125,3.0,2.3333333333333335,1.75,3.4444444444444446,2.25,1.75,0.75,0.75,0.9375,0.8571428571428572,0.6872626500068387,1.8903741237787186,0.013287585085486001,-0.26537377604754775,0.012755525265845231,-0.4031538011053058,0.008180067313197146,-0.687147136139504,,,,,8.967748138551175e+43,-0.1910606178224466,,,,,,,,,,,,,,,,,,,,
27,240717_093813,LEARNING,1.0,28,1.0,679.0,,,,,,,,,,28.0,28.0,28.0,cue1.png,Easy,A,,,,,,,,,,,,,,,,,,,,,,,,,,,45,28,Male,1.2857142857142858,0.0,0.0,0.75,2.2777777777777777,2.125,3.0,2.3333333333333335,1.75,3.4444444444444446,2.25,1.75,0.75,0.75,1.0,1.0,0.5020233142838281,-0.47216075683549846,0.014107390778143207,0.12995958870206145,0.014830717349867233,0.27481496995601035,0.008766227950592159,-0.523176829638127,0.008260061896889485,-0.5387252136571502,1.4789128607849954e+42,-0.176754954860011,9.966046839074114e+42,-0.1911657901032591,,,,,,,,,,,,,,,,,,,,
28,240717_093838,LEARNING,1.0,29,1.0,679.0,,,,,,,,,,29.0,29.0,29.0,cue1.png,Easy,A,,,,,,,,,,,,,,,,,,,,,,,,,,,45,28,Male,1.2857142857142858,0.0,0.0,0.75,2.2777777777777777,2.125,3.0,2.3333333333333335,1.75,3.4444444444444446,2.25,1.75,0.75,0.75,1.0,1.0,0.4582991214286137,-1.0298173168957865,,,0.01432780205257677,0.11051168994776962,,,0.008275096932551955,-0.5299158753281485,1.3654853479638825e+43,-0.17672527544891778,2.3464721604957924e+43,-0.19114797978004572,,,,,,,,,,,,,,,,,,,,
29,240717_093906,LEARNING,1.0,30,3.0,679.0,,,,,,,,,,30.0,30.0,30.0,cue2.png,Hard,A,,,,,,,,,,,,,,,,,,,,,,,,,,,45,28,Male,1.2857142857142858,0.0,0.0,0.75,2.2777777777777777,2.125,3.0,2.3333333333333335,1.75,3.4444444444444446,2.25,1.75,0.75,0.75,1.0,1.0,0.7442915357117142,2.617718190061684,,,0.017428130658427785,1.1233943001788385,0.01257628877963806,0.542634830291775,0.008977617818890199,-0.11829435943164522,2.0225362215223235e+43,-0.1767092595339294,3.175932570430876e+43,-0.19113703577387486,,,,,,,,,,,,,,,,,,,,
30,240717_093933,LEARNING,1.0,31,3.0,679.0,,,,,,,,,,31.0,31.0,31.0,cue2.png,Hard,A,,,,,,,,,,,,,,,,,,,,,,,,,,,45,28,Male,1.2857142857142858,0.0,0.0,0.75,2.2777777777777777,2.125,3.0,2.3333333333333335,1.75,3.4444444444444446,2.25,1.75,0.75,0.75,0.8875,0.9,0.6395192285750194,1.2814564875094914,,,0.014326328368086352,0.11003023472702489,0.009725073870933765,-0.25495298549750356,0.008263348587570078,-0.5367994736164804,,,3.151014219191611e+43,-0.19113736454977118,,,,,,,,,,,,,,,,,,,,
31,240717_093959,LEARNING,1.0,32,1.0,679.0,,,,,,,,,,32.0,32.0,32.0,cue1.png,Easy,A,,,,,,,,,,,,,,,,,,,,,,,,,,,45,28,Male,1.2857142857142858,0.0,0.0,0.75,2.2777777777777777,2.125,3.0,2.3333333333333335,1.75,3.4444444444444446,2.25,1.75,0.75,0.75,0.8875,0.9,0.5093825428630225,-0.37830145775683,0.01487817222557173,0.5016520834331343,0.011644827774648234,-0.7660205539835573,0.008979036268299188,-0.4636466550505951,0.006828635219270741,-1.377427706912898,1.81922469277733e+43,-0.17671421534525478,2.3561285508812647e+43,-0.1911478523724025,,,,,,,,,,,,,,,,,,,,
32,240717_094023,LEARNING,1.0,33,1.0,679.0,,,,,,,,,,33.0,33.0,33.0,cue1.png,Easy,A,,,,,,,,,,,,,,,,,,,,,,,,,,,45,28,Male,1.2857142857142858,0.0,0.0,0.75,2.2777777777777777,2.125,3.0,2.3333333333333335,1.75,3.4444444444444446,2.25,1.75,0.75,0.75,1.0,1.0,0.437405835712395,-1.296289424898891,,,,,0.014883466655541985,1.1880358335840198,,,9.470783880893618e+42,-0.17673547430956857,9.757286481392735e+42,-0.19116606554433083,,,,,,,,,,,,,,,,,,,,
33,240717_094048,LEARNING,1.0,34,1.0,679.0,,,,,,,,,,34.0,34.0,34.0,cue1.png,Easy,A,,,,,,,,,,,,,,,,,,,,,,,,,,,45,28,Male,1.2857142857142858,0.0,0.0,0.75,2.2777777777777777,2.125,3.0,2.3333333333333335,1.75,3.4444444444444446,2.25,1.75,0.75,0.75,0.8875,0.9,0.4845915500107886,-0.694484762506097,0.01917727469142399,2.5748002189625843,0.015950686659506354,0.6407108416339672,0.006975510928502765,-1.0241050739401378,0.009900482306793879,0.4224310294716903,-1.0939207351398663e+42,-0.17676122625935156,-4.117730940241721e+42,-0.19118437241883196,,,,,,,,,,,,,,,,,,,,
34,240717_094116,LEARNING,1.0,35,3.0,679.0,,,,,,,,,,35.0,35.0,35.0,cue2.png,Hard,A,,,,,,,,,,,,,,,,,,,,,,,,,,,45,28,Male,1.2857142857142858,0.0,0.0,0.75,2.2777777777777777,2.125,3.0,2.3333333333333335,1.75,3.4444444444444446,2.25,1.75,0.75,0.75,0.8875,0.7571428571428571,0.6456543749858005,1.359703892881421,0.014132062247028485,0.141856864965317,,,0.009308606730315843,-0.37145389043434174,0.00741672828323506,-1.0328518185874063,,,,,,,,,,,,,,,,,,,,,,,,
35,240717_094142,LEARNING,1.0,36,3.0,679.0,,,,,,,,,,36.0,36.0,36.0,cue2.png,Hard,A,,,,,,,,,,,,,,,,,,,,,,,,,,,45,28,Male,1.2857142857142858,0.0,0.0,0.75,2.2777777777777777,2.125,3.0,2.3333333333333335,1.75,3.4444444444444446,2.25,1.75,0.75,0.75,0.725,0.8,0.5431734213904876,0.052666019297329066,0.014673043556144384,0.40273326911205387,0.02272202977421895,2.852920113856467,0.009959129167270903,-0.1894792633976551,0.01180014097066275,1.5354803268147856,-1.840718533658773e+43,-0.17680342813217254,-2.791075093017062e+43,-0.1912157652320964,,,,,,,,,,,,,,,,,,,,
36,240717_094206,LEARNING,1.0,37,1.0,679.0,,,,,,,,,,37.0,37.0,37.0,cue1.png,Easy,A,,,,,,,,,,,,,,,,,,,,,,,,,,,45,28,Male,1.2857142857142858,0.0,0.0,0.75,2.2777777777777777,2.125,3.0,2.3333333333333335,1.75,3.4444444444444446,2.25,1.75,0.75,0.75,1.0,1.0,0.4632596714322322,-0.966550665863827,0.016195456242428224,1.1368834893371578,,,0.013412457822137232,0.7765415197530058,,,-2.008952677350291e+43,-0.17680752891622434,-2.874984132400339e+43,-0.19121687233863674,,,,,,,,,,,,,,,,,,,,
37,240717_094233,LEARNING,1.0,38,3.0,679.0,,,,,,,,,,38.0,38.0,38.0,cue2.png,Hard,A,,,,,,,,,,,,,,,,,,,,,,,,,,,45,28,Male,1.2857142857142858,0.0,0.0,0.75,2.2777777777777777,2.125,3.0,2.3333333333333335,1.75,3.4444444444444446,2.25,1.75,0.75,0.75,0.8875,0.8285714285714286,0.5671085922960908,0.35793420608518317,,,,,,,0.011703179713144867,1.478668720812902,-1.4765956854993955e+43,-0.17679455247152565,-1.779075961474078e+43,-0.19120241278681047,,,,,,,,,,,,,,,,,,,,
38,240717_094300,LEARNING,1.0,39,3.0,679.0,,,,,,,,,,39.0,39.0,39.0,cue2.png,Hard,A,,,,,,,,,,,,,,,,,,,,,,,,,,,45,28,Male,1.2857142857142858,0.0,0.0,0.75,2.2777777777777777,2.125,3.0,2.3333333333333335,1.75,3.4444444444444446,2.25,1.75,0.75,0.75,1.0,0.8571428571428572,0.4961623416747898,-0.5469113607994567,,,0.01275008508876208,-0.40493111617884414,0.00972866465472824,-0.2539485135459633,0.011263279893411235,1.2209223190152834,-3.96884919983539e+42,-0.1767682340287255,-2.835266427411633e+42,-0.19118268031883848,,,,,,,,,,,,,,,,,,,,
39,240717_094323,LEARNING,1.0,40,3.0,679.0,,,,,,,,,,40.0,40.0,40.0,cue2.png,Hard,A,,,,,,,,,,,,,,,,,,,,,,,,,,,45,28,Male,1.2857142857142858,0.0,0.0,0.75,2.2777777777777777,2.125,3.0,2.3333333333333335,1.75,3.4444444444444446,2.25,1.75,0.75,0.75,0.8875,0.9,0.4167151714375774,-1.5601773073593914,0.01160211885945591,-1.078152999559133,,,0.01334148297215888,0.7566872901060615,,,7.076472396775185e+42,-0.17674131055311204,1.2820091450524365e+43,-0.1911620244404902,,,,,,,,,,,,,,,,,,,,
40,240717_094349,LEARNING,1.0,41,1.0,679.0,,,,,,,,,,41.0,41.0,41.0,cue1.png,Easy,A,,,,,,,,,,,,,,,,,,,,,,,,,,,45,28,Male,1.2857142857142858,0.0,0.0,0.75,2.2777777777777777,2.125,3.0,2.3333333333333335,1.75,3.4444444444444446,2.25,1.75,0.75,0.75,0.8875,0.8285714285714286,0.4674549230750507,-0.9130445986971131,0.010071155890456679,-1.8164264066146192,0.008155124822259016,-1.9061124231732829,0.013133326696978377,0.6984584598775129,0.012370432071606291,1.8696256768501769,1.60285109236262e+43,-0.17671948955053998,2.508441808166251e+43,-0.1911458427319089,,,,,,,,,,,,,,,,,,,,
41,240717_094418,LEARNING,1.0,42,3.0,679.0,,,,,,,,,,42.0,42.0,42.0,cue2.png,Hard,A,,,,,,,,,,,,,,,,,,,,,,,,,,,45,28,Male,1.2857142857142858,0.0,0.0,0.75,2.2777777777777777,2.125,3.0,2.3333333333333335,1.75,3.4444444444444446,2.25,1.75,0.75,0.75,0.7999999999999999,0.6857142857142857,0.6526878636478531,1.449408718433977,0.012139392428547661,-0.8190645719445087,,,0.013734316681454672,0.866577070497262,0.011789594417911761,1.5293008834483794,2.0218918404948573e+43,-0.1767092752410111,,,,,,,,,,,,,,,,,,,,,,
42,240717_094444,LEARNING,1.0,43,3.0,679.0,,,,,,,,,,43.0,43.0,43.0,cue2.png,Hard,A,,,,,,,,,,,,,,,,,,,,,,,,,,,45,28,Male,1.2857142857142858,0.0,0.0,0.75,2.2777777777777777,2.125,3.0,2.3333333333333335,1.75,3.4444444444444446,2.25,1.75,0.75,0.75,1.0,1.0,0.6125946571534898,0.9380616093067908,,,0.012141589177770818,-0.6037277616301037,0.011939249875601599,0.36443203453193684,0.011580861850531789,1.4070001554945832,1.5554863440962812e+43,-0.1767206440879011,2.2803694101743897e+43,-0.1911488519481429,,,,,,,,,,,,,,,,,,,,
43,240717_094509,LEARNING,1.0,44,1.0,679.0,,,,,,,,,,44.0,44.0,44.0,cue1.png,Easy,A,,,,,,,,,,,,,,,,,,,,,,,,,,,45,28,Male,1.2857142857142858,0.0,0.0,0.75,2.2777777777777777,2.125,3.0,2.3333333333333335,1.75,3.4444444444444446,2.25,1.75,0.75,0.75,0.8875,0.9,0.4812414571476568,-0.7372117093046995,0.010716644204374993,-1.50515378514652,0.009617675996117271,-1.4282944758181721,,,,,4.264041420878606e+42,-0.17674816598200396,2.7394454311154618e+42,-0.19117532497309206,,,,,,,,,,,,,,,,,,,,
44,240717_094534,LEARNING,1.0,45,1.0,679.0,,,,,,,,,,45.0,45.0,45.0,cue1.png,Easy,A,,,,,,,,,,,,,,,,,,,,,,,,,,,45,28,Male,1.2857142857142858,0.0,0.0,0.75,2.2777777777777777,2.125,3.0,2.3333333333333335,1.75,3.4444444444444446,2.25,1.75,0.75,0.75,1.0,1.0,0.4914762785774655,-0.6066772171008536,,,,,0.013079564290254996,0.6834191724428232,0.010745901978962347,0.917779899226377,-1.1007495038440318e+43,-0.17678539104927304,-1.893249364779747e+43,-0.19120391920521856,,,,,,,,,,,,,,,,,,,,
45,240717_094559,LEARNING,1.0,46,1.0,679.0,,,,,,,,,,46.0,46.0,46.0,cue1.png,Easy,A,,,,,,,,,,,,,,,,,,,,,,,,,,,45,28,Male,1.2857142857142858,0.0,0.0,0.75,2.2777777777777777,2.125,3.0,2.3333333333333335,1.75,3.4444444444444446,2.25,1.75,0.75,0.75,0.8875,0.9,0.4943838071360785,-0.5695947172673593,,,,,0.011586267572270739,0.26569013210064313,0.01045904246891615,0.7497029798482211,-2.1597675903607563e+43,-0.17681120509857634,-3.1747829639365677e+43,-0.19122082792255982,,,,,,,,,,,,,,,,,,,,
46,240717_094624,LEARNING,1.0,47,3.0,679.0,,,,,,,,,,47.0,47.0,47.0,cue2.png,Hard,A,,,,,,,,,,,,,,,,,,,,,,,,,,,45,28,Male,1.2857142857142858,0.0,0.0,0.75,2.2777777777777777,2.125,3.0,2.3333333333333335,1.75,3.4444444444444446,2.25,1.75,0.75,0.75,0.8875,0.9,0.4847682000087973,-0.6922317756859541,0.01595002980571011,1.018531958120298,0.017319627447723314,1.0879461173412555,0.012473598584500412,0.5139086728236829,0.010541350800358604,0.7979291334304252,-1.6383805123954557e+43,-0.1767984960505364,-2.1794056829130126e+43,-0.19120769478808422,,,,,,,,,,,,,,,,,,,,
47,240717_094650,LEARNING,1.0,48,3.0,679.0,,,,,,,,,,48.0,48.0,48.0,cue2.png,Hard,A,,,,,,,,,,,,,,,,,,,,,,,,,,,45,28,Male,1.2857142857142858,0.0,0.0,0.75,2.2777777777777777,2.125,3.0,2.3333333333333335,1.75,3.4444444444444446,2.25,1.75,0.75,0.75,0.8875,0.8285714285714286,0.5353267461222668,-0.0474101548352785,,,0.013902724622582595,-0.028361826888562987,0.011284872288898736,0.1813789828358168,0.00903788093166582,-0.08298495537586291,8.072123163784865e+42,-0.17673888360891574,,,,,,,,,,,,,,,,,,,,,,
48,240717_094715,LEARNING,1.0,49,1.0,679.0,,,,,,,,,,49.0,49.0,49.0,cue1.png,Easy,A,,,,,,,,,,,,,,,,,,,,,,,,,,,45,28,Male,1.2857142857142858,0.0,0.0,0.75,2.2777777777777777,2.125,3.0,2.3333333333333335,1.75,3.4444444444444446,2.25,1.75,0.75,0.75,1.0,1.0,0.4573838785706487,-1.0414902867201252,0.014781070162187044,0.4548267371519036,,,0.00960998760427768,-0.2871467720021072,0.00936903388162914,0.1110444064670121,,,,,,,,,,,,,,,,,,,,,,,,
49,240717_094740,LEARNING,1.0,50,1.0,679.0,,,,,,,,,,50.0,50.0,50.0,cue1.png,Easy,A,,,,,,,,,,,,,,,,,,,,,,,,,,,45,28,Male,1.2857142857142858,0.0,0.0,0.75,2.2777777777777777,2.125,3.0,2.3333333333333335,1.75,3.4444444444444446,2.25,1.75,0.75,0.75,1.0,1.0,0.5049651928628529,-0.43464015825231866,,,0.01593648218179403,0.6360702146903986,0.009639366130834817,-0.2789285367662154,0.008919539414752254,-0.15232369751541064,-1.2319505484056393e+43,-0.17678858913462783,-8.06538902915234e+41,-0.19118000358993364,,,,,,,,,,,,,,,,,,,,
0,240717_094925,TrueCHOICE,9.0,1,3.0,679.0,,,,,,,,,,,1.0,1.0,,,A,,,,,,True,cue1.png,Easy,cue2.png,Hard,Right,Hard,Hard,0.0173685000045225,,,,,,,,,,,,,45,28,Male,1.2857142857142858,0.0,0.0,0.75,2.2777777777777777,2.125,3.0,2.3333333333333335,1.75,3.4444444444444446,2.25,1.75,0.75,0.75,0.725,0.8,0.5089471571596472,0.5554855045442925,,,,,,,,,,,,,,,,,,,,,,,,,,,,,,,,
1,240717_094948,TrueCHOICE,9.0,2,3.0,679.0,,,,,,,,,,,2.0,2.0,,,A,,,,,,True,cue1.png,Easy,cue2.png,Hard,Right,Hard,Hard,0.0188276000553742,,,,,,,,,,,,,45,28,Male,1.2857142857142858,0.0,0.0,0.75,2.2777777777777777,2.125,3.0,2.3333333333333335,1.75,3.4444444444444446,2.25,1.75,0.75,0.75,0.15,0.6,0.422512000010881,-1.1479195102850615,,,,,,,,,,,,,,,,,,,,,,,,,,,,,,,,
2,240717_095012,TrueCHOICE,9.0,3,1.0,679.0,,,,,,,,,,,3.0,3.0,,,A,,,,,,True,cue2.png,Hard,cue1.png,Easy,Right,Easy,Easy,0.0164263000478968,,,,,,,,,,,,,45,28,Male,1.2857142857142858,0.0,0.0,0.75,2.2777777777777777,2.125,3.0,2.3333333333333335,1.75,3.4444444444444446,2.25,1.75,0.75,0.75,1.0,1.0,0.5767872071425829,1.892430853626199,,,,,,,,,,,,,,,0.035659914760657545,1.9910040621189051,4419987.99573085,-0.576136401895772,,,,,,,,,,,,,,
3,240717_095035,TrueCHOICE,9.0,4,1.0,679.0,,,,,,,,,,,4.0,4.0,,,A,,,,,,True,cue1.png,Easy,cue2.png,Hard,Left,Easy,Easy,0.0170244000619277,,,,,,,,,,,,,45,28,Male,1.2857142857142858,0.0,0.0,0.75,2.2777777777777777,2.125,3.0,2.3333333333333335,1.75,3.4444444444444446,2.25,1.75,0.75,0.75,0.0291666666666666,0.7,0.5126975214391548,0.6293951210925085,,,,,,,,,,,,,0.014065458055861998,-0.6021085675115062,,,387999.53203093616,-0.5780261746421177,,,,,,,,,,,,,,
4,240717_095057,TrueCHOICE,9.0,5,1.0,679.0,,,,,,,,,,,5.0,5.0,,,A,,,,,,True,cue2.png,Hard,cue1.png,Easy,Right,Easy,Easy,0.0165490000508725,,,,,,,,,,,,,45,28,Male,1.2857142857142858,0.0,0.0,0.75,2.2777777777777777,2.125,3.0,2.3333333333333335,1.75,3.4444444444444446,2.25,1.75,0.75,0.75,0.8875,0.9,0.4229902928345836,-1.1384936421391905,,,,,,,,,,,,,0.012971347194746113,-1.1766724891905211,0.01073613948124845,-0.3322152769547995,,,,,,,,,,,,,,,,
5,240717_095119,TrueCHOICE,9.0,6,1.0,679.0,,,,,,,,,,,6.0,6.0,,,A,,,,,,True,cue2.png,Hard,cue1.png,Easy,Right,Easy,Easy,0.0168628999963402,,,,,,,,,,,,,45,28,Male,1.2857142857142858,0.0,0.0,0.75,2.2777777777777777,2.125,3.0,2.3333333333333335,1.75,3.4444444444444446,2.25,1.75,0.75,0.75,0.8875,0.9,0.463432392845529,-0.3414883697324175,,,,,,,,,,,,,0.013337374472814731,-0.9844560732835361,,,683338.9109411219,-0.5778877505582662,,,,,,,,,,,,,,
6,240717_095142,TrueCHOICE,9.0,7,1.0,679.0,,,,,,,,,,,7.0,7.0,,,A,,,,,,True,cue1.png,Easy,cue2.png,Hard,Left,Easy,Easy,0.0156814000802114,,,,,,,,,,,,,45,28,Male,1.2857142857142858,0.0,0.0,0.75,2.2777777777777777,2.125,3.0,2.3333333333333335,1.75,3.4444444444444446,2.25,1.75,0.75,0.75,0.8875,0.9,0.5177973928678382,0.7298999024010278,,,,,,,,,,,,,0.01615173017391556,0.4934812236508675,0.007773297600298563,-0.6083905946694873,,,,,,,,,,,,,,,,
7,240717_095205,TrueCHOICE,9.0,8,1.0,679.0,,,,,,,,,,,8.0,8.0,,,A,,,,,,True,cue2.png,Hard,cue1.png,Easy,Right,Easy,Easy,0.0156251000007614,,,,,,,,,,,,,45,28,Male,1.2857142857142858,0.0,0.0,0.75,2.2777777777777777,2.125,3.0,2.3333333333333335,1.75,3.4444444444444446,2.25,1.75,0.75,0.75,1.0,1.0,0.4539517000001589,-0.5283273860491797,,,,,,,,,,,,,,,0.009128996029068082,-0.48202190564221836,,,,,,,,,,,,,,,,
8,240717_095226,TrueCHOICE,9.0,9,1.0,679.0,,,,,,,,,,,9.0,9.0,,,A,,,,,,True,cue1.png,Easy,cue2.png,Hard,Left,Easy,Easy,0.0162650999845936,,,,,,,,,,,,,45,28,Male,1.2857142857142858,0.0,0.0,0.75,2.2777777777777777,2.125,3.0,2.3333333333333335,1.75,3.4444444444444446,2.25,1.75,0.75,0.75,1.0,1.0,0.4140150142983267,-1.3153722986080705,,,,,,,,,,,,,0.01645557117584165,0.6530409939062191,0.008202575907804113,-0.5683762848524005,4929129734.899234,1.732050327096156,,,,,,,,,,,,,,
9,240717_095250,TrueCHOICE,9.0,10,1.0,679.0,,,,,,,,,,,10.0,10.0,,,A,,,,,,True,cue2.png,Hard,cue1.png,Easy,Right,Easy,Easy,0.0165534999687224,,,,,,,,,,,,,45,28,Male,1.2857142857142858,0.0,0.0,0.75,2.2777777777777777,2.125,3.0,2.3333333333333335,1.75,3.4444444444444446,2.25,1.75,0.75,0.75,0.0291666666666666,0.7,0.514473242843191,0.6643898251498975,,,,,,,,,,,,,0.018290643064358753,1.6167149124284732,,,,,,,,,,,,,,,,,,
0,240717_095432,FalseCHOICE,9.0,1,2.0,679.0,,,,,,,,,,,1.0,1.0,,,A,,,,,,False,cue1.png,Easy,cue2.png,Hard,Left,Easy,Mid,0.0160649999743327,,,,,,,,,,,,,45,28,Male,1.2857142857142858,0.0,0.0,0.75,2.2777777777777777,2.125,3.0,2.3333333333333335,1.75,3.4444444444444446,2.25,1.75,0.75,0.75,0.0291666666666666,0.5571428571428572,0.5676286833380194,1.3211470069189235,,,,,,,,,,,,,,,,,,,0.012596267819996166,-1.1893574478233022,,,7.701580450098083e+44,5.46799306515121,,,,,,,,
1,240717_095456,FalseCHOICE,9.0,2,2.0,679.0,,,,,,,,,,,2.0,2.0,,,A,,,,,,False,cue2.png,Hard,cue1.png,Easy,Left,Hard,Mid,0.0165928000351414,,,,,,,,,,,,,45,28,Male,1.2857142857142858,0.0,0.0,0.75,2.2777777777777777,2.125,3.0,2.3333333333333335,1.75,3.4444444444444446,2.25,1.75,0.75,0.75,0.0291666666666666,0.7,0.609295842861424,1.8198928481727261,,,,,,,,,,,,,,,,,,,0.016551305301360144,-0.11008260761776939,0.00677504108590182,-1.3399177863001799,1.1067656628848506e+44,0.6699697472054882,,,,,,,,
2,240717_095520,FalseCHOICE,9.0,3,2.0,679.0,,,,,,,,,,,3.0,3.0,,,A,,,,,,False,cue2.png,Hard,cue1.png,Easy,Right,Easy,Mid,0.0167578000109642,,,,,,,,,,,,,45,28,Male,1.2857142857142858,0.0,0.0,0.75,2.2777777777777777,2.125,3.0,2.3333333333333335,1.75,3.4444444444444446,2.25,1.75,0.75,0.75,0.725,0.8,0.5233995714391183,0.7917352141727602,,,,,,,,,,,,,,,,,,,0.014544407090249567,-0.657737277468875,0.010777784791686201,0.13557613439887636,-1.1267713720067758e+44,-0.9550285462543748,,,,,,,,
3,240717_095545,FalseCHOICE,9.0,4,2.0,679.0,,,,,,,,,,,4.0,4.0,,,A,,,,,,False,cue2.png,Hard,cue1.png,Easy,Right,Easy,Mid,0.0165395999792963,,,,,,,,,,,,,45,28,Male,1.2857142857142858,0.0,0.0,0.75,2.2777777777777777,2.125,3.0,2.3333333333333335,1.75,3.4444444444444446,2.25,1.75,0.75,0.75,0.0291666666666666,0.7,0.6089978857281884,1.8163263732132389,,,,,,,,,,,,,,,,,,,0.016947883354647714,-0.0018619606307898348,,,-1.1676010209771124e+44,-0.9847339457453582,,,,,,,,
4,240717_095611,FalseCHOICE,9.0,5,2.0,679.0,,,,,,,,,,,5.0,5.0,,,A,,,,,,False,cue1.png,Easy,cue2.png,Hard,Left,Easy,Mid,0.0151267000474035,,,,,,,,,,,,,45,28,Male,1.2857142857142858,0.0,0.0,0.75,2.2777777777777777,2.125,3.0,2.3333333333333335,1.75,3.4444444444444446,2.25,1.75,0.75,0.75,0.8875,0.9,0.6463886857049407,2.263885222985157,,,,,,,,,,,,,,,,,,,0.01665439473344928,-0.08195093228747383,,,,,,,,,,,,
5,240717_095636,FalseCHOICE,9.0,6,2.0,679.0,,,,,,,,,,,6.0,6.0,,,A,,,,,,False,cue2.png,Hard,cue1.png,Easy,Left,Hard,Mid,0.0166483999928459,,,,,,,,,,,,,45,28,Male,1.2857142857142858,0.0,0.0,0.75,2.2777777777777777,2.125,3.0,2.3333333333333335,1.75,3.4444444444444446,2.25,1.75,0.75,0.75,0.7999999999999999,0.7571428571428571,0.5052844666546056,0.5749017827967221,,,,,,,,,,,,,,,,,,,0.01693499680313531,-0.005378521697501932,0.007384112621831274,-1.1154014508585532,-2.0488860146028118e+43,-0.28431751460103505,,,,,,,,
6,240717_095700,FalseCHOICE,9.0,7,2.0,679.0,,,,,,,,,,,7.0,7.0,,,A,,,,,,False,cue2.png,Hard,cue1.png,Easy,Right,Easy,Mid,0.0166479999898001,,,,,,,,,,,,,45,28,Male,1.2857142857142858,0.0,0.0,0.75,2.2777777777777777,2.125,3.0,2.3333333333333335,1.75,3.4444444444444446,2.25,1.75,0.75,0.75,1.0,1.0,0.4961921571437934,0.46606903278978223,,,,,,,,,,,,,,,,,,,0.031083514725555622,3.855555664594728,0.023986939724894827,5.004743194322337,1.0964035287933046e+43,-0.05548360405413267,,,,,,,,
7,240717_095727,FalseCHOICE,9.0,8,2.0,679.0,,,,,,,,,,,8.0,8.0,,,A,,,,,,False,cue1.png,Easy,cue2.png,Hard,Left,Easy,Mid,0.016635000007227,,,,,,,,,,,,,45,28,Male,1.2857142857142858,0.0,0.0,0.75,2.2777777777777777,2.125,3.0,2.3333333333333335,1.75,3.4444444444444446,2.25,1.75,0.75,0.75,0.15,0.4571428571428571,0.682808049993279,2.6998162220664175,,,,,,,,,,,,,,,,,,,0.01701656626344835,0.01688065199170622,0.008851172882685863,-0.5746127680702974,,,,,,,,,,
8,240717_095751,FalseCHOICE,9.0,9,2.0,679.0,,,,,,,,,,,9.0,9.0,,,A,,,,,,False,cue1.png,Easy,cue2.png,Hard,Left,Easy,Mid,0.016014099936001,,,,,,,,,,,,,45,28,Male,1.2857142857142858,0.0,0.0,0.75,2.2777777777777777,2.125,3.0,2.3333333333333335,1.75,3.4444444444444446,2.25,1.75,0.75,0.75,0.7999999999999999,0.8285714285714286,0.4313906153681903,-0.30958977950008876,,,,,,,,,,,,,,,,,,,0.017859286956824,0.24684743384056776,,,,,,,,,,,,
9,240717_095815,FalseCHOICE,9.0,10,2.0,679.0,,,,,,,,,,,10.0,10.0,,,A,,,,,,False,cue2.png,Hard,cue1.png,Easy,Right,Easy,Mid,0.0171004999428987,,,,,,,,,,,,,45,28,Male,1.2857142857142858,0.0,0.0,0.75,2.2777777777777777,2.125,3.0,2.3333333333333335,1.75,3.4444444444444446,2.25,1.75,0.75,0.75,0.725,0.6571428571428573,0.4486120000074152,-0.10345396252362768,,,,,,,,,,,,,,,,,,,0.016344830620588762,-0.166426682521244,0.008076631002789561,-0.8601248865360139,,,,,,,,,,
10,240717_095841,FalseCHOICE,9.0,11,2.0,679.0,,,,,,,,,,,12.0,11.0,,,A,,,,,,False,cue1.png,Easy,cue2.png,Hard,Left,Easy,Mid,0.014364399947226,,,,,,,,,,,,,45,28,Male,1.2857142857142858,0.0,0.0,0.75,2.2777777777777777,2.125,3.0,2.3333333333333335,1.75,3.4444444444444446,2.25,1.75,0.75,0.75,0.725,0.8,0.3419366499874741,-1.3803321513729192,,,,,,,,,,,,,,,,,,,0.01252894298086534,-1.207729462080352,0.009838625608548639,-0.2106173186782343,,,,,,,,,,
11,240717_095902,FalseCHOICE,9.0,12,2.0,679.0,,,,,,,,,,,13.0,12.0,,,A,,,,,,False,cue2.png,Hard,cue1.png,Easy,Right,Easy,Mid,0.0165690000867471,,,,,,,,,,,,,45,28,Male,1.2857142857142858,0.0,0.0,0.75,2.2777777777777777,2.125,3.0,2.3333333333333335,1.75,3.4444444444444446,2.25,1.75,0.75,0.75,0.8875,0.9,0.3759946642759522,-0.9726659417720517,,,,,,,,,,,,,,,,,,,,,0.009324398296912114,-0.4001721160739941,,,,,,,,,,
12,240717_095930,FalseCHOICE,9.0,13,2.0,679.0,,,,,,,,,,,15.0,13.0,,,A,,,,,,False,cue1.png,Easy,cue2.png,Hard,Left,Easy,Mid,0.0165280000073835,,,,,,,,,,,,,45,28,Male,1.2857142857142858,0.0,0.0,0.75,2.2777777777777777,2.125,3.0,2.3333333333333335,1.75,3.4444444444444446,2.25,1.75,0.75,0.75,0.5625,0.7285714285714286,0.3512847538535985,-1.2684376046803545,,,,,,,,,,,,,,,,,,,0.019991326718822127,0.8286514962002505,0.008023514443629785,-0.8797047462246181,,,,,,,,,,
13,240717_095953,FalseCHOICE,9.0,14,2.0,679.0,,,,,,,,,,,16.0,14.0,,,A,,,,,,False,cue2.png,Hard,cue1.png,Easy,Right,Easy,Mid,0.0164604000747203,,,,,,,,,,,,,45,28,Male,1.2857142857142858,0.0,0.0,0.75,2.2777777777777777,2.125,3.0,2.3333333333333335,1.75,3.4444444444444446,2.25,1.75,0.75,0.75,0.7999999999999999,0.8285714285714286,0.4490012076969903,-0.0987952404321792,,,,,,,,,,,,,,,,,,,0.018641381662395408,0.4602702249919856,0.010337943173416084,-0.02655856158231874,,,,,,,,,,
14,240717_100015,FalseCHOICE,9.0,15,2.0,679.0,,,,,,,,,,,17.0,15.0,,,A,,,,,,False,cue1.png,Easy,cue2.png,Hard,Left,Easy,Mid,0.0160984999965876,,,,,,,,,,,,,45,28,Male,1.2857142857142858,0.0,0.0,0.75,2.2777777777777777,2.125,3.0,2.3333333333333335,1.75,3.4444444444444446,2.25,1.75,0.75,0.75,1.0,1.0,0.401583657150955,-0.6663718741115924,,,,,,,,,,,,,,,,,,,,,0.011874092866360765,0.5396979114334669,-2.619023721964472e+43,-0.32579758800150904,,,,,,,,
15,240717_100037,FalseCHOICE,9.0,16,2.0,679.0,,,,,,,,,,,18.0,16.0,,,A,,,,,,False,cue1.png,Easy,cue2.png,Hard,Right,Hard,Mid,0.0165248999837785,,,,,,,,,,,,,45,28,Male,1.2857142857142858,0.0,0.0,0.75,2.2777777777777777,2.125,3.0,2.3333333333333335,1.75,3.4444444444444446,2.25,1.75,0.75,0.75,0.8875,0.9,0.4014745285801057,-0.6676781167615743,,,,,,,,,,,,,,,,,,,0.014305589650016532,-0.7229072425729509,0.01186673802048371,0.5369867634867245,,,,,,,,,,
16,240717_100058,FalseCHOICE,9.0,17,2.0,679.0,,,,,,,,,,,19.0,17.0,,,A,,,,,,False,cue2.png,Hard,cue1.png,Easy,Right,Easy,Mid,0.0166112000588327,,,,,,,,,,,,,45,28,Male,1.2857142857142858,0.0,0.0,0.75,2.2777777777777777,2.125,3.0,2.3333333333333335,1.75,3.4444444444444446,2.25,1.75,0.75,0.75,0.8875,0.8285714285714286,0.3181462846159075,-1.6650970819968198,,,,,,,,,,,,,,,,,,,,,0.009567183941739874,-0.3106763178647104,,,,,,,,,,
17,240717_100120,FalseCHOICE,9.0,18,2.0,679.0,,,,,,,,,,,20.0,18.0,,,A,,,,,,False,cue2.png,Hard,cue1.png,Easy,Right,Easy,Mid,0.0169036999577656,,,,,,,,,,,,,45,28,Male,1.2857142857142858,0.0,0.0,0.75,2.2777777777777777,2.125,3.0,2.3333333333333335,1.75,3.4444444444444446,2.25,1.75,0.75,0.75,1.0,1.0,0.3868185214315807,-0.8431069844434953,,,,,,,,,,,,,,,,,,,0.014939463725970877,-0.5499318042213223,0.008722554744123461,-0.6220240677910882,,,,,,,,,,
18,240717_100139,FalseCHOICE,9.0,19,2.0,679.0,,,,,,,,,,,21.0,19.0,,,A,,,,,,False,cue1.png,Easy,cue2.png,Hard,Right,Hard,Mid,0.0149378000060096,,,,,,,,,,,,,45,28,Male,1.2857142857142858,0.0,0.0,0.75,2.2777777777777777,2.125,3.0,2.3333333333333335,1.75,3.4444444444444446,2.25,1.75,0.75,0.75,0.725,0.8,0.2491391071317983,-2.4910963384983416,,,,,,,,,,,,,,,,,,,0.01430371100900317,-0.7234198976335044,,,,,,,,,,,,
19,240717_100201,FalseCHOICE,9.0,20,2.0,679.0,,,,,,,,,,,22.0,20.0,,,A,,,,,,False,cue1.png,Easy,cue2.png,Hard,Left,Easy,Mid,0.0159805000293999,,,,,,,,,,,,,45,28,Male,1.2857142857142858,0.0,0.0,0.75,2.2777777777777777,2.125,3.0,2.3333333333333335,1.75,3.4444444444444446,2.25,1.75,0.75,0.75,0.725,0.8,0.4510642571424666,-0.07410103657951886,,,,,,,,,,,,,,,,,,,0.015782255257506844,-0.31994569162161035,0.01042494247481056,0.00551117601469775,,,,,,,,,,
20,240717_100223,FalseCHOICE,9.0,21,2.0,679.0,,,,,,,,,,,23.0,21.0,,,A,,,,,,False,cue1.png,Easy,cue2.png,Hard,Left,Easy,Mid,0.0161213000537827,,,,,,,,,,,,,45,28,Male,1.2857142857142858,0.0,0.0,0.75,2.2777777777777777,2.125,3.0,2.3333333333333335,1.75,3.4444444444444446,2.25,1.75,0.75,0.75,1.0,1.0,0.3934013285823831,-0.7643123719047085,,,,,,,,,,,,,,,,,,,0.017313788276723047,0.09798841453356366,0.010131086335162739,-0.102810260350034,1.1012944323168523e+43,-0.055127768903200085,,,,,,,,
21,240717_100246,FalseCHOICE,9.0,22,2.0,679.0,,,,,,,,,,,24.0,22.0,,,A,,,,,,False,cue2.png,Hard,cue1.png,Easy,Right,Easy,Mid,0.0151053000008687,,,,,,,,,,,,,45,28,Male,1.2857142857142858,0.0,0.0,0.75,2.2777777777777777,2.125,3.0,2.3333333333333335,1.75,3.4444444444444446,2.25,1.75,0.75,0.75,0.8875,0.9,0.5133098928573807,0.6709641971466874,,,,,,,,,,,,,,,,,,,0.016145091251572312,-0.22093278432021815,0.010063427124548201,-0.12775084143115123,2.2356046577055902e+42,-0.11898684871553414,,,,,,,,
22,240717_100310,FalseCHOICE,9.0,23,2.0,679.0,,,,,,,,,,,25.0,23.0,,,A,,,,,,False,cue1.png,Easy,cue2.png,Hard,Left,Easy,Mid,0.0159923000028356,,,,,,,,,,,,,45,28,Male,1.2857142857142858,0.0,0.0,0.75,2.2777777777777777,2.125,3.0,2.3333333333333335,1.75,3.4444444444444446,2.25,1.75,0.75,0.75,0.8875,0.9,0.4598724785859563,0.031331247838991855,,,,,,,,,,,,,,,,,,,0.016567353951375093,-0.10570315375367469,0.009831844950325186,-0.2131168092083386,-6.558554111352724e+42,-0.1829682950443533,,,,,,,,
23,240717_100333,FalseCHOICE,9.0,24,2.0,679.0,,,,,,,,,,,26.0,24.0,,,A,,,,,,False,cue2.png,Hard,cue1.png,Easy,Right,Easy,Mid,0.0168959000147879,,,,,,,,,,,,,45,28,Male,1.2857142857142858,0.0,0.0,0.75,2.2777777777777777,2.125,3.0,2.3333333333333335,1.75,3.4444444444444446,2.25,1.75,0.75,0.75,0.725,0.8,0.4713399142991485,0.16859368514498027,,,,,,,,,,,,,,,,,,,0.014490884667699898,-0.6723428037924297,0.01297127877824986,0.9441432773782169,-1.293762841636178e+43,-0.2293789195272213,,,,,,,,
24,240717_100356,FalseCHOICE,9.0,25,2.0,679.0,,,,,,,,,,,27.0,25.0,,,A,,,,,,False,cue2.png,Hard,cue1.png,Easy,Left,Hard,Mid,0.016565499943681,,,,,,,,,,,,,45,28,Male,1.2857142857142858,0.0,0.0,0.75,2.2777777777777777,2.125,3.0,2.3333333333333335,1.75,3.4444444444444446,2.25,1.75,0.75,0.75,0.725,0.8,0.5020144714341898,0.5357607293686352,,,,,,,,,,,,,,,,,,,0.016521457628857435,-0.11822762321437481,0.011323139427876093,0.3366051058917059,,,,,,,,,,
25,240717_100417,FalseCHOICE,9.0,26,2.0,679.0,,,,,,,,,,,28.0,26.0,,,A,,,,,,False,cue1.png,Easy,cue2.png,Hard,Left,Easy,Mid,0.0139576999936252,,,,,,,,,,,,,45,28,Male,1.2857142857142858,0.0,0.0,0.75,2.2777777777777777,2.125,3.0,2.3333333333333335,1.75,3.4444444444444446,2.25,1.75,0.75,0.75,0.0291666666666666,0.7,0.36993880715454,-1.0451530896621073,,,,,,,,,,,,,,,,,,,0.023587210984415873,1.809918408191146,,,-1.2577004570319116e+43,-0.22675521942623467,,,,,,,,
26,240717_100438,FalseCHOICE,9.0,27,2.0,679.0,,,,,,,,,,,29.0,27.0,,,A,,,,,,False,cue1.png,Easy,cue2.png,Hard,Left,Easy,Mid,0.016053200000897,,,,,,,,,,,,,45,28,Male,1.2857142857142858,0.0,0.0,0.75,2.2777777777777777,2.125,3.0,2.3333333333333335,1.75,3.4444444444444446,2.25,1.75,0.75,0.75,1.0,1.0,0.3085024428603771,-1.7805315398359451,,,,,,,,,,,,,,,,,,,0.013865697728590047,-0.8429476430602661,0.008848476739697351,-0.5756066220068198,7.337378272689786e+42,-0.08186915920128736,,,,,,,,
27,240717_100500,FalseCHOICE,9.0,28,2.0,679.0,,,,,,,,,,,30.0,28.0,,,A,,,,,,False,cue2.png,Hard,cue1.png,Easy,Left,Hard,Mid,0.0180047999601811,,,,,,,,,,,,,45,28,Male,1.2857142857142858,0.0,0.0,0.75,2.2777777777777777,2.125,3.0,2.3333333333333335,1.75,3.4444444444444446,2.25,1.75,0.75,0.75,0.0291666666666666,0.7,0.411408021430751,-0.5487766052342312,,,,,,,,,,,,,,,,,,,,,0.011828939946438988,0.5230536134860073,3.685586839735323e+41,-0.13257044492965694,,,,,,,,
28,240717_100523,FalseCHOICE,9.0,29,2.0,679.0,,,,,,,,,,,31.0,29.0,,,A,,,,,,False,cue1.png,Easy,cue2.png,Hard,Left,Easy,Mid,0.016169200069271,,,,,,,,,,,,,45,28,Male,1.2857142857142858,0.0,0.0,0.75,2.2777777777777777,2.125,3.0,2.3333333333333335,1.75,3.4444444444444446,2.25,1.75,0.75,0.75,0.8875,0.9,0.4587437785480038,0.017820980847174896,,,,,,,,,,,,,,,,,,,0.015071986916150326,-0.513768064793213,0.008867722072559347,-0.5685123952146649,7.106708435552325e+42,-0.08354738564591503,,,,,,,,
29,240717_100545,FalseCHOICE,9.0,30,2.0,679.0,,,,,,,,,,,32.0,30.0,,,A,,,,,,False,cue1.png,Easy,cue2.png,Hard,Left,Easy,Mid,0.0151091000298038,,,,,,,,,,,,,45,28,Male,1.2857142857142858,0.0,0.0,0.75,2.2777777777777777,2.125,3.0,2.3333333333333335,1.75,3.4444444444444446,2.25,1.75,0.75,0.75,0.8875,0.9,0.4531840214372745,-0.04872796967103719,,,,,,,,,,,,,,,,,,,0.02431905979593483,2.009629792173866,0.013641480086601942,1.1911933082580406,1.1300840771649705e+43,-0.05303319321375881,,,,,,,,
30,240717_100608,FalseCHOICE,9.0,31,2.0,679.0,,,,,,,,,,,33.0,31.0,,,A,,,,,,False,cue2.png,Hard,cue1.png,Easy,Right,Easy,Mid,0.0169005999341607,,,,,,,,,,,,,45,28,Male,1.2857142857142858,0.0,0.0,0.75,2.2777777777777777,2.125,3.0,2.3333333333333335,1.75,3.4444444444444446,2.25,1.75,0.75,0.75,0.725,0.8,0.5041264285599547,0.5610403463482841,,,,,,,,,,,,,,,,,,,0.020218464049616646,0.8906341215364388,0.013932988369561016,1.29864927620272,,,,,,,,,,
31,240717_100631,FalseCHOICE,9.0,32,2.0,679.0,,,,,,,,,,,34.0,32.0,,,A,,,,,,False,cue1.png,Easy,cue2.png,Hard,Left,Easy,Mid,0.0157983000390231,,,,,,,,,,,,,45,28,Male,1.2857142857142858,0.0,0.0,0.75,2.2777777777777777,2.125,3.0,2.3333333333333335,1.75,3.4444444444444446,2.25,1.75,0.75,0.75,0.0291666666666666,0.7,0.4345260857288459,-0.27205895616971165,,,,,,,,,,,,,,,,,,,0.016241184465905834,-0.19471027972112628,0.011143064023609468,0.27022559628711484,1.0748067425527676e+43,-0.05705486704359069,,,,,,,,
32,240717_100654,FalseCHOICE,9.0,33,2.0,679.0,,,,,,,,,,,35.0,33.0,,,A,,,,,,False,cue2.png,Hard,cue1.png,Easy,Right,Easy,Mid,0.0166474999859929,,,,,,,,,,,,,45,28,Male,1.2857142857142858,0.0,0.0,0.75,2.2777777777777777,2.125,3.0,2.3333333333333335,1.75,3.4444444444444446,2.25,1.75,0.75,0.75,0.725,0.8,0.4811519214334631,0.2860410419738811,,,,,,,,,,,,,,,,,,,0.012401655720202081,-1.2424643890083165,0.008599769022693734,-0.6672854182134,5.957856610369015e+42,-0.09190579755580175,,,,,,,,
33,240717_100715,FalseCHOICE,9.0,34,2.0,679.0,,,,,,,,,,,36.0,34.0,,,A,,,,,,False,cue2.png,Hard,cue1.png,Easy,Right,Easy,Mid,0.0171158000594005,,,,,,,,,,,,,45,28,Male,1.2857142857142858,0.0,0.0,0.75,2.2777777777777777,2.125,3.0,2.3333333333333335,1.75,3.4444444444444446,2.25,1.75,0.75,0.75,0.725,0.8,0.4046219213965482,-0.6300045845134484,,,,,,,,,,,,,,,,,,,0.012820770814193031,-1.1280936963849915,0.011082971587732318,0.24807428450349986,-8.008359234947938e+41,-0.14107831478733943,,,,,,,,
34,240717_100738,FalseCHOICE,9.0,35,2.0,679.0,,,,,,,,,,,37.0,35.0,,,A,,,,,,False,cue2.png,Hard,cue1.png,Easy,Right,Easy,Mid,0.0164983000140637,,,,,,,,,,,,,45,28,Male,1.2857142857142858,0.0,0.0,0.75,2.2777777777777777,2.125,3.0,2.3333333333333335,1.75,3.4444444444444446,2.25,1.75,0.75,0.75,0.725,0.8,0.4565262428784211,-0.008722385815846827,,,,,,,,,,,,,,,,,,,0.014981959530694682,-0.5383352888737932,0.009654966999954231,-0.2783176713322128,-6.718753777702571e+42,-0.18413381941383827,,,,,,,,
35,240717_100801,FalseCHOICE,9.0,36,2.0,679.0,,,,,,,,,,,38.0,36.0,,,A,,,,,,False,cue1.png,Easy,cue2.png,Hard,Left,Easy,Mid,0.0164050000021234,,,,,,,,,,,,,45,28,Male,1.2857142857142858,0.0,0.0,0.75,2.2777777777777777,2.125,3.0,2.3333333333333335,1.75,3.4444444444444446,2.25,1.75,0.75,0.75,0.9375,0.9285714285714286,0.4632571615422001,0.0718450857799007,,,,,,,,,,,,,,,,,,,0.016308083895820873,-0.17645435373518717,0.011012750589916126,0.2221893758011304,-1.0464923429627211e+43,-0.21138888255490698,,,,,,,,
36,240717_100826,FalseCHOICE,9.0,37,2.0,679.0,,,,,,,,,,,39.0,37.0,,,A,,,,,,False,cue2.png,Hard,cue1.png,Easy,Right,Easy,Mid,0.0165514999534934,,,,,,,,,,,,,45,28,Male,1.2857142857142858,0.0,0.0,0.75,2.2777777777777777,2.125,3.0,2.3333333333333335,1.75,3.4444444444444446,2.25,1.75,0.75,0.75,0.875,0.7142857142857143,0.426844630006235,-0.3640041269048431,,,,,,,,,,,,,,,,,,,0.014194338293954254,-0.7532661936834105,0.00924216610889018,-0.4304845973194976,-1.1568724981486636e+43,-0.21941953353615185,,,,,,,,
37,240717_100850,FalseCHOICE,9.0,38,2.0,679.0,,,,,,,,,,,40.0,38.0,,,A,,,,,,False,cue1.png,Easy,cue2.png,Hard,Left,Easy,Mid,0.0161256999708712,,,,,,,,,,,,,45,28,Male,1.2857142857142858,0.0,0.0,0.75,2.2777777777777777,2.125,3.0,2.3333333333333335,1.75,3.4444444444444446,2.25,1.75,0.75,0.75,0.725,0.8,0.4406864643096924,-0.1983207116411788,,,,,,,,,,,,,,,,,,,,,,,-9.142961853669279e+42,-0.20177101962542401,,,,,,,,
38,240717_100913,FalseCHOICE,9.0,39,2.0,679.0,,,,,,,,,,,41.0,39.0,,,A,,,,,,False,cue1.png,Easy,cue2.png,Hard,Left,Easy,Mid,0.0160217999946326,,,,,,,,,,,,,45,28,Male,1.2857142857142858,0.0,0.0,0.75,2.2777777777777777,2.125,3.0,2.3333333333333335,1.75,3.4444444444444446,2.25,1.75,0.75,0.75,0.725,0.8,0.539094499985887,0.9795997202012927,,,,,,,,,,,,,,,,,,,0.02365288236485426,1.827839216517917,0.009214430478742342,-0.44070852287604845,-2.2499383616828982e+42,-0.15162118447035078,,,,,,,,
39,240717_100936,FalseCHOICE,9.0,40,2.0,679.0,,,,,,,,,,,42.0,40.0,,,A,,,,,,False,cue2.png,Hard,cue1.png,Easy,Right,Easy,Mid,0.0164881999371573,,,,,,,,,,,,,45,28,Male,1.2857142857142858,0.0,0.0,0.75,2.2777777777777777,2.125,3.0,2.3333333333333335,1.75,3.4444444444444446,2.25,1.75,0.75,0.75,0.0291666666666666,0.5571428571428572,0.3717387583261977,-1.0236081086364643,,,,,,,,,,,,,,,,,,,0.01805928718519485,0.30142472053712155,0.009879468380111521,-0.1955618303494546,3.5842437294675426e+42,-0.10917489504800607,,,,,,,,
40,240717_101000,FalseCHOICE,9.0,41,2.0,679.0,,,,,,,,,,,43.0,41.0,,,A,,,,,,False,cue2.png,Hard,cue1.png,Easy,Right,Easy,Mid,0.0174017999088391,,,,,,,,,,,,,45,28,Male,1.2857142857142858,0.0,0.0,0.75,2.2777777777777777,2.125,3.0,2.3333333333333335,1.75,3.4444444444444446,2.25,1.75,0.75,0.75,0.8875,0.9,0.5482079928624444,1.0886860299826453,,,,,,,,,,,,,,,,,,,0.017503951376371008,0.14988128532242917,0.008387665966512858,-0.7454709811572172,9.337171128539279e+42,-0.06731976992650272,,,,,,,,
41,240717_101022,FalseCHOICE,9.0,42,2.0,679.0,,,,,,,,,,,44.0,42.0,,,A,,,,,,False,cue1.png,Easy,cue2.png,Hard,Left,Easy,Mid,0.0160345000913366,,,,,,,,,,,,,45,28,Male,1.2857142857142858,0.0,0.0,0.75,2.2777777777777777,2.125,3.0,2.3333333333333335,1.75,3.4444444444444446,2.25,1.75,0.75,0.75,0.8875,0.9,0.4782341071155055,0.2511155089335326,,,,,,,,,,,,,,,,,,,0.011515516628198047,-1.4842794492774039,0.010627892744053052,0.08032283283868918,1.1619784274942181e+43,-0.05071273628618638,,,,,,,,
42,240717_101045,FalseCHOICE,9.0,43,2.0,679.0,,,,,,,,,,,45.0,43.0,,,A,,,,,,False,cue2.png,Hard,cue1.png,Easy,Right,Easy,Mid,0.0167493000626564,,,,,,,,,,,,,45,28,Male,1.2857142857142858,0.0,0.0,0.75,2.2777777777777777,2.125,3.0,2.3333333333333335,1.75,3.4444444444444446,2.25,1.75,0.75,0.75,0.8875,0.9,0.4334308000065253,-0.2851692618694612,,,,,,,,,,,,,,,,,,,0.016109092906695037,-0.23075623304811377,0.009939777990202556,-0.17333046366953017,9.002948674340196e+42,-0.06975138806949818,,,,,,,,
43,240717_101109,FalseCHOICE,9.0,44,2.0,679.0,,,,,,,,,,,46.0,44.0,,,A,,,,,,False,cue1.png,Easy,cue2.png,Hard,Left,Easy,Mid,0.0160590000450611,,,,,,,,,,,,,45,28,Male,1.2857142857142858,0.0,0.0,0.75,2.2777777777777777,2.125,3.0,2.3333333333333335,1.75,3.4444444444444446,2.25,1.75,0.75,0.75,0.8875,0.7571428571428571,0.4889000916834145,0.37878476949672946,,,,,,,,,,,,,,,,,,,0.020324836281784754,0.9196616274492141,0.009224785007166156,-0.43689163004851994,2.433700897156176e+42,-0.1175456097926092,,,,,,,,
44,240717_101134,FalseCHOICE,9.0,45,2.0,679.0,,,,,,,,,,,47.0,45.0,,,A,,,,,,False,cue2.png,Hard,cue1.png,Easy,Right,Easy,Mid,0.0176861000945791,,,,,,,,,,,,,45,28,Male,1.2857142857142858,0.0,0.0,0.75,2.2777777777777777,2.125,3.0,2.3333333333333335,1.75,3.4444444444444446,2.25,1.75,0.75,0.75,0.8875,0.7571428571428571,0.5294523500100089,0.8641855125562184,,,,,,,,,,,,,,,,,,,,,,,-6.488000491875592e+42,-0.18245498584259515,,,,,,,,
45,240717_101155,FalseCHOICE,9.0,46,2.0,679.0,,,,,,,,,,,48.0,46.0,,,A,,,,,,False,cue2.png,Hard,cue1.png,Easy,Left,Hard,Mid,0.0152074000798165,,,,,,,,,,,,,45,28,Male,1.2857142857142858,0.0,0.0,0.75,2.2777777777777777,2.125,3.0,2.3333333333333335,1.75,3.4444444444444446,2.25,1.75,0.75,0.75,0.725,0.8,0.3794031285547784,-0.9318674471405217,,,,,,,,,,,,,,,,,,,0.01938739280140282,0.6638463115999178,0.009204896629895867,-0.44422289627785,-1.2260811456120685e+43,-0.2244547728119651,,,,,,,,
46,240717_101218,FalseCHOICE,9.0,47,2.0,679.0,,,,,,,,,,,49.0,47.0,,,A,,,,,,False,cue1.png,Easy,cue2.png,Hard,Left,Easy,Mid,0.0166572999441996,,,,,,,,,,,,,45,28,Male,1.2857142857142858,0.0,0.0,0.75,2.2777777777777777,2.125,3.0,2.3333333333333335,1.75,3.4444444444444446,2.25,1.75,0.75,0.75,0.725,0.8,0.4423925285809673,-0.17789953414929563,,,,,,,,,,,,,,,,,,,0.016514897158098018,-0.12001788463766244,0.007664039299925272,-1.0122147014365743,,,,,,,,,,
47,240717_101241,FalseCHOICE,9.0,48,2.0,679.0,,,,,,,,,,,50.0,48.0,,,A,,,,,,False,cue1.png,Easy,cue2.png,Hard,Left,Easy,Mid,0.0141295000212267,,,,,,,,,,,,,45,28,Male,1.2857142857142858,0.0,0.0,0.75,2.2777777777777777,2.125,3.0,2.3333333333333335,1.75,3.4444444444444446,2.25,1.75,0.75,0.75,0.8875,0.9,0.4628976999915072,0.06754241779030526,,,,,,,,,,,,,,,,,,,,,0.010918309155106377,0.18737631426973386,6.606762161717969e+42,-0.08718471884931035,,,,,,,,
48,240717_101304,FalseCHOICE,9.0,49,2.0,679.0,,,,,,,,,,,51.0,49.0,,,A,,,,,,False,cue2.png,Hard,cue1.png,Easy,Left,Hard,Mid,0.0166199000086635,,,,,,,,,,,,,45,28,Male,1.2857142857142858,0.0,0.0,0.75,2.2777777777777777,2.125,3.0,2.3333333333333335,1.75,3.4444444444444446,2.25,1.75,0.75,0.75,0.725,0.8,0.5319826142596347,0.8944721648312597,,,,,,,,,,,,,,,,,,,,,0.013740644877487088,1.2277474962983548,,,,,,,,,,
49,240717_101327,FalseCHOICE,9.0,50,2.0,679.0,,,,,,,,,,,52.0,50.0,,,A,,,,,,False,cue1.png,Easy,cue2.png,Hard,Left,Easy,Mid,0.0159679000498726,,,,,,,,,,,,,45,28,Male,1.2857142857142858,0.0,0.0,0.75,2.2777777777777777,2.125,3.0,2.3333333333333335,1.75,3.4444444444444446,2.25,1.75,0.75,0.75,1.0,1.0,0.4571150643002641,-0.0016743355348959159,,,,,,,,,,,,,,,,,,,,,,,-9.090877619477262e+42,-0.2013920834790516,,,,,,,,
0,240717_092541,OFFLINERATING,9.0,1,1.0,,,,,,,,,,,,,,,,,T0,cue1.png,Easy,67.0,1.858553899917752,,,,,,,,,,,,,,,,,,,,,,45,28,Male,1.2857142857142858,0.0,0.0,0.75,2.2777777777777777,2.125,3.0,2.3333333333333335,1.75,3.4444444444444446,2.25,1.75,0.75,0.75,,,,,,,,,,,,,,,,,,,,,,,,,,,,,1.0045793554934002,,,,,96036643.31287503,1.0,
1,240717_092549,OFFLINERATING,9.0,2,3.0,,,,,,,,,,,,,,,,,T0,cue2.png,Hard,62.0,2.319207599968649,,,,,,,,,,,,,,,,,,,,,,45,28,Male,1.2857142857142858,0.0,0.0,0.75,2.2777777777777777,2.125,3.0,2.3333333333333335,1.75,3.4444444444444446,2.25,1.75,0.75,0.75,,,,,,,,,,,,,,,,,,,,,,,,,,,,,0.7825728680915437,,,0.0075436049990043694,-0.9933951581370127,,,
2,240717_094804,OFFLINERATING,9.0,3,1.0,,,,,,,,,,,,,,,,,T1,cue1.png,Easy,62.0,1.407191399950534,,,,,,,,,,,,,,,,,,,,,,45,28,Male,1.2857142857142858,0.0,0.0,0.75,2.2777777777777777,2.125,3.0,2.3333333333333335,1.75,3.4444444444444446,2.25,1.75,0.75,0.75,,,,,,,,,,,,,,,,,,,,,,,,,,,,,0.7825728680915437,0.017511489357103446,1.3382472814209478,0.009217133319029992,1.36840541133942,,,
3,240717_094811,OFFLINERATING,9.0,4,3.0,,,,,,,,,,,,,,,,,T1,cue2.png,Hard,37.0,0.708747599972412,,,,,,,,,,,,,,,,,,,,,,45,28,Male,1.2857142857142858,0.0,0.0,0.75,2.2777777777777777,2.125,3.0,2.3333333333333335,1.75,3.4444444444444446,2.25,1.75,0.75,0.75,,,,,,,,,,,,,,,,,,,,,,,,,,,,,-0.32745956891773814,0.01586935325880189,0.47356125578251057,,,-6719.409171599758,-1.0,
4,240717_095307,OFFLINERATING,9.0,5,1.0,,,,,,,,,,,,,,,,,T2,cue1.png,Easy,68.0,0.8183023000601679,,,,,,,,,,,,,,,,,,,,,,45,28,Male,1.2857142857142858,0.0,0.0,0.75,2.2777777777777777,2.125,3.0,2.3333333333333335,1.75,3.4444444444444446,2.25,1.75,0.75,0.75,,,,,,,,,,,,,,,,,,,,,,,,,,,,,1.0489806529737713,0.012462538667638287,-1.3203369308337671,,,,,
5,240717_095314,OFFLINERATING,9.0,6,3.0,,,,,,,,,,,,,,,,,T2,cue2.png,Hard,2.0,1.101835299981758,,,,,,,,,,,,,,,,,,,,,,45,28,Male,1.2857142857142858,0.0,0.0,0.75,2.2777777777777777,2.125,3.0,2.3333333333333335,1.75,3.4444444444444446,2.25,1.75,0.75,0.75,,,,,,,,,,,,,,,,,,,,,,,,,,,,,-1.881504980730733,0.014036647222160057,-0.4914716063696894,0.007981781136506882,-0.3750102532024048,,,
6,240717_101344,OFFLINERATING,9.0,7,1.0,,,,,,,,,,,,,,,,,T3,cue1.png,Easy,31.0,1.0261680000694469,,,,,,,,,,,,,,,,,,,,,,45,28,Male,1.2857142857142858,0.0,0.0,0.75,2.2777777777777777,2.125,3.0,2.3333333333333335,1.75,3.4444444444444446,2.25,1.75,0.75,0.75,,,,,,,,,,,,,,,,,,,,,,,,,,,,,-0.5938673537999658,,,,,,,
7,240717_101351,OFFLINERATING,9.0,8,3.0,,,,,,,,,,,,,,,,,T3,cue2.png,Hard,26.0,1.135099400067702,,,,,,,,,,,,,,,,,,,,,,45,28,Male,1.2857142857142858,0.0,0.0,0.75,2.2777777777777777,2.125,3.0,2.3333333333333335,1.75,3.4444444444444446,2.25,1.75,0.75,0.75,,,,,,,,,,,,,,,,,,,,,,,,,,,,,-0.8158738412018222,,,,,,,
0,240717_095330,LEARNINGCHECK,9.0,1,,,,,,,,,,,,1.0,1.0,1.0,,,A,,,,,,,,,,,,,,,cue1.png,Easy,Left,Left,Easy,0.015639999997802,1.0,,,,,,45,28,Male,1.2857142857142858,0.0,0.0,0.75,2.2777777777777777,2.125,3.0,2.3333333333333335,1.75,3.4444444444444446,2.25,1.75,0.75,0.75,,,,,,,,,,,,,,,,,,,,,,,,,,,,,,,,,,,,
1,240717_095335,LEARNINGCHECK,9.0,2,,,,,,,,,,,,2.0,2.0,2.0,,,A,,,,,,,,,,,,,,,cue2.png,Hard,Right,Right,Hard,0.0118333999998867,1.0,,,,,,45,28,Male,1.2857142857142858,0.0,0.0,0.75,2.2777777777777777,2.125,3.0,2.3333333333333335,1.75,3.4444444444444446,2.25,1.75,0.75,0.75,,,,,,,,,,,,,,,,,,,,,,,,,,,,,,,,,,,,
2,240717_101407,LEARNINGCHECK,9.0,1,,,,,,,,,,,,1.0,1.0,1.0,,,A,,,,,,,,,,,,,,,cue1.png,Easy,Middle,Middle,Mid,0.0137019000248983,1.0,,,,,,45,28,Male,1.2857142857142858,0.0,0.0,0.75,2.2777777777777777,2.125,3.0,2.3333333333333335,1.75,3.4444444444444446,2.25,1.75,0.75,0.75,,,,,,,,,,,,,,,,,,,,,,,,,,,,,,,,,,,,
3,240717_101411,LEARNINGCHECK,9.0,2,,,,,,,,,,,,2.0,2.0,2.0,,,A,,,,,,,,,,,,,,,cue2.png,Hard,Middle,Middle,Mid,0.0152435000054538,1.0,,,,,,45,28,Male,1.2857142857142858,0.0,0.0,0.75,2.2777777777777777,2.125,3.0,2.3333333333333335,1.75,3.4444444444444446,2.25,1.75,0.75,0.75,,,,,,,,,,,,,,,,,,,,,,,,,,,,,,,,,,,,
0,240717_101505,DEMANDRATING,9.0,-1,,,,,,,,,,,,,,,,,,,,,,,,,,,,,,,,,,,,,,,1.0,MentalDemand,1.0,98.0,3.780328999971971,45,28,Male,1.2857142857142858,0.0,0.0,0.75,2.2777777777777777,2.125,3.0,2.3333333333333335,1.75,3.4444444444444446,2.25,1.75,0.75,0.75,,,,,,,,,,,,,,,,,,,,,,,,,,,,,,,,,,,,1.1981425380332522
1,240717_101510,DEMANDRATING,9.0,-1,,,,,,,,,,,,,,,,,,,,,,,,,,,,,,,,,,,,,,,2.0,Effort,1.0,96.0,3.030688700033352,45,28,Male,1.2857142857142858,0.0,0.0,0.75,2.2777777777777777,2.125,3.0,2.3333333333333335,1.75,3.4444444444444446,2.25,1.75,0.75,0.75,,,,,,,,,,,,,,,,,,,,,,,,,,,,,,,,,,,,1.148564226114635
2,240717_101515,DEMANDRATING,9.0,-1,,,,,,,,,,,,,,,,,,,,,,,,,,,,,,,,,,,,,,,3.0,Frustration,1.0,2.0,3.8706435000058255,45,28,Male,1.2857142857142858,0.0,0.0,0.75,2.2777777777777777,2.125,3.0,2.3333333333333335,1.75,3.4444444444444446,2.25,1.75,0.75,0.75,,,,,,,,,,,,,,,,,,,,,,,,,,,,,,,,,,,,-1.1816164340603796
3,240717_101520,DEMANDRATING,9.0,-1,,,,,,,,,,,,,,,,,,,,,,,,,,,,,,,,,,,,,,,4.0,MentalDemand,2.0,62.0,3.750141400028952,45,28,Male,1.2857142857142858,0.0,0.0,0.75,2.2777777777777777,2.125,3.0,2.3333333333333335,1.75,3.4444444444444446,2.25,1.75,0.75,0.75,,,,,,,,,,,,,,,,,,,,,,,,,,,,,,,,,,,,0.30573292349814024
4,240717_101525,DEMANDRATING,9.0,-1,,,,,,,,,,,,,,,,,,,,,,,,,,,,,,,,,,,,,,,5.0,Effort,2.0,62.0,2.594378800014965,45,28,Male,1.2857142857142858,0.0,0.0,0.75,2.2777777777777777,2.125,3.0,2.3333333333333335,1.75,3.4444444444444446,2.25,1.75,0.75,0.75,,,,,,,,,,,,,,,,,,,,,,,,,,,,,,,,,,,,0.30573292349814024
5,240717_101530,DEMANDRATING,9.0,-1,,,,,,,,,,,,,,,,,,,,,,,,,,,,,,,,,,,,,,,6.0,Frustration,2.0,27.0,3.921362500055693,45,28,Male,1.2857142857142858,0.0,0.0,0.75,2.2777777777777777,2.125,3.0,2.3333333333333335,1.75,3.4444444444444446,2.25,1.75,0.75,0.75,,,,,,,,,,,,,,,,,,,,,,,,,,,,,,,,,,,,-0.561887535077663
6,240717_101535,DEMANDRATING,9.0,-1,,,,,,,,,,,,,,,,,,,,,,,,,,,,,,,,,,,,,,,7.0,MentalDemand,3.0,1.0,3.3741153000155464,45,28,Male,1.2857142857142858,0.0,0.0,0.75,2.2777777777777777,2.125,3.0,2.3333333333333335,1.75,3.4444444444444446,2.25,1.75,0.75,0.75,,,,,,,,,,,,,,,,,,,,,,,,,,,,,,,,,,,,-1.2064055900196882
7,240717_101538,DEMANDRATING,9.0,-1,,,,,,,,,,,,,,,,,,,,,,,,,,,,,,,,,,,,,,,8.0,Effort,3.0,1.0,1.2154864999465644,45,28,Male,1.2857142857142858,0.0,0.0,0.75,2.2777777777777777,2.125,3.0,2.3333333333333335,1.75,3.4444444444444446,2.25,1.75,0.75,0.75,,,,,,,,,,,,,,,,,,,,,,,,,,,,,,,,,,,,-1.2064055900196882
8,240717_101544,DEMANDRATING,9.0,-1,,,,,,,,,,,,,,,,,,,,,,,,,,,,,,,,,,,,,,,9.0,Frustration,3.0,98.0,4.624818899901584,45,28,Male,1.2857142857142858,0.0,0.0,0.75,2.2777777777777777,2.125,3.0,2.3333333333333335,1.75,3.4444444444444446,2.25,1.75,0.75,0.75,,,,,,,,,,,,,,,,,,,,,,,,,,,,,,,,,,,,1.1981425380332522
