,END,Phase,Block,TrialN,NbackLevel,ISI,Letter_Resp,Letter_RT,Letter_Accuracy,Trial_A_measure,Trial_ACC,Trial_RT,TrialCountCali,CaliEnd_A_measure,ISI_calibrated,TrialIndex,TrialNumber_total,TrialNumber_valid,CueLearning,TrialDemandLearning,CueMapping,OfflineRatingTimePoint,CueFigure,TrialDemand,OfflineRating,OfflineRatingRT,PhaseType,CueLeft,CueDemandLeft,CueRight,CueDemandRight,Choice,ChoiceDemand,TaskDemand,ChoiceRT,CueCheck,CueDemandCheck,CorrectAnswer,Answer,AnswerDemand,AnswerRT,AnswerACC,DemandRatingQuesIndex,QuesTLX,DemandLevel,DemandRating,DemandRatingRT,PID,Age,Gender,Task_A_measure,Task_ACC,Task_RT,cue_i_on_zyg_values,cue_i_on_zyg_zvalues,cue_e_on_zyg_values,cue_e_on_zyg_zvalues,cue_i_on_cor_values,cue_i_on_cor_zvalues,cue_e_on_cor_values,cue_e_on_cor_zvalues,cue_i_on_scr_values,cue_i_on_scr_zvalues,cue_e_on_scr_values,cue_e_on_scr_zvalues,BAI_bis,BAI_bas_d,BAI_bas_rr,BAI_bas_fs,NFC,BFI_ext,BFI_agr,BFI_con,BFI_neu,BFI_open,UPPS_lps,UPPS_lpm,UPPS_pu,UPPS_ss,cue_e_true_zyg_values,cue_e_true_zyg_zvalues,cue_e_true_cor_values,cue_e_true_cor_zvalues,cue_e_true_scr_values,cue_e_true_scr_zvalues,cue_i_off_zyg_values,cue_i_off_zyg_zvalues,cue_i_off_cor_values,cue_i_off_cor_zvalues,cue_i_off_scr_values,cue_i_off_scr_zvalues
0,240717_092627,LEARNING,1.0,1,1.0,679.0,,,,,,,,,,1.0,1.0,1.0,cue1.png,Easy,A,,,,,,,,,,,,,,,,,,,,,,,,,,,45,28,Male,0.725,0.8,0.5325702928572095,0.00013420622154196446,0.39722029160269456,0.00013529730979982722,0.7853225188789767,2.749155924197319e-05,0.10288685493905689,,,,,1.4709999999999999,-0.18420975220424504,1.2857142857142858,0.0,0.0,0.75,2.2777777777777777,2.125,3.0,2.3333333333333335,1.75,3.4444444444444446,2.25,1.75,0.75,0.75,,,,,,,,,,,,
1,240717_092656,LEARNING,1.0,2,3.0,679.0,,,,,,,,,,2.0,2.0,2.0,cue2.png,Hard,A,,,,,,,,,,,,,,,,,,,,,,,,,,,45,28,Male,0.5625,0.7285714285714286,0.672486592317,0.00020410029297392683,0.7809355707500494,0.00023521681236382368,1.405004011702607,-3.891898102391118e-05,-0.1351110535836734,4.343088225760173e-05,0.3523923361208274,1.136,-0.6194155185033823,1.4540000000000002,-0.21213553083912137,1.2857142857142858,0.0,0.0,0.75,2.2777777777777777,2.125,3.0,2.3333333333333335,1.75,3.4444444444444446,2.25,1.75,0.75,0.75,,,,,,,,,,,,
2,240717_092721,LEARNING,1.0,3,1.0,679.0,,,,,,,,,,3.0,3.0,3.0,cue1.png,Easy,A,,,,,,,,,,,,,,,,,,,,,,,,,,,45,28,Male,1.0,1.0,0.5405681285857489,-0.00019443875339331595,-1.4070257011410985,0.00010697338139285806,0.6096629750715133,-3.4726888785987196e-06,-0.008080865880114495,8.00186219229791e-05,0.5538425977439989,1.6009999999999998,0.1733226909573683,1.078,-0.8297880465281625,1.2857142857142858,0.0,0.0,0.75,2.2777777777777777,2.125,3.0,2.3333333333333335,1.75,3.4444444444444446,2.25,1.75,0.75,0.75,,,,,,,,,,,,
3,240717_092749,LEARNING,1.0,4,3.0,679.0,,,,,,,,,,4.0,4.0,4.0,cue2.png,Hard,A,,,,,,,,,,,,,,,,,,,,,,,,,,,45,28,Male,0.9375,0.9285714285714286,0.6392504999843928,-4.453030013738292e-05,-0.5840350982307665,0.00020319879592818092,1.2064344460726852,0.00021527615416346664,0.7758574506482802,-0.00011195350073294787,-0.5031462921706136,1.581,0.13922642388378798,1.5890000000000002,0.009628005379018338,1.2857142857142858,0.0,0.0,0.75,2.2777777777777777,2.125,3.0,2.3333333333333335,1.75,3.4444444444444446,2.25,1.75,0.75,0.75,,,,,,,,,,,,
4,240717_092815,LEARNING,1.0,5,3.0,679.0,,,,,,,,,,5.0,5.0,5.0,cue2.png,Hard,A,,,,,,,,,,,,,,,,,,,,,,,,,,,45,28,Male,1.0,1.0,0.5919032357051037,7.162623965317619e-05,0.053659032006193735,0.00019915385871273512,1.1813485252291551,,,-3.999757686545856e-05,-0.10696058020765993,1.49,-0.01591159130100408,1.584,0.0014145410746426031,1.2857142857142858,0.0,0.0,0.75,2.2777777777777777,2.125,3.0,2.3333333333333335,1.75,3.4444444444444446,2.25,1.75,0.75,0.75,,,,,,,,,,,,
5,240717_092841,LEARNING,1.0,6,1.0,679.0,,,,,,,,,,6.0,6.0,6.0,cue1.png,Easy,A,,,,,,,,,,,,,,,,,,,,,,,,,,,45,28,Male,0.8875,0.9,0.5031512928627697,-0.00032620145693147435,-2.1303969618720044,-1.5289244471119057e-05,-0.14858626124149832,,,3.27173623324681e-05,0.2934042321394941,0.11299999999999999,-2.363439579317034,,,1.2857142857142858,0.0,0.0,0.75,2.2777777777777777,2.125,3.0,2.3333333333333335,1.75,3.4444444444444446,2.25,1.75,0.75,0.75,,,,,,,,,,,,
6,240717_092906,LEARNING,1.0,7,3.0,679.0,,,,,,,,,,7.0,7.0,7.0,cue2.png,Hard,A,,,,,,,,,,,,,,,,,,,,,,,,,,,45,28,Male,0.725,0.8,0.5124110356887935,0.00024027196780622125,0.979516423476767,7.467200751892257e-06,-0.0074551748640122855,,,-0.00024220794572942178,-1.2203207408275536,,,1.596,0.02112685540514393,1.2857142857142858,0.0,0.0,0.75,2.2777777777777777,2.125,3.0,2.3333333333333335,1.75,3.4444444444444446,2.25,1.75,0.75,0.75,,,,,,,,,,,,
7,240717_092932,LEARNING,1.0,8,3.0,679.0,,,,,,,,,,8.0,8.0,8.0,cue2.png,Hard,A,,,,,,,,,,,,,,,,,,,,,,,,,,,45,28,Male,0.6875,0.6857142857142857,0.4307916272770274,-2.116495535089578e-05,-0.4557604160805271,-0.00035607828819520654,-2.2620942144823877,0.0001531397658563272,0.5531769785267139,-0.0002505448605758958,-1.2662233763090662,,,,,1.2857142857142858,0.0,0.0,0.75,2.2777777777777777,2.125,3.0,2.3333333333333335,1.75,3.4444444444444446,2.25,1.75,0.75,0.75,,,,,,,,,,,,
8,240717_092957,LEARNING,1.0,9,1.0,679.0,,,,,,,,,,9.0,9.0,9.0,cue1.png,Easy,A,,,,,,,,,,,,,,,,,,,,,,,,,,,45,28,Male,0.8875,0.8285714285714286,0.4423604153741438,6.288322822961285e-05,0.005660296201443255,0.00014987040263190555,0.8757020312815297,1.534494429725067e-05,0.05935658186943753,-8.05557023535056e-06,0.06891050806548246,,,2.883,2.135272567351409,1.2857142857142858,0.0,0.0,0.75,2.2777777777777777,2.125,3.0,2.3333333333333335,1.75,3.4444444444444446,2.25,1.75,0.75,0.75,,,,,,,,,,,,
9,240717_093022,LEARNING,1.0,10,1.0,679.0,,,,,,,,,,10.0,10.0,10.0,cue1.png,Easy,A,,,,,,,,,,,,,,,,,,,,,,,,,,,45,28,Male,0.8875,0.9,0.4518076214257495,-4.462143377699686e-06,-0.3640627366131117,-7.880383038247037e-05,-0.5424914789782695,0.0003637936324998184,1.3081050288430263,-7.314316602110085e-05,-0.28945853356925705,,,,,1.2857142857142858,0.0,0.0,0.75,2.2777777777777777,2.125,3.0,2.3333333333333335,1.75,3.4444444444444446,2.25,1.75,0.75,0.75,,,,,,,,,,,,
10,240717_093047,LEARNING,1.0,11,3.0,679.0,,,,,,,,,,11.0,11.0,11.0,cue2.png,Hard,A,,,,,,,,,,,,,,,,,,,,,,,,,,,45,28,Male,0.8875,0.9,0.4950626571246955,-9.606836239483326e-05,-0.8669767203264543,-9.974972039741153e-05,-0.6723938509868274,-0.0002121179023345551,-0.755810431503081,-7.471083463996258e-05,-0.29809003844756954,,,2.774,1.9562190455160222,1.2857142857142858,0.0,0.0,0.75,2.2777777777777777,2.125,3.0,2.3333333333333335,1.75,3.4444444444444446,2.25,1.75,0.75,0.75,,,,,,,,,,,,
11,240717_093112,LEARNING,1.0,12,1.0,679.0,,,,,,,,,,12.0,12.0,12.0,cue1.png,Easy,A,,,,,,,,,,,,,,,,,,,,,,,,,,,45,28,Male,0.8875,0.9,0.4993356571399739,-0.0001726074505080939,-1.287172839387181,0.00015853713676388607,0.9294514456300592,4.9752416665436224e-05,0.18266391272981458,0.0007490184379495414,4.23732206920029,1.552,0.08978683662709612,1.453,-0.21377822369999666,1.2857142857142858,0.0,0.0,0.75,2.2777777777777777,2.125,3.0,2.3333333333333335,1.75,3.4444444444444446,2.25,1.75,0.75,0.75,,,,,,,,,,,,
12,240717_093136,LEARNING,1.0,13,1.0,679.0,,,,,,,,,,13.0,13.0,13.0,cue1.png,Easy,A,,,,,,,,,,,,,,,,,,,,,,,,,,,45,28,Male,0.8875,0.9,0.4674131214435744,0.00016214167530216508,0.550584664547229,8.283846228442169e-05,0.4599828593932512,0.00010633351680464434,0.3854356932503893,,,1.4490000000000003,-0.08580893880184397,,,1.2857142857142858,0.0,0.0,0.75,2.2777777777777777,2.125,3.0,2.3333333333333335,1.75,3.4444444444444446,2.25,1.75,0.75,0.75,,,,,,,,,,,,
13,240717_093202,LEARNING,1.0,14,1.0,679.0,,,,,,,,,,14.0,14.0,14.0,cue1.png,Easy,A,,,,,,,,,,,,,,,,,,,,,,,,,,,45,28,Male,1.0,1.0,0.5351084571365001,0.000227363757515967,0.9086509349833806,-6.769197990813634e-05,-0.47357792443411983,3.7880977478991096e-05,0.1401197971991035,,,,,,,1.2857142857142858,0.0,0.0,0.75,2.2777777777777777,2.125,3.0,2.3333333333333335,1.75,3.4444444444444446,2.25,1.75,0.75,0.75,,,,,,,,,,,,
14,240717_093229,LEARNING,1.0,15,3.0,679.0,,,,,,,,,,15.0,15.0,15.0,cue2.png,Hard,A,,,,,,,,,,,,,,,,,,,,,,,,,,,45,28,Male,0.5625,0.7285714285714286,0.5722132076849588,0.0001468145027310845,0.46643918294687725,0.0002256385556105361,1.3456015097763818,7.755549241476433e-05,0.28230282324532463,1.6360218645474107e-05,0.20334261845990084,,,,,1.2857142857142858,0.0,0.0,0.75,2.2777777777777777,2.125,3.0,2.3333333333333335,1.75,3.4444444444444446,2.25,1.75,0.75,0.75,,,,,,,,,,,,
15,240717_093254,LEARNING,1.0,16,1.0,679.0,,,,,,,,,,16.0,16.0,16.0,cue1.png,Easy,A,,,,,,,,,,,,,,,,,,,,,,,,,,,45,28,Male,0.725,0.8,0.5170385142721768,0.00014332361288547837,0.4472743561720719,-4.717008846166163e-05,-0.3463051098104589,,,1.4412742042775855e-05,0.1926199098502237,,,,,1.2857142857142858,0.0,0.0,0.75,2.2777777777777777,2.125,3.0,2.3333333333333335,1.75,3.4444444444444446,2.25,1.75,0.75,0.75,,,,,,,,,,,,
16,240717_093320,LEARNING,1.0,17,1.0,679.0,,,,,,,,,,17.0,17.0,17.0,cue1.png,Easy,A,,,,,,,,,,,,,,,,,,,,,,,,,,,45,28,Male,0.8875,0.9,0.5259628856937135,8.86219064235934e-05,0.1469644710154857,4.704099135787246e-05,0.2379738455987045,,,-1.4340268623513463e-05,0.03430727359138905,,,,,1.2857142857142858,0.0,0.0,0.75,2.2777777777777777,2.125,3.0,2.3333333333333335,1.75,3.4444444444444446,2.25,1.75,0.75,0.75,,,,,,,,,,,,
17,240717_093346,LEARNING,1.0,18,3.0,679.0,,,,,,,,,,18.0,18.0,18.0,cue2.png,Hard,A,,,,,,,,,,,,,,,,,,,,,,,,,,,45,28,Male,0.725,0.7285714285714286,0.5244121999981312,-0.00023657961399467997,-1.6383771127540672,-4.177785126641565e-05,-0.3128634942192585,,,,,,,,,1.2857142857142858,0.0,0.0,0.75,2.2777777777777777,2.125,3.0,2.3333333333333335,1.75,3.4444444444444446,2.25,1.75,0.75,0.75,,,,,,,,,,,,
18,240717_093414,LEARNING,1.0,19,3.0,679.0,,,,,,,,,,19.0,19.0,19.0,cue2.png,Hard,A,,,,,,,,,,,,,,,,,,,,,,,,,,,45,28,Male,0.8875,0.8285714285714286,0.6804353999994839,-2.771475041627499e-05,-0.4917184936453239,-0.0001061411915282977,-0.7120325228185845,4.3253321343255e-05,0.15937286453511135,,,,,1.3150000000000002,-0.44046983850076155,1.2857142857142858,0.0,0.0,0.75,2.2777777777777777,2.125,3.0,2.3333333333333335,1.75,3.4444444444444446,2.25,1.75,0.75,0.75,,,,,,,,,,,,
19,240717_093442,LEARNING,1.0,20,3.0,679.0,,,,,,,,,,20.0,20.0,20.0,cue2.png,Hard,A,,,,,,,,,,,,,,,,,,,,,,,,,,,45,28,Male,0.8875,0.8285714285714286,0.6638862692500249,0.0001834696303287752,0.6676741694080872,0.00023516639069188138,1.4046913062133073,-0.00018674073235302275,-0.6648653291797203,4.2185974314319034e-05,0.3455379353525727,1.9729999999999999,0.8075132585259691,0.663,-1.5115055837913327,1.2857142857142858,0.0,0.0,0.75,2.2777777777777777,2.125,3.0,2.3333333333333335,1.75,3.4444444444444446,2.25,1.75,0.75,0.75,,,,,,,,,,,,
20,240717_093507,LEARNING,1.0,21,1.0,679.0,,,,,,,,,,21.0,21.0,21.0,cue1.png,Easy,A,,,,,,,,,,,,,,,,,,,,,,,,,,,45,28,Male,1.0,1.0,0.4980053214406195,0.00021159410452911958,0.8220762559879609,-0.00026326649806392675,-1.686493383970361,0.0001170908484632951,0.4239871404422659,-0.0002551000493978368,-1.291304017756598,0.7170000000000001,-1.3337323136948973,1.2040000000000002,-0.6228087460578986,1.2857142857142858,0.0,0.0,0.75,2.2777777777777777,2.125,3.0,2.3333333333333335,1.75,3.4444444444444446,2.25,1.75,0.75,0.75,,,,,,,,,,,,
21,240717_093533,LEARNING,1.0,22,3.0,679.0,,,,,,,,,,22.0,22.0,22.0,cue2.png,Hard,A,,,,,,,,,,,,,,,,,,,,,,,,,,,45,28,Male,0.0291666666666666,0.7,0.5467618500198503,-9.085047248458007e-06,-0.389442268995428,-0.00017281323746189126,-1.1255196989309075,0.00019594400030020602,0.706576096088073,-8.354000917269516e-05,-0.3467030311003715,2.742,2.1185147275051466,0.7030000000000001,-1.4457978693563283,1.2857142857142858,0.0,0.0,0.75,2.2777777777777777,2.125,3.0,2.3333333333333335,1.75,3.4444444444444446,2.25,1.75,0.75,0.75,,,,,,,,,,,,
22,240717_093600,LEARNING,1.0,23,3.0,679.0,,,,,,,,,,23.0,23.0,23.0,cue2.png,Hard,A,,,,,,,,,,,,,,,,,,,,,,,,,,,45,28,Male,0.0291666666666666,0.6285714285714286,0.5899535077086722,0.00010651302309432932,0.24518588932636604,-0.00024039003446489236,-1.544617966761438,-0.00022710507225496591,-0.8095205064618431,-0.0002782331578509772,-1.4186737539759746,2.016,0.8808202327341679,,,1.2857142857142858,0.0,0.0,0.75,2.2777777777777777,2.125,3.0,2.3333333333333335,1.75,3.4444444444444446,2.25,1.75,0.75,0.75,,,,,,,,,,,,
23,240717_093628,LEARNING,1.0,24,3.0,679.0,,,,,,,,,,24.0,24.0,24.0,cue2.png,Hard,A,,,,,,,,,,,,,,,,,,,,,,,,,,,45,28,Male,0.15,0.5285714285714286,0.6879322230726337,-6.129419771279789e-05,-0.6760681348812316,,,0.0002653461806649969,0.9552952558420367,,,1.5799999999999998,0.13752161053010875,2.467,1.4519123372273637,1.2857142857142858,0.0,0.0,0.75,2.2777777777777777,2.125,3.0,2.3333333333333335,1.75,3.4444444444444446,2.25,1.75,0.75,0.75,,,,,,,,,,,,
24,240717_093654,LEARNING,1.0,25,1.0,679.0,,,,,,,,,,25.0,25.0,25.0,cue1.png,Easy,A,,,,,,,,,,,,,,,,,,,,,,,,,,,45,28,Male,0.8875,0.9,0.53761967142678,0.0004144720781619508,1.9358671210851703,-0.00012714896593883727,-0.8423186899188198,1.1827052641893727e-05,0.04674938347845228,-0.00023835044917502012,-1.1990815580520717,,,1.863,0.45972584925879784,1.2857142857142858,0.0,0.0,0.75,2.2777777777777777,2.125,3.0,2.3333333333333335,1.75,3.4444444444444446,2.25,1.75,0.75,0.75,,,,,,,,,,,,
25,240717_093719,LEARNING,1.0,26,1.0,679.0,,,,,,,,,,26.0,26.0,26.0,cue1.png,Easy,A,,,,,,,,,,,,,,,,,,,,,,,,,,,45,28,Male,0.8875,0.9,0.5166277285731796,0.0002424873322120543,0.991678673492848,-3.188045874364005e-05,-0.2514817737723737,-9.92796279796447e-07,0.0008064169143477932,-9.631812853681029e-05,-0.41705871616033174,1.88,0.648965616633819,1.6110000000000002,0.04576724831827077,1.2857142857142858,0.0,0.0,0.75,2.2777777777777777,2.125,3.0,2.3333333333333335,1.75,3.4444444444444446,2.25,1.75,0.75,0.75,,,,,,,,,,,,
26,240717_093748,LEARNING,1.0,27,3.0,679.0,,,,,,,,,,27.0,27.0,27.0,cue2.png,Hard,A,,,,,,,,,,,,,,,,,,,,,,,,,,,45,28,Male,0.9375,0.8571428571428572,0.6872626500068387,4.1317268689712756e-05,-0.11273584263257382,0.00014618949224294705,0.8528737346402521,-1.4544837904473685e-05,-0.047760535710536345,,,,,1.4100000000000001,-0.28441401671762623,1.2857142857142858,0.0,0.0,0.75,2.2777777777777777,2.125,3.0,2.3333333333333335,1.75,3.4444444444444446,2.25,1.75,0.75,0.75,,,,,,,,,,,,
27,240717_093813,LEARNING,1.0,28,1.0,679.0,,,,,,,,,,28.0,28.0,28.0,cue1.png,Easy,A,,,,,,,,,,,,,,,,,,,,,,,,,,,45,28,Male,1.0,1.0,0.5020233142838281,-0.0002949492847141742,-1.9588239551686253,-0.00020022067191240774,-1.295495323898456,-8.112475632359069e-05,-0.286365450983361,7.060879051086141e-05,0.5020325374030796,1.384,-0.19662180679098185,1.4709999999999999,-0.18420975220424504,1.2857142857142858,0.0,0.0,0.75,2.2777777777777777,2.125,3.0,2.3333333333333335,1.75,3.4444444444444446,2.25,1.75,0.75,0.75,,,,,,,,,,,,
28,240717_093838,LEARNING,1.0,29,1.0,679.0,,,,,,,,,,29.0,29.0,29.0,cue1.png,Easy,A,,,,,,,,,,,,,,,,,,,,,,,,,,,45,28,Male,1.0,1.0,0.4582991214286137,,,-0.0002867938548798297,-1.8324055154337369,,,-0.00012132405378509391,-0.5547400878292982,1.275,-0.38244646234199653,1.5939999999999999,0.01784146968339334,1.2857142857142858,0.0,0.0,0.75,2.2777777777777777,2.125,3.0,2.3333333333333335,1.75,3.4444444444444446,2.25,1.75,0.75,0.75,,,,,,,,,,,,
29,240717_093906,LEARNING,1.0,30,3.0,679.0,,,,,,,,,,30.0,30.0,30.0,cue2.png,Hard,A,,,,,,,,,,,,,,,,,,,,,,,,,,,45,28,Male,1.0,1.0,0.7442915357117142,,,1.794152472526893e-05,0.057504563220984704,-5.3129728227946545e-05,-0.18603863374737642,-3.661123227765911e-05,-0.08831553655649522,1.334,-0.28186247447493323,1.83,0.4055169848499194,1.2857142857142858,0.0,0.0,0.75,2.2777777777777777,2.125,3.0,2.3333333333333335,1.75,3.4444444444444446,2.25,1.75,0.75,0.75,,,,,,,,,,,,
30,240717_093933,LEARNING,1.0,31,3.0,679.0,,,,,,,,,,31.0,31.0,31.0,cue2.png,Hard,A,,,,,,,,,,,,,,,,,,,,,,,,,,,45,28,Male,0.8875,0.9,0.6395192285750194,,,-6.739818445551053e-05,-0.4717558616736357,8.196814949895182e-05,0.29811662558543495,-0.00020621211487311525,-1.0221294994536494,,,0.45099999999999985,-1.859756470296856,1.2857142857142858,0.0,0.0,0.75,2.2777777777777777,2.125,3.0,2.3333333333333335,1.75,3.4444444444444446,2.25,1.75,0.75,0.75,,,,,,,,,,,,
31,240717_093959,LEARNING,1.0,32,1.0,679.0,,,,,,,,,,32.0,32.0,32.0,cue1.png,Easy,A,,,,,,,,,,,,,,,,,,,,,,,,,,,45,28,Male,0.8875,0.9,0.5093825428630225,6.538305737106755e-05,0.019384244702107277,-3.3715661184446737e-05,-0.2628633455273399,7.809776329031947e-05,0.2842461794312283,-5.919259665427895e-05,-0.21264739753185166,1.039,-0.7847824138102485,1.4769999999999999,-0.1743535950389944,1.2857142857142858,0.0,0.0,0.75,2.2777777777777777,2.125,3.0,2.3333333333333335,1.75,3.4444444444444446,2.25,1.75,0.75,0.75,,,,,,,,,,,,
32,240717_094023,LEARNING,1.0,33,1.0,679.0,,,,,,,,,,33.0,33.0,33.0,cue1.png,Easy,A,,,,,,,,,,,,,,,,,,,,,,,,,,,45,28,Male,1.0,1.0,0.437405835712395,,,,,0.000669447210418026,2.403487056843067,,,1.917,0.7120437107199435,1.2,-0.6293795175013994,1.2857142857142858,0.0,0.0,0.75,2.2777777777777777,2.125,3.0,2.3333333333333335,1.75,3.4444444444444446,2.25,1.75,0.75,0.75,,,,,,,,,,,,
33,240717_094048,LEARNING,1.0,34,1.0,679.0,,,,,,,,,,34.0,34.0,34.0,cue1.png,Easy,A,,,,,,,,,,,,,,,,,,,,,,,,,,,45,28,Male,0.8875,0.9,0.4845915500107886,-0.000285171262421567,-1.9051430566797003,0.00010775344454951562,0.6145007763916778,-5.176927430088421e-06,-0.014188408587257912,3.965109279011492e-06,0.13509576725896147,1.935,0.7427303510861661,2.94,2.22890606042129,1.2857142857142858,0.0,0.0,0.75,2.2777777777777777,2.125,3.0,2.3333333333333335,1.75,3.4444444444444446,2.25,1.75,0.75,0.75,,,,,,,,,,,,
34,240717_094116,LEARNING,1.0,35,3.0,679.0,,,,,,,,,,35.0,35.0,35.0,cue2.png,Hard,A,,,,,,,,,,,,,,,,,,,,,,,,,,,45,28,Male,0.8875,0.7571428571428571,0.6456543749858005,-0.0001642179587537677,-1.2411149105176433,,,-1.9726193538785984e-05,-0.06632915146553077,-2.1390931882308336e-05,-0.004513325087057915,,,,,1.2857142857142858,0.0,0.0,0.75,2.2777777777777777,2.125,3.0,2.3333333333333335,1.75,3.4444444444444446,2.25,1.75,0.75,0.75,,,,,,,,,,,,
35,240717_094142,LEARNING,1.0,36,3.0,679.0,,,,,,,,,,36.0,36.0,36.0,cue2.png,Hard,A,,,,,,,,,,,,,,,,,,,,,,,,,,,45,28,Male,0.725,0.8,0.5431734213904876,0.00028326128373903567,1.2155258163416716,0.00033393991122234335,2.017265639382746,0.00010739970580101246,0.3892566341764777,0.0003761353511202471,2.184246473833572,0.708,-1.3490756338780088,2.797,1.99400098131615,1.2857142857142858,0.0,0.0,0.75,2.2777777777777777,2.125,3.0,2.3333333333333335,1.75,3.4444444444444446,2.25,1.75,0.75,0.75,,,,,,,,,,,,
36,240717_094206,LEARNING,1.0,37,1.0,679.0,,,,,,,,,,37.0,37.0,37.0,cue1.png,Easy,A,,,,,,,,,,,,,,,,,,,,,,,,,,,45,28,Male,1.0,1.0,0.4632596714322322,0.00027993378936119057,1.1972580232671333,,,0.0004575858084841953,1.6442315176610176,,,0.56,-1.6013880102225055,1.631,0.0786211055357726,1.2857142857142858,0.0,0.0,0.75,2.2777777777777777,2.125,3.0,2.3333333333333335,1.75,3.4444444444444446,2.25,1.75,0.75,0.75,,,,,,,,,,,,
37,240717_094233,LEARNING,1.0,38,3.0,679.0,,,,,,,,,,38.0,38.0,38.0,cue2.png,Hard,A,,,,,,,,,,,,,,,,,,,,,,,,,,,45,28,Male,0.8875,0.8285714285714286,0.5671085922960908,,,,,,,-9.721665083726712e-05,-0.4220059349324323,1.6369999999999998,0.23469597168981357,1.5519999999999998,-0.05115163047336129,1.2857142857142858,0.0,0.0,0.75,2.2777777777777777,2.125,3.0,2.3333333333333335,1.75,3.4444444444444446,2.25,1.75,0.75,0.75,,,,,,,,,,,,
38,240717_094300,LEARNING,1.0,39,3.0,679.0,,,,,,,,,,39.0,39.0,39.0,cue2.png,Hard,A,,,,,,,,,,,,,,,,,,,,,,,,,,,45,28,Male,1.0,0.8571428571428572,0.4961623416747898,,,-5.436634425570654e-05,-0.3909349009799886,-1.5170831958245031e-05,-0.05000393374567898,0.00029413648127651557,1.7327648044574337,1.4020000000000001,-0.16593516642475883,1.2369999999999999,-0.5685998816490205,1.2857142857142858,0.0,0.0,0.75,2.2777777777777777,2.125,3.0,2.3333333333333335,1.75,3.4444444444444446,2.25,1.75,0.75,0.75,,,,,,,,,,,,
39,240717_094323,LEARNING,1.0,40,3.0,679.0,,,,,,,,,,40.0,40.0,40.0,cue2.png,Hard,A,,,,,,,,,,,,,,,,,,,,,,,,,,,45,28,Male,0.8875,0.9,0.4167151714375774,0.0001840150341681419,0.670668411726255,,,6.732250954665474e-05,0.2456305042006607,,,2.406,1.5456974406689914,1.7799999999999998,0.3233823418061635,1.2857142857142858,0.0,0.0,0.75,2.2777777777777777,2.125,3.0,2.3333333333333335,1.75,3.4444444444444446,2.25,1.75,0.75,0.75,,,,,,,,,,,,
40,240717_094349,LEARNING,1.0,41,1.0,679.0,,,,,,,,,,41.0,41.0,41.0,cue1.png,Easy,A,,,,,,,,,,,,,,,,,,,,,,,,,,,45,28,Male,0.8875,0.8285714285714286,0.4674549230750507,-4.367862489189052e-05,-0.579359439796916,0.00011423418440692111,0.6546930756564431,-4.222329072846396e-05,-0.14695283044087676,-8.581051059293378e-05,-0.3592042981725126,1.5299999999999998,0.05228094284615696,1.735,0.2494611630667841,1.2857142857142858,0.0,0.0,0.75,2.2777777777777777,2.125,3.0,2.3333333333333335,1.75,3.4444444444444446,2.25,1.75,0.75,0.75,,,,,,,,,,,,
41,240717_094418,LEARNING,1.0,42,3.0,679.0,,,,,,,,,,42.0,42.0,42.0,cue2.png,Hard,A,,,,,,,,,,,,,,,,,,,,,,,,,,,45,28,Male,0.7999999999999999,0.6857142857142857,0.6526878636478531,0.0001446478157961584,0.4545441700362414,,,-0.00014214629365507346,-0.5050505904445015,6.111274953254876e-05,0.44974781150962206,2.3000000000000003,1.3649872251790138,,,1.2857142857142858,0.0,0.0,0.75,2.2777777777777777,2.125,3.0,2.3333333333333335,1.75,3.4444444444444446,2.25,1.75,0.75,0.75,,,,,,,,,,,,
42,240717_094444,LEARNING,1.0,43,3.0,679.0,,,,,,,,,,43.0,43.0,43.0,cue2.png,Hard,A,,,,,,,,,,,,,,,,,,,,,,,,,,,45,28,Male,1.0,1.0,0.6125946571534898,,,0.00015074348178541457,0.8811166998829185,-0.0002630282765683869,-0.9382598219349466,9.752327064197408e-05,0.6502223166420256,0.8799999999999999,-1.055847737045215,1.7970000000000002,0.3513081204410409,1.2857142857142858,0.0,0.0,0.75,2.2777777777777777,2.125,3.0,2.3333333333333335,1.75,3.4444444444444446,2.25,1.75,0.75,0.75,,,,,,,,,,,,
43,240717_094509,LEARNING,1.0,44,1.0,679.0,,,,,,,,,,44.0,44.0,44.0,cue1.png,Easy,A,,,,,,,,,,,,,,,,,,,,,,,,,,,45,28,Male,0.8875,0.9,0.4812414571476568,0.00020267499846590058,0.7731107686057521,-0.00013701021794035664,-0.9034762738198973,,,,,2.292,1.351348718349581,0.724,-1.411301319277951,1.2857142857142858,0.0,0.0,0.75,2.2777777777777777,2.125,3.0,2.3333333333333335,1.75,3.4444444444444446,2.25,1.75,0.75,0.75,,,,,,,,,,,,
44,240717_094534,LEARNING,1.0,45,1.0,679.0,,,,,,,,,,45.0,45.0,45.0,cue1.png,Easy,A,,,,,,,,,,,,,,,,,,,,,,,,,,,45,28,Male,1.0,1.0,0.4914762785774655,,,,,-0.0006008479742246821,-2.148916762506196,-6.113811516606643e-05,-0.22335932499107064,1.6309999999999998,0.22446709156773936,2.335,1.2350768795918492,1.2857142857142858,0.0,0.0,0.75,2.2777777777777777,2.125,3.0,2.3333333333333335,1.75,3.4444444444444446,2.25,1.75,0.75,0.75,,,,,,,,,,,,
45,240717_094559,LEARNING,1.0,46,1.0,679.0,,,,,,,,,,46.0,46.0,46.0,cue1.png,Easy,A,,,,,,,,,,,,,,,,,,,,,,,,,,,45,28,Male,0.8875,0.9,0.4943838071360785,,,,,9.02394740405891e-05,0.327758877157866,-0.00015176034547265387,-0.7223207850621528,1.9610000000000003,0.7870554982818214,1.36,-0.36654865976138173,1.2857142857142858,0.0,0.0,0.75,2.2777777777777777,2.125,3.0,2.3333333333333335,1.75,3.4444444444444446,2.25,1.75,0.75,0.75,,,,,,,,,,,,
46,240717_094624,LEARNING,1.0,47,3.0,679.0,,,,,,,,,,47.0,47.0,47.0,cue2.png,Hard,A,,,,,,,,,,,,,,,,,,,,,,,,,,,45,28,Male,0.8875,0.9,0.4847682000087973,0.0003522642461622487,1.5943489474850887,0.00020630658314615448,1.2257083432918852,-0.001240988184320831,-4.443010901090536,1.1865781487946196e-05,0.17859647263308778,0.581,-1.565586929795246,0.7949999999999999,-1.2946701261558187,1.2857142857142858,0.0,0.0,0.75,2.2777777777777777,2.125,3.0,2.3333333333333335,1.75,3.4444444444444446,2.25,1.75,0.75,0.75,,,,,,,,,,,,
47,240717_094650,LEARNING,1.0,48,3.0,679.0,,,,,,,,,,48.0,48.0,48.0,cue2.png,Hard,A,,,,,,,,,,,,,,,,,,,,,,,,,,,45,28,Male,0.8875,0.8285714285714286,0.5353267461222668,,,-4.411111724800243e-05,-0.3273339600394644,-8.7588854011297e-05,-0.30953107686144216,-0.00011771019755380278,-0.5348423764669579,2.037,0.9166213131614274,,,1.2857142857142858,0.0,0.0,0.75,2.2777777777777777,2.125,3.0,2.3333333333333335,1.75,3.4444444444444446,2.25,1.75,0.75,0.75,,,,,,,,,,,,
48,240717_094715,LEARNING,1.0,49,1.0,679.0,,,,,,,,,,49.0,49.0,49.0,cue1.png,Easy,A,,,,,,,,,,,,,,,,,,,,,,,,,,,45,28,Male,1.0,1.0,0.4573838785706487,0.00020101290912079555,0.7639859735557792,,,-7.200893443243392e-05,-0.2536967430361748,-1.0081905730340013e-05,0.057753606345526655,,,,,1.2857142857142858,0.0,0.0,0.75,2.2777777777777777,2.125,3.0,2.3333333333333335,1.75,3.4444444444444446,2.25,1.75,0.75,0.75,,,,,,,,,,,,
49,240717_094740,LEARNING,1.0,50,1.0,679.0,,,,,,,,,,50.0,50.0,50.0,cue1.png,Easy,A,,,,,,,,,,,,,,,,,,,,,,,,,,,45,28,Male,1.0,1.0,0.5049651928628529,,,-4.4918562647848145e-05,-0.33234158075324344,2.503225448531165e-05,0.09407335355566086,3.9175049479416024e-05,0.32895993405305846,0.8389999999999997,-1.1257450845460557,1.169,-0.6803029961885276,1.2857142857142858,0.0,0.0,0.75,2.2777777777777777,2.125,3.0,2.3333333333333335,1.75,3.4444444444444446,2.25,1.75,0.75,0.75,,,,,,,,,,,,
0,240717_094925,TrueCHOICE,9.0,1,3.0,679.0,,,,,,,,,,,1.0,1.0,,,A,,,,,,True,cue1.png,Easy,cue2.png,Hard,Right,Hard,Hard,0.0173685000045225,,,,,,,,,,,,,45,28,Male,0.0291666666666666,0.5571428571428572,0.5676286833380194,,,,,,,,,,,,,1.2857142857142858,0.0,0.0,0.75,2.2777777777777777,2.125,3.0,2.3333333333333335,1.75,3.4444444444444446,2.25,1.75,0.75,0.75,,,,,,,,,,,,
1,240717_094948,TrueCHOICE,9.0,2,3.0,679.0,,,,,,,,,,,2.0,2.0,,,A,,,,,,True,cue1.png,Easy,cue2.png,Hard,Right,Hard,Hard,0.0188276000553742,,,,,,,,,,,,,45,28,Male,,,,,,,,,,,,,,,,1.2857142857142858,0.0,0.0,0.75,2.2777777777777777,2.125,3.0,2.3333333333333335,1.75,3.4444444444444446,2.25,1.75,0.75,0.75,,,,,,,,,,,,
2,240717_095012,TrueCHOICE,9.0,3,1.0,679.0,,,,,,,,,,,3.0,3.0,,,A,,,,,,True,cue2.png,Hard,cue1.png,Easy,Right,Easy,Easy,0.0164263000478968,,,,,,,,,,,,,45,28,Male,1.0,1.0,0.5767872071425829,,,,,,,,,,,,,1.2857142857142858,0.0,0.0,0.75,2.2777777777777777,2.125,3.0,2.3333333333333335,1.75,3.4444444444444446,2.25,1.75,0.75,0.75,,,0.0014147497064456987,1.9901287758343271,1.59,0.582870796882888,,,,,,
3,240717_095035,TrueCHOICE,9.0,4,1.0,679.0,,,,,,,,,,,4.0,4.0,,,A,,,,,,True,cue1.png,Easy,cue2.png,Hard,Left,Easy,Easy,0.0170244000619277,,,,,,,,,,,,,45,28,Male,0.0291666666666666,0.7,0.5126975214391548,,,,,,,,,,,,,1.2857142857142858,0.0,0.0,0.75,2.2777777777777777,2.125,3.0,2.3333333333333335,1.75,3.4444444444444446,2.25,1.75,0.75,0.75,-0.000604629368961964,-1.9579654386512502,,,1.492,-0.700754778274928,,,,,,
4,240717_095057,TrueCHOICE,9.0,5,1.0,679.0,,,,,,,,,,,5.0,5.0,,,A,,,,,,True,cue2.png,Hard,cue1.png,Easy,Right,Easy,Easy,0.0165490000508725,,,,,,,,,,,,,45,28,Male,0.8875,0.9,0.6463886857049407,,,,,,,,,,,,,1.2857142857142858,0.0,0.0,0.75,2.2777777777777777,2.125,3.0,2.3333333333333335,1.75,3.4444444444444446,2.25,1.75,0.75,0.75,-0.000151811424094166,-0.11141741699288597,-9.10722518968456e-05,-0.6139899938192088,,,,,,,,
5,240717_095119,TrueCHOICE,9.0,6,1.0,679.0,,,,,,,,,,,6.0,6.0,,,A,,,,,,True,cue2.png,Hard,cue1.png,Easy,Right,Easy,Easy,0.0168628999963402,,,,,,,,,,,,,45,28,Male,0.8875,0.9,0.4229902928345836,,,,,,,,,,,,,1.2857142857142858,0.0,0.0,0.75,2.2777777777777777,2.125,3.0,2.3333333333333335,1.75,3.4444444444444446,2.25,1.75,0.75,0.75,-0.0001473221519946574,-0.09311059720363513,,,1.4540000000000002,-1.1984871441524456,,,,,,
6,240717_095142,TrueCHOICE,9.0,7,1.0,679.0,,,,,,,,,,,7.0,7.0,,,A,,,,,,True,cue1.png,Easy,cue2.png,Hard,Left,Easy,Easy,0.0156814000802114,,,,,,,,,,,,,45,28,Male,,,,,,,,,,,,,,,,1.2857142857142858,0.0,0.0,0.75,2.2777777777777777,2.125,3.0,2.3333333333333335,1.75,3.4444444444444446,2.25,1.75,0.75,0.75,0.00017952841183500098,1.2397545616490775,5.011827657881544e-05,-0.3698197562530942,,,,,,,,
7,240717_095205,TrueCHOICE,9.0,8,1.0,679.0,,,,,,,,,,,8.0,8.0,,,A,,,,,,True,cue2.png,Hard,cue1.png,Easy,Right,Easy,Easy,0.0156251000007614,,,,,,,,,,,,,45,28,Male,1.0,1.0,0.4539517000001589,,,,,,,,,,,,,1.2857142857142858,0.0,0.0,0.75,2.2777777777777777,2.125,3.0,2.3333333333333335,1.75,3.4444444444444446,2.25,1.75,0.75,0.75,,,-8.378582706858534e-05,-0.6013890913328169,,,,,,,,
8,240717_095226,TrueCHOICE,9.0,9,1.0,679.0,,,,,,,,,,,9.0,9.0,,,A,,,,,,True,cue1.png,Easy,cue2.png,Hard,Left,Easy,Easy,0.0162650999845936,,,,,,,,,,,,,45,28,Male,1.0,1.0,0.4140150142983267,,,,,,,,,,,,,1.2857142857142858,0.0,0.0,0.75,2.2777777777777777,2.125,3.0,2.3333333333333335,1.75,3.4444444444444446,2.25,1.75,0.75,0.75,6.274082461107684e-05,0.7635060149940819,2.981594710175237e-05,-0.40492993442920727,1.646,1.3163711255444943,,,,,,
9,240717_095250,TrueCHOICE,9.0,10,1.0,679.0,,,,,,,,,,,10.0,10.0,,,A,,,,,,True,cue2.png,Hard,cue1.png,Easy,Right,Easy,Easy,0.0165534999687224,,,,,,,,,,,,,45,28,Male,0.0291666666666666,0.7,0.514473242843191,,,,,,,,,,,,,1.2857142857142858,0.0,0.0,0.75,2.2777777777777777,2.125,3.0,2.3333333333333335,1.75,3.4444444444444446,2.25,1.75,0.75,0.75,-8.544146885547561e-05,0.15923287620461177,,,,,,,,,,
0,240717_095432,FalseCHOICE,9.0,1,2.0,679.0,,,,,,,,,,,1.0,1.0,,,A,,,,,,False,cue1.png,Easy,cue2.png,Hard,Left,Easy,Mid,0.0160649999743327,,,,,,,,,,,,,45,28,Male,0.725,0.8,0.5089471571596472,,,,,,,,,,,,,1.2857142857142858,0.0,0.0,0.75,2.2777777777777777,2.125,3.0,2.3333333333333335,1.75,3.4444444444444446,2.25,1.75,0.75,0.75,,,,,,,,,,,,
1,240717_095456,FalseCHOICE,9.0,2,2.0,679.0,,,,,,,,,,,2.0,2.0,,,A,,,,,,False,cue2.png,Hard,cue1.png,Easy,Left,Hard,Mid,0.0165928000351414,,,,,,,,,,,,,45,28,Male,,,,,,,,,,,,,,,,1.2857142857142858,0.0,0.0,0.75,2.2777777777777777,2.125,3.0,2.3333333333333335,1.75,3.4444444444444446,2.25,1.75,0.75,0.75,,,,,,,,,,,,
2,240717_095520,FalseCHOICE,9.0,3,2.0,679.0,,,,,,,,,,,3.0,3.0,,,A,,,,,,False,cue2.png,Hard,cue1.png,Easy,Right,Easy,Mid,0.0167578000109642,,,,,,,,,,,,,45,28,Male,,,,,,,,,,,,,,,,1.2857142857142858,0.0,0.0,0.75,2.2777777777777777,2.125,3.0,2.3333333333333335,1.75,3.4444444444444446,2.25,1.75,0.75,0.75,,,0.0014147497064456987,1.9901287758343271,1.59,0.582870796882888,,,,,,
3,240717_095545,FalseCHOICE,9.0,4,2.0,679.0,,,,,,,,,,,4.0,4.0,,,A,,,,,,False,cue2.png,Hard,cue1.png,Easy,Right,Easy,Mid,0.0165395999792963,,,,,,,,,,,,,45,28,Male,0.0291666666666666,0.7,0.6089978857281884,,,,,,,,,,,,,1.2857142857142858,0.0,0.0,0.75,2.2777777777777777,2.125,3.0,2.3333333333333335,1.75,3.4444444444444446,2.25,1.75,0.75,0.75,-0.000604629368961964,-1.9579654386512502,,,1.492,-0.700754778274928,,,,,,
4,240717_095611,FalseCHOICE,9.0,5,2.0,679.0,,,,,,,,,,,5.0,5.0,,,A,,,,,,False,cue1.png,Easy,cue2.png,Hard,Left,Easy,Mid,0.0151267000474035,,,,,,,,,,,,,45,28,Male,,,,,,,,,,,,,,,,1.2857142857142858,0.0,0.0,0.75,2.2777777777777777,2.125,3.0,2.3333333333333335,1.75,3.4444444444444446,2.25,1.75,0.75,0.75,-0.000151811424094166,-0.11141741699288597,-9.10722518968456e-05,-0.6139899938192088,,,,,,,,
5,240717_095636,FalseCHOICE,9.0,6,2.0,679.0,,,,,,,,,,,6.0,6.0,,,A,,,,,,False,cue2.png,Hard,cue1.png,Easy,Left,Hard,Mid,0.0166483999928459,,,,,,,,,,,,,45,28,Male,0.7999999999999999,0.7571428571428571,0.5052844666546056,,,,,,,,,,,,,1.2857142857142858,0.0,0.0,0.75,2.2777777777777777,2.125,3.0,2.3333333333333335,1.75,3.4444444444444446,2.25,1.75,0.75,0.75,-0.0001473221519946574,-0.09311059720363513,,,1.4540000000000002,-1.1984871441524456,,,,,,
6,240717_095700,FalseCHOICE,9.0,7,2.0,679.0,,,,,,,,,,,7.0,7.0,,,A,,,,,,False,cue2.png,Hard,cue1.png,Easy,Right,Easy,Mid,0.0166479999898001,,,,,,,,,,,,,45,28,Male,0.8875,0.9,0.5177973928678382,,,,,,,,,,,,,1.2857142857142858,0.0,0.0,0.75,2.2777777777777777,2.125,3.0,2.3333333333333335,1.75,3.4444444444444446,2.25,1.75,0.75,0.75,0.00017952841183500098,1.2397545616490775,5.011827657881544e-05,-0.3698197562530942,,,,,,,,
7,240717_095727,FalseCHOICE,9.0,8,2.0,679.0,,,,,,,,,,,8.0,8.0,,,A,,,,,,False,cue1.png,Easy,cue2.png,Hard,Left,Easy,Mid,0.016635000007227,,,,,,,,,,,,,45,28,Male,,,,,,,,,,,,,,,,1.2857142857142858,0.0,0.0,0.75,2.2777777777777777,2.125,3.0,2.3333333333333335,1.75,3.4444444444444446,2.25,1.75,0.75,0.75,,,-8.378582706858534e-05,-0.6013890913328169,,,,,,,,
8,240717_095751,FalseCHOICE,9.0,9,2.0,679.0,,,,,,,,,,,9.0,9.0,,,A,,,,,,False,cue1.png,Easy,cue2.png,Hard,Left,Easy,Mid,0.016014099936001,,,,,,,,,,,,,45,28,Male,0.15,0.4571428571428571,0.682808049993279,,,,,,,,,,,,,1.2857142857142858,0.0,0.0,0.75,2.2777777777777777,2.125,3.0,2.3333333333333335,1.75,3.4444444444444446,2.25,1.75,0.75,0.75,6.274082461107684e-05,0.7635060149940819,2.981594710175237e-05,-0.40492993442920727,1.646,1.3163711255444943,,,,,,
9,240717_095815,FalseCHOICE,9.0,10,2.0,679.0,,,,,,,,,,,10.0,10.0,,,A,,,,,,False,cue2.png,Hard,cue1.png,Easy,Right,Easy,Mid,0.0171004999428987,,,,,,,,,,,,,45,28,Male,,,,,,,,,,,,,,,,1.2857142857142858,0.0,0.0,0.75,2.2777777777777777,2.125,3.0,2.3333333333333335,1.75,3.4444444444444446,2.25,1.75,0.75,0.75,-8.544146885547561e-05,0.15923287620461177,,,,,,,,,,
0,240717_092541,OFFLINERATING,9.0,1,1.0,,,,,,,,,,,,,,,,,T0,cue1.png,Easy,67.0,1.858553899917752,,,,,,,,,,,,,,,,,,,,,,45,28,Male,,,,,,,,,,,,,,,,1.2857142857142858,0.0,0.0,0.75,2.2777777777777777,2.125,3.0,2.3333333333333335,1.75,3.4444444444444446,2.25,1.75,0.75,0.75,,,,,,,,,,,1.583,0.9999999999999997
1,240717_092549,OFFLINERATING,9.0,2,3.0,,,,,,,,,,,,,,,,,T0,cue2.png,Hard,62.0,2.319207599968649,,,,,,,,,,,,,,,,,,,,,,45,28,Male,,,,,,,,,,,,,,,,1.2857142857142858,0.0,0.0,0.75,2.2777777777777777,2.125,3.0,2.3333333333333335,1.75,3.4444444444444446,2.25,1.75,0.75,0.75,,,,,,,,,-9.635630671250579e-05,-1.3542156477372929,,
2,240717_094804,OFFLINERATING,9.0,3,1.0,,,,,,,,,,,,,,,,,T1,cue1.png,Easy,62.0,1.407191399950534,,,,,,,,,,,,,,,,,,,,,,45,28,Male,,,,,,,,,,,,,,,,1.2857142857142858,0.0,0.0,0.75,2.2777777777777777,2.125,3.0,2.3333333333333335,1.75,3.4444444444444446,2.25,1.75,0.75,0.75,,,,,,,1.2646220574070131e-05,-0.3894088205209977,-1.4381510759152363e-05,0.3241560076562945,,
3,240717_094811,OFFLINERATING,9.0,4,3.0,,,,,,,,,,,,,,,,,T1,cue2.png,Hard,37.0,0.708747599972412,,,,,,,,,,,,,,,,,,,,,,45,28,Male,,,,,,,,,,,,,,,,1.2857142857142858,0.0,0.0,0.75,2.2777777777777777,2.125,3.0,2.3333333333333335,1.75,3.4444444444444446,2.25,1.75,0.75,0.75,,,,,,,0.00021535698404309429,1.3613426350951916,,,0.9820000000000002,-1.0000000000000004
4,240717_095307,OFFLINERATING,9.0,5,1.0,,,,,,,,,,,,,,,,,T2,cue1.png,Easy,68.0,0.8183023000601679,,,,,,,,,,,,,,,,,,,,,,45,28,Male,,,,,,,,,,,,,,,,1.2857142857142858,0.0,0.0,0.75,2.2777777777777777,2.125,3.0,2.3333333333333335,1.75,3.4444444444444446,2.25,1.75,0.75,0.75,,,,,,,-9.956502545954704e-05,-1.3585433596441823,,,,
5,240717_095314,OFFLINERATING,9.0,6,3.0,,,,,,,,,,,,,,,,,T2,cue2.png,Hard,2.0,1.101835299981758,,,,,,,,,,,,,,,,,,,,,,45,28,Male,,,,,,,,,,,,,,,,1.2857142857142858,0.0,0.0,0.75,2.2777777777777777,2.125,3.0,2.3333333333333335,1.75,3.4444444444444446,2.25,1.75,0.75,0.75,,,,,,,0.00010249750977352288,0.38660954506998835,2.0096136694430344e-05,1.0300596400809987,,
6,240717_101344,OFFLINERATING,9.0,7,1.0,,,,,,,,,,,,,,,,,T3,cue1.png,Easy,31.0,1.0261680000694469,,,,,,,,,,,,,,,,,,,,,,45,28,Male,,,,,,,,,,,,,,,,1.2857142857142858,0.0,0.0,0.75,2.2777777777777777,2.125,3.0,2.3333333333333335,1.75,3.4444444444444446,2.25,1.75,0.75,0.75,,,,,,,,,,,,
7,240717_101351,OFFLINERATING,9.0,8,3.0,,,,,,,,,,,,,,,,,T3,cue2.png,Hard,26.0,1.135099400067702,,,,,,,,,,,,,,,,,,,,,,45,28,Male,,,,,,,,,,,,,,,,1.2857142857142858,0.0,0.0,0.75,2.2777777777777777,2.125,3.0,2.3333333333333335,1.75,3.4444444444444446,2.25,1.75,0.75,0.75,,,,,,,,,,,,
