,END,Phase,Block,TrialN,NbackLevel,ISI,Letter_Resp,Letter_RT,Letter_Accuracy,Trial_A_measure,Trial_ACC,Trial_RT,TrialCountCali,CaliEnd_A_measure,ISI_calibrated,TrialIndex,TrialNumber_total,TrialNumber_valid,CueLearning,TrialDemandLearning,CueMapping,OfflineRatingTimePoint,CueFigure,TrialDemand,OfflineRating,OfflineRatingRT,PhaseType,CueLeft,CueDemandLeft,CueRight,CueDemandRight,Choice,ChoiceDemand,TaskDemand,ChoiceRT,CueCheck,CueDemandCheck,CorrectAnswer,Answer,AnswerDemand,AnswerRT,AnswerACC,DemandRatingQuesIndex,QuesTLX,DemandLevel,DemandRating,DemandRatingRT,PID,Age,Gender,Task_A_measure,Task_ACC,Task_RT,cue_i_on_zyg_values,cue_i_on_zyg_zvalues,cue_e_on_zyg_values,cue_e_on_zyg_zvalues,cue_i_on_cor_values,cue_i_on_cor_zvalues,cue_e_on_cor_values,cue_e_on_cor_zvalues,cue_i_on_scr_values,cue_i_on_scr_zvalues,cue_e_on_scr_values,cue_e_on_scr_zvalues,BAI_bis,BAI_bas_d,BAI_bas_rr,BAI_bas_fs,NFC,BFI_ext,BFI_agr,BFI_con,BFI_neu,BFI_open,UPPS_lps,UPPS_lpm,UPPS_pu,UPPS_ss,cue_e_true_zyg_values,cue_e_true_zyg_zvalues,cue_e_true_cor_values,cue_e_true_cor_zvalues,cue_e_true_scr_values,cue_e_true_scr_zvalues,cue_i_off_zyg_values,cue_i_off_zyg_zvalues,cue_i_off_cor_values,cue_i_off_cor_zvalues,cue_i_off_scr_values,cue_i_off_scr_zvalues
0,240718_094111,LEARNING,1.0,1,1.0,500.0,,,,,,,,,,1.0,1.0,1.0,cue1.png,Easy,A,,,,,,,,,,,,,,,,,,,,,,,,,,,47,26,Female,1.0,1.0,0.4410046999983024,-0.0005856113782270458,-1.052382009783087,0.0007912430010787331,0.766233991561591,,,,,,,1.2939999999999998,-0.21921208374402928,1.4285714285714286,1.0,0.6,0.5,2.5,2.625,2.6666666666666665,2.5555555555555554,2.25,3.111111111111111,2.0,1.75,1.75,0.25,,,,,,,,,,,,
1,240718_094137,LEARNING,1.0,2,3.0,500.0,,,,,,,,,,2.0,2.0,2.0,cue2.png,Hard,A,,,,,,,,,,,,,,,,,,,,,,,,,,,47,26,Female,0.7818181818181817,0.8181818181818181,0.4060731062418199,,,0.0001769097672280227,-0.00045018021253781347,,,,,1.4499999999999997,-0.29356750268817783,1.1139999999999999,-0.5379684552102548,1.4285714285714286,1.0,0.6,0.5,2.5,2.625,2.6666666666666665,2.5555555555555554,2.25,3.111111111111111,2.0,1.75,1.75,0.25,,,,,,,,,,,,
2,240718_094202,LEARNING,1.0,3,1.0,500.0,,,,,,,,,,3.0,3.0,3.0,cue1.png,Easy,A,,,,,,,,,,,,,,,,,,,,,,,,,,,47,26,Female,1.0,1.0,0.3972146562518901,-2.55973674959456e-05,-0.13102180069780095,0.0016020327022189611,1.778094649994974,,,0.0012279663737807095,1.6516881062183073,1.1429999999999998,-0.8395971290277492,1.6,0.3226737477485548,1.4285714285714286,1.0,0.6,0.5,2.5,2.625,2.6666666666666665,2.5555555555555554,2.25,3.111111111111111,2.0,1.75,1.75,0.25,,,,,,,,,,,,
3,240718_094228,LEARNING,1.0,4,3.0,500.0,,,,,,,,,,4.0,4.0,4.0,cue2.png,Hard,A,,,,,,,,,,,,,,,,,,,,,,,,,,,47,26,Female,0.0715909090909091,0.6363636363636364,0.4669600374836591,,,0.00043400216037436934,0.3203995763167256,,,0.0004913674249570729,0.30869945592991455,1.5890000000000002,-0.0463423624236805,1.5959999999999999,0.3155902728270827,1.4285714285714286,1.0,0.6,0.5,2.5,2.625,2.6666666666666665,2.5555555555555554,2.25,3.111111111111111,2.0,1.75,1.75,0.25,,,,,,,,,,,,
4,240718_094253,LEARNING,1.0,5,3.0,500.0,,,,,,,,,,5.0,5.0,5.0,cue2.png,Hard,A,,,,,,,,,,,,,,,,,,,,,,,,,,,47,26,Female,0.8958333333333333,0.9166666666666666,0.3675192562659504,-3.179329193192049e-05,-0.1412156139317837,0.0006295734153005171,0.5644713232838089,,,0.0007876905248415701,0.8489643593739139,1.5539999999999998,-0.10859329702265509,,,1.4285714285714286,1.0,0.6,0.5,2.5,2.625,2.6666666666666665,2.5555555555555554,2.25,3.111111111111111,2.0,1.75,1.75,0.25,,,,,,,,,,,,
5,240718_094318,LEARNING,1.0,6,1.0,500.0,,,,,,,,,,6.0,6.0,6.0,cue1.png,Easy,A,,,,,,,,,,,,,,,,,,,,,,,,,,,47,26,Female,1.0,1.0,0.3834859312628396,-0.00018378790983359468,-0.3912839876621117,0.00030855866316833666,0.16384684815481554,-0.00031145056990405104,-0.4562301267294174,7.328945436214278e-05,-0.45355247280454924,,,0.07099999999999995,-2.384984540983995,1.4285714285714286,1.0,0.6,0.5,2.5,2.625,2.6666666666666665,2.5555555555555554,2.25,3.111111111111111,2.0,1.75,1.75,0.25,,,,,,,,,,,,
6,240718_094344,LEARNING,1.0,7,3.0,500.0,,,,,,,,,,7.0,7.0,7.0,cue2.png,Hard,A,,,,,,,,,,,,,,,,,,,,,,,,,,,47,26,Female,0.7818181818181817,0.8181818181818181,0.4135961437423248,-0.0001606812012263717,-0.353267792592581,0.0025143996501715434,2.9167230999985443,-0.00017614410250841976,-0.1492871952810195,,,,,,,1.4285714285714286,1.0,0.6,0.5,2.5,2.625,2.6666666666666665,2.5555555555555554,2.25,3.111111111111111,2.0,1.75,1.75,0.25,,,,,,,,,,,,
7,240718_094409,LEARNING,1.0,8,3.0,500.0,,,,,,,,,,8.0,8.0,8.0,cue2.png,Hard,A,,,,,,,,,,,,,,,,,,,,,,,,,,,47,26,Female,0.75,0.8333333333333334,0.387551243758935,-0.00019830817144189834,-0.4151733743828728,,,-7.1402137129077115e-06,0.23409838895269033,0.00043357122025683035,0.20332373272785106,2.002,0.6882186658442113,,,1.4285714285714286,1.0,0.6,0.5,2.5,2.625,2.6666666666666665,2.5555555555555554,2.25,3.111111111111111,2.0,1.75,1.75,0.25,,,,,,,,,,,,
8,240718_094436,LEARNING,1.0,9,1.0,500.0,,,,,,,,,,9.0,9.0,9.0,cue1.png,Easy,A,,,,,,,,,,,,,,,,,,,,,,,,,,,47,26,Female,0.8125,0.8541666666666666,0.4720888666653385,-0.00017774354876885692,-0.381339533295473,-0.00016410606710903514,-0.42603588533834297,0.00012315342897135668,0.529669719757307,0.0002568391485195808,-0.11889932618925929,,,,,1.4285714285714286,1.0,0.6,0.5,2.5,2.625,2.6666666666666665,2.5555555555555554,2.25,3.111111111111111,2.0,1.75,1.75,0.25,,,,,,,,,,,,
9,240718_094501,LEARNING,1.0,10,1.0,500.0,,,,,,,,,,10.0,10.0,10.0,cue1.png,Easy,A,,,,,,,,,,,,,,,,,,,,,,,,,,,47,26,Female,0.7818181818181817,0.8181818181818181,0.4162974125065375,0.0005056315426331046,0.7429798677062939,-0.0023503998170719643,-3.1545173032142584,-0.0007019850182460362,-1.3421581293811384,-0.00023126492104204744,-1.0088248774376267,1.5980000000000003,-0.03033497924108699,0.9079999999999997,-0.9027674136660466,1.4285714285714286,1.0,0.6,0.5,2.5,2.625,2.6666666666666665,2.5555555555555554,2.25,3.111111111111111,2.0,1.75,1.75,0.25,,,,,,,,,,,,
10,240718_094529,LEARNING,1.0,11,3.0,500.0,,,,,,,,,,11.0,11.0,11.0,cue2.png,Hard,A,,,,,,,,,,,,,,,,,,,,,,,,,,,47,26,Female,0.6113636363636364,0.7272727272727273,0.5204626375052612,0.00033846647897258723,0.46795239508121306,-0.0001634606952720173,-0.42523046517696095,,,-0.00010352166912992993,-0.7759196611827217,0.9850000000000001,-1.1206156337888311,,,1.4285714285714286,1.0,0.6,0.5,2.5,2.625,2.6666666666666665,2.5555555555555554,2.25,3.111111111111111,2.0,1.75,1.75,0.25,,,,,,,,,,,,
11,240718_094554,LEARNING,1.0,12,1.0,500.0,,,,,,,,,,12.0,12.0,12.0,cue1.png,Easy,A,,,,,,,,,,,,,,,,,,,,,,,,,,,47,26,Female,0.8958333333333333,0.9166666666666666,0.4006821687362389,0.0004265972780249051,0.6129491449583987,-0.0004907251885774649,-0.8336545796078929,0.00035145523317659487,1.0475727172009943,-0.00055533465848612,-1.5996782583505198,2.635,1.8140712830199401,1.569,0.267776817107149,1.4285714285714286,1.0,0.6,0.5,2.5,2.625,2.6666666666666665,2.5555555555555554,2.25,3.111111111111111,2.0,1.75,1.75,0.25,,,,,,,,,,,,
12,240718_094620,LEARNING,1.0,13,1.0,500.0,,,,,,,,,,13.0,13.0,13.0,cue1.png,Easy,A,,,,,,,,,,,,,,,,,,,,,,,,,,,47,26,Female,0.8958333333333333,0.9166666666666666,0.4548256937487167,,,,,-0.00012652232062774962,-0.0367201060109196,-9.156104785674113e-05,-0.7541127082323498,,,0.6149999999999999,-1.421631951663847,1.4285714285714286,1.0,0.6,0.5,2.5,2.625,2.6666666666666665,2.5555555555555554,2.25,3.111111111111111,2.0,1.75,1.75,0.25,,,,,,,,,,,,
13,240718_094645,LEARNING,1.0,14,1.0,500.0,,,,,,,,,,14.0,14.0,14.0,cue1.png,Easy,A,,,,,,,,,,,,,,,,,,,,,,,,,,,47,26,Female,0.9090909090909092,0.9090909090909092,0.3659930375069962,,,0.00014041045805433892,-0.04600109799172131,,,,,,,,,1.4285714285714286,1.0,0.6,0.5,2.5,2.625,2.6666666666666665,2.5555555555555554,2.25,3.111111111111111,2.0,1.75,1.75,0.25,,,,,,,,,,,,
14,240718_094711,LEARNING,1.0,15,3.0,500.0,,,,,,,,,,15.0,15.0,15.0,cue2.png,Hard,A,,,,,,,,,,,,,,,,,,,,,,,,,,,47,26,Female,0.5,0.75,0.428335456228524,-0.0002679528620756662,-0.5297559482014047,0.0003370371067217418,0.19938777400103888,-0.00033493512622966405,-0.5095048792308741,0.0004252740802393549,0.18819614546870722,,,,,1.4285714285714286,1.0,0.6,0.5,2.5,2.625,2.6666666666666665,2.5555555555555554,2.25,3.111111111111111,2.0,1.75,1.75,0.25,,,,,,,,,,,,
15,240718_094737,LEARNING,1.0,16,1.0,500.0,,,,,,,,,,16.0,16.0,16.0,cue1.png,Easy,A,,,,,,,,,,,,,,,,,,,,,,,,,,,47,26,Female,1.0,1.0,0.4603086312490632,-0.0002611495703068942,-0.5185628669455256,,,-0.0006917713002863139,-1.3189882943253048,0.0005156083022621518,0.35289612922919866,,,,,1.4285714285714286,1.0,0.6,0.5,2.5,2.625,2.6666666666666665,2.5555555555555554,2.25,3.111111111111111,2.0,1.75,1.75,0.25,,,,,,,,,,,,
16,240718_094802,LEARNING,1.0,17,1.0,500.0,,,,,,,,,,17.0,17.0,17.0,cue1.png,Easy,A,,,,,,,,,,,,,,,,,,,,,,,,,,,47,26,Female,0.8958333333333333,0.9166666666666666,0.3685805375062045,,,-0.0002729477927381793,-0.5618697026713084,-3.8014785719464594e-05,0.16405937440065427,-0.00010614599351711253,-0.780704405815184,,,,,1.4285714285714286,1.0,0.6,0.5,2.5,2.625,2.6666666666666665,2.5555555555555554,2.25,3.111111111111111,2.0,1.75,1.75,0.25,,,,,,,,,,,,
17,240718_094828,LEARNING,1.0,18,3.0,500.0,,,,,,,,,,18.0,18.0,18.0,cue2.png,Hard,A,,,,,,,,,,,,,,,,,,,,,,,,,,,47,26,Female,0.8958333333333333,0.9166666666666666,0.4711094125086674,,,0.00019713123945895106,0.024786095207962013,0.0005998966005540552,1.6111623449821435,0.00032276833357041887,0.0013046835876244975,,,,,1.4285714285714286,1.0,0.6,0.5,2.5,2.625,2.6666666666666665,2.5555555555555554,2.25,3.111111111111111,2.0,1.75,1.75,0.25,,,,,,,,,,,,
18,240718_094857,LEARNING,1.0,19,3.0,500.0,,,,,,,,,,19.0,19.0,19.0,cue2.png,Hard,A,,,,,,,,,,,,,,,,,,,,,,,,,,,47,26,Female,0.8958333333333333,0.9166666666666666,0.5633896749932319,-0.0005730361637806733,-1.0316927020343825,-0.0001467589383710435,-0.4043867732664112,-0.0001225195622788361,-0.027639842479224328,0.0005450890852841256,0.40664635119646503,,,,,1.4285714285714286,1.0,0.6,0.5,2.5,2.625,2.6666666666666665,2.5555555555555554,2.25,3.111111111111111,2.0,1.75,1.75,0.25,,,,,,,,,,,,
19,240718_094923,LEARNING,1.0,20,3.0,500.0,,,,,,,,,,20.0,20.0,20.0,cue2.png,Hard,A,,,,,,,,,,,,,,,,,,,,,,,,,,,47,26,Female,0.75,0.8333333333333334,0.4802656374886282,0.001980146850520848,3.1689186948461754,-0.00024127833350639496,-0.5223464084984336,0.00090034175134394,2.292722636207962,-0.0005434130507826797,-1.5779424360764314,2.381,1.3623073576445293,0.7609999999999999,-1.1630851170301306,1.4285714285714286,1.0,0.6,0.5,2.5,2.625,2.6666666666666665,2.5555555555555554,2.25,3.111111111111111,2.0,1.75,1.75,0.25,,,,,,,,,,,,
20,240718_094950,LEARNING,1.0,21,1.0,500.0,,,,,,,,,,21.0,21.0,21.0,cue1.png,Easy,A,,,,,,,,,,,,,,,,,,,,,,,,,,,47,26,Female,0.75,0.7708333333333334,0.4489793999974305,-2.737320683546783e-05,-0.13394349135876857,5.6026019139998866e-05,-0.15131236896780406,-3.354224263621246e-05,0.17420534533187815,0.0004605958220644099,0.25259577359093444,1.428,-0.3326966615789611,1.3170000000000002,-0.1784821029455665,1.4285714285714286,1.0,0.6,0.5,2.5,2.625,2.6666666666666665,2.5555555555555554,2.25,3.111111111111111,2.0,1.75,1.75,0.25,,,,,,,,,,,,
21,240718_095016,LEARNING,1.0,22,3.0,500.0,,,,,,,,,,22.0,22.0,22.0,cue2.png,Hard,A,,,,,,,,,,,,,,,,,,,,,,,,,,,47,26,Female,0.5,0.75,0.4284167062360211,,,,,-9.130224103489704e-05,0.043176699250179924,-5.917051833206465e-05,-0.695057351721263,1.6400000000000001,0.04436614227768142,1.536,0.20933814900500777,1.4285714285714286,1.0,0.6,0.5,2.5,2.625,2.6666666666666665,2.5555555555555554,2.25,3.111111111111111,2.0,1.75,1.75,0.25,,,,,,,,,,,,
22,240718_095041,LEARNING,1.0,23,3.0,500.0,,,,,,,,,,23.0,23.0,23.0,cue2.png,Hard,A,,,,,,,,,,,,,,,,,,,,,,,,,,,47,26,Female,0.75,0.8333333333333334,0.4083829937517294,0.0011422535009722934,1.790378913808597,0.00027804260985951146,0.12576299761942786,8.463423446588778e-06,0.2694952640849698,0.0005370478290569734,0.3919852987141434,,,2.346,1.6437418206030232,1.4285714285714286,1.0,0.6,0.5,2.5,2.625,2.6666666666666665,2.5555555555555554,2.25,3.111111111111111,2.0,1.75,1.75,0.25,,,,,,,,,,,,
23,240718_095107,LEARNING,1.0,24,3.0,500.0,,,,,,,,,,24.0,24.0,24.0,cue2.png,Hard,A,,,,,,,,,,,,,,,,,,,,,,,,,,,47,26,Female,0.0715909090909091,0.6363636363636364,0.4588773249924998,-4.523038208308549e-05,-0.16332291830978055,0.0016021477006831564,1.778238167384916,-0.00021221064839669398,-0.23110421064803577,0.0004938598372637611,0.3132436946164711,0.5510000000000002,-1.8925272228161079,1.3810000000000002,-0.0651465042020195,1.4285714285714286,1.0,0.6,0.5,2.5,2.625,2.6666666666666665,2.5555555555555554,2.25,3.111111111111111,2.0,1.75,1.75,0.25,,,,,,,,,,,,
24,240718_095134,LEARNING,1.0,25,1.0,500.0,,,,,,,,,,25.0,25.0,25.0,cue1.png,Easy,A,,,,,,,,,,,,,,,,,,,,,,,,,,,47,26,Female,0.8958333333333333,0.9166666666666666,0.4815488312669913,-0.0001397100886766098,-0.31876517609844224,0.00035804792657728735,0.2256091504977546,-0.000198938752254579,-0.20099689363540504,0.0009560999487304312,1.1560133244118744,1.9220000000000002,0.5459308153322715,1.292,-0.22275382120476472,1.4285714285714286,1.0,0.6,0.5,2.5,2.625,2.6666666666666665,2.5555555555555554,2.25,3.111111111111111,2.0,1.75,1.75,0.25,,,,,,,,,,,,
25,240718_095159,LEARNING,1.0,26,1.0,500.0,,,,,,,,,,26.0,26.0,26.0,cue1.png,Easy,A,,,,,,,,,,,,,,,,,,,,,,,,,,,47,26,Female,0.75,0.8333333333333334,0.3951986687679891,-0.0001825175398194748,-0.38919391784350643,,,,,0.0004990892908050245,0.32277818657351665,1.249,-0.6510657270994276,1.3459999999999999,-0.12712690976489735,1.4285714285714286,1.0,0.6,0.5,2.5,2.625,2.6666666666666665,2.5555555555555554,2.25,3.111111111111111,2.0,1.75,1.75,0.25,,,,,,,,,,,,
26,240718_095226,LEARNING,1.0,27,3.0,500.0,,,,,,,,,,27.0,27.0,27.0,cue2.png,Hard,A,,,,,,,,,,,,,,,,,,,,,,,,,,,47,26,Female,0.75,0.8333333333333334,0.4606765562566579,-8.449250912881444e-05,-0.2279187335765448,0.0002379848073846176,0.07577110165597603,-0.0007739458007907391,-1.5054012763550944,0.000985527416270665,1.2096663400405006,2.094,0.851849693932943,1.679,0.46257237744762036,1.4285714285714286,1.0,0.6,0.5,2.5,2.625,2.6666666666666665,2.5555555555555554,2.25,3.111111111111111,2.0,1.75,1.75,0.25,,,,,,,,,,,,
27,240718_095251,LEARNING,1.0,28,1.0,500.0,,,,,,,,,,28.0,28.0,28.0,cue1.png,Easy,A,,,,,,,,,,,,,,,,,,,,,,,,,,,47,26,Female,0.8958333333333333,0.9166666666666666,0.4068114437250187,0.00027346492094602664,0.3610089116207996,-0.0019861645810432225,-2.699953924776699,0.00025085161497890793,0.8193532530594713,-7.31936685751406e-05,-0.7206247675420655,1.366,-0.4429697457257146,1.3969999999999998,-0.036812604516133544,1.4285714285714286,1.0,0.6,0.5,2.5,2.625,2.6666666666666665,2.5555555555555554,2.25,3.111111111111111,2.0,1.75,1.75,0.25,,,,,,,,,,,,
28,240718_095317,LEARNING,1.0,29,1.0,500.0,,,,,,,,,,29.0,29.0,29.0,cue1.png,Easy,A,,,,,,,,,,,,,,,,,,,,,,,,,,,47,26,Female,0.8958333333333333,0.9166666666666666,0.4583870874921558,,,,,,,-8.415884613803982e-05,-0.740616798536528,0.607,-1.7929257274577497,0.8099999999999999,-1.0763125492421024,1.4285714285714286,1.0,0.6,0.5,2.5,2.625,2.6666666666666665,2.5555555555555554,2.25,3.111111111111111,2.0,1.75,1.75,0.25,,,,,,,,,,,,
29,240718_095343,LEARNING,1.0,30,3.0,500.0,,,,,,,,,,30.0,30.0,30.0,cue2.png,Hard,A,,,,,,,,,,,,,,,,,,,,,,,,,,,47,26,Female,0.6113636363636364,0.7272727272727273,0.4250200687529286,0.0007184755520478537,1.0931603940129604,,,0.0003025496792157427,0.9366303920794647,,,2.403,1.4014365165353133,1.153,-0.46890457472590563,1.4285714285714286,1.0,0.6,0.5,2.5,2.625,2.6666666666666665,2.5555555555555554,2.25,3.111111111111111,2.0,1.75,1.75,0.25,,,,,,,,,,,,
30,240718_095409,LEARNING,1.0,31,3.0,500.0,,,,,,,,,,31.0,31.0,31.0,cue2.png,Hard,A,,,,,,,,,,,,,,,,,,,,,,,,,,,47,26,Female,0.75,0.8333333333333334,0.4434218499955022,-0.000896014918774478,-1.5630718595713624,,,,,0.00027092804331420826,-0.09321204298785163,1.9300000000000002,0.5601596003834656,,,1.4285714285714286,1.0,0.6,0.5,2.5,2.625,2.6666666666666665,2.5555555555555554,2.25,3.111111111111111,2.0,1.75,1.75,0.25,,,,,,,,,,,,
31,240718_095434,LEARNING,1.0,32,1.0,500.0,,,,,,,,,,32.0,32.0,32.0,cue1.png,Easy,A,,,,,,,,,,,,,,,,,,,,,,,,,,,47,26,Female,0.9090909090909092,0.9090909090909092,0.3905046437430428,,,0.00018099193381906128,0.004644339079991604,0.00037489444105733016,1.1007445966848095,-0.00029654396996376536,-1.1278435400945543,1.365,-0.4447483438571141,1.2910000000000001,-0.22452468993513244,1.4285714285714286,1.0,0.6,0.5,2.5,2.625,2.6666666666666665,2.5555555555555554,2.25,3.111111111111111,2.0,1.75,1.75,0.25,,,,,,,,,,,,
32,240718_095500,LEARNING,1.0,33,1.0,500.0,,,,,,,,,,33.0,33.0,33.0,cue1.png,Easy,A,,,,,,,,,,,,,,,,,,,,,,,,,,,47,26,Female,0.8958333333333333,0.9166666666666666,0.4271321375126717,-0.00015642151672561446,-0.34625956828560106,5.820193158901938e-05,-0.14859684335091108,-0.0008029030649244623,-1.5710908750195962,-8.405366973645006e-05,-0.7404250378588365,1.891,0.49079427325889435,1.9589999999999999,0.9584156219506377,1.4285714285714286,1.0,0.6,0.5,2.5,2.625,2.6666666666666665,2.5555555555555554,2.25,3.111111111111111,2.0,1.75,1.75,0.25,,,,,,,,,,,,
33,240718_095525,LEARNING,1.0,34,1.0,500.0,,,,,,,,,,34.0,34.0,34.0,cue1.png,Easy,A,,,,,,,,,,,,,,,,,,,,,,,,,,,47,26,Female,0.9090909090909092,0.9090909090909092,0.3992727937657037,6.19746364865616e-05,0.013055594426662674,0.0002293182110806374,0.06495524172313624,0.0003508109871442752,1.0461112440760179,0.0009304084087852823,1.1091717607497642,2.325,1.2627058622861715,1.936,0.9176856411521757,1.4285714285714286,1.0,0.6,0.5,2.5,2.625,2.6666666666666665,2.5555555555555554,2.25,3.111111111111111,2.0,1.75,1.75,0.25,,,,,,,,,,,,
34,240718_095551,LEARNING,1.0,35,3.0,500.0,,,,,,,,,,35.0,35.0,35.0,cue2.png,Hard,A,,,,,,,,,,,,,,,,,,,,,,,,,,,47,26,Female,0.75,0.8333333333333334,0.4163140437594848,,,,,-0.0007111763984701154,-1.363008789695745,-0.0012607434601535211,-2.885800124212265,2.223,1.081288852883447,1.304,-0.20150339644034967,1.4285714285714286,1.0,0.6,0.5,2.5,2.625,2.6666666666666665,2.5555555555555554,2.25,3.111111111111111,2.0,1.75,1.75,0.25,,,,,,,,,,,,
35,240718_095618,LEARNING,1.0,36,3.0,500.0,,,,,,,,,,36.0,36.0,36.0,cue2.png,Hard,A,,,,,,,,,,,,,,,,,,,,,,,,,,,47,26,Female,0.75,0.8333333333333334,0.5121140812407248,,,0.0008703104416541963,0.8649096806691583,-0.0002820703838520861,-0.389581129036491,0.00039941949171952255,0.1410573068979167,1.257,-0.6368369420482338,0.8339999999999999,-1.0338116997132725,1.4285714285714286,1.0,0.6,0.5,2.5,2.625,2.6666666666666665,2.5555555555555554,2.25,3.111111111111111,2.0,1.75,1.75,0.25,,,,,,,,,,,,
36,240718_095643,LEARNING,1.0,37,1.0,500.0,,,,,,,,,,37.0,37.0,37.0,cue1.png,Easy,A,,,,,,,,,,,,,,,,,,,,,,,,,,,47,26,Female,1.0,1.0,0.3741106250090524,0.0003333388185175145,0.45951613774037187,,,-0.001039028131108958,-2.106740954414516,,,1.08,-0.9516488113059017,2.764,2.3839649498968134,1.4285714285714286,1.0,0.6,0.5,2.5,2.625,2.6666666666666665,2.5555555555555554,2.25,3.111111111111111,2.0,1.75,1.75,0.25,,,,,,,,,,,,
37,240718_095708,LEARNING,1.0,38,3.0,500.0,,,,,,,,,,38.0,38.0,38.0,cue2.png,Hard,A,,,,,,,,,,,,,,,,,,,,,,,,,,,47,26,Female,0.5,0.75,0.4146479187402292,4.707317360181816e-05,-0.011460961759565222,8.260292436521694e-05,-0.11814455148998965,5.3280591857767824e-05,0.37116308023688266,0.000914115921249019,1.0794668231020652,0.5399999999999998,-1.9120918022615003,1.442,0.04287648835042313,1.4285714285714286,1.0,0.6,0.5,2.5,2.625,2.6666666666666665,2.5555555555555554,2.25,3.111111111111111,2.0,1.75,1.75,0.25,,,,,,,,,,,,
38,240718_095735,LEARNING,1.0,39,3.0,500.0,,,,,,,,,,39.0,39.0,39.0,cue2.png,Hard,A,,,,,,,,,,,,,,,,,,,,,,,,,,,47,26,Female,0.8958333333333333,0.9166666666666666,0.4534266000191564,,,0.000669407240538546,0.6141836970061055,,,,,1.6019999999999999,-0.02322058671549075,1.3719999999999999,-0.08108432277533138,1.4285714285714286,1.0,0.6,0.5,2.5,2.625,2.6666666666666665,2.5555555555555554,2.25,3.111111111111111,2.0,1.75,1.75,0.25,,,,,,,,,,,,
39,240718_095800,LEARNING,1.0,40,3.0,500.0,,,,,,,,,,40.0,40.0,40.0,cue2.png,Hard,A,,,,,,,,,,,,,,,,,,,,,,,,,,,47,26,Female,0.8958333333333333,0.9166666666666666,0.4145789750109543,-0.0001610171463940148,-0.35382050467472476,7.289428843048479e-06,-0.21213533980514718,-0.0003084795490558368,-0.449490361320579,-0.0002046305086567438,-0.9602642412899804,1.4010000000000002,-0.38071881112674044,2.12,1.2435254875398734,1.4285714285714286,1.0,0.6,0.5,2.5,2.625,2.6666666666666665,2.5555555555555554,2.25,3.111111111111111,2.0,1.75,1.75,0.25,,,,,,,,,,,,
40,240718_095825,LEARNING,1.0,41,1.0,500.0,,,,,,,,,,41.0,41.0,41.0,cue1.png,Easy,A,,,,,,,,,,,,,,,,,,,,,,,,,,,47,26,Female,0.75,0.8333333333333334,0.4019584124980611,-0.0001936459725060593,-0.40750291524433446,,,0.00020784544057825694,0.7217936796333227,0.00039169099398631,0.12696648480801292,1.4049999999999998,-0.3736044186011442,,,1.4285714285714286,1.0,0.6,0.5,2.5,2.625,2.6666666666666665,2.5555555555555554,2.25,3.111111111111111,2.0,1.75,1.75,0.25,,,,,,,,,,,,
41,240718_095853,LEARNING,1.0,42,3.0,500.0,,,,,,,,,,42.0,42.0,42.0,cue2.png,Hard,A,,,,,,,,,,,,,,,,,,,,,,,,,,,47,26,Female,0.8958333333333333,0.9166666666666666,0.5064465562390978,-0.00011604437931186972,-0.2798292878695343,0.0002451122623144436,0.08466612243399733,,,0.00045981232550647505,0.25116727985424514,,,2.614,2.1183346403416254,1.4285714285714286,1.0,0.6,0.5,2.5,2.625,2.6666666666666665,2.5555555555555554,2.25,3.111111111111111,2.0,1.75,1.75,0.25,,,,,,,,,,,,
42,240718_095918,LEARNING,1.0,43,3.0,500.0,,,,,,,,,,43.0,43.0,43.0,cue2.png,Hard,A,,,,,,,,,,,,,,,,,,,,,,,,,,,47,26,Female,0.6113636363636364,0.7272727272727273,0.4104522062625619,0.0011459333690134865,1.7964331980280464,,,0.0001952678584278035,0.6932614149892022,,,2.714,1.9545805354004815,,,1.4285714285714286,1.0,0.6,0.5,2.5,2.625,2.6666666666666665,2.5555555555555554,2.25,3.111111111111111,2.0,1.75,1.75,0.25,,,,,,,,,,,,
43,240718_095943,LEARNING,1.0,44,1.0,500.0,,,,,,,,,,44.0,44.0,44.0,cue1.png,Easy,A,,,,,,,,,,,,,,,,,,,,,,,,,,,47,26,Female,1.0,1.0,0.3982527749903966,,,-0.0003928226045726065,-0.711472745065384,-4.4696068975880014e-05,0.1489028729559387,0.0014413612486193195,2.040755855222905,1.56,-0.09792170823425915,0.571,-1.4995501758000354,1.4285714285714286,1.0,0.6,0.5,2.5,2.625,2.6666666666666665,2.5555555555555554,2.25,3.111111111111111,2.0,1.75,1.75,0.25,,,,,,,,,,,,
44,240718_100007,LEARNING,1.0,45,1.0,500.0,,,,,,,,,,45.0,45.0,45.0,cue1.png,Easy,A,,,,,,,,,,,,,,,,,,,,,,,,,,,47,26,Female,1.0,1.0,0.3233623625201289,0.00029260776947370205,0.39250358601103713,,,-0.00017817086620016982,-0.15388491186377484,,,1.8299999999999998,0.38229978724353947,2.0170000000000003,1.061126008311978,1.4285714285714286,1.0,0.6,0.5,2.5,2.625,2.6666666666666665,2.5555555555555554,2.25,3.111111111111111,2.0,1.75,1.75,0.25,,,,,,,,,,,,
45,240718_100033,LEARNING,1.0,46,1.0,500.0,,,,,,,,,,46.0,46.0,46.0,cue1.png,Easy,A,,,,,,,,,,,,,,,,,,,,,,,,,,,47,26,Female,1.0,1.0,0.3967080999937025,0.00012257569118804667,0.11275917212404175,3.330582772168803e-06,-0.21707595583206918,0.0001925343475396757,0.6870604412937265,0.00015492906101578947,-0.30470476493725557,0.813,-1.4265345123895032,,,1.4285714285714286,1.0,0.6,0.5,2.5,2.625,2.6666666666666665,2.5555555555555554,2.25,3.111111111111111,2.0,1.75,1.75,0.25,,,,,,,,,,,,
46,240718_100058,LEARNING,1.0,47,3.0,500.0,,,,,,,,,,47.0,47.0,47.0,cue2.png,Hard,A,,,,,,,,,,,,,,,,,,,,,,,,,,,47,26,Female,0.75,0.8333333333333334,0.4181390437588561,-0.001571376807430953,-2.6742075794231064,0.0003645685420605319,0.2337468393053306,-0.00029841122688529283,-0.42665035683832886,0.0006612326302666855,0.6184026440406779,1.715,0.1777610021326255,,,1.4285714285714286,1.0,0.6,0.5,2.5,2.625,2.6666666666666665,2.5555555555555554,2.25,3.111111111111111,2.0,1.75,1.75,0.25,,,,,,,,,,,,
47,240718_100126,LEARNING,1.0,48,3.0,500.0,,,,,,,,,,48.0,48.0,48.0,cue2.png,Hard,A,,,,,,,,,,,,,,,,,,,,,,,,,,,47,26,Female,0.5,0.6875,0.5052179999727134,0.0010387808991788186,1.6201411408311432,5.8671373412501164e-05,-0.14801098278566654,0.0006304337850432046,1.680435995426902,0.00047857301518916713,0.2853723155194135,2.549,1.6611118437196044,1.306,-0.19796165897961382,1.4285714285714286,1.0,0.6,0.5,2.5,2.625,2.6666666666666665,2.5555555555555554,2.25,3.111111111111111,2.0,1.75,1.75,0.25,,,,,,,,,,,,
48,240718_100151,LEARNING,1.0,49,1.0,500.0,,,,,,,,,,49.0,49.0,49.0,cue1.png,Easy,A,,,,,,,,,,,,,,,,,,,,,,,,,,,47,26,Female,1.0,1.0,0.3648794749897206,0.00022001023951412043,0.2730628682773642,0.00034440842755997444,0.2085871379623823,-0.00020269109406564553,-0.20950908686204114,0.0016477600351470921,2.4170681323212846,,,,,1.4285714285714286,1.0,0.6,0.5,2.5,2.625,2.6666666666666665,2.5555555555555554,2.25,3.111111111111111,2.0,1.75,1.75,0.25,,,,,,,,,,,,
49,240718_100215,LEARNING,1.0,50,1.0,500.0,,,,,,,,,,50.0,50.0,50.0,cue1.png,Easy,A,,,,,,,,,,,,,,,,,,,,,,,,,,,47,26,Female,0.8958333333333333,0.9166666666666666,0.3447800625071977,-0.0006083711908109876,-1.0898274759308109,-1.0088368255465729e-05,-0.23382272580609878,-0.0010464740537438717,-2.1236320414770127,0.00013598322272994918,-0.339247368926465,1.345,-0.4803203064850992,1.4720000000000002,0.09600255026146118,1.4285714285714286,1.0,0.6,0.5,2.5,2.625,2.6666666666666665,2.5555555555555554,2.25,3.111111111111111,2.0,1.75,1.75,0.25,,,,,,,,,,,,
0,240718_100341,TrueCHOICE,9.0,1,1.0,500.0,,,,,,,,,,,2.0,1.0,,,A,,,,,,True,cue1.png,Easy,cue2.png,Hard,Left,Easy,Easy,0.0175005999626591,,,,,,,,,,,,,47,26,Female,0.6113636363636364,0.7272727272727273,0.4006660312588792,,,,,,,,,,,,,1.4285714285714286,1.0,0.6,0.5,2.5,2.625,2.6666666666666665,2.5555555555555554,2.25,3.111111111111111,2.0,1.75,1.75,0.25,0.00015733212609240436,1.8869125396960826,,,1.4639999999999997,-0.28584926224109325,,,,,,
1,240718_100404,TrueCHOICE,9.0,2,1.0,500.0,,,,,,,,,,,3.0,2.0,,,A,,,,,,True,cue1.png,Easy,cue2.png,Hard,Left,Easy,Easy,0.016424199915491,,,,,,,,,,,,,47,26,Female,,,,,,,,,,,,,,,,1.4285714285714286,1.0,0.6,0.5,2.5,2.625,2.6666666666666665,2.5555555555555554,2.25,3.111111111111111,2.0,1.75,1.75,0.25,-5.461012590145947e-06,0.14474392050376225,-4.793515583844613e-05,-0.691967162247341,1.4489999999999998,-0.3149609717806806,,,,,,
2,240718_100433,TrueCHOICE,9.0,3,1.0,500.0,,,,,,,,,,,5.0,3.0,,,A,,,,,,True,cue2.png,Hard,cue1.png,Easy,Right,Easy,Easy,0.0166645999997854,,,,,,,,,,,,,47,26,Female,0.8958333333333333,0.9166666666666666,0.4107801562640816,,,,,,,,,,,,,1.4285714285714286,1.0,0.6,0.5,2.5,2.625,2.6666666666666665,2.5555555555555554,2.25,3.111111111111111,2.0,1.75,1.75,0.25,2.0752832430986738e-05,0.4252774771006622,2.937014096517955e-05,0.21840063780025348,1.165,-0.8661426723968709,,,,,,
3,240718_100456,TrueCHOICE,9.0,4,1.0,500.0,,,,,,,,,,,6.0,4.0,,,A,,,,,,True,cue1.png,Easy,cue2.png,Hard,Left,Easy,Easy,0.0163550999714061,,,,,,,,,,,,,47,26,Female,0.75,0.8333333333333334,0.3880897999988519,,,,,,,,,,,,,1.4285714285714286,1.0,0.6,0.5,2.5,2.625,2.6666666666666665,2.5555555555555554,2.25,3.111111111111111,2.0,1.75,1.75,0.25,-5.9806789293839844e-05,-0.43685004300741126,,,1.375,-0.4585787388426455,,,,,,
4,240718_100525,TrueCHOICE,9.0,5,1.0,500.0,,,,,,,,,,,8.0,5.0,,,A,,,,,,True,cue2.png,Hard,cue1.png,Easy,Right,Easy,Easy,0.0167496000649407,,,,,,,,,,,,,47,26,Female,0.9090909090909092,0.9090909090909092,0.4188199000054737,,,,,,,,,,,,,1.4285714285714286,1.0,0.6,0.5,2.5,2.625,2.6666666666666665,2.5555555555555554,2.25,3.111111111111111,2.0,1.75,1.75,0.25,,,-0.00011019445005958865,-1.4251492216422559,1.587,-0.047133244016474986,,,,,,
5,240718_100547,TrueCHOICE,9.0,6,1.0,500.0,,,,,,,,,,,9.0,6.0,,,A,,,,,,True,cue2.png,Hard,cue1.png,Easy,Right,Easy,Easy,0.0156511000823229,,,,,,,,,,,,,47,26,Female,1.0,1.0,0.4401476437415113,,,,,,,,,,,,,1.4285714285714286,1.0,0.6,0.5,2.5,2.625,2.6666666666666665,2.5555555555555554,2.25,3.111111111111111,2.0,1.75,1.75,0.25,-0.00011871165687928672,-1.0672341774712089,,,,,,,,,,
6,240718_100610,TrueCHOICE,9.0,7,1.0,500.0,,,,,,,,,,,10.0,7.0,,,A,,,,,,True,cue1.png,Easy,cue2.png,Hard,Left,Easy,Easy,0.0138373000081628,,,,,,,,,,,,,47,26,Female,,,,,,,,,,,,,,,,1.4285714285714286,1.0,0.6,0.5,2.5,2.625,2.6666666666666665,2.5555555555555554,2.25,3.111111111111111,2.0,1.75,1.75,0.25,,,0.0001619231584473269,1.779380336532012,,,,,,,,
7,240718_100633,TrueCHOICE,9.0,8,1.0,500.0,,,,,,,,,,,11.0,8.0,,,A,,,,,,True,cue2.png,Hard,cue1.png,Easy,Right,Easy,Easy,0.0155779999913647,,,,,,,,,,,,,47,26,Female,1.0,1.0,0.3634277125020162,,,,,,,,,,,,,1.4285714285714286,1.0,0.6,0.5,2.5,2.625,2.6666666666666665,2.5555555555555554,2.25,3.111111111111111,2.0,1.75,1.75,0.25,,,-1.5258213161029391e-05,-0.30715476713955814,,,,,,,,
8,240718_100654,TrueCHOICE,9.0,9,1.0,500.0,,,,,,,,,,,12.0,9.0,,,A,,,,,,True,cue1.png,Easy,cue2.png,Hard,Left,Easy,Easy,0.0155842000385746,,,,,,,,,,,,,47,26,Female,0.8958333333333333,0.9166666666666666,0.3198266437611892,,,,,,,,,,,,,1.4285714285714286,1.0,0.6,0.5,2.5,2.625,2.6666666666666665,2.5555555555555554,2.25,3.111111111111111,2.0,1.75,1.75,0.25,-0.00010802325096927407,-0.952849716821887,,,2.84,2.384664892857071,,,,,,
9,240718_100716,TrueCHOICE,9.0,10,1.0,500.0,,,,,,,,,,,13.0,10.0,,,A,,,,,,True,cue2.png,Hard,cue1.png,Easy,Right,Easy,Easy,0.0171791999600827,,,,,,,,,,,,,47,26,Female,0.9090909090909092,0.9090909090909092,0.342916343754041,,,,,,,,,,,,,1.4285714285714286,1.0,0.6,0.5,2.5,2.625,2.6666666666666665,2.5555555555555554,2.25,3.111111111111111,2.0,1.75,1.75,0.25,,,4.704038761196676e-05,0.42649017669688943,1.3990000000000002,-0.41200000357930494,,,,,,
0,240718_100850,FalseCHOICE,9.0,1,2.0,500.0,,,,,,,,,,,1.0,1.0,,,A,,,,,,False,cue1.png,Easy,cue2.png,Hard,Right,Hard,Mid,0.0167628999333828,,,,,,,,,,,,,47,26,Female,1.0,1.0,0.4108287187555106,,,,,,,,,,,,,1.4285714285714286,1.0,0.6,0.5,2.5,2.625,2.6666666666666665,2.5555555555555554,2.25,3.111111111111111,2.0,1.75,1.75,0.25,0.00015733212609240436,1.8869125396960826,,,1.4639999999999997,-0.28584926224109325,,,,,,
1,240718_100914,FalseCHOICE,9.0,2,2.0,500.0,,,,,,,,,,,2.0,2.0,,,A,,,,,,False,cue2.png,Hard,cue1.png,Easy,Left,Hard,Mid,0.0156378999818116,,,,,,,,,,,,,47,26,Female,,,,,,,,,,,,,,,,1.4285714285714286,1.0,0.6,0.5,2.5,2.625,2.6666666666666665,2.5555555555555554,2.25,3.111111111111111,2.0,1.75,1.75,0.25,-5.461012590145947e-06,0.14474392050376225,-4.793515583844613e-05,-0.691967162247341,1.4489999999999998,-0.3149609717806806,,,,,,
2,240718_100936,FalseCHOICE,9.0,3,2.0,500.0,,,,,,,,,,,3.0,3.0,,,A,,,,,,False,cue2.png,Hard,cue1.png,Easy,Left,Hard,Mid,0.0162227000109851,,,,,,,,,,,,,47,26,Female,,,,,,,,,,,,,,,,1.4285714285714286,1.0,0.6,0.5,2.5,2.625,2.6666666666666665,2.5555555555555554,2.25,3.111111111111111,2.0,1.75,1.75,0.25,2.0752832430986738e-05,0.4252774771006622,2.937014096517955e-05,0.21840063780025348,1.165,-0.8661426723968709,,,,,,
3,240718_100959,FalseCHOICE,9.0,4,2.0,500.0,,,,,,,,,,,4.0,4.0,,,A,,,,,,False,cue2.png,Hard,cue1.png,Easy,Left,Hard,Mid,0.0162554000271484,,,,,,,,,,,,,47,26,Female,0.9090909090909092,0.9090909090909092,0.3728772374888649,,,,,,,,,,,,,1.4285714285714286,1.0,0.6,0.5,2.5,2.625,2.6666666666666665,2.5555555555555554,2.25,3.111111111111111,2.0,1.75,1.75,0.25,-5.9806789293839844e-05,-0.43685004300741126,,,1.375,-0.4585787388426455,,,,,,
4,240718_101022,FalseCHOICE,9.0,5,2.0,500.0,,,,,,,,,,,5.0,5.0,,,A,,,,,,False,cue1.png,Easy,cue2.png,Hard,Left,Easy,Mid,0.0157673000358045,,,,,,,,,,,,,47,26,Female,,,,,,,,,,,,,,,,1.4285714285714286,1.0,0.6,0.5,2.5,2.625,2.6666666666666665,2.5555555555555554,2.25,3.111111111111111,2.0,1.75,1.75,0.25,,,-0.00011019445005958865,-1.4251492216422559,1.587,-0.047133244016474986,,,,,,
5,240718_101047,FalseCHOICE,9.0,6,2.0,500.0,,,,,,,,,,,6.0,6.0,,,A,,,,,,False,cue2.png,Hard,cue1.png,Easy,Right,Easy,Mid,0.0165526999626308,,,,,,,,,,,,,47,26,Female,1.0,1.0,0.490280981248361,,,,,,,,,,,,,1.4285714285714286,1.0,0.6,0.5,2.5,2.625,2.6666666666666665,2.5555555555555554,2.25,3.111111111111111,2.0,1.75,1.75,0.25,-0.00011871165687928672,-1.0672341774712089,,,,,,,,,,
6,240718_101110,FalseCHOICE,9.0,7,2.0,500.0,,,,,,,,,,,7.0,7.0,,,A,,,,,,False,cue2.png,Hard,cue1.png,Easy,Left,Hard,Mid,0.0153000000864267,,,,,,,,,,,,,47,26,Female,0.9090909090909092,0.9090909090909092,0.3665957499906653,,,,,,,,,,,,,1.4285714285714286,1.0,0.6,0.5,2.5,2.625,2.6666666666666665,2.5555555555555554,2.25,3.111111111111111,2.0,1.75,1.75,0.25,,,0.0001619231584473269,1.779380336532012,,,,,,,,
7,240718_101132,FalseCHOICE,9.0,8,2.0,500.0,,,,,,,,,,,8.0,8.0,,,A,,,,,,False,cue1.png,Easy,cue2.png,Hard,Left,Easy,Mid,0.0151480000931769,,,,,,,,,,,,,47,26,Female,,,,,,,,,,,,,,,,1.4285714285714286,1.0,0.6,0.5,2.5,2.625,2.6666666666666665,2.5555555555555554,2.25,3.111111111111111,2.0,1.75,1.75,0.25,,,-1.5258213161029391e-05,-0.30715476713955814,,,,,,,,
8,240718_101155,FalseCHOICE,9.0,9,2.0,500.0,,,,,,,,,,,9.0,9.0,,,A,,,,,,False,cue1.png,Easy,cue2.png,Hard,Right,Hard,Mid,0.0163278999971225,,,,,,,,,,,,,47,26,Female,0.7818181818181817,0.8181818181818181,0.3525724499850184,,,,,,,,,,,,,1.4285714285714286,1.0,0.6,0.5,2.5,2.625,2.6666666666666665,2.5555555555555554,2.25,3.111111111111111,2.0,1.75,1.75,0.25,-0.00010802325096927407,-0.952849716821887,,,2.84,2.384664892857071,,,,,,
9,240718_101218,FalseCHOICE,9.0,10,2.0,500.0,,,,,,,,,,,10.0,10.0,,,A,,,,,,False,cue2.png,Hard,cue1.png,Easy,Right,Easy,Mid,0.0168907999759539,,,,,,,,,,,,,47,26,Female,,,,,,,,,,,,,,,,1.4285714285714286,1.0,0.6,0.5,2.5,2.625,2.6666666666666665,2.5555555555555554,2.25,3.111111111111111,2.0,1.75,1.75,0.25,,,4.704038761196676e-05,0.42649017669688943,1.3990000000000002,-0.41200000357930494,,,,,,
0,240718_094019,OFFLINERATING,9.0,1,1.0,,,,,,,,,,,,,,,,,T0,cue1.png,Easy,61.0,2.1435427999822423,,,,,,,,,,,,,,,,,,,,,,47,26,Female,,,,,,,,,,,,,,,,1.4285714285714286,1.0,0.6,0.5,2.5,2.625,2.6666666666666665,2.5555555555555554,2.25,3.111111111111111,2.0,1.75,1.75,0.25,,,,,,,,,-0.000522684714623964,-1.4134536154838113,1.5890000000000002,1.029425038443893
1,240718_094027,OFFLINERATING,9.0,2,3.0,,,,,,,,,,,,,,,,,T0,cue2.png,Hard,31.0,1.8189386999001729,,,,,,,,,,,,,,,,,,,,,,47,26,Female,,,,,,,,,,,,,,,,1.4285714285714286,1.0,0.6,0.5,2.5,2.625,2.6666666666666665,2.5555555555555554,2.25,3.111111111111111,2.0,1.75,1.75,0.25,,,,,,,-0.00029478359365701185,-1.0899810892024182,,,,
2,240718_100242,OFFLINERATING,9.0,3,1.0,,,,,,,,,,,,,,,,,T1,cue1.png,Easy,70.0,1.9224166000494731,,,,,,,,,,,,,,,,,,,,,,47,26,Female,,,,,,,,,,,,,,,,1.4285714285714286,1.0,0.6,0.5,2.5,2.625,2.6666666666666665,2.5555555555555554,2.25,3.111111111111111,2.0,1.75,1.75,0.25,,,,,,,-2.058467861931106e-05,1.3253468214939068,0.000590013697855463,0.6665813515008056,,
3,240718_100250,OFFLINERATING,9.0,4,3.0,,,,,,,,,,,,,,,,,T1,cue2.png,Hard,41.0,1.5186787999700757,,,,,,,,,,,,,,,,,,,,,,47,26,Female,,,,,,,,,,,,,,,,1.4285714285714286,1.0,0.6,0.5,2.5,2.625,2.6666666666666665,2.5555555555555554,2.25,3.111111111111111,2.0,1.75,1.75,0.25,,,,,,,,,0.0006329646925615677,0.746872263983006,1.455,0.9085284958045574
4,240718_100734,OFFLINERATING,9.0,5,1.0,,,,,,,,,,,,,,,,,T2,cue1.png,Easy,66.0,1.3519928000168877,,,,,,,,,,,,,,,,,,,,,,47,26,Female,,,,,,,,,,,,,,,,1.4285714285714286,1.0,0.6,0.5,2.5,2.625,2.6666666666666665,2.5555555555555554,2.25,3.111111111111111,2.0,1.75,1.75,0.25,,,,,,,,,,,-1.0075714285714286,-1.3132354722304778
5,240718_100741,OFFLINERATING,9.0,6,3.0,,,,,,,,,,,,,,,,,T2,cue2.png,Hard,40.0,1.1016154999379069,,,,,,,,,,,,,,,,,,,,,,47,26,Female,,,,,,,,,,,,,,,,1.4285714285714286,1.0,0.6,0.5,2.5,2.625,2.6666666666666665,2.5555555555555554,2.25,3.111111111111111,2.0,1.75,1.75,0.25,,,,,,,-0.00019776380491454788,-0.23536573229148855,,,,
6,240718_102800,OFFLINERATING,9.0,7,1.0,,,,,,,,,,,,,,,,,T3,cue1.png,Easy,52.0,0.7719256998971105,,,,,,,,,,,,,,,,,,,,,,47,26,Female,,,,,,,,,,,,,,,,1.4285714285714286,1.0,0.6,0.5,2.5,2.625,2.6666666666666665,2.5555555555555554,2.25,3.111111111111111,2.0,1.75,1.75,0.25,,,,,,,,,,,,
7,240718_102807,OFFLINERATING,9.0,8,3.0,,,,,,,,,,,,,,,,,T3,cue2.png,Hard,42.0,0.8014159000013024,,,,,,,,,,,,,,,,,,,,,,47,26,Female,,,,,,,,,,,,,,,,1.4285714285714286,1.0,0.6,0.5,2.5,2.625,2.6666666666666665,2.5555555555555554,2.25,3.111111111111111,2.0,1.75,1.75,0.25,,,,,,,,,,,-0.24442857142857147,-0.624718062017973
