,END,Phase,Block,TrialN,NbackLevel,ISI,Letter_Resp,Letter_RT,Letter_Accuracy,Trial_A_measure,Trial_ACC,Trial_RT,TrialCountCali,CaliEnd_A_measure,ISI_calibrated,TrialIndex,TrialNumber_total,TrialNumber_valid,CueLearning,TrialDemandLearning,CueMapping,OfflineRatingTimePoint,CueFigure,TrialDemand,OfflineRating,OfflineRatingRT,PhaseType,CueLeft,CueDemandLeft,CueRight,CueDemandRight,Choice,ChoiceDemand,TaskDemand,ChoiceRT,CueCheck,CueDemandCheck,CorrectAnswer,Answer,AnswerDemand,AnswerRT,AnswerACC,DemandRatingQuesIndex,QuesTLX,DemandLevel,DemandRating,DemandRatingRT,PID,Age,Gender,BAI_bis,BAI_bas_d,BAI_bas_rr,BAI_bas_fs,NFC,BFI_ext,BFI_agr,BFI_con,BFI_neu,BFI_open,UPPS_lps,UPPS_lpm,UPPS_pu,UPPS_ss,Task_A_measure,Task_ACC,Task_RT,Task_RT_z,cue_i_on_zyg_values,cue_i_on_zyg_zvalues,cue_e_on_zyg_values,cue_e_on_zyg_zvalues,cue_i_on_cor_values,cue_i_on_cor_zvalues,cue_e_on_cor_values,cue_e_on_cor_zvalues,cue_i_on_scr_values,cue_i_on_scr_zvalues,cue_e_on_scr_values,cue_e_on_scr_zvalues,cue_e_true_zyg_values,cue_e_true_zyg_zvalues,cue_e_true_cor_values,cue_e_true_cor_zvalues,cue_e_true_scr_values,cue_e_true_scr_zvalues,cue_e_false_zyg_values,cue_e_false_zyg_zvalues,cue_e_false_cor_values,cue_e_false_cor_zvalues,cue_e_false_scr_values,cue_e_false_scr_zvalues,OfflineRating_z,cue_i_off_zyg_values,cue_i_off_zyg_zvalues,cue_i_off_cor_values,cue_i_off_cor_zvalues,cue_i_off_scr_values,cue_i_off_scr_zvalues,DemandRating_z
0,240718_093800,PRACTICE,0.0,1,1.0,500.0,,,,,,,,,,16.0,1.0,1.0,cue1.png,Easy,A,,,,,,,,,,,,,,,,,,,,,,,,,,,47,26,Female,1.4285714285714286,1.0,0.6,0.5,2.5,2.625,2.6666666666666665,2.5555555555555554,2.25,3.111111111111111,2.0,1.75,1.75,0.25,,,,,,,,,,,,,,,,,,,,,,,,,,,,,,,,,,,,
0,240718_094111,LEARNING,1.0,1,1.0,500.0,,,,,,,,,,1.0,1.0,1.0,cue1.png,Easy,A,,,,,,,,,,,,,,,,,,,,,,,,,,,47,26,Female,1.4285714285714286,1.0,0.6,0.5,2.5,2.625,2.6666666666666665,2.5555555555555554,2.25,3.111111111111111,2.0,1.75,1.75,0.25,1.0,1.0,0.4410046999983024,0.29342877242480225,-0.0005856113782270458,-1.052382009783087,0.0007912430010787331,0.766233991561591,,,,,,,1.2939999999999998,-0.21921208374402928,,,,,,,,,,,,,,,,,,,,
1,240718_094137,LEARNING,1.0,2,3.0,500.0,,,,,,,,,,2.0,2.0,2.0,cue2.png,Hard,A,,,,,,,,,,,,,,,,,,,,,,,,,,,47,26,Female,1.4285714285714286,1.0,0.6,0.5,2.5,2.625,2.6666666666666665,2.5555555555555554,2.25,3.111111111111111,2.0,1.75,1.75,0.25,0.7818181818181817,0.8181818181818181,0.4060731062418199,-0.4424191280222991,,,0.0001769097672280227,-0.00045018021253781347,,,,,1.4499999999999997,-0.29356750268817783,1.1139999999999999,-0.5379684552102548,,,,,,,,,,,,,,,,,,,,
2,240718_094202,LEARNING,1.0,3,1.0,500.0,,,,,,,,,,3.0,3.0,3.0,cue1.png,Easy,A,,,,,,,,,,,,,,,,,,,,,,,,,,,47,26,Female,1.4285714285714286,1.0,0.6,0.5,2.5,2.625,2.6666666666666665,2.5555555555555554,2.25,3.111111111111111,2.0,1.75,1.75,0.25,1.0,1.0,0.3972146562518901,-0.6290258964322235,-2.55973674959456e-05,-0.13102180069780095,0.0016020327022189611,1.778094649994974,,,0.0012279663737807095,1.6516881062183073,1.1429999999999998,-0.8395971290277492,1.6,0.3226737477485548,,,,,,,,,,,,,,,,,,,,
3,240718_094228,LEARNING,1.0,4,3.0,500.0,,,,,,,,,,4.0,4.0,4.0,cue2.png,Hard,A,,,,,,,,,,,,,,,,,,,,,,,,,,,47,26,Female,1.4285714285714286,1.0,0.6,0.5,2.5,2.625,2.6666666666666665,2.5555555555555554,2.25,3.111111111111111,2.0,1.75,1.75,0.25,0.0715909090909091,0.6363636363636364,0.4669600374836591,0.8401882683453495,,,0.00043400216037436934,0.3203995763167256,,,0.0004913674249570729,0.30869945592991455,1.5890000000000002,-0.0463423624236805,1.5959999999999999,0.3155902728270827,,,,,,,,,,,,,,,,,,,,
4,240718_094253,LEARNING,1.0,5,3.0,500.0,,,,,,,,,,5.0,5.0,5.0,cue2.png,Hard,A,,,,,,,,,,,,,,,,,,,,,,,,,,,47,26,Female,1.4285714285714286,1.0,0.6,0.5,2.5,2.625,2.6666666666666665,2.5555555555555554,2.25,3.111111111111111,2.0,1.75,1.75,0.25,0.8958333333333333,0.9166666666666666,0.3675192562659504,-1.2545712948163312,-3.179329193192049e-05,-0.1412156139317837,0.0006295734153005171,0.5644713232838089,,,0.0007876905248415701,0.8489643593739139,1.5539999999999998,-0.10859329702265509,,,,,,,,,,,,,,,,,,,,,,
5,240718_094318,LEARNING,1.0,6,1.0,500.0,,,,,,,,,,6.0,6.0,6.0,cue1.png,Easy,A,,,,,,,,,,,,,,,,,,,,,,,,,,,47,26,Female,1.4285714285714286,1.0,0.6,0.5,2.5,2.625,2.6666666666666665,2.5555555555555554,2.25,3.111111111111111,2.0,1.75,1.75,0.25,1.0,1.0,0.3834859312628396,-0.9182269426093322,-0.00018378790983359468,-0.3912839876621117,0.00030855866316833666,0.16384684815481554,-0.00031145056990405104,-0.4562301267294174,7.328945436214278e-05,-0.45355247280454924,,,0.07099999999999995,-2.384984540983995,,,,,,,,,,,,,,,,,,,,
6,240718_094344,LEARNING,1.0,7,3.0,500.0,,,,,,,,,,7.0,7.0,7.0,cue2.png,Hard,A,,,,,,,,,,,,,,,,,,,,,,,,,,,47,26,Female,1.4285714285714286,1.0,0.6,0.5,2.5,2.625,2.6666666666666665,2.5555555555555554,2.25,3.111111111111111,2.0,1.75,1.75,0.25,0.7818181818181817,0.8181818181818181,0.4135961437423248,-0.283943354247906,-0.0001606812012263717,-0.353267792592581,0.0025143996501715434,2.9167230999985443,-0.00017614410250841976,-0.1492871952810195,,,,,,,,,,,,,,,,,,,,,,,,,,
7,240718_094409,LEARNING,1.0,8,3.0,500.0,,,,,,,,,,8.0,8.0,8.0,cue2.png,Hard,A,,,,,,,,,,,,,,,,,,,,,,,,,,,47,26,Female,1.4285714285714286,1.0,0.6,0.5,2.5,2.625,2.6666666666666665,2.5555555555555554,2.25,3.111111111111111,2.0,1.75,1.75,0.25,0.75,0.8333333333333334,0.387551243758935,-0.8325895197717886,-0.00019830817144189834,-0.4151733743828728,,,-7.1402137129077115e-06,0.23409838895269033,0.00043357122025683035,0.20332373272785106,2.002,0.6882186658442113,,,,,,,,,,,,,,,,,,,,,,
8,240718_094436,LEARNING,1.0,9,1.0,500.0,,,,,,,,,,9.0,9.0,9.0,cue1.png,Easy,A,,,,,,,,,,,,,,,,,,,,,,,,,,,47,26,Female,1.4285714285714286,1.0,0.6,0.5,2.5,2.625,2.6666666666666665,2.5555555555555554,2.25,3.111111111111111,2.0,1.75,1.75,0.25,0.8125,0.8541666666666666,0.4720888666653385,0.9482290926890781,-0.00017774354876885692,-0.381339533295473,-0.00016410606710903514,-0.42603588533834297,0.00012315342897135668,0.529669719757307,0.0002568391485195808,-0.11889932618925929,,,,,,,,,,,,,,,,,,,,,,,,
9,240718_094501,LEARNING,1.0,10,1.0,500.0,,,,,,,,,,10.0,10.0,10.0,cue1.png,Easy,A,,,,,,,,,,,,,,,,,,,,,,,,,,,47,26,Female,1.4285714285714286,1.0,0.6,0.5,2.5,2.625,2.6666666666666665,2.5555555555555554,2.25,3.111111111111111,2.0,1.75,1.75,0.25,0.7818181818181817,0.8181818181818181,0.4162974125065375,-0.22704005454316817,0.0005056315426331046,0.7429798677062939,-0.0023503998170719643,-3.1545173032142584,-0.0007019850182460362,-1.3421581293811384,-0.00023126492104204744,-1.0088248774376267,1.5980000000000003,-0.03033497924108699,0.9079999999999997,-0.9027674136660466,,,,,,,,,,,,,,,,,,,,
10,240718_094529,LEARNING,1.0,11,3.0,500.0,,,,,,,,,,11.0,11.0,11.0,cue2.png,Hard,A,,,,,,,,,,,,,,,,,,,,,,,,,,,47,26,Female,1.4285714285714286,1.0,0.6,0.5,2.5,2.625,2.6666666666666665,2.5555555555555554,2.25,3.111111111111111,2.0,1.75,1.75,0.25,0.6113636363636364,0.7272727272727273,0.5204626375052612,1.96724179383904,0.00033846647897258723,0.46795239508121306,-0.0001634606952720173,-0.42523046517696095,,,-0.00010352166912992993,-0.7759196611827217,0.9850000000000001,-1.1206156337888311,,,,,,,,,,,,,,,,,,,,,,
11,240718_094554,LEARNING,1.0,12,1.0,500.0,,,,,,,,,,12.0,12.0,12.0,cue1.png,Easy,A,,,,,,,,,,,,,,,,,,,,,,,,,,,47,26,Female,1.4285714285714286,1.0,0.6,0.5,2.5,2.625,2.6666666666666665,2.5555555555555554,2.25,3.111111111111111,2.0,1.75,1.75,0.25,0.8958333333333333,0.9166666666666666,0.4006821687362389,-0.5559813683419854,0.0004265972780249051,0.6129491449583987,-0.0004907251885774649,-0.8336545796078929,0.00035145523317659487,1.0475727172009943,-0.00055533465848612,-1.5996782583505198,2.635,1.8140712830199401,1.569,0.267776817107149,,,,,,,,,,,,,,,,,,,,
12,240718_094620,LEARNING,1.0,13,1.0,500.0,,,,,,,,,,13.0,13.0,13.0,cue1.png,Easy,A,,,,,,,,,,,,,,,,,,,,,,,,,,,47,26,Female,1.4285714285714286,1.0,0.6,0.5,2.5,2.625,2.6666666666666665,2.5555555555555554,2.25,3.111111111111111,2.0,1.75,1.75,0.25,0.8958333333333333,0.9166666666666666,0.4548256937487167,0.5845734967174787,,,,,-0.00012652232062774962,-0.0367201060109196,-9.156104785674113e-05,-0.7541127082323498,,,0.6149999999999999,-1.421631951663847,,,,,,,,,,,,,,,,,,,,
13,240718_094645,LEARNING,1.0,14,1.0,500.0,,,,,,,,,,14.0,14.0,14.0,cue1.png,Easy,A,,,,,,,,,,,,,,,,,,,,,,,,,,,47,26,Female,1.4285714285714286,1.0,0.6,0.5,2.5,2.625,2.6666666666666665,2.5555555555555554,2.25,3.111111111111111,2.0,1.75,1.75,0.25,0.9090909090909092,0.9090909090909092,0.3659930375069962,-1.2867216993248862,,,0.00014041045805433892,-0.04600109799172131,,,,,,,,,,,,,,,,,,,,,,,,,,,,
14,240718_094711,LEARNING,1.0,15,3.0,500.0,,,,,,,,,,15.0,15.0,15.0,cue2.png,Hard,A,,,,,,,,,,,,,,,,,,,,,,,,,,,47,26,Female,1.4285714285714286,1.0,0.6,0.5,2.5,2.625,2.6666666666666665,2.5555555555555554,2.25,3.111111111111111,2.0,1.75,1.75,0.25,0.5,0.75,0.428335456228524,0.026546119052769983,-0.0002679528620756662,-0.5297559482014047,0.0003370371067217418,0.19938777400103888,-0.00033493512622966405,-0.5095048792308741,0.0004252740802393549,0.18819614546870722,,,,,,,,,,,,,,,,,,,,,,,,
15,240718_094737,LEARNING,1.0,16,1.0,500.0,,,,,,,,,,16.0,16.0,16.0,cue1.png,Easy,A,,,,,,,,,,,,,,,,,,,,,,,,,,,47,26,Female,1.4285714285714286,1.0,0.6,0.5,2.5,2.625,2.6666666666666665,2.5555555555555554,2.25,3.111111111111111,2.0,1.75,1.75,0.25,1.0,1.0,0.4603086312490632,0.7000737534775622,-0.0002611495703068942,-0.5185628669455256,,,-0.0006917713002863139,-1.3189882943253048,0.0005156083022621518,0.35289612922919866,,,,,,,,,,,,,,,,,,,,,,,,
16,240718_094802,LEARNING,1.0,17,1.0,500.0,,,,,,,,,,17.0,17.0,17.0,cue1.png,Easy,A,,,,,,,,,,,,,,,,,,,,,,,,,,,47,26,Female,1.4285714285714286,1.0,0.6,0.5,2.5,2.625,2.6666666666666665,2.5555555555555554,2.25,3.111111111111111,2.0,1.75,1.75,0.25,0.8958333333333333,0.9166666666666666,0.3685805375062045,-1.232214983854139,,,-0.0002729477927381793,-0.5618697026713084,-3.8014785719464594e-05,0.16405937440065427,-0.00010614599351711253,-0.780704405815184,,,,,,,,,,,,,,,,,,,,,,,,
17,240718_094828,LEARNING,1.0,18,3.0,500.0,,,,,,,,,,18.0,18.0,18.0,cue2.png,Hard,A,,,,,,,,,,,,,,,,,,,,,,,,,,,47,26,Female,1.4285714285714286,1.0,0.6,0.5,2.5,2.625,2.6666666666666665,2.5555555555555554,2.25,3.111111111111111,2.0,1.75,1.75,0.25,0.8958333333333333,0.9166666666666666,0.4711094125086674,0.9275965017516299,,,0.00019713123945895106,0.024786095207962013,0.0005998966005540552,1.6111623449821435,0.00032276833357041887,0.0013046835876244975,,,,,,,,,,,,,,,,,,,,,,,,
18,240718_094857,LEARNING,1.0,19,3.0,500.0,,,,,,,,,,19.0,19.0,19.0,cue2.png,Hard,A,,,,,,,,,,,,,,,,,,,,,,,,,,,47,26,Female,1.4285714285714286,1.0,0.6,0.5,2.5,2.625,2.6666666666666665,2.5555555555555554,2.25,3.111111111111111,2.0,1.75,1.75,0.25,0.8958333333333333,0.9166666666666666,0.5633896749932319,2.8715168929983874,-0.0005730361637806733,-1.0316927020343825,-0.0001467589383710435,-0.4043867732664112,-0.0001225195622788361,-0.027639842479224328,0.0005450890852841256,0.40664635119646503,,,,,,,,,,,,,,,,,,,,,,,,
19,240718_094923,LEARNING,1.0,20,3.0,500.0,,,,,,,,,,20.0,20.0,20.0,cue2.png,Hard,A,,,,,,,,,,,,,,,,,,,,,,,,,,,47,26,Female,1.4285714285714286,1.0,0.6,0.5,2.5,2.625,2.6666666666666665,2.5555555555555554,2.25,3.111111111111111,2.0,1.75,1.75,0.25,0.75,0.8333333333333334,0.4802656374886282,1.120476018629532,0.001980146850520848,3.1689186948461754,-0.00024127833350639496,-0.5223464084984336,0.00090034175134394,2.292722636207962,-0.0005434130507826797,-1.5779424360764314,2.381,1.3623073576445293,0.7609999999999999,-1.1630851170301306,,,,,,,,,,,,,,,,,,,,
20,240718_094950,LEARNING,1.0,21,1.0,500.0,,,,,,,,,,21.0,21.0,21.0,cue1.png,Easy,A,,,,,,,,,,,,,,,,,,,,,,,,,,,47,26,Female,1.4285714285714286,1.0,0.6,0.5,2.5,2.625,2.6666666666666665,2.5555555555555554,2.25,3.111111111111111,2.0,1.75,1.75,0.25,0.75,0.7708333333333334,0.4489793999974305,0.4614189961736088,-2.737320683546783e-05,-0.13394349135876857,5.6026019139998866e-05,-0.15131236896780406,-3.354224263621246e-05,0.17420534533187815,0.0004605958220644099,0.25259577359093444,1.428,-0.3326966615789611,1.3170000000000002,-0.1784821029455665,,,,,,,,,,,,,,,,,,,,
21,240718_095016,LEARNING,1.0,22,3.0,500.0,,,,,,,,,,22.0,22.0,22.0,cue2.png,Hard,A,,,,,,,,,,,,,,,,,,,,,,,,,,,47,26,Female,1.4285714285714286,1.0,0.6,0.5,2.5,2.625,2.6666666666666665,2.5555555555555554,2.25,3.111111111111111,2.0,1.75,1.75,0.25,0.5,0.75,0.4284167062360211,0.0282576827404987,,,,,-9.130224103489704e-05,0.043176699250179924,-5.917051833206465e-05,-0.695057351721263,1.6400000000000001,0.04436614227768142,1.536,0.20933814900500777,,,,,,,,,,,,,,,,,,,,
22,240718_095041,LEARNING,1.0,23,3.0,500.0,,,,,,,,,,23.0,23.0,23.0,cue2.png,Hard,A,,,,,,,,,,,,,,,,,,,,,,,,,,,47,26,Female,1.4285714285714286,1.0,0.6,0.5,2.5,2.625,2.6666666666666665,2.5555555555555554,2.25,3.111111111111111,2.0,1.75,1.75,0.25,0.75,0.8333333333333334,0.4083829937517294,-0.39376042993124993,0.0011422535009722934,1.790378913808597,0.00027804260985951146,0.12576299761942786,8.463423446588778e-06,0.2694952640849698,0.0005370478290569734,0.3919852987141434,,,2.346,1.6437418206030232,,,,,,,,,,,,,,,,,,,,
23,240718_095107,LEARNING,1.0,24,3.0,500.0,,,,,,,,,,24.0,24.0,24.0,cue2.png,Hard,A,,,,,,,,,,,,,,,,,,,,,,,,,,,47,26,Female,1.4285714285714286,1.0,0.6,0.5,2.5,2.625,2.6666666666666665,2.5555555555555554,2.25,3.111111111111111,2.0,1.75,1.75,0.25,0.0715909090909091,0.6363636363636364,0.4588773249924998,0.6699227185396408,-4.523038208308549e-05,-0.16332291830978055,0.0016021477006831564,1.778238167384916,-0.00021221064839669398,-0.23110421064803577,0.0004938598372637611,0.3132436946164711,0.5510000000000002,-1.8925272228161079,1.3810000000000002,-0.0651465042020195,,,,,,,,,,,,,,,,,,,,
24,240718_095134,LEARNING,1.0,25,1.0,500.0,,,,,,,,,,25.0,25.0,25.0,cue1.png,Easy,A,,,,,,,,,,,,,,,,,,,,,,,,,,,47,26,Female,1.4285714285714286,1.0,0.6,0.5,2.5,2.625,2.6666666666666665,2.5555555555555554,2.25,3.111111111111111,2.0,1.75,1.75,0.25,0.8958333333333333,0.9166666666666666,0.4815488312669913,1.1475070053705823,-0.0001397100886766098,-0.31876517609844224,0.00035804792657728735,0.2256091504977546,-0.000198938752254579,-0.20099689363540504,0.0009560999487304312,1.1560133244118744,1.9220000000000002,0.5459308153322715,1.292,-0.22275382120476472,,,,,,,,,,,,,,,,,,,,
25,240718_095159,LEARNING,1.0,26,1.0,500.0,,,,,,,,,,26.0,26.0,26.0,cue1.png,Easy,A,,,,,,,,,,,,,,,,,,,,,,,,,,,47,26,Female,1.4285714285714286,1.0,0.6,0.5,2.5,2.625,2.6666666666666665,2.5555555555555554,2.25,3.111111111111111,2.0,1.75,1.75,0.25,0.75,0.8333333333333334,0.3951986687679891,-0.6714934737119149,-0.0001825175398194748,-0.38919391784350643,,,,,0.0004990892908050245,0.32277818657351665,1.249,-0.6510657270994276,1.3459999999999999,-0.12712690976489735,,,,,,,,,,,,,,,,,,,,
26,240718_095226,LEARNING,1.0,27,3.0,500.0,,,,,,,,,,27.0,27.0,27.0,cue2.png,Hard,A,,,,,,,,,,,,,,,,,,,,,,,,,,,47,26,Female,1.4285714285714286,1.0,0.6,0.5,2.5,2.625,2.6666666666666665,2.5555555555555554,2.25,3.111111111111111,2.0,1.75,1.75,0.25,0.75,0.8333333333333334,0.4606765562566579,0.7078242399354066,-8.449250912881444e-05,-0.2279187335765448,0.0002379848073846176,0.07577110165597603,-0.0007739458007907391,-1.5054012763550944,0.000985527416270665,1.2096663400405006,2.094,0.851849693932943,1.679,0.46257237744762036,,,,,,,,,,,,,,,,,,,,
27,240718_095251,LEARNING,1.0,28,1.0,500.0,,,,,,,,,,28.0,28.0,28.0,cue1.png,Easy,A,,,,,,,,,,,,,,,,,,,,,,,,,,,47,26,Female,1.4285714285714286,1.0,0.6,0.5,2.5,2.625,2.6666666666666665,2.5555555555555554,2.25,3.111111111111111,2.0,1.75,1.75,0.25,0.8958333333333333,0.9166666666666666,0.4068114437250187,-0.4268657556047465,0.00027346492094602664,0.3610089116207996,-0.0019861645810432225,-2.699953924776699,0.00025085161497890793,0.8193532530594713,-7.31936685751406e-05,-0.7206247675420655,1.366,-0.4429697457257146,1.3969999999999998,-0.036812604516133544,,,,,,,,,,,,,,,,,,,,
28,240718_095317,LEARNING,1.0,29,1.0,500.0,,,,,,,,,,29.0,29.0,29.0,cue1.png,Easy,A,,,,,,,,,,,,,,,,,,,,,,,,,,,47,26,Female,1.4285714285714286,1.0,0.6,0.5,2.5,2.625,2.6666666666666665,2.5555555555555554,2.25,3.111111111111111,2.0,1.75,1.75,0.25,0.8958333333333333,0.9166666666666666,0.4583870874921558,0.6595956708285234,,,,,,,-8.415884613803982e-05,-0.740616798536528,0.607,-1.7929257274577497,0.8099999999999999,-1.0763125492421024,,,,,,,,,,,,,,,,,,,,
29,240718_095343,LEARNING,1.0,30,3.0,500.0,,,,,,,,,,30.0,30.0,30.0,cue2.png,Hard,A,,,,,,,,,,,,,,,,,,,,,,,,,,,47,26,Female,1.4285714285714286,1.0,0.6,0.5,2.5,2.625,2.6666666666666665,2.5555555555555554,2.25,3.111111111111111,2.0,1.75,1.75,0.25,0.6113636363636364,0.7272727272727273,0.4250200687529286,-0.04329383529035972,0.0007184755520478537,1.0931603940129604,,,0.0003025496792157427,0.9366303920794647,,,2.403,1.4014365165353133,1.153,-0.46890457472590563,,,,,,,,,,,,,,,,,,,,
30,240718_095409,LEARNING,1.0,31,3.0,500.0,,,,,,,,,,31.0,31.0,31.0,cue2.png,Hard,A,,,,,,,,,,,,,,,,,,,,,,,,,,,47,26,Female,1.4285714285714286,1.0,0.6,0.5,2.5,2.625,2.6666666666666665,2.5555555555555554,2.25,3.111111111111111,2.0,1.75,1.75,0.25,0.75,0.8333333333333334,0.4434218499955022,0.344346997424918,-0.000896014918774478,-1.5630718595713624,,,,,0.00027092804331420826,-0.09321204298785163,1.9300000000000002,0.5601596003834656,,,,,,,,,,,,,,,,,,,,,,
31,240718_095434,LEARNING,1.0,32,1.0,500.0,,,,,,,,,,32.0,32.0,32.0,cue1.png,Easy,A,,,,,,,,,,,,,,,,,,,,,,,,,,,47,26,Female,1.4285714285714286,1.0,0.6,0.5,2.5,2.625,2.6666666666666665,2.5555555555555554,2.25,3.111111111111111,2.0,1.75,1.75,0.25,0.9090909090909092,0.9090909090909092,0.3905046437430428,-0.7703749757507935,,,0.00018099193381906128,0.004644339079991604,0.00037489444105733016,1.1007445966848095,-0.00029654396996376536,-1.1278435400945543,1.365,-0.4447483438571141,1.2910000000000001,-0.22452468993513244,,,,,,,,,,,,,,,,,,,,
32,240718_095500,LEARNING,1.0,33,1.0,500.0,,,,,,,,,,33.0,33.0,33.0,cue1.png,Easy,A,,,,,,,,,,,,,,,,,,,,,,,,,,,47,26,Female,1.4285714285714286,1.0,0.6,0.5,2.5,2.625,2.6666666666666665,2.5555555555555554,2.25,3.111111111111111,2.0,1.75,1.75,0.25,0.8958333333333333,0.9166666666666666,0.4271321375126717,0.0011977322370588137,-0.00015642151672561446,-0.34625956828560106,5.820193158901938e-05,-0.14859684335091108,-0.0008029030649244623,-1.5710908750195962,-8.405366973645006e-05,-0.7404250378588365,1.891,0.49079427325889435,1.9589999999999999,0.9584156219506377,,,,,,,,,,,,,,,,,,,,
33,240718_095525,LEARNING,1.0,34,1.0,500.0,,,,,,,,,,34.0,34.0,34.0,cue1.png,Easy,A,,,,,,,,,,,,,,,,,,,,,,,,,,,47,26,Female,1.4285714285714286,1.0,0.6,0.5,2.5,2.625,2.6666666666666665,2.5555555555555554,2.25,3.111111111111111,2.0,1.75,1.75,0.25,0.9090909090909092,0.9090909090909092,0.3992727937657037,-0.5856704120266465,6.19746364865616e-05,0.013055594426662674,0.0002293182110806374,0.06495524172313624,0.0003508109871442752,1.0461112440760179,0.0009304084087852823,1.1091717607497642,2.325,1.2627058622861715,1.936,0.9176856411521757,,,,,,,,,,,,,,,,,,,,
34,240718_095551,LEARNING,1.0,35,3.0,500.0,,,,,,,,,,35.0,35.0,35.0,cue2.png,Hard,A,,,,,,,,,,,,,,,,,,,,,,,,,,,47,26,Female,1.4285714285714286,1.0,0.6,0.5,2.5,2.625,2.6666666666666665,2.5555555555555554,2.25,3.111111111111111,2.0,1.75,1.75,0.25,0.75,0.8333333333333334,0.4163140437594848,-0.22668971059240647,,,,,-0.0007111763984701154,-1.363008789695745,-0.0012607434601535211,-2.885800124212265,2.223,1.081288852883447,1.304,-0.20150339644034967,,,,,,,,,,,,,,,,,,,,
35,240718_095618,LEARNING,1.0,36,3.0,500.0,,,,,,,,,,36.0,36.0,36.0,cue2.png,Hard,A,,,,,,,,,,,,,,,,,,,,,,,,,,,47,26,Female,1.4285714285714286,1.0,0.6,0.5,2.5,2.625,2.6666666666666665,2.5555555555555554,2.25,3.111111111111111,2.0,1.75,1.75,0.25,0.75,0.8333333333333334,0.5121140812407248,1.7913761393301157,,,0.0008703104416541963,0.8649096806691583,-0.0002820703838520861,-0.389581129036491,0.00039941949171952255,0.1410573068979167,1.257,-0.6368369420482338,0.8339999999999999,-1.0338116997132725,,,,,,,,,,,,,,,,,,,,
36,240718_095643,LEARNING,1.0,37,1.0,500.0,,,,,,,,,,37.0,37.0,37.0,cue1.png,Easy,A,,,,,,,,,,,,,,,,,,,,,,,,,,,47,26,Female,1.4285714285714286,1.0,0.6,0.5,2.5,2.625,2.6666666666666665,2.5555555555555554,2.25,3.111111111111111,2.0,1.75,1.75,0.25,1.0,1.0,0.3741106250090524,-1.1157214935591475,0.0003333388185175145,0.45951613774037187,,,-0.001039028131108958,-2.106740954414516,,,1.08,-0.9516488113059017,2.764,2.3839649498968134,,,,,,,,,,,,,,,,,,,,
37,240718_095708,LEARNING,1.0,38,3.0,500.0,,,,,,,,,,38.0,38.0,38.0,cue2.png,Hard,A,,,,,,,,,,,,,,,,,,,,,,,,,,,47,26,Female,1.4285714285714286,1.0,0.6,0.5,2.5,2.625,2.6666666666666665,2.5555555555555554,2.25,3.111111111111111,2.0,1.75,1.75,0.25,0.5,0.75,0.4146479187402292,-0.2617872960575435,4.707317360181816e-05,-0.011460961759565222,8.260292436521694e-05,-0.11814455148998965,5.3280591857767824e-05,0.37116308023688266,0.000914115921249019,1.0794668231020652,0.5399999999999998,-1.9120918022615003,1.442,0.04287648835042313,,,,,,,,,,,,,,,,,,,,
38,240718_095735,LEARNING,1.0,39,3.0,500.0,,,,,,,,,,39.0,39.0,39.0,cue2.png,Hard,A,,,,,,,,,,,,,,,,,,,,,,,,,,,47,26,Female,1.4285714285714286,1.0,0.6,0.5,2.5,2.625,2.6666666666666665,2.5555555555555554,2.25,3.111111111111111,2.0,1.75,1.75,0.25,0.8958333333333333,0.9166666666666666,0.4534266000191564,0.5551010314585876,,,0.000669407240538546,0.6141836970061055,,,,,1.6019999999999999,-0.02322058671549075,1.3719999999999999,-0.08108432277533138,,,,,,,,,,,,,,,,,,,,
39,240718_095800,LEARNING,1.0,40,3.0,500.0,,,,,,,,,,40.0,40.0,40.0,cue2.png,Hard,A,,,,,,,,,,,,,,,,,,,,,,,,,,,47,26,Female,1.4285714285714286,1.0,0.6,0.5,2.5,2.625,2.6666666666666665,2.5555555555555554,2.25,3.111111111111111,2.0,1.75,1.75,0.25,0.8958333333333333,0.9166666666666666,0.4145789750109543,-0.2632396231053616,-0.0001610171463940148,-0.35382050467472476,7.289428843048479e-06,-0.21213533980514718,-0.0003084795490558368,-0.449490361320579,-0.0002046305086567438,-0.9602642412899804,1.4010000000000002,-0.38071881112674044,2.12,1.2435254875398734,,,,,,,,,,,,,,,,,,,,
40,240718_095825,LEARNING,1.0,41,1.0,500.0,,,,,,,,,,41.0,41.0,41.0,cue1.png,Easy,A,,,,,,,,,,,,,,,,,,,,,,,,,,,47,26,Female,1.4285714285714286,1.0,0.6,0.5,2.5,2.625,2.6666666666666665,2.5555555555555554,2.25,3.111111111111111,2.0,1.75,1.75,0.25,0.75,0.8333333333333334,0.4019584124980611,-0.5290967864605396,-0.0001936459725060593,-0.40750291524433446,,,0.00020784544057825694,0.7217936796333227,0.00039169099398631,0.12696648480801292,1.4049999999999998,-0.3736044186011442,,,,,,,,,,,,,,,,,,,,,,
41,240718_095853,LEARNING,1.0,42,3.0,500.0,,,,,,,,,,42.0,42.0,42.0,cue2.png,Hard,A,,,,,,,,,,,,,,,,,,,,,,,,,,,47,26,Female,1.4285714285714286,1.0,0.6,0.5,2.5,2.625,2.6666666666666665,2.5555555555555554,2.25,3.111111111111111,2.0,1.75,1.75,0.25,0.8958333333333333,0.9166666666666666,0.5064465562390978,1.671987473520824,-0.00011604437931186972,-0.2798292878695343,0.0002451122623144436,0.08466612243399733,,,0.00045981232550647505,0.25116727985424514,,,2.614,2.1183346403416254,,,,,,,,,,,,,,,,,,,,
42,240718_095918,LEARNING,1.0,43,3.0,500.0,,,,,,,,,,43.0,43.0,43.0,cue2.png,Hard,A,,,,,,,,,,,,,,,,,,,,,,,,,,,47,26,Female,1.4285714285714286,1.0,0.6,0.5,2.5,2.625,2.6666666666666665,2.5555555555555554,2.25,3.111111111111111,2.0,1.75,1.75,0.25,0.6113636363636364,0.7272727272727273,0.4104522062625619,-0.35017164631348474,0.0011459333690134865,1.7964331980280464,,,0.0001952678584278035,0.6932614149892022,,,2.714,1.9545805354004815,,,,,,,,,,,,,,,,,,,,,,
43,240718_095943,LEARNING,1.0,44,1.0,500.0,,,,,,,,,,44.0,44.0,44.0,cue1.png,Easy,A,,,,,,,,,,,,,,,,,,,,,,,,,,,47,26,Female,1.4285714285714286,1.0,0.6,0.5,2.5,2.625,2.6666666666666665,2.5555555555555554,2.25,3.111111111111111,2.0,1.75,1.75,0.25,1.0,1.0,0.3982527749903966,-0.6071575127715723,,,-0.0003928226045726065,-0.711472745065384,-4.4696068975880014e-05,0.1489028729559387,0.0014413612486193195,2.040755855222905,1.56,-0.09792170823425915,0.571,-1.4995501758000354,,,,,,,,,,,,,,,,,,,,
44,240718_100007,LEARNING,1.0,45,1.0,500.0,,,,,,,,,,45.0,45.0,45.0,cue1.png,Easy,A,,,,,,,,,,,,,,,,,,,,,,,,,,,47,26,Female,1.4285714285714286,1.0,0.6,0.5,2.5,2.625,2.6666666666666665,2.5555555555555554,2.25,3.111111111111111,2.0,1.75,1.75,0.25,1.0,1.0,0.3233623625201289,-2.1847538046566846,0.00029260776947370205,0.39250358601103713,,,-0.00017817086620016982,-0.15388491186377484,,,1.8299999999999998,0.38229978724353947,2.0170000000000003,1.061126008311978,,,,,,,,,,,,,,,,,,,,
45,240718_100033,LEARNING,1.0,46,1.0,500.0,,,,,,,,,,46.0,46.0,46.0,cue1.png,Easy,A,,,,,,,,,,,,,,,,,,,,,,,,,,,47,26,Female,1.4285714285714286,1.0,0.6,0.5,2.5,2.625,2.6666666666666665,2.5555555555555554,2.25,3.111111111111111,2.0,1.75,1.75,0.25,1.0,1.0,0.3967080999937025,-0.6396967052605935,0.00012257569118804667,0.11275917212404175,3.330582772168803e-06,-0.21707595583206918,0.0001925343475396757,0.6870604412937265,0.00015492906101578947,-0.30470476493725557,0.813,-1.4265345123895032,,,,,,,,,,,,,,,,,,,,,,
46,240718_100058,LEARNING,1.0,47,3.0,500.0,,,,,,,,,,47.0,47.0,47.0,cue2.png,Hard,A,,,,,,,,,,,,,,,,,,,,,,,,,,,47,26,Female,1.4285714285714286,1.0,0.6,0.5,2.5,2.625,2.6666666666666665,2.5555555555555554,2.25,3.111111111111111,2.0,1.75,1.75,0.25,0.75,0.8333333333333334,0.4181390437588561,-0.18824536055171817,-0.001571376807430953,-2.6742075794231064,0.0003645685420605319,0.2337468393053306,-0.00029841122688529283,-0.42665035683832886,0.0006612326302666855,0.6184026440406779,1.715,0.1777610021326255,,,,,,,,,,,,,,,,,,,,,,
47,240718_100126,LEARNING,1.0,48,3.0,500.0,,,,,,,,,,48.0,48.0,48.0,cue2.png,Hard,A,,,,,,,,,,,,,,,,,,,,,,,,,,,47,26,Female,1.4285714285714286,1.0,0.6,0.5,2.5,2.625,2.6666666666666665,2.5555555555555554,2.25,3.111111111111111,2.0,1.75,1.75,0.25,0.5,0.6875,0.5052179999727134,1.6461074476765314,0.0010387808991788186,1.6201411408311432,5.8671373412501164e-05,-0.14801098278566654,0.0006304337850432046,1.680435995426902,0.00047857301518916713,0.2853723155194135,2.549,1.6611118437196044,1.306,-0.19796165897961382,,,,,,,,,,,,,,,,,,,,
48,240718_100151,LEARNING,1.0,49,1.0,500.0,,,,,,,,,,49.0,49.0,49.0,cue1.png,Easy,A,,,,,,,,,,,,,,,,,,,,,,,,,,,47,26,Female,1.4285714285714286,1.0,0.6,0.5,2.5,2.625,2.6666666666666665,2.5555555555555554,2.25,3.111111111111111,2.0,1.75,1.75,0.25,1.0,1.0,0.3648794749897206,-1.3101793361583547,0.00022001023951412043,0.2730628682773642,0.00034440842755997444,0.2085871379623823,-0.00020269109406564553,-0.20950908686204114,0.0016477600351470921,2.4170681323212846,,,,,,,,,,,,,,,,,,,,,,,,
49,240718_100215,LEARNING,1.0,50,1.0,500.0,,,,,,,,,,50.0,50.0,50.0,cue1.png,Easy,A,,,,,,,,,,,,,,,,,,,,,,,,,,,47,26,Female,1.4285714285714286,1.0,0.6,0.5,2.5,2.625,2.6666666666666665,2.5555555555555554,2.25,3.111111111111111,2.0,1.75,1.75,0.25,0.8958333333333333,0.9166666666666666,0.3447800625071977,-1.733581445394783,-0.0006083711908109876,-1.0898274759308109,-1.0088368255465729e-05,-0.23382272580609878,-0.0010464740537438717,-2.1236320414770127,0.00013598322272994918,-0.339247368926465,1.345,-0.4803203064850992,1.4720000000000002,0.09600255026146118,,,,,,,,,,,,,,,,,,,,
0,240718_100341,TrueCHOICE,9.0,1,1.0,500.0,,,,,,,,,,,2.0,1.0,,,A,,,,,,True,cue1.png,Easy,cue2.png,Hard,Left,Easy,Easy,0.0175005999626591,,,,,,,,,,,,,47,26,Female,1.4285714285714286,1.0,0.6,0.5,2.5,2.625,2.6666666666666665,2.5555555555555554,2.25,3.111111111111111,2.0,1.75,1.75,0.25,1.0,1.0,0.4108287187555106,1.0009918851871547,,,,,,,,,,,,,0.00015733212609240436,1.8869125396960826,,,1.4639999999999997,-0.28584926224109325,,,,,,,,,,,,,,
1,240718_100404,TrueCHOICE,9.0,2,1.0,500.0,,,,,,,,,,,3.0,2.0,,,A,,,,,,True,cue1.png,Easy,cue2.png,Hard,Left,Easy,Easy,0.016424199915491,,,,,,,,,,,,,47,26,Female,1.4285714285714286,1.0,0.6,0.5,2.5,2.625,2.6666666666666665,2.5555555555555554,2.25,3.111111111111111,2.0,1.75,1.75,0.25,1.0,1.0,0.3713560312316986,-0.09383071967687986,,,,,,,,,,,,,-5.461012590145947e-06,0.14474392050376225,-4.793515583844613e-05,-0.691967162247341,1.4489999999999998,-0.3149609717806806,,,,,,,,,,,,,,
2,240718_100433,TrueCHOICE,9.0,3,1.0,500.0,,,,,,,,,,,5.0,3.0,,,A,,,,,,True,cue2.png,Hard,cue1.png,Easy,Right,Easy,Easy,0.0166645999997854,,,,,,,,,,,,,47,26,Female,1.4285714285714286,1.0,0.6,0.5,2.5,2.625,2.6666666666666665,2.5555555555555554,2.25,3.111111111111111,2.0,1.75,1.75,0.25,0.8958333333333333,0.9166666666666666,0.4107801562640816,0.9996449459058377,,,,,,,,,,,,,2.0752832430986738e-05,0.4252774771006622,2.937014096517955e-05,0.21840063780025348,1.165,-0.8661426723968709,,,,,,,,,,,,,,
3,240718_100456,TrueCHOICE,9.0,4,1.0,500.0,,,,,,,,,,,6.0,4.0,,,A,,,,,,True,cue1.png,Easy,cue2.png,Hard,Left,Easy,Easy,0.0163550999714061,,,,,,,,,,,,,47,26,Female,1.4285714285714286,1.0,0.6,0.5,2.5,2.625,2.6666666666666665,2.5555555555555554,2.25,3.111111111111111,2.0,1.75,1.75,0.25,0.75,0.8333333333333334,0.3880897999988519,0.3703005432323236,,,,,,,,,,,,,-5.9806789293839844e-05,-0.43685004300741126,,,1.375,-0.4585787388426455,,,,,,,,,,,,,,
4,240718_100525,TrueCHOICE,9.0,5,1.0,500.0,,,,,,,,,,,8.0,5.0,,,A,,,,,,True,cue2.png,Hard,cue1.png,Easy,Right,Easy,Easy,0.0167496000649407,,,,,,,,,,,,,47,26,Female,1.4285714285714286,1.0,0.6,0.5,2.5,2.625,2.6666666666666665,2.5555555555555554,2.25,3.111111111111111,2.0,1.75,1.75,0.25,1.0,1.0,0.4401476437415113,1.814187637455674,,,,,,,,,,,,,,,-0.00011019445005958865,-1.4251492216422559,1.587,-0.047133244016474986,,,,,,,,,,,,,,
5,240718_100547,TrueCHOICE,9.0,6,1.0,500.0,,,,,,,,,,,9.0,6.0,,,A,,,,,,True,cue2.png,Hard,cue1.png,Easy,Right,Easy,Easy,0.0156511000823229,,,,,,,,,,,,,47,26,Female,1.4285714285714286,1.0,0.6,0.5,2.5,2.625,2.6666666666666665,2.5555555555555554,2.25,3.111111111111111,2.0,1.75,1.75,0.25,1.0,1.0,0.3334211999899708,-1.1459990254222578,,,,,,,,,,,,,-0.00011871165687928672,-1.0672341774712089,,,,,,,,,,,,,,,,,,
6,240718_100610,TrueCHOICE,9.0,7,1.0,500.0,,,,,,,,,,,10.0,7.0,,,A,,,,,,True,cue1.png,Easy,cue2.png,Hard,Left,Easy,Easy,0.0138373000081628,,,,,,,,,,,,,47,26,Female,1.4285714285714286,1.0,0.6,0.5,2.5,2.625,2.6666666666666665,2.5555555555555554,2.25,3.111111111111111,2.0,1.75,1.75,0.25,0.9090909090909092,0.9090909090909092,0.3665957499906653,-0.22586286228306818,,,,,,,,,,,,,,,0.0001619231584473269,1.779380336532012,,,,,,,,,,,,,,,,
7,240718_100633,TrueCHOICE,9.0,8,1.0,500.0,,,,,,,,,,,11.0,8.0,,,A,,,,,,True,cue2.png,Hard,cue1.png,Easy,Right,Easy,Easy,0.0155779999913647,,,,,,,,,,,,,47,26,Female,1.4285714285714286,1.0,0.6,0.5,2.5,2.625,2.6666666666666665,2.5555555555555554,2.25,3.111111111111111,2.0,1.75,1.75,0.25,1.0,1.0,0.3634277125020162,-0.3137322036735512,,,,,,,,,,,,,,,-1.5258213161029391e-05,-0.30715476713955814,,,,,,,,,,,,,,,,
8,240718_100654,TrueCHOICE,9.0,9,1.0,500.0,,,,,,,,,,,12.0,9.0,,,A,,,,,,True,cue1.png,Easy,cue2.png,Hard,Left,Easy,Easy,0.0155842000385746,,,,,,,,,,,,,47,26,Female,1.4285714285714286,1.0,0.6,0.5,2.5,2.625,2.6666666666666665,2.5555555555555554,2.25,3.111111111111111,2.0,1.75,1.75,0.25,0.8958333333333333,0.9166666666666666,0.3198266437611892,-1.5230604417088143,,,,,,,,,,,,,-0.00010802325096927407,-0.952849716821887,,,2.84,2.384664892857071,,,,,,,,,,,,,,
9,240718_100716,TrueCHOICE,9.0,10,1.0,500.0,,,,,,,,,,,13.0,10.0,,,A,,,,,,True,cue2.png,Hard,cue1.png,Easy,Right,Easy,Easy,0.0171791999600827,,,,,,,,,,,,,47,26,Female,1.4285714285714286,1.0,0.6,0.5,2.5,2.625,2.6666666666666665,2.5555555555555554,2.25,3.111111111111111,2.0,1.75,1.75,0.25,0.9090909090909092,0.9090909090909092,0.342916343754041,-0.8826397590164232,,,,,,,,,,,,,,,4.704038761196676e-05,0.42649017669688943,1.3990000000000002,-0.41200000357930494,,,,,,,,,,,,,,
0,240718_100850,FalseCHOICE,9.0,1,2.0,500.0,,,,,,,,,,,1.0,1.0,,,A,,,,,,False,cue1.png,Easy,cue2.png,Hard,Right,Hard,Mid,0.0167628999333828,,,,,,,,,,,,,47,26,Female,1.4285714285714286,1.0,0.6,0.5,2.5,2.625,2.6666666666666665,2.5555555555555554,2.25,3.111111111111111,2.0,1.75,1.75,0.25,0.6113636363636364,0.7272727272727273,0.4006660312588792,-0.32331397516578314,,,,,,,,,,,,,,,,,,,-2.5031402218024957e-05,-0.5200358532526801,-0.00046513654994296584,-0.9170964156487518,,,,,,,,,,
1,240718_100914,FalseCHOICE,9.0,2,2.0,500.0,,,,,,,,,,,2.0,2.0,,,A,,,,,,False,cue2.png,Hard,cue1.png,Easy,Left,Hard,Mid,0.0156378999818116,,,,,,,,,,,,,47,26,Female,1.4285714285714286,1.0,0.6,0.5,2.5,2.625,2.6666666666666665,2.5555555555555554,2.25,3.111111111111111,2.0,1.75,1.75,0.25,0.75,0.7708333333333334,0.4101845133195941,-0.08627822384429862,,,,,,,,,,,,,,,,,,,0.0002688641690084554,-0.24272563747714568,0.0005329694474171471,0.818761921913033,1.1330000000000002,-0.6060594306351137,,,,,,,,
2,240718_100936,FalseCHOICE,9.0,3,2.0,500.0,,,,,,,,,,,3.0,3.0,,,A,,,,,,False,cue2.png,Hard,cue1.png,Easy,Left,Hard,Mid,0.0162227000109851,,,,,,,,,,,,,47,26,Female,1.4285714285714286,1.0,0.6,0.5,2.5,2.625,2.6666666666666665,2.5555555555555554,2.25,3.111111111111111,2.0,1.75,1.75,0.25,1.0,1.0,0.3981292312600999,-0.38648710401420994,,,,,,,,,,,,,,,,,,,0.0006784411576717842,0.14373776729255375,0.0006680206156234828,1.0536364712579616,1.584,0.02192062139162045,,,,,,,,
3,240718_100959,FalseCHOICE,9.0,4,2.0,500.0,,,,,,,,,,,4.0,4.0,,,A,,,,,,False,cue2.png,Hard,cue1.png,Easy,Left,Hard,Mid,0.0162554000271484,,,,,,,,,,,,,47,26,Female,1.4285714285714286,1.0,0.6,0.5,2.5,2.625,2.6666666666666665,2.5555555555555554,2.25,3.111111111111111,2.0,1.75,1.75,0.25,0.9090909090909092,0.9090909090909092,0.3728772374888649,-1.0153295263405864,,,,,,,,,,,,,,,,,,,0.0026106251326608433,1.9668831545680194,-6.191006376983325e-05,-0.21582414616970497,1.5939999999999999,0.03584479105961869,,,,,,,,
4,240718_101022,FalseCHOICE,9.0,5,2.0,500.0,,,,,,,,,,,5.0,5.0,,,A,,,,,,False,cue1.png,Easy,cue2.png,Hard,Left,Easy,Mid,0.0157673000358045,,,,,,,,,,,,,47,26,Female,1.4285714285714286,1.0,0.6,0.5,2.5,2.625,2.6666666666666665,2.5555555555555554,2.25,3.111111111111111,2.0,1.75,1.75,0.25,0.9090909090909092,0.9090909090909092,0.4188199000054737,0.12876608237833387,,,,,,,,,,,,,,,,,,,,,-4.014164372248899e-05,-0.17796554845095358,,,,,,,,,,
5,240718_101047,FalseCHOICE,9.0,6,2.0,500.0,,,,,,,,,,,6.0,6.0,,,A,,,,,,False,cue2.png,Hard,cue1.png,Easy,Right,Easy,Mid,0.0165526999626308,,,,,,,,,,,,,47,26,Female,1.4285714285714286,1.0,0.6,0.5,2.5,2.625,2.6666666666666665,2.5555555555555554,2.25,3.111111111111111,2.0,1.75,1.75,0.25,1.0,1.0,0.490280981248361,1.908338809900097,,,,,,,,,,,,,,,,,,,0.0003719251865749165,-0.14548064361714164,0.0007851583385780772,1.2573568111532571,0.07899999999999996,-2.073666913642161,,,,,,,,
6,240718_101110,FalseCHOICE,9.0,7,2.0,500.0,,,,,,,,,,,7.0,7.0,,,A,,,,,,False,cue2.png,Hard,cue1.png,Easy,Left,Hard,Mid,0.0153000000864267,,,,,,,,,,,,,47,26,Female,1.4285714285714286,1.0,0.6,0.5,2.5,2.625,2.6666666666666665,2.5555555555555554,2.25,3.111111111111111,2.0,1.75,1.75,0.25,0.7818181818181817,0.8181818181818181,0.4280616000032751,0.35890921743847165,,,,,,,,,,,,,,,,,,,-0.0015375654008152862,-1.9472132951189638,5.2067774689823834e-05,-0.01759932665077897,,,,,,,,,,
7,240718_101132,FalseCHOICE,9.0,8,2.0,500.0,,,,,,,,,,,8.0,8.0,,,A,,,,,,False,cue1.png,Easy,cue2.png,Hard,Left,Easy,Mid,0.0151480000931769,,,,,,,,,,,,,47,26,Female,1.4285714285714286,1.0,0.6,0.5,2.5,2.625,2.6666666666666665,2.5555555555555554,2.25,3.111111111111111,2.0,1.75,1.75,0.25,0.7818181818181817,0.8181818181818181,0.3525724499850184,-1.5209732340974773,,,,,,,,,,,,,,,,,,,,,0.0008736313572762482,1.4112248648095562,,,,,,,,,,
8,240718_101155,FalseCHOICE,9.0,9,2.0,500.0,,,,,,,,,,,9.0,9.0,,,A,,,,,,False,cue1.png,Easy,cue2.png,Hard,Right,Hard,Mid,0.0163278999971225,,,,,,,,,,,,,47,26,Female,1.4285714285714286,1.0,0.6,0.5,2.5,2.625,2.6666666666666665,2.5555555555555554,2.25,3.111111111111111,2.0,1.75,1.75,0.25,0.75,0.8333333333333334,0.3729326937609585,-1.0139485163184692,,,,,,,,,,,,,,,,,,,-0.00012529161925673533,-0.61463810365298,,,,,,,,,,,,
9,240718_101218,FalseCHOICE,9.0,10,2.0,500.0,,,,,,,,,,,10.0,10.0,,,A,,,,,,False,cue2.png,Hard,cue1.png,Easy,Right,Easy,Mid,0.0168907999759539,,,,,,,,,,,,,47,26,Female,1.4285714285714286,1.0,0.6,0.5,2.5,2.625,2.6666666666666665,2.5555555555555554,2.25,3.111111111111111,2.0,1.75,1.75,0.25,0.75,0.8333333333333334,0.4376960624722414,0.5988331922217521,,,,,,,,,,,,,,,,,,,0.0008272992331828551,0.2841953620349222,-0.000422801317070641,-0.8434689981716372,2.8680000000000003,1.8097840067626338,,,,,,,,
10,240718_101241,FalseCHOICE,9.0,11,2.0,500.0,,,,,,,,,,,11.0,11.0,,,A,,,,,,False,cue1.png,Easy,cue2.png,Hard,Right,Hard,Mid,0.016753299976699,,,,,,,,,,,,,47,26,Female,1.4285714285714286,1.0,0.6,0.5,2.5,2.625,2.6666666666666665,2.5555555555555554,2.25,3.111111111111111,2.0,1.75,1.75,0.25,0.8958333333333333,0.9166666666666666,0.4660707500006538,1.3054390705443735,,,,,,,,,,,,,,,,,,,0.0021720473525261817,1.553055554730613,,,,,,,,,,,,
11,240718_101304,FalseCHOICE,9.0,12,2.0,500.0,,,,,,,,,,,12.0,12.0,,,A,,,,,,False,cue2.png,Hard,cue1.png,Easy,Right,Easy,Mid,0.0168368999147787,,,,,,,,,,,,,47,26,Female,1.4285714285714286,1.0,0.6,0.5,2.5,2.625,2.6666666666666665,2.5555555555555554,2.25,3.111111111111111,2.0,1.75,1.75,0.25,0.5,0.75,0.394347587491211,-0.4806601839518595,,,,,,,,,,,,,,,,,,,0.0011517742417300717,0.5903593312927539,-3.609397748814431e-05,-0.17092604042361176,1.264,-0.4236528079843331,,,,,,,,
12,240718_101327,FalseCHOICE,9.0,13,2.0,500.0,,,,,,,,,,,13.0,13.0,,,A,,,,,,False,cue1.png,Easy,cue2.png,Hard,Right,Hard,Mid,0.0171102000167593,,,,,,,,,,,,,47,26,Female,1.4285714285714286,1.0,0.6,0.5,2.5,2.625,2.6666666666666665,2.5555555555555554,2.25,3.111111111111111,2.0,1.75,1.75,0.25,0.75,0.8333333333333334,0.4316833687407779,0.4491009799832404,,,,,,,,,,,,,,,,,,,0.0008886547705038743,0.34208843344974815,,,,,,,,,,,,
13,240718_101351,FalseCHOICE,9.0,14,2.0,500.0,,,,,,,,,,,14.0,14.0,,,A,,,,,,False,cue2.png,Hard,cue1.png,Easy,Left,Hard,Mid,0.0159667000407353,,,,,,,,,,,,,47,26,Female,1.4285714285714286,1.0,0.6,0.5,2.5,2.625,2.6666666666666665,2.5555555555555554,2.25,3.111111111111111,2.0,1.75,1.75,0.25,0.8958333333333333,0.9166666666666666,0.4423865937642404,0.7156400109775153,,,,,,,,,,,,,,,,,,,,,-8.143280772219749e-05,-0.249777171150446,,,,,,,,,,
14,240718_101414,FalseCHOICE,9.0,15,2.0,500.0,,,,,,,,,,,15.0,15.0,,,A,,,,,,False,cue1.png,Easy,cue2.png,Hard,Right,Hard,Mid,0.0166075000306591,,,,,,,,,,,,,47,26,Female,1.4285714285714286,1.0,0.6,0.5,2.5,2.625,2.6666666666666665,2.5555555555555554,2.25,3.111111111111111,2.0,1.75,1.75,0.25,0.8958333333333333,0.9166666666666666,0.4233977812546072,0.24276761270925218,,,,,,,,,,,,,,,,,,,0.0013680076557114106,0.7943900842530854,0.00037876540436591975,0.5505776062950669,,,,,,,,,,
15,240718_101437,FalseCHOICE,9.0,16,2.0,500.0,,,,,,,,,,,16.0,16.0,,,A,,,,,,False,cue1.png,Easy,cue2.png,Hard,Left,Easy,Mid,0.0160514999879524,,,,,,,,,,,,,47,26,Female,1.4285714285714286,1.0,0.6,0.5,2.5,2.625,2.6666666666666665,2.5555555555555554,2.25,3.111111111111111,2.0,1.75,1.75,0.25,0.7818181818181817,0.8181818181818181,0.3687728187578614,-1.1175405691765827,,,,,,,,,,,,,,,,,,,0.002229028854802891,1.606821430227224,0.0003171523223902267,0.44342307327626895,,,,,,,,,,
16,240718_101459,FalseCHOICE,9.0,17,2.0,500.0,,,,,,,,,,,17.0,17.0,,,A,,,,,,False,cue2.png,Hard,cue1.png,Easy,Right,Easy,Mid,0.0158792999573051,,,,,,,,,,,,,47,26,Female,1.4285714285714286,1.0,0.6,0.5,2.5,2.625,2.6666666666666665,2.5555555555555554,2.25,3.111111111111111,2.0,1.75,1.75,0.25,0.75,0.8333333333333334,0.3537588562539895,-1.4914285336353363,,,,,,,,,,,,,,,,,,,0.0008082011886884179,0.2661750740205721,0.0002252479299184448,0.28358733804109204,,,,,,,,,,
17,240718_101522,FalseCHOICE,9.0,18,2.0,500.0,,,,,,,,,,,18.0,18.0,,,A,,,,,,False,cue2.png,Hard,cue1.png,Easy,Right,Easy,Mid,0.0166240000398829,,,,,,,,,,,,,47,26,Female,1.4285714285714286,1.0,0.6,0.5,2.5,2.625,2.6666666666666665,2.5555555555555554,2.25,3.111111111111111,2.0,1.75,1.75,0.25,1.0,1.0,0.3562247749941889,-1.4300205383738531,,,,,,,,,,,,,,,,,,,0.00019843615669468953,-0.30917919854942866,-0.00024653288793940326,-0.536911354829492,,,,,,,,,,
18,240718_101545,FalseCHOICE,9.0,19,2.0,500.0,,,,,,,,,,,19.0,19.0,,,A,,,,,,False,cue1.png,Easy,cue2.png,Hard,Right,Hard,Mid,0.0168271999573335,,,,,,,,,,,,,47,26,Female,1.4285714285714286,1.0,0.6,0.5,2.5,2.625,2.6666666666666665,2.5555555555555554,2.25,3.111111111111111,2.0,1.75,1.75,0.25,0.6113636363636364,0.7272727272727273,0.3724732812697766,-1.0253891204315162,,,,,,,,,,,,,,,,,,,0.00030199599629665737,-0.2114635325873487,,,,,,,,,,,,
19,240718_101609,FalseCHOICE,9.0,20,2.0,500.0,,,,,,,,,,,20.0,20.0,,,A,,,,,,False,cue1.png,Easy,cue2.png,Hard,Right,Hard,Mid,0.017395400092937,,,,,,,,,,,,,47,26,Female,1.4285714285714286,1.0,0.6,0.5,2.5,2.625,2.6666666666666665,2.5555555555555554,2.25,3.111111111111111,2.0,1.75,1.75,0.25,1.0,1.0,0.4685395249980502,1.366918194276377,,,,,,,,,,,,,,,,,,,0.00025243987490816905,-0.25822306236825227,-0.0004711573256066682,-0.9275674614716094,-0.139,-2.377213812404529,,,,,,,,
20,240718_101633,FalseCHOICE,9.0,21,2.0,500.0,,,,,,,,,,,21.0,21.0,,,A,,,,,,False,cue1.png,Easy,cue2.png,Hard,Right,Hard,Mid,0.0165048000635579,,,,,,,,,,,,,47,26,Female,1.4285714285714286,1.0,0.6,0.5,2.5,2.625,2.6666666666666665,2.5555555555555554,2.25,3.111111111111111,2.0,1.75,1.75,0.25,1.0,1.0,0.4617336750088725,1.1974342623557368,,,,,,,,,,,,,,,,,,,-3.916192832167714e-05,-0.5333689539403591,-0.00097447433922226,-1.8029124016203866,1.384,-0.2565627719683507,,,,,,,,
21,240718_101656,FalseCHOICE,9.0,22,2.0,500.0,,,,,,,,,,,22.0,22.0,,,A,,,,,,False,cue2.png,Hard,cue1.png,Easy,Right,Easy,Mid,0.0163595000049099,,,,,,,,,,,,,47,26,Female,1.4285714285714286,1.0,0.6,0.5,2.5,2.625,2.6666666666666665,2.5555555555555554,2.25,3.111111111111111,2.0,1.75,1.75,0.25,0.75,0.8333333333333334,0.3546925687405746,-1.4681765865954401,,,,,,,,,,,,,,,,,,,,,0.000504279446020133,0.7688656400938808,1.444,-0.17301775396035934,,,,,,,,
22,240718_101719,FalseCHOICE,9.0,23,2.0,500.0,,,,,,,,,,,23.0,23.0,,,A,,,,,,False,cue1.png,Easy,cue2.png,Hard,Left,Easy,Mid,0.0151256000390276,,,,,,,,,,,,,47,26,Female,1.4285714285714286,1.0,0.6,0.5,2.5,2.625,2.6666666666666665,2.5555555555555554,2.25,3.111111111111111,2.0,1.75,1.75,0.25,0.75,0.8333333333333334,0.4094711124926107,-0.10404381923427174,,,,,,,,,,,,,,,,,,,0.0033507318026161246,2.6652235190917533,0.0007498113148680227,1.195882953689845,2.395,1.1511707814663024,,,,,,,,
23,240718_101742,FalseCHOICE,9.0,24,2.0,500.0,,,,,,,,,,,24.0,24.0,,,A,,,,,,False,cue2.png,Hard,cue1.png,Easy,Left,Hard,Mid,0.0161811999278143,,,,,,,,,,,,,47,26,Female,1.4285714285714286,1.0,0.6,0.5,2.5,2.625,2.6666666666666665,2.5555555555555554,2.25,3.111111111111111,2.0,1.75,1.75,0.25,0.9090909090909092,0.9090909090909092,0.3950475562451174,-0.4632290832337583,,,,,,,,,,,,,,,,,,,0.000205499149298538,-0.302514790525788,-0.00013584455600417975,-0.3444074881372243,2.423,1.1901584565366983,,,,,,,,
24,240718_101806,FalseCHOICE,9.0,25,2.0,500.0,,,,,,,,,,,25.0,25.0,,,A,,,,,,False,cue2.png,Hard,cue1.png,Easy,Right,Easy,Mid,0.0164637999841943,,,,,,,,,,,,,47,26,Female,1.4285714285714286,1.0,0.6,0.5,2.5,2.625,2.6666666666666665,2.5555555555555554,2.25,3.111111111111111,2.0,1.75,1.75,0.25,0.8958333333333333,0.9166666666666666,0.4071176687648403,-0.16265088479856768,,,,,,,,,,,,,,,,,,,,,-0.0005243179228738674,-1.020021836297631,0.3839999999999999,-1.648979738768205,,,,,,,,
25,240718_101829,FalseCHOICE,9.0,26,2.0,500.0,,,,,,,,,,,26.0,26.0,,,A,,,,,,False,cue1.png,Easy,cue2.png,Hard,Right,Hard,Mid,0.0139454999007284,,,,,,,,,,,,,47,26,Female,1.4285714285714286,1.0,0.6,0.5,2.5,2.625,2.6666666666666665,2.5555555555555554,2.25,3.111111111111111,2.0,1.75,1.75,0.25,0.7818181818181817,0.8181818181818181,0.4513828375056619,0.9396706264387878,,,,,,,,,,,,,,,,,,,0.0007140106843584247,0.17730000533289741,-0.0004547819482007111,-0.8990881862483029,2.223,0.9116750631767272,,,,,,,,
26,240718_101853,FalseCHOICE,9.0,27,2.0,500.0,,,,,,,,,,,27.0,27.0,,,A,,,,,,False,cue1.png,Easy,cue2.png,Hard,Right,Hard,Mid,0.0165675999596714,,,,,,,,,,,,,47,26,Female,1.4285714285714286,1.0,0.6,0.5,2.5,2.625,2.6666666666666665,2.5555555555555554,2.25,3.111111111111111,2.0,1.75,1.75,0.25,0.9090909090909092,0.9090909090909092,0.4456611937639536,0.7971863401357014,,,,,,,,,,,,,,,,,,,0.0006207365544849482,0.08928959750828831,,,1.627,0.08179455096401408,,,,,,,,
27,240718_101917,FalseCHOICE,9.0,28,2.0,500.0,,,,,,,,,,,28.0,28.0,,,A,,,,,,False,cue2.png,Hard,cue1.png,Easy,Right,Easy,Mid,0.0163625000277534,,,,,,,,,,,,,47,26,Female,1.4285714285714286,1.0,0.6,0.5,2.5,2.625,2.6666666666666665,2.5555555555555554,2.25,3.111111111111111,2.0,1.75,1.75,0.25,0.8958333333333333,0.9166666666666666,0.474424718755472,1.5134753149459106,,,,,,,,,,,,,,,,,,,-0.000511886825680929,-0.97941665293117,,,0.8109999999999999,-1.0544176939446672,,,,,,,,
28,240718_101942,FalseCHOICE,9.0,29,2.0,500.0,,,,,,,,,,,29.0,29.0,,,A,,,,,,False,cue1.png,Easy,cue2.png,Hard,Right,Hard,Mid,0.0166561999358236,,,,,,,,,,,,,47,26,Female,1.4285714285714286,1.0,0.6,0.5,2.5,2.625,2.6666666666666665,2.5555555555555554,2.25,3.111111111111111,2.0,1.75,1.75,0.25,0.7818181818181817,0.8181818181818181,0.5311828812627937,2.926905902694416,,,,,,,,,,,,,,,,,,,-6.128207728053198e-05,-0.5542408005461725,-0.00033914850788958114,-0.6979840229671281,1.7710000000000001,0.2823025941831933,,,,,,,,
29,240718_102005,FalseCHOICE,9.0,30,2.0,500.0,,,,,,,,,,,30.0,30.0,,,A,,,,,,False,cue1.png,Easy,cue2.png,Hard,Right,Hard,Mid,0.0169988999841734,,,,,,,,,,,,,47,26,Female,1.4285714285714286,1.0,0.6,0.5,2.5,2.625,2.6666666666666665,2.5555555555555554,2.25,3.111111111111111,2.0,1.75,1.75,0.25,0.9090909090909092,0.9090909090909092,0.4033210812631296,-0.25719610379309277,,,,,,,,,,,,,,,,,,,-0.00036000229804302245,-0.8361033972857647,-0.000150467521131902,-0.3698390515222439,0.655,-1.2716347407654445,,,,,,,,
30,240718_102027,FalseCHOICE,9.0,31,2.0,500.0,,,,,,,,,,,31.0,31.0,,,A,,,,,,False,cue2.png,Hard,cue1.png,Easy,Right,Easy,Mid,0.0165475000394508,,,,,,,,,,,,,47,26,Female,1.4285714285714286,1.0,0.6,0.5,2.5,2.625,2.6666666666666665,2.5555555555555554,2.25,3.111111111111111,2.0,1.75,1.75,0.25,0.8958333333333333,0.9166666666666666,0.3775186562706949,-0.8997457409080917,,,,,,,,,,,,,,,,,,,0.00044415737819965403,-0.07732471815761936,0.00015317277975645475,0.15823767510888143,1.5690000000000002,0.0010343668896227677,,,,,,,,
31,240718_102049,FalseCHOICE,9.0,32,2.0,500.0,,,,,,,,,,,32.0,32.0,,,A,,,,,,False,cue1.png,Easy,cue2.png,Hard,Left,Easy,Mid,0.0141542999772354,,,,,,,,,,,,,47,26,Female,1.4285714285714286,1.0,0.6,0.5,2.5,2.625,2.6666666666666665,2.5555555555555554,2.25,3.111111111111111,2.0,1.75,1.75,0.25,0.75,0.8333333333333334,0.364815475018986,-1.21608904995307,,,,,,,,,,,,,,,,,,,-1.5714560976488358e-05,-0.5112447876226168,-0.0006976349444662204,-1.3214465324403142,1.35,-0.3039049488395455,,,,,,,,
32,240718_102113,FalseCHOICE,9.0,33,2.0,500.0,,,,,,,,,,,33.0,33.0,,,A,,,,,,False,cue2.png,Hard,cue1.png,Easy,Right,Easy,Mid,0.0168238999322056,,,,,,,,,,,,,47,26,Female,1.4285714285714286,1.0,0.6,0.5,2.5,2.625,2.6666666666666665,2.5555555555555554,2.25,3.111111111111111,2.0,1.75,1.75,0.25,0.6113636363636364,0.7272727272727273,0.41777208748681,0.10267273829035295,,,,,,,,,,,,,,,,,,,-0.0018718714489053341,-2.262653510648705,,,1.084,-0.6742878620083068,,,,,,,,
33,240718_102137,FalseCHOICE,9.0,34,2.0,500.0,,,,,,,,,,,34.0,34.0,,,A,,,,,,False,cue2.png,Hard,cue1.png,Easy,Right,Easy,Mid,0.0166914999717846,,,,,,,,,,,,,47,26,Female,1.4285714285714286,1.0,0.6,0.5,2.5,2.625,2.6666666666666665,2.5555555555555554,2.25,3.111111111111111,2.0,1.75,1.75,0.25,0.75,0.8333333333333334,0.458271981238795,1.111228796147861,,,,,,,,,,,,,,,,,,,,,0.0003968789496567849,0.5820798201872923,1.6710000000000003,0.14306089750320805,,,,,,,,
34,240718_102159,FalseCHOICE,9.0,35,2.0,500.0,,,,,,,,,,,35.0,35.0,,,A,,,,,,False,cue2.png,Hard,cue1.png,Easy,Right,Easy,Mid,0.0163608000148087,,,,,,,,,,,,,47,26,Female,1.4285714285714286,1.0,0.6,0.5,2.5,2.625,2.6666666666666665,2.5555555555555554,2.25,3.111111111111111,2.0,1.75,1.75,0.25,0.9090909090909092,0.9090909090909092,0.3649736874940572,-1.212149134674802,,,,,,,,,,,,,,,,,,,-0.00020598596808760498,-0.6907786429362698,-0.00025903013692011277,-0.5586459740955089,0.897,-0.9346698347998796,,,,,,,,
35,240718_102222,FalseCHOICE,9.0,36,2.0,500.0,,,,,,,,,,,36.0,36.0,,,A,,,,,,False,cue1.png,Easy,cue2.png,Hard,Right,Hard,Mid,0.0156638000626117,,,,,,,,,,,,,47,26,Female,1.4285714285714286,1.0,0.6,0.5,2.5,2.625,2.6666666666666665,2.5555555555555554,2.25,3.111111111111111,2.0,1.75,1.75,0.25,0.7818181818181817,0.8181818181818181,0.4051314687603735,-0.2121125959548699,,,,,,,,,,,,,,,,,,,0.0006179641072673425,0.08667360730152184,-0.0007394876738141872,-1.3942348028049225,0.9849999999999999,-0.8121371417214927,,,,,,,,
36,240718_102244,FalseCHOICE,9.0,37,2.0,500.0,,,,,,,,,,,37.0,37.0,,,A,,,,,,False,cue2.png,Hard,cue1.png,Easy,Right,Easy,Mid,0.016580699943006,,,,,,,,,,,,,47,26,Female,1.4285714285714286,1.0,0.6,0.5,2.5,2.625,2.6666666666666665,2.5555555555555554,2.25,3.111111111111111,2.0,1.75,1.75,0.25,0.9090909090909092,0.9090909090909092,0.3984594875146285,-0.3782628368546493,,,,,,,,,,,,,,,,,,,-8.929214596298989e-05,-0.580670182104407,0.00024202481075915033,0.3127648888850351,,,,,,,,,,
37,240718_102308,FalseCHOICE,9.0,38,2.0,500.0,,,,,,,,,,,38.0,38.0,,,A,,,,,,False,cue1.png,Easy,cue2.png,Hard,Right,Hard,Mid,0.016944000031799,,,,,,,,,,,,,47,26,Female,1.4285714285714286,1.0,0.6,0.5,2.5,2.625,2.6666666666666665,2.5555555555555554,2.25,3.111111111111111,2.0,1.75,1.75,0.25,0.7818181818181817,0.8181818181818181,0.4207797499984735,0.177571607524559,,,,,,,,,,,,,,,,,,,-0.00016872407915754107,-0.6556195474239486,0.00010049703017143887,0.0666265242428315,1.583,0.020528204424820437,,,,,,,,
38,240718_102332,FalseCHOICE,9.0,39,2.0,500.0,,,,,,,,,,,39.0,39.0,,,A,,,,,,False,cue1.png,Easy,cue2.png,Hard,Left,Easy,Mid,0.0149322999641299,,,,,,,,,,,,,47,26,Female,1.4285714285714286,1.0,0.6,0.5,2.5,2.625,2.6666666666666665,2.5555555555555554,2.25,3.111111111111111,2.0,1.75,1.75,0.25,0.7818181818181817,0.8181818181818181,0.4376870187188615,0.5986079784887749,,,,,,,,,,,,,,,,,,,0.00152339210628266,0.9410057523159104,0.0009730927627449341,1.5842033965537552,1.427,-0.19668884239595674,,,,,,,,
39,240718_102355,FalseCHOICE,9.0,40,2.0,500.0,,,,,,,,,,,40.0,40.0,,,A,,,,,,False,cue2.png,Hard,cue1.png,Easy,Right,Easy,Mid,0.0163903998909518,,,,,,,,,,,,,47,26,Female,1.4285714285714286,1.0,0.6,0.5,2.5,2.625,2.6666666666666665,2.5555555555555554,2.25,3.111111111111111,2.0,1.75,1.75,0.25,0.9090909090909092,0.9090909090909092,0.4335147624879027,0.4947075998251646,,,,,,,,,,,,,,,,,,,,,0.0008707370274832413,1.4061911845029225,1.4660000000000002,-0.1423845806907622,,,,,,,,
40,240718_102418,FalseCHOICE,9.0,41,2.0,500.0,,,,,,,,,,,41.0,41.0,,,A,,,,,,False,cue2.png,Hard,cue1.png,Easy,Right,Easy,Mid,0.0167530999751761,,,,,,,,,,,,,47,26,Female,1.4285714285714286,1.0,0.6,0.5,2.5,2.625,2.6666666666666665,2.5555555555555554,2.25,3.111111111111111,2.0,1.75,1.75,0.25,0.8958333333333333,0.9166666666666666,0.4030628000327851,-0.26362799966645073,,,,,,,,,,,,,,,,,,,0.0002105210583642327,-0.29777628194329653,0.0002185174126364941,0.27188194345286315,2.409,1.1706646190015,,,,,,,,
41,240718_102441,FalseCHOICE,9.0,42,2.0,500.0,,,,,,,,,,,42.0,42.0,,,A,,,,,,False,cue1.png,Easy,cue2.png,Hard,Right,Hard,Mid,0.0165897000115364,,,,,,,,,,,,,47,26,Female,1.4285714285714286,1.0,0.6,0.5,2.5,2.625,2.6666666666666665,2.5555555555555554,2.25,3.111111111111111,2.0,1.75,1.75,0.25,0.9090909090909092,0.9090909090909092,0.4107572187567712,-0.07201632129289832,,,,,,,,,,,,,,,,,,,0.0008895589686348472,0.34294160513164024,,,,,,,,,,,,
42,240718_102504,FalseCHOICE,9.0,43,2.0,500.0,,,,,,,,,,,43.0,43.0,,,A,,,,,,False,cue2.png,Hard,cue1.png,Easy,Right,Easy,Mid,0.0165923000313341,,,,,,,,,,,,,47,26,Female,1.4285714285714286,1.0,0.6,0.5,2.5,2.625,2.6666666666666665,2.5555555555555554,2.25,3.111111111111111,2.0,1.75,1.75,0.25,1.0,1.0,0.4270145812406554,0.3328356400064613,,,,,,,,,,,,,,,,,,,-3.474259086005656e-05,-0.5291990121479307,-0.0002069560242436339,-0.4680811614406621,1.455,-0.15770116732556078,,,,,,,,
43,240718_102526,FalseCHOICE,9.0,44,2.0,500.0,,,,,,,,,,,44.0,44.0,,,A,,,,,,False,cue1.png,Easy,cue2.png,Hard,Right,Hard,Mid,0.0165834999643266,,,,,,,,,,,,,47,26,Female,1.4285714285714286,1.0,0.6,0.5,2.5,2.625,2.6666666666666665,2.5555555555555554,2.25,3.111111111111111,2.0,1.75,1.75,0.25,1.0,1.0,0.3378586875187466,-1.8873854118703521,,,,,,,,,,,,,,,,,,,-0.000737755137731748,-1.1925385795062404,-0.0012734280806335693,-2.3228384875738395,2.2969999999999997,1.0147139187199161,,,,,,,,
44,240718_102549,FalseCHOICE,9.0,45,2.0,500.0,,,,,,,,,,,45.0,45.0,,,A,,,,,,False,cue2.png,Hard,cue1.png,Easy,Right,Easy,Mid,0.0168036000104621,,,,,,,,,,,,,47,26,Female,1.4285714285714286,1.0,0.6,0.5,2.5,2.625,2.6666666666666665,2.5555555555555554,2.25,3.111111111111111,2.0,1.75,1.75,0.25,0.8958333333333333,0.9166666666666666,0.3943367624960956,-0.48092975538497906,,,,,,,,,,,,,,,,,,,,,2.3768409131374145e-05,-0.06681623325415655,1.8309999999999997,0.365847612191184,,,,,,,,
45,240718_102612,FalseCHOICE,9.0,46,2.0,500.0,,,,,,,,,,,46.0,46.0,,,A,,,,,,False,cue2.png,Hard,cue1.png,Easy,Right,Easy,Mid,0.0164253000402823,,,,,,,,,,,,,47,26,Female,1.4285714285714286,1.0,0.6,0.5,2.5,2.625,2.6666666666666665,2.5555555555555554,2.25,3.111111111111111,2.0,1.75,1.75,0.25,0.7818181818181817,0.8181818181818181,0.403151006270491,-0.26143142759828986,,,,,,,,,,,,,,,,,,,0.002498270426950495,1.8608689415810422,0.0016378409638746912,2.740301757211096,1.78,0.29483434688439186,,,,,,,,
46,240718_102635,FalseCHOICE,9.0,47,2.0,500.0,,,,,,,,,,,47.0,47.0,,,A,,,,,,False,cue1.png,Easy,cue2.png,Hard,Left,Easy,Mid,0.0159705999540165,,,,,,,,,,,,,47,26,Female,1.4285714285714286,1.0,0.6,0.5,2.5,2.625,2.6666666666666665,2.5555555555555554,2.25,3.111111111111111,2.0,1.75,1.75,0.25,0.8958333333333333,0.9166666666666666,0.4244946499966318,0.27008258842790367,,,,,,,,,,,,,,,,,,,0.0020249282949701217,1.414238840258502,0.0003024472832561858,0.41784877069466886,2.526,1.333577404117083,,,,,,,,
47,240718_102658,FalseCHOICE,9.0,48,2.0,500.0,,,,,,,,,,,48.0,48.0,,,A,,,,,,False,cue1.png,Easy,cue2.png,Hard,Left,Easy,Mid,0.0162079000147059,,,,,,,,,,,,,47,26,Female,1.4285714285714286,1.0,0.6,0.5,2.5,2.625,2.6666666666666665,2.5555555555555554,2.25,3.111111111111111,2.0,1.75,1.75,0.25,1.0,1.0,0.4078047187285847,-0.14554149663008026,,,,,,,,,,,,,,,,,,,,,,,1.604,0.049768960727617564,,,,,,,,
48,240718_102723,FalseCHOICE,9.0,49,2.0,500.0,,,,,,,,,,,49.0,49.0,,,A,,,,,,False,cue2.png,Hard,cue1.png,Easy,Right,Easy,Mid,0.0159378999378532,,,,,,,,,,,,,47,26,Female,1.4285714285714286,1.0,0.6,0.5,2.5,2.625,2.6666666666666665,2.5555555555555554,2.25,3.111111111111111,2.0,1.75,1.75,0.25,0.7818181818181817,0.8181818181818181,0.4920427624965668,1.9522118916760374,,,,,,,,,,,,,,,,,,,-0.0003989348504719499,-0.8728388760468185,,,2.968,1.9490257034426188,,,,,,,,
49,240718_102746,FalseCHOICE,9.0,50,2.0,500.0,,,,,,,,,,,50.0,50.0,,,A,,,,,,False,cue1.png,Easy,cue2.png,Hard,Left,Easy,Mid,0.0166426000650972,,,,,,,,,,,,,47,26,Female,1.4285714285714286,1.0,0.6,0.5,2.5,2.625,2.6666666666666665,2.5555555555555554,2.25,3.111111111111111,2.0,1.75,1.75,0.25,0.7818181818181817,0.8181818181818181,0.4090975437502493,-0.11334668359342379,,,,,,,,,,,,,,,,,,,,,,,2.4869999999999997,1.2792731424118884,,,,,,,,
0,240718_094019,OFFLINERATING,9.0,1,1.0,,,,,,,,,,,,,,,,,T0,cue1.png,Easy,61.0,2.1435427999822423,,,,,,,,,,,,,,,,,,,,,,47,26,Female,1.4285714285714286,1.0,0.6,0.5,2.5,2.625,2.6666666666666665,2.5555555555555554,2.25,3.111111111111111,2.0,1.75,1.75,0.25,,,,,,,,,,,,,,,,,,,,,,,,,,,,,0.8072571530318781,,,-0.000522684714623964,-1.4134536154838113,1.5890000000000002,1.029425038443893,
1,240718_094027,OFFLINERATING,9.0,2,3.0,,,,,,,,,,,,,,,,,T0,cue2.png,Hard,31.0,1.8189386999001729,,,,,,,,,,,,,,,,,,,,,,47,26,Female,1.4285714285714286,1.0,0.6,0.5,2.5,2.625,2.6666666666666665,2.5555555555555554,2.25,3.111111111111111,2.0,1.75,1.75,0.25,,,,,,,,,,,,,,,,,,,,,,,,,,,,,-1.4720571614110716,-0.00029478359365701185,-1.0899810892024182,,,,,
2,240718_100242,OFFLINERATING,9.0,3,1.0,,,,,,,,,,,,,,,,,T1,cue1.png,Easy,70.0,1.9224166000494731,,,,,,,,,,,,,,,,,,,,,,47,26,Female,1.4285714285714286,1.0,0.6,0.5,2.5,2.625,2.6666666666666665,2.5555555555555554,2.25,3.111111111111111,2.0,1.75,1.75,0.25,,,,,,,,,,,,,,,,,,,,,,,,,,,,,1.491051447364763,-2.058467861931106e-05,1.3253468214939068,0.000590013697855463,0.6665813515008056,,,
3,240718_100250,OFFLINERATING,9.0,4,3.0,,,,,,,,,,,,,,,,,T1,cue2.png,Hard,41.0,1.5186787999700757,,,,,,,,,,,,,,,,,,,,,,47,26,Female,1.4285714285714286,1.0,0.6,0.5,2.5,2.625,2.6666666666666665,2.5555555555555554,2.25,3.111111111111111,2.0,1.75,1.75,0.25,,,,,,,,,,,,,,,,,,,,,,,,,,,,,-0.7122857232634218,,,0.0006329646925615677,0.746872263983006,1.455,0.9085284958045574,
4,240718_100734,OFFLINERATING,9.0,5,1.0,,,,,,,,,,,,,,,,,T2,cue1.png,Easy,66.0,1.3519928000168877,,,,,,,,,,,,,,,,,,,,,,47,26,Female,1.4285714285714286,1.0,0.6,0.5,2.5,2.625,2.6666666666666665,2.5555555555555554,2.25,3.111111111111111,2.0,1.75,1.75,0.25,,,,,,,,,,,,,,,,,,,,,,,,,,,,,1.187142872105703,,,,,-1.0075714285714286,-1.3132354722304778,
5,240718_100741,OFFLINERATING,9.0,6,3.0,,,,,,,,,,,,,,,,,T2,cue2.png,Hard,40.0,1.1016154999379069,,,,,,,,,,,,,,,,,,,,,,47,26,Female,1.4285714285714286,1.0,0.6,0.5,2.5,2.625,2.6666666666666665,2.5555555555555554,2.25,3.111111111111111,2.0,1.75,1.75,0.25,,,,,,,,,,,,,,,,,,,,,,,,,,,,,-0.7882628670781867,-0.00019776380491454788,-0.23536573229148855,,,,,
6,240718_102800,OFFLINERATING,9.0,7,1.0,,,,,,,,,,,,,,,,,T3,cue1.png,Easy,52.0,0.7719256998971105,,,,,,,,,,,,,,,,,,,,,,47,26,Female,1.4285714285714286,1.0,0.6,0.5,2.5,2.625,2.6666666666666665,2.5555555555555554,2.25,3.111111111111111,2.0,1.75,1.75,0.25,,,,,,,,,,,,,,,,,,,,,,,,,,,,,0.12346285869899311,,,,,,,
7,240718_102807,OFFLINERATING,9.0,8,3.0,,,,,,,,,,,,,,,,,T3,cue2.png,Hard,42.0,0.8014159000013024,,,,,,,,,,,,,,,,,,,,,,47,26,Female,1.4285714285714286,1.0,0.6,0.5,2.5,2.625,2.6666666666666665,2.5555555555555554,2.25,3.111111111111111,2.0,1.75,1.75,0.25,,,,,,,,,,,,,,,,,,,,,,,,,,,,,-0.6363085794486568,,,,,-0.24442857142857147,-0.624718062017973,
0,240718_100801,LEARNINGCHECK,9.0,1,,,,,,,,,,,,1.0,1.0,1.0,,,A,,,,,,,,,,,,,,,cue1.png,Easy,Left,Left,Easy,0.0137735999887809,1.0,,,,,,47,26,Female,1.4285714285714286,1.0,0.6,0.5,2.5,2.625,2.6666666666666665,2.5555555555555554,2.25,3.111111111111111,2.0,1.75,1.75,0.25,,,,,,,,,,,,,,,,,,,,,,,,,,,,,,,,,,,,
1,240718_100806,LEARNINGCHECK,9.0,2,,,,,,,,,,,,2.0,2.0,2.0,,,A,,,,,,,,,,,,,,,cue2.png,Hard,Right,Right,Hard,0.014972300035879,1.0,,,,,,47,26,Female,1.4285714285714286,1.0,0.6,0.5,2.5,2.625,2.6666666666666665,2.5555555555555554,2.25,3.111111111111111,2.0,1.75,1.75,0.25,,,,,,,,,,,,,,,,,,,,,,,,,,,,,,,,,,,,
2,240718_102826,LEARNINGCHECK,9.0,1,,,,,,,,,,,,1.0,1.0,1.0,,,A,,,,,,,,,,,,,,,cue1.png,Easy,Middle,Middle,Mid,0.0144586000824347,1.0,,,,,,47,26,Female,1.4285714285714286,1.0,0.6,0.5,2.5,2.625,2.6666666666666665,2.5555555555555554,2.25,3.111111111111111,2.0,1.75,1.75,0.25,,,,,,,,,,,,,,,,,,,,,,,,,,,,,,,,,,,,
3,240718_102832,LEARNINGCHECK,9.0,2,,,,,,,,,,,,2.0,2.0,2.0,,,A,,,,,,,,,,,,,,,cue2.png,Hard,Middle,Middle,Mid,0.0144300999818369,1.0,,,,,,47,26,Female,1.4285714285714286,1.0,0.6,0.5,2.5,2.625,2.6666666666666665,2.5555555555555554,2.25,3.111111111111111,2.0,1.75,1.75,0.25,,,,,,,,,,,,,,,,,,,,,,,,,,,,,,,,,,,,
0,240718_102850,DEMANDRATING,9.0,-1,,,,,,,,,,,,,,,,,,,,,,,,,,,,,,,,,,,,,,,1.0,MentalDemand,1.0,36.0,6.802638399996795,47,26,Female,1.4285714285714286,1.0,0.6,0.5,2.5,2.625,2.6666666666666665,2.5555555555555554,2.25,3.111111111111111,2.0,1.75,1.75,0.25,,,,,,,,,,,,,,,,,,,,,,,,,,,,,,,,,,,,-1.7063566402434684
1,240718_102859,DEMANDRATING,9.0,-1,,,,,,,,,,,,,,,,,,,,,,,,,,,,,,,,,,,,,,,2.0,Effort,1.0,53.0,6.685729300021194,47,26,Female,1.4285714285714286,1.0,0.6,0.5,2.5,2.625,2.6666666666666665,2.5555555555555554,2.25,3.111111111111111,2.0,1.75,1.75,0.25,,,,,,,,,,,,,,,,,,,,,,,,,,,,,,,,,,,,-0.5087760624579148
2,240718_102911,DEMANDRATING,9.0,-1,,,,,,,,,,,,,,,,,,,,,,,,,,,,,,,,,,,,,,,3.0,Frustration,1.0,45.0,10.968696200056002,47,26,Female,1.4285714285714286,1.0,0.6,0.5,2.5,2.625,2.6666666666666665,2.5555555555555554,2.25,3.111111111111111,2.0,1.75,1.75,0.25,,,,,,,,,,,,,,,,,,,,,,,,,,,,,,,,,,,,-1.0723433931805282
3,240718_102919,DEMANDRATING,9.0,-1,,,,,,,,,,,,,,,,,,,,,,,,,,,,,,,,,,,,,,,4.0,MentalDemand,2.0,59.0,6.962293300079182,47,26,Female,1.4285714285714286,1.0,0.6,0.5,2.5,2.625,2.6666666666666665,2.5555555555555554,2.25,3.111111111111111,2.0,1.75,1.75,0.25,,,,,,,,,,,,,,,,,,,,,,,,,,,,,,,,,,,,-0.08610056441595478
4,240718_102925,DEMANDRATING,9.0,-1,,,,,,,,,,,,,,,,,,,,,,,,,,,,,,,,,,,,,,,5.0,Effort,2.0,55.0,3.977215399965644,47,26,Female,1.4285714285714286,1.0,0.6,0.5,2.5,2.625,2.6666666666666665,2.5555555555555554,2.25,3.111111111111111,2.0,1.75,1.75,0.25,,,,,,,,,,,,,,,,,,,,,,,,,,,,,,,,,,,,-0.3678842297772615
5,240718_102934,DEMANDRATING,9.0,-1,,,,,,,,,,,,,,,,,,,,,,,,,,,,,,,,,,,,,,,6.0,Frustration,2.0,66.0,7.665937900077552,47,26,Female,1.4285714285714286,1.0,0.6,0.5,2.5,2.625,2.6666666666666665,2.5555555555555554,2.25,3.111111111111111,2.0,1.75,1.75,0.25,,,,,,,,,,,,,,,,,,,,,,,,,,,,,,,,,,,,0.407020849966332
6,240718_102941,DEMANDRATING,9.0,-1,,,,,,,,,,,,,,,,,,,,,,,,,,,,,,,,,,,,,,,7.0,MentalDemand,3.0,83.0,5.587640000041574,47,26,Female,1.4285714285714286,1.0,0.6,0.5,2.5,2.625,2.6666666666666665,2.5555555555555554,2.25,3.111111111111111,2.0,1.75,1.75,0.25,,,,,,,,,,,,,,,,,,,,,,,,,,,,,,,,,,,,1.6046014277518854
7,240718_102948,DEMANDRATING,9.0,-1,,,,,,,,,,,,,,,,,,,,,,,,,,,,,,,,,,,,,,,8.0,Effort,3.0,67.0,5.412299400079064,47,26,Female,1.4285714285714286,1.0,0.6,0.5,2.5,2.625,2.6666666666666665,2.5555555555555554,2.25,3.111111111111111,2.0,1.75,1.75,0.25,,,,,,,,,,,,,,,,,,,,,,,,,,,,,,,,,,,,0.47746676630665863
8,240718_102954,DEMANDRATING,9.0,-1,,,,,,,,,,,,,,,,,,,,,,,,,,,,,,,,,,,,,,,9.0,Frustration,3.0,78.0,3.973415300017223,47,26,Female,1.4285714285714286,1.0,0.6,0.5,2.5,2.625,2.6666666666666665,2.5555555555555554,2.25,3.111111111111111,2.0,1.75,1.75,0.25,,,,,,,,,,,,,,,,,,,,,,,,,,,,,,,,,,,,1.252371846050252
