,END,Phase,Block,TrialN,NbackLevel,ISI,Letter_Resp,Letter_RT,Letter_Accuracy,Trial_A_measure,Trial_ACC,Trial_RT,TrialCountCali,CaliEnd_A_measure,ISI_calibrated,TrialIndex,TrialNumber_total,TrialNumber_valid,CueLearning,TrialDemandLearning,CueMapping,OfflineRatingTimePoint,CueFigure,TrialDemand,OfflineRating,OfflineRatingRT,PhaseType,CueLeft,CueDemandLeft,CueRight,CueDemandRight,Choice,ChoiceDemand,TaskDemand,ChoiceRT,CueCheck,CueDemandCheck,CorrectAnswer,Answer,AnswerDemand,AnswerRT,AnswerACC,DemandRatingQuesIndex,QuesTLX,DemandLevel,DemandRating,DemandRatingRT,PID,Age,Gender,BAI_bis,BAI_bas_d,BAI_bas_rr,BAI_bas_fs,NFC,BFI_ext,BFI_agr,BFI_con,BFI_neu,BFI_open,UPPS_lps,UPPS_lpm,UPPS_pu,UPPS_ss,Task_A_measure,Task_ACC,Task_RT,Task_RT_z,cue_i_on_zyg_values,cue_i_on_zyg_zvalues,cue_e_on_zyg_values,cue_e_on_zyg_zvalues,cue_i_on_cor_values,cue_i_on_cor_zvalues,cue_e_on_cor_values,cue_e_on_cor_zvalues,cue_i_on_scr_values,cue_i_on_scr_zvalues,cue_e_on_scr_values,cue_e_on_scr_zvalues,cue_e_true_zyg_values,cue_e_true_zyg_zvalues,cue_e_true_cor_values,cue_e_true_cor_zvalues,cue_e_true_scr_values,cue_e_true_scr_zvalues,cue_e_false_zyg_values,cue_e_false_zyg_zvalues,cue_e_false_cor_values,cue_e_false_cor_zvalues,cue_e_false_scr_values,cue_e_false_scr_zvalues,OfflineRating_z,cue_i_off_zyg_values,cue_i_off_zyg_zvalues,cue_i_off_cor_values,cue_i_off_cor_zvalues,cue_i_off_scr_values,cue_i_off_scr_zvalues,DemandRating_z
0,240718_093800,PRACTICE,0.0,1,1.0,500.0,,,,,,,,,,16.0,1.0,1.0,cue1.png,Easy,A,,,,,,,,,,,,,,,,,,,,,,,,,,,47,26,Female,1.4285714285714286,1.0,0.6,0.5,2.5,2.625,2.6666666666666665,2.5555555555555554,2.25,3.111111111111111,2.0,1.75,1.75,0.25,,,,,,,,,,,,,,,,,,,,,,,,,,,,,,,,,,,,
0,240718_094111,LEARNING,1.0,1,1.0,500.0,,,,,,,,,,1.0,1.0,1.0,cue1.png,Easy,A,,,,,,,,,,,,,,,,,,,,,,,,,,,47,26,Female,1.4285714285714286,1.0,0.6,0.5,2.5,2.625,2.6666666666666665,2.5555555555555554,2.25,3.111111111111111,2.0,1.75,1.75,0.25,1.0,1.0,0.4410046999983024,0.29342877242480225,0.014503344571343165,-0.38438157526735567,0.021280275276054073,-0.002378115933857325,,,,,,,3.157134662391873e+45,5.450528926751657,,,,,,,,,,,,,,,,,,,,
1,240718_094137,LEARNING,1.0,2,3.0,500.0,,,,,,,,,,2.0,2.0,2.0,cue2.png,Hard,A,,,,,,,,,,,,,,,,,,,,,,,,,,,47,26,Female,1.4285714285714286,1.0,0.6,0.5,2.5,2.625,2.6666666666666665,2.5555555555555554,2.25,3.111111111111111,2.0,1.75,1.75,0.25,0.7818181818181817,0.8181818181818181,0.4060731062418199,-0.4424191280222991,,,0.011781497469922436,-0.8501342621652102,,,,,4.036663769054154e+43,-0.16879567315900182,4.345445095980753e+44,0.6230562564858094,,,,,,,,,,,,,,,,,,,,
2,240718_094202,LEARNING,1.0,3,1.0,500.0,,,,,,,,,,3.0,3.0,3.0,cue1.png,Easy,A,,,,,,,,,,,,,,,,,,,,,,,,,,,47,26,Female,1.4285714285714286,1.0,0.6,0.5,2.5,2.625,2.6666666666666665,2.5555555555555554,2.25,3.111111111111111,2.0,1.75,1.75,0.25,1.0,1.0,0.3972146562518901,-0.6290258964322235,0.011656645429030442,-0.6601107928566885,0.04561597317689816,2.1695578835536224,,,0.0320945597298601,0.6274081783792574,-1.8230142280405217e+44,-0.17001856059699003,-4.773719157555281e+44,-0.9938788582040223,,,,,,,,,,,,,,,,,,,,
3,240718_094228,LEARNING,1.0,4,3.0,500.0,,,,,,,,,,4.0,4.0,4.0,cue2.png,Hard,A,,,,,,,,,,,,,,,,,,,,,,,,,,,47,26,Female,1.4285714285714286,1.0,0.6,0.5,2.5,2.625,2.6666666666666665,2.5555555555555554,2.25,3.111111111111111,2.0,1.75,1.75,0.25,0.0715909090909091,0.6363636363636364,0.4669600374836591,0.8401882683453495,,,0.013374887802355361,-0.7079258143801004,,,0.06285618984597932,3.289129070661989,-2.1344275860112532e+44,-0.17018958803695525,-4.821137441864262e+44,-1.0022866779170851,,,,,,,,,,,,,,,,,,,,
4,240718_094253,LEARNING,1.0,5,3.0,500.0,,,,,,,,,,5.0,5.0,5.0,cue2.png,Hard,A,,,,,,,,,,,,,,,,,,,,,,,,,,,47,26,Female,1.4285714285714286,1.0,0.6,0.5,2.5,2.625,2.6666666666666665,2.5555555555555554,2.25,3.111111111111111,2.0,1.75,1.75,0.25,0.8958333333333333,0.9166666666666666,0.3675192562659504,-1.2545712948163312,0.0100674316174305,-0.8140408918760795,0.030878550921137112,0.8542581100540025,,,0.03194726987270053,0.6146635842682475,1.1079979050713114e+48,5.916079510849386,,,,,,,,,,,,,,,,,,,,,,
5,240718_094318,LEARNING,1.0,6,1.0,500.0,,,,,,,,,,6.0,6.0,6.0,cue1.png,Easy,A,,,,,,,,,,,,,,,,,,,,,,,,,,,47,26,Female,1.4285714285714286,1.0,0.6,0.5,2.5,2.625,2.6666666666666665,2.5555555555555554,2.25,3.111111111111111,2.0,1.75,1.75,0.25,1.0,1.0,0.3834859312628396,-0.9182269426093322,0.007430814217172142,-1.0694217440531848,0.009596771619539493,-1.045118796522576,0.011035876902033313,-0.6776629495031741,0.01059043144370972,-1.2332860473009855,,,-9.278258996602417e+43,-0.3119567342957852,,,,,,,,,,,,,,,,,,,,
6,240718_094344,LEARNING,1.0,7,3.0,500.0,,,,,,,,,,7.0,7.0,7.0,cue2.png,Hard,A,,,,,,,,,,,,,,,,,,,,,,,,,,,47,26,Female,1.4285714285714286,1.0,0.6,0.5,2.5,2.625,2.6666666666666665,2.5555555555555554,2.25,3.111111111111111,2.0,1.75,1.75,0.25,0.7818181818181817,0.8181818181818181,0.4135961437423248,-0.283943354247906,0.007549331106232689,-1.0579422839985344,0.043868133581402353,2.013564997947687,0.015073723810875881,-0.38770873417449003,,,,,,,,,,,,,,,,,,,,,,,,,,
7,240718_094409,LEARNING,1.0,8,3.0,500.0,,,,,,,,,,8.0,8.0,8.0,cue2.png,Hard,A,,,,,,,,,,,,,,,,,,,,,,,,,,,47,26,Female,1.4285714285714286,1.0,0.6,0.5,2.5,2.625,2.6666666666666665,2.5555555555555554,2.25,3.111111111111111,2.0,1.75,1.75,0.25,0.75,0.8333333333333334,0.387551243758935,-0.8325895197717886,0.009096803658160898,-0.9080552131655113,,,0.012769971449091089,-0.5531391537652086,0.016803610863085024,-0.6956763885922137,6.72131892687096e+43,-0.16864823256691455,,,,,,,,,,,,,,,,,,,,,,
8,240718_094436,LEARNING,1.0,9,1.0,500.0,,,,,,,,,,9.0,9.0,9.0,cue1.png,Easy,A,,,,,,,,,,,,,,,,,,,,,,,,,,,47,26,Female,1.4285714285714286,1.0,0.6,0.5,2.5,2.625,2.6666666666666665,2.5555555555555554,2.25,3.111111111111111,2.0,1.75,1.75,0.25,0.8125,0.8541666666666666,0.4720888666653385,0.9482290926890781,0.011866538957063693,-0.6397806577182575,0.017727236847013845,-0.3194831401266194,0.012064962293379925,-0.6037652377051678,0.01707637648367549,-0.672074715069663,,,,,,,,,,,,,,,,,,,,,,,,
9,240718_094501,LEARNING,1.0,10,1.0,500.0,,,,,,,,,,10.0,10.0,10.0,cue1.png,Easy,A,,,,,,,,,,,,,,,,,,,,,,,,,,,47,26,Female,1.4285714285714286,1.0,0.6,0.5,2.5,2.625,2.6666666666666665,2.5555555555555554,2.25,3.111111111111111,2.0,1.75,1.75,0.25,0.7818181818181817,0.8181818181818181,0.4162974125065375,-0.22704005454316817,0.029108968589930558,1.030308591034265,0.00771482336663284,-1.2130807418226428,0.03270588527585311,0.8784411862026583,0.015499792545590644,-0.8084922713108998,9.721611706688604e+43,-0.16848345723530317,2.3345468471157992e+44,0.26650033751579616,,,,,,,,,,,,,,,,,,,,
10,240718_094529,LEARNING,1.0,11,3.0,500.0,,,,,,,,,,11.0,11.0,11.0,cue2.png,Hard,A,,,,,,,,,,,,,,,,,,,,,,,,,,,47,26,Female,1.4285714285714286,1.0,0.6,0.5,2.5,2.625,2.6666666666666665,2.5555555555555554,2.25,3.111111111111111,2.0,1.75,1.75,0.25,0.6113636363636364,0.7272727272727273,0.5204626375052612,1.96724179383904,0.03916369850006575,2.0042024493579413,0.014101724530253594,-0.6430563842325022,,,0.02051942427505872,-0.374157075306793,8.538077272369625e+43,-0.1685484566514269,,,,,,,,,,,,,,,,,,,,,,
11,240718_094554,LEARNING,1.0,12,1.0,500.0,,,,,,,,,,12.0,12.0,12.0,cue1.png,Easy,A,,,,,,,,,,,,,,,,,,,,,,,,,,,47,26,Female,1.4285714285714286,1.0,0.6,0.5,2.5,2.625,2.6666666666666665,2.5555555555555554,2.25,3.111111111111111,2.0,1.75,1.75,0.25,0.8958333333333333,0.9166666666666666,0.4006821687362389,-0.5559813683419854,0.01602751386759062,-0.2367516409053536,0.013795245291143027,-0.6704093409971685,0.013599184413465588,-0.49359410417478233,0.03329194690254757,0.7310148611741178,3.274352424426684e+43,-0.16883753910803417,5.803768299424004e+43,-0.04453464541083592,,,,,,,,,,,,,,,,,,,,
12,240718_094620,LEARNING,1.0,13,1.0,500.0,,,,,,,,,,13.0,13.0,13.0,cue1.png,Easy,A,,,,,,,,,,,,,,,,,,,,,,,,,,,47,26,Female,1.4285714285714286,1.0,0.6,0.5,2.5,2.625,2.6666666666666665,2.5555555555555554,2.25,3.111111111111111,2.0,1.75,1.75,0.25,0.8958333333333333,0.9166666666666666,0.4548256937487167,0.5845734967174787,,,,,0.013915199603963903,-0.470901332838598,0.012626985826132623,-1.0570684890148105,,,-6.896288095711969e+43,-0.2697215876887297,,,,,,,,,,,,,,,,,,,,
13,240718_094645,LEARNING,1.0,14,1.0,500.0,,,,,,,,,,14.0,14.0,14.0,cue1.png,Easy,A,,,,,,,,,,,,,,,,,,,,,,,,,,,47,26,Female,1.4285714285714286,1.0,0.6,0.5,2.5,2.625,2.6666666666666665,2.5555555555555554,2.25,3.111111111111111,2.0,1.75,1.75,0.25,0.9090909090909092,0.9090909090909092,0.3659930375069962,-1.2867216993248862,,,0.025043889806358275,0.33352060864220384,,,,,,,,,,,,,,,,,,,,,,,,,,,,
14,240718_094711,LEARNING,1.0,15,3.0,500.0,,,,,,,,,,15.0,15.0,15.0,cue2.png,Hard,A,,,,,,,,,,,,,,,,,,,,,,,,,,,47,26,Female,1.4285714285714286,1.0,0.6,0.5,2.5,2.625,2.6666666666666665,2.5555555555555554,2.25,3.111111111111111,2.0,1.75,1.75,0.25,0.5,0.75,0.428335456228524,0.026546119052769983,0.01198907785720842,-0.6279116285823886,0.014505197337666656,-0.6070468512901857,0.01921108395008277,-0.09060856178588858,0.030329307386277864,0.4746656538339865,,,,,,,,,,,,,,,,,,,,,,,,
15,240718_094737,LEARNING,1.0,16,1.0,500.0,,,,,,,,,,16.0,16.0,16.0,cue1.png,Easy,A,,,,,,,,,,,,,,,,,,,,,,,,,,,47,26,Female,1.4285714285714286,1.0,0.6,0.5,2.5,2.625,2.6666666666666665,2.5555555555555554,2.25,3.111111111111111,2.0,1.75,1.75,0.25,1.0,1.0,0.4603086312490632,0.7000737534775622,0.011113000619663384,-0.7127678354310926,,,0.015573299417101906,-0.3518346517313445,0.014102711920496941,-0.9293778899851437,,,,,,,,,,,,,,,,,,,,,,,,
16,240718_094802,LEARNING,1.0,17,1.0,500.0,,,,,,,,,,17.0,17.0,17.0,cue1.png,Easy,A,,,,,,,,,,,,,,,,,,,,,,,,,,,47,26,Female,1.4285714285714286,1.0,0.6,0.5,2.5,2.625,2.6666666666666665,2.5555555555555554,2.25,3.111111111111111,2.0,1.75,1.75,0.25,0.8958333333333333,0.9166666666666666,0.3685805375062045,-1.232214983854139,,,0.010176882712829427,-0.9933444783028078,0.018540525523242514,-0.1387607693549061,0.014877979803490607,-0.8622960509054021,,,,,,,,,,,,,,,,,,,,,,,,
17,240718_094828,LEARNING,1.0,18,3.0,500.0,,,,,,,,,,18.0,18.0,18.0,cue2.png,Hard,A,,,,,,,,,,,,,,,,,,,,,,,,,,,47,26,Female,1.4285714285714286,1.0,0.6,0.5,2.5,2.625,2.6666666666666665,2.5555555555555554,2.25,3.111111111111111,2.0,1.75,1.75,0.25,0.8958333333333333,0.9166666666666666,0.4711094125086674,0.9275965017516299,,,0.015620588660520563,-0.5074993233132569,0.032483949490654425,0.8625041737543371,0.01629421924702865,-0.739752671340976,,,,,,,,,,,,,,,,,,,,,,,,
18,240718_094857,LEARNING,1.0,19,3.0,500.0,,,,,,,,,,19.0,19.0,19.0,cue2.png,Hard,A,,,,,,,,,,,,,,,,,,,,,,,,,,,47,26,Female,1.4285714285714286,1.0,0.6,0.5,2.5,2.625,2.6666666666666665,2.5555555555555554,2.25,3.111111111111111,2.0,1.75,1.75,0.25,0.8958333333333333,0.9166666666666666,0.5633896749932319,2.8715168929983874,0.010631063623672195,-0.7594479038854097,0.04914427134497418,2.484454864909732,0.01791956886962004,-0.18335111745848004,0.022681909563126025,-0.18704305538082514,,,,,,,,,,,,,,,,,,,,,,,,
19,240718_094923,LEARNING,1.0,20,3.0,500.0,,,,,,,,,,20.0,20.0,20.0,cue2.png,Hard,A,,,,,,,,,,,,,,,,,,,,,,,,,,,47,26,Female,1.4285714285714286,1.0,0.6,0.5,2.5,2.625,2.6666666666666665,2.5555555555555554,2.25,3.111111111111111,2.0,1.75,1.75,0.25,0.75,0.8333333333333334,0.4802656374886282,1.120476018629532,0.03427945634795802,1.5311182912535521,0.018145980083571,-0.2821107370944121,0.049864451472872065,2.1105826492498627,0.02446653189675968,-0.032624497835724325,2.9727135913165024e+43,-0.16885410503756176,6.640521981077738e+43,-0.029698018143295576,,,,,,,,,,,,,,,,,,,,
20,240718_094950,LEARNING,1.0,21,1.0,500.0,,,,,,,,,,21.0,21.0,21.0,cue1.png,Easy,A,,,,,,,,,,,,,,,,,,,,,,,,,,,47,26,Female,1.4285714285714286,1.0,0.6,0.5,2.5,2.625,2.6666666666666665,2.5555555555555554,2.25,3.111111111111111,2.0,1.75,1.75,0.25,0.75,0.7708333333333334,0.4489793999974305,0.4614189961736088,0.013280011042512686,-0.50287277503678,0.019636381603883094,-0.1490939348294386,0.01457649325970161,-0.4234144202884075,0.03279357855420466,0.687892392051727,1.801468621622837e+43,-0.16891842951935157,3.6833314514858726e+43,-0.08213248554825767,,,,,,,,,,,,,,,,,,,,
21,240718_095016,LEARNING,1.0,22,3.0,500.0,,,,,,,,,,22.0,22.0,22.0,cue2.png,Hard,A,,,,,,,,,,,,,,,,,,,,,,,,,,,47,26,Female,1.4285714285714286,1.0,0.6,0.5,2.5,2.625,2.6666666666666665,2.5555555555555554,2.25,3.111111111111111,2.0,1.75,1.75,0.25,0.5,0.75,0.4284167062360211,0.0282576827404987,,,,,0.015253146153594799,-0.3748245744304519,0.02373951395873672,-0.09553139930340752,1.527687339034678e+42,-0.16900897570622841,-4.0344903086703613e+42,-0.1545959118472536,,,,,,,,,,,,,,,,,,,,
22,240718_095041,LEARNING,1.0,23,3.0,500.0,,,,,,,,,,23.0,23.0,23.0,cue2.png,Hard,A,,,,,,,,,,,,,,,,,,,,,,,,,,,47,26,Female,1.4285714285714286,1.0,0.6,0.5,2.5,2.625,2.6666666666666665,2.5555555555555554,2.25,3.111111111111111,2.0,1.75,1.75,0.25,0.75,0.8333333333333334,0.4083829937517294,-0.39376042993124993,0.03999016721825015,2.084253610943604,0.01241633594499237,-0.7934755814286985,0.015092799070831886,-0.3863389566277926,0.01598299415806932,-0.7666821389393632,,,-3.69924730549488e+43,-0.21303429296439952,,,,,,,,,,,,,,,,,,,,
23,240718_095107,LEARNING,1.0,24,3.0,500.0,,,,,,,,,,24.0,24.0,24.0,cue2.png,Hard,A,,,,,,,,,,,,,,,,,,,,,,,,,,,47,26,Female,1.4285714285714286,1.0,0.6,0.5,2.5,2.625,2.6666666666666665,2.5555555555555554,2.25,3.111111111111111,2.0,1.75,1.75,0.25,0.0715909090909091,0.6363636363636364,0.4588773249924998,0.6699227185396408,0.018329312349615563,-0.013801106701226917,0.04131737170635537,1.7859121249909358,0.020406905560429595,-0.004737669568088605,0.05301335490692235,2.4374551087268554,-2.3872425499068265e+43,-0.16914847249280932,-5.950480779850919e+43,-0.2529513111784315,,,,,,,,,,,,,,,,,,,,
24,240718_095134,LEARNING,1.0,25,1.0,500.0,,,,,,,,,,25.0,25.0,25.0,cue1.png,Easy,A,,,,,,,,,,,,,,,,,,,,,,,,,,,47,26,Female,1.4285714285714286,1.0,0.6,0.5,2.5,2.625,2.6666666666666665,2.5555555555555554,2.25,3.111111111111111,2.0,1.75,1.75,0.25,0.8958333333333333,0.9166666666666666,0.4815488312669913,1.1475070053705823,0.008445188666115636,-0.9711701694513912,0.030886001242027422,0.8549230435280838,0.01928559491972886,-0.08525799495538335,0.034943896732763574,0.8739536248056587,-2.5997409843888136e+43,-0.1691601428538635,-6.219339319146373e+43,-0.2577184894086346,,,,,,,,,,,,,,,,,,,,
25,240718_095159,LEARNING,1.0,26,1.0,500.0,,,,,,,,,,26.0,26.0,26.0,cue1.png,Easy,A,,,,,,,,,,,,,,,,,,,,,,,,,,,47,26,Female,1.4285714285714286,1.0,0.6,0.5,2.5,2.625,2.6666666666666665,2.5555555555555554,2.25,3.111111111111111,2.0,1.75,1.75,0.25,0.75,0.8333333333333334,0.3951986687679891,-0.6714934737119149,0.036066507697997664,1.7042107909892552,,,,,0.018549119773162568,-0.5446422101016367,-2.048837449892404e+43,-0.16912988736906776,-4.642653766227386e+43,-0.22976199948851597,,,,,,,,,,,,,,,,,,,,
26,240718_095226,LEARNING,1.0,27,3.0,500.0,,,,,,,,,,27.0,27.0,27.0,cue2.png,Hard,A,,,,,,,,,,,,,,,,,,,,,,,,,,,47,26,Female,1.4285714285714286,1.0,0.6,0.5,2.5,2.625,2.6666666666666665,2.5555555555555554,2.25,3.111111111111111,2.0,1.75,1.75,0.25,0.75,0.8333333333333334,0.4606765562566579,0.7078242399354066,0.014020694127587201,-0.4311307477555513,0.011802590474979406,-0.8482517331657432,0.016724816884405545,-0.26914520084153654,0.01615635164197917,-0.7516819833879631,-3.755835020553641e+41,-0.16901942842224654,5.756070998329809e+43,-0.045380374678024325,,,,,,,,,,,,,,,,,,,,
27,240718_095251,LEARNING,1.0,28,1.0,500.0,,,,,,,,,,28.0,28.0,28.0,cue1.png,Easy,A,,,,,,,,,,,,,,,,,,,,,,,,,,,47,26,Female,1.4285714285714286,1.0,0.6,0.5,2.5,2.625,2.6666666666666665,2.5555555555555554,2.25,3.111111111111111,2.0,1.75,1.75,0.25,0.8958333333333333,0.9166666666666666,0.4068114437250187,-0.4268657556047465,0.012525309320144451,-0.5759726373751848,0.02065832112161868,-0.057886884309970764,0.01635733196728966,-0.29553396772472823,0.017535700576222023,-0.6323306401020861,4.9872182218299683e+42,-0.16898997604885274,1.0215219683359541e+43,-0.12932949946595954,,,,,,,,,,,,,,,,,,,,
28,240718_095317,LEARNING,1.0,29,1.0,500.0,,,,,,,,,,29.0,29.0,29.0,cue1.png,Easy,A,,,,,,,,,,,,,,,,,,,,,,,,,,,47,26,Female,1.4285714285714286,1.0,0.6,0.5,2.5,2.625,2.6666666666666665,2.5555555555555554,2.25,3.111111111111111,2.0,1.75,1.75,0.25,0.8958333333333333,0.9166666666666666,0.4583870874921558,0.6595956708285234,,,,,,,0.019906598388135244,-0.42718324655969975,1.317388287905008e+43,-0.16894501509061696,3.5577570094872413e+43,-0.08435906815089515,,,,,,,,,,,,,,,,,,,,
29,240718_095343,LEARNING,1.0,30,3.0,500.0,,,,,,,,,,30.0,30.0,30.0,cue2.png,Hard,A,,,,,,,,,,,,,,,,,,,,,,,,,,,47,26,Female,1.4285714285714286,1.0,0.6,0.5,2.5,2.625,2.6666666666666665,2.5555555555555554,2.25,3.111111111111111,2.0,1.75,1.75,0.25,0.6113636363636364,0.7272727272727273,0.4250200687529286,-0.04329383529035972,0.038338985653588016,1.924321360234335,,,0.013327648771025036,-0.5130928385040114,,,2.079018882518925e+43,-0.16890318652820563,5.034147298166344e+43,-0.058180931269254575,,,,,,,,,,,,,,,,,,,,
30,240718_095409,LEARNING,1.0,31,3.0,500.0,,,,,,,,,,31.0,31.0,31.0,cue2.png,Hard,A,,,,,,,,,,,,,,,,,,,,,,,,,,,47,26,Female,1.4285714285714286,1.0,0.6,0.5,2.5,2.625,2.6666666666666665,2.5555555555555554,2.25,3.111111111111111,2.0,1.75,1.75,0.25,0.75,0.8333333333333334,0.4434218499955022,0.344346997424918,0.03140500749135,1.252701256431537,,,,,0.020123902135369433,-0.4083805393624149,2.2125933411025447e+43,-0.16889585065223514,,,,,,,,,,,,,,,,,,,,,,
31,240718_095434,LEARNING,1.0,32,1.0,500.0,,,,,,,,,,32.0,32.0,32.0,cue1.png,Easy,A,,,,,,,,,,,,,,,,,,,,,,,,,,,47,26,Female,1.4285714285714286,1.0,0.6,0.5,2.5,2.625,2.6666666666666665,2.5555555555555554,2.25,3.111111111111111,2.0,1.75,1.75,0.25,0.9090909090909092,0.9090909090909092,0.3905046437430428,-0.7703749757507935,,,0.02124577319445835,-0.0054573912182700164,0.08997175606624973,4.990652719973478,0.022813153891472756,-0.17568683760447737,1.7964136494146343e+43,-0.16891870713716522,4.1784005565185e+43,-0.07335432783698578,,,,,,,,,,,,,,,,,,,,
32,240718_095500,LEARNING,1.0,33,1.0,500.0,,,,,,,,,,33.0,33.0,33.0,cue1.png,Easy,A,,,,,,,,,,,,,,,,,,,,,,,,,,,47,26,Female,1.4285714285714286,1.0,0.6,0.5,2.5,2.625,2.6666666666666665,2.5555555555555554,2.25,3.111111111111111,2.0,1.75,1.75,0.25,0.8958333333333333,0.9166666666666666,0.4271321375126717,0.0011977322370588137,0.009978551684761458,-0.8226497377951877,0.01236466704483795,-0.7980869776071254,0.02035800232891526,-0.008249367371619375,0.014624147558332058,-0.8842594705136337,8.823180411627876e+42,-0.168968909040122,2.0470695048026968e+43,-0.11114533502508187,,,,,,,,,,,,,,,,,,,,
33,240718_095525,LEARNING,1.0,34,1.0,500.0,,,,,,,,,,34.0,34.0,34.0,cue1.png,Easy,A,,,,,,,,,,,,,,,,,,,,,,,,,,,47,26,Female,1.4285714285714286,1.0,0.6,0.5,2.5,2.625,2.6666666666666665,2.5555555555555554,2.25,3.111111111111111,2.0,1.75,1.75,0.25,0.9090909090909092,0.9090909090909092,0.3992727937657037,-0.5856704120266465,0.012796581630034973,-0.5496973978713019,0.013421864592379054,-0.7037331842032899,0.01848840005379372,-0.1425038532146645,0.020180093470010575,-0.4035184547194686,-2.348018428756691e+42,-0.16903026098569884,-5.75686163684784e+42,-0.15764987885962017,,,,,,,,,,,,,,,,,,,,
34,240718_095551,LEARNING,1.0,35,3.0,500.0,,,,,,,,,,35.0,35.0,35.0,cue2.png,Hard,A,,,,,,,,,,,,,,,,,,,,,,,,,,,47,26,Female,1.4285714285714286,1.0,0.6,0.5,2.5,2.625,2.6666666666666665,2.5555555555555554,2.25,3.111111111111111,2.0,1.75,1.75,0.25,0.75,0.8333333333333334,0.4163140437594848,-0.22668971059240647,,,,,0.01196734819182916,-0.6107748200046313,0.029277089717537005,0.3836200967050426,-1.2796779136472719e+43,-0.1690876453190587,-2.870547071137521e+43,-0.19834046279279657,,,,,,,,,,,,,,,,,,,,
35,240718_095618,LEARNING,1.0,36,3.0,500.0,,,,,,,,,,36.0,36.0,36.0,cue2.png,Hard,A,,,,,,,,,,,,,,,,,,,,,,,,,,,47,26,Female,1.4285714285714286,1.0,0.6,0.5,2.5,2.625,2.6666666666666665,2.5555555555555554,2.25,3.111111111111111,2.0,1.75,1.75,0.25,0.75,0.8333333333333334,0.5121140812407248,1.7913761393301157,,,0.045730960600027806,2.179820392761337,0.017963931797381594,-0.18016545485185295,0.05106092185244134,2.268516342078975,-1.8822776169868206e+43,-0.16912073994456148,-4.565744781791868e+43,-0.22839831270635605,,,,,,,,,,,,,,,,,,,,
36,240718_095643,LEARNING,1.0,37,1.0,500.0,,,,,,,,,,37.0,37.0,37.0,cue1.png,Easy,A,,,,,,,,,,,,,,,,,,,,,,,,,,,47,26,Female,1.4285714285714286,1.0,0.6,0.5,2.5,2.625,2.6666666666666665,2.5555555555555554,2.25,3.111111111111111,2.0,1.75,1.75,0.25,1.0,1.0,0.3741106250090524,-1.1157214935591475,0.016448805035569527,-0.19594568343780508,,,0.01537847350030501,-0.3658249285065302,,,-2.0065685354163785e+43,-0.1691275659708207,-4.588510847772363e+43,-0.22880198184185752,,,,,,,,,,,,,,,,,,,,
37,240718_095708,LEARNING,1.0,38,3.0,500.0,,,,,,,,,,38.0,38.0,38.0,cue2.png,Hard,A,,,,,,,,,,,,,,,,,,,,,,,,,,,47,26,Female,1.4285714285714286,1.0,0.6,0.5,2.5,2.625,2.6666666666666665,2.5555555555555554,2.25,3.111111111111111,2.0,1.75,1.75,0.25,0.5,0.75,0.4146479187402292,-0.2617872960575435,0.016859988193982555,-0.1561187804574549,0.012221473268454602,-0.8108668748221861,0.015869014797939604,-0.33059959177311643,0.017659739993798666,-0.6215978438236038,-1.3920739851319625e+43,-0.1690938180832887,-3.277658862270419e+43,-0.2055590338414736,,,,,,,,,,,,,,,,,,,,
38,240718_095735,LEARNING,1.0,39,3.0,500.0,,,,,,,,,,39.0,39.0,39.0,cue2.png,Hard,A,,,,,,,,,,,,,,,,,,,,,,,,,,,47,26,Female,1.4285714285714286,1.0,0.6,0.5,2.5,2.625,2.6666666666666665,2.5555555555555554,2.25,3.111111111111111,2.0,1.75,1.75,0.25,0.8958333333333333,0.9166666666666666,0.4534266000191564,0.5551010314585876,,,0.017845229279139434,-0.3089524369577671,,,,,-2.907713735957646e+42,-0.169033334818375,-5.833273357174612e+42,-0.15778536583006517,,,,,,,,,,,,,,,,,,,,
39,240718_095800,LEARNING,1.0,40,3.0,500.0,,,,,,,,,,40.0,40.0,40.0,cue2.png,Hard,A,,,,,,,,,,,,,,,,,,,,,,,,,,,47,26,Female,1.4285714285714286,1.0,0.6,0.5,2.5,2.625,2.6666666666666665,2.5555555555555554,2.25,3.111111111111111,2.0,1.75,1.75,0.25,0.8958333333333333,0.9166666666666666,0.4145789750109543,-0.2632396231053616,0.011128377832311529,-0.7112784097488503,0.015420010734311648,-0.5254006968596706,0.016975269907255175,-0.251160390779018,0.014049774037520064,-0.933958462229881,9.032980145570362e+42,-0.16896775682521264,1.9175269357614522e+43,-0.11344227718892873,,,,,,,,,,,,,,,,,,,,
40,240718_095825,LEARNING,1.0,41,1.0,500.0,,,,,,,,,,41.0,41.0,41.0,cue1.png,Easy,A,,,,,,,,,,,,,,,,,,,,,,,,,,,47,26,Female,1.4285714285714286,1.0,0.6,0.5,2.5,2.625,2.6666666666666665,2.5555555555555554,2.25,3.111111111111111,2.0,1.75,1.75,0.25,0.75,0.8333333333333334,0.4019584124980611,-0.5290967864605396,0.010045127054248378,-0.8162012957148506,,,0.013549998795447096,-0.4971260799034254,0.04544080438528624,1.7822227346549926,1.741533560638861e+43,-0.16892172113796133,,,,,,,,,,,,,,,,,,,,,,
41,240718_095853,LEARNING,1.0,42,3.0,500.0,,,,,,,,,,42.0,42.0,42.0,cue2.png,Hard,A,,,,,,,,,,,,,,,,,,,,,,,,,,,47,26,Female,1.4285714285714286,1.0,0.6,0.5,2.5,2.625,2.6666666666666665,2.5555555555555554,2.25,3.111111111111111,2.0,1.75,1.75,0.25,0.8958333333333333,0.9166666666666666,0.5064465562390978,1.671987473520824,0.022823495884440048,0.42150225618006476,0.015643781249947898,-0.5054294085689252,,,0.0163499184300735,-0.7349331712483632,,,4.894325118391552e+43,-0.060660143025997204,,,,,,,,,,,,,,,,,,,,
42,240718_095918,LEARNING,1.0,43,3.0,500.0,,,,,,,,,,43.0,43.0,43.0,cue2.png,Hard,A,,,,,,,,,,,,,,,,,,,,,,,,,,,47,26,Female,1.4285714285714286,1.0,0.6,0.5,2.5,2.625,2.6666666666666665,2.5555555555555554,2.25,3.111111111111111,2.0,1.75,1.75,0.25,0.6113636363636364,0.7272727272727273,0.4104522062625619,-0.35017164631348474,0.021834869090568584,0.3257445808043071,,,0.017233691962068032,-0.23260333157927562,,,1.5982432555567957e+43,-0.16892959060579973,,,,,,,,,,,,,,,,,,,,,,
43,240718_095943,LEARNING,1.0,44,1.0,500.0,,,,,,,,,,44.0,44.0,44.0,cue1.png,Easy,A,,,,,,,,,,,,,,,,,,,,,,,,,,,47,26,Female,1.4285714285714286,1.0,0.6,0.5,2.5,2.625,2.6666666666666665,2.5555555555555554,2.25,3.111111111111111,2.0,1.75,1.75,0.25,1.0,1.0,0.3982527749903966,-0.6071575127715723,,,0.03526886686490817,1.2460892909904435,0.022971614341295344,0.17943179967899534,0.03794040262146468,1.133233198017372,3.532546331626366e+42,-0.16899796507061443,5.1499411481243016e+42,-0.13831083426989257,,,,,,,,,,,,,,,,,,,,
44,240718_100007,LEARNING,1.0,45,1.0,500.0,,,,,,,,,,45.0,45.0,45.0,cue1.png,Easy,A,,,,,,,,,,,,,,,,,,,,,,,,,,,47,26,Female,1.4285714285714286,1.0,0.6,0.5,2.5,2.625,2.6666666666666665,2.5555555555555554,2.25,3.111111111111111,2.0,1.75,1.75,0.25,1.0,1.0,0.3233623625201289,-2.1847538046566846,0.026064349232247836,0.7354089647010192,,,0.009792037450133401,-0.7669819604544535,,,-1.137057294851875e+43,-0.16907981263022423,-2.884587056745786e+43,-0.19858940825653185,,,,,,,,,,,,,,,,,,,,
45,240718_100033,LEARNING,1.0,46,1.0,500.0,,,,,,,,,,46.0,46.0,46.0,cue1.png,Easy,A,,,,,,,,,,,,,,,,,,,,,,,,,,,47,26,Female,1.4285714285714286,1.0,0.6,0.5,2.5,2.625,2.6666666666666665,2.5555555555555554,2.25,3.111111111111111,2.0,1.75,1.75,0.25,1.0,1.0,0.3967080999937025,-0.6396967052605935,0.012455638090995685,-0.5827209421806127,0.02024883801523691,-0.09443283025145452,0.021764720253527964,0.09276580265046294,0.02563114080630218,0.06814597024956559,-2.1508967520102018e+43,-0.16913549244050063,,,,,,,,,,,,,,,,,,,,,,
46,240718_100058,LEARNING,1.0,47,3.0,500.0,,,,,,,,,,47.0,47.0,47.0,cue2.png,Hard,A,,,,,,,,,,,,,,,,,,,,,,,,,,,47,26,Female,1.4285714285714286,1.0,0.6,0.5,2.5,2.625,2.6666666666666665,2.5555555555555554,2.25,3.111111111111111,2.0,1.75,1.75,0.25,0.75,0.8333333333333334,0.4181390437588561,-0.18824536055171817,0.014675894300366896,-0.36766853345981426,0.023442708772335234,0.19061684875576115,0.014851343036311996,-0.4036777009155642,0.02415636202588283,-0.059462660259273374,-1.6507204446678199e+43,-0.1691080228823759,,,,,,,,,,,,,,,,,,,,,,
47,240718_100126,LEARNING,1.0,48,3.0,500.0,,,,,,,,,,48.0,48.0,48.0,cue2.png,Hard,A,,,,,,,,,,,,,,,,,,,,,,,,,,,47,26,Female,1.4285714285714286,1.0,0.6,0.5,2.5,2.625,2.6666666666666665,2.5555555555555554,2.25,3.111111111111111,2.0,1.75,1.75,0.25,0.5,0.6875,0.5052179999727134,1.6461074476765314,0.041848187475794274,2.2642201076706026,0.02235753518953398,0.09376622298853796,0.04161311963076505,1.5180618073984,0.021123905384696134,-0.3218529551272499,8.709648858397227e+42,-0.16896953255258243,1.565982189974475e+43,-0.1196755791455994,,,,,,,,,,,,,,,,,,,,
48,240718_100151,LEARNING,1.0,49,1.0,500.0,,,,,,,,,,49.0,49.0,49.0,cue1.png,Easy,A,,,,,,,,,,,,,,,,,,,,,,,,,,,47,26,Female,1.4285714285714286,1.0,0.6,0.5,2.5,2.625,2.6666666666666665,2.5555555555555554,2.25,3.111111111111111,2.0,1.75,1.75,0.25,1.0,1.0,0.3648794749897206,-1.3101793361583547,0.011772272928876455,-0.6489111969491103,0.0221502779379028,0.07526872652031538,0.018055792682922674,-0.1735690059057246,0.026839166211277105,0.1726731505937946,,,,,,,,,,,,,,,,,,,,,,,,
49,240718_100215,LEARNING,1.0,50,1.0,500.0,,,,,,,,,,50.0,50.0,50.0,cue1.png,Easy,A,,,,,,,,,,,,,,,,,,,,,,,,,,,47,26,Female,1.4285714285714286,1.0,0.6,0.5,2.5,2.625,2.6666666666666665,2.5555555555555554,2.25,3.111111111111111,2.0,1.75,1.75,0.25,0.8958333333333333,0.9166666666666666,0.3447800625071977,-1.733581445394783,0.017839534052282575,-0.061240677925513624,0.01190516351095492,-0.8390971952387987,0.015382560868438259,-0.3655314182158749,0.02263568432146896,-0.19104280087561798,-1.3891651239851778e+43,-0.16909365832935955,-2.3354010650384957e+43,-0.18885169447269526,,,,,,,,,,,,,,,,,,,,
0,240718_100341,TrueCHOICE,9.0,1,1.0,500.0,,,,,,,,,,,2.0,1.0,,,A,,,,,,True,cue1.png,Easy,cue2.png,Hard,Left,Easy,Easy,0.0175005999626591,,,,,,,,,,,,,47,26,Female,1.4285714285714286,1.0,0.6,0.5,2.5,2.625,2.6666666666666665,2.5555555555555554,2.25,3.111111111111111,2.0,1.75,1.75,0.25,1.0,1.0,0.4108287187555106,1.0009918851871547,,,,,,,,,,,,,0.009880285280546687,-1.6244385208599093,,,25649067.497306235,-0.4677744489354897,,,,,,,,,,,,,,
1,240718_100404,TrueCHOICE,9.0,2,1.0,500.0,,,,,,,,,,,3.0,2.0,,,A,,,,,,True,cue1.png,Easy,cue2.png,Hard,Left,Easy,Easy,0.016424199915491,,,,,,,,,,,,,47,26,Female,1.4285714285714286,1.0,0.6,0.5,2.5,2.625,2.6666666666666665,2.5555555555555554,2.25,3.111111111111111,2.0,1.75,1.75,0.25,1.0,1.0,0.3713560312316986,-0.09383071967687986,,,,,,,,,,,,,0.011393396156639498,-0.6277432558018191,0.014477312602872926,-1.850670087902205,7784230.9973654365,-0.47058771032146446,,,,,,,,,,,,,,
2,240718_100433,TrueCHOICE,9.0,3,1.0,500.0,,,,,,,,,,,5.0,3.0,,,A,,,,,,True,cue2.png,Hard,cue1.png,Easy,Right,Easy,Easy,0.0166645999997854,,,,,,,,,,,,,47,26,Female,1.4285714285714286,1.0,0.6,0.5,2.5,2.625,2.6666666666666665,2.5555555555555554,2.25,3.111111111111111,2.0,1.75,1.75,0.25,0.8958333333333333,0.9166666666666666,0.4107801562640816,0.9996449459058377,,,,,,,,,,,,,0.01259949176551503,0.16671920003467086,0.018273604838369484,-0.17237401173399947,5241226.783395069,-0.47098816937741816,,,,,,,,,,,,,,
3,240718_100456,TrueCHOICE,9.0,4,1.0,500.0,,,,,,,,,,,6.0,4.0,,,A,,,,,,True,cue1.png,Easy,cue2.png,Hard,Left,Easy,Easy,0.0163550999714061,,,,,,,,,,,,,47,26,Female,1.4285714285714286,1.0,0.6,0.5,2.5,2.625,2.6666666666666665,2.5555555555555554,2.25,3.111111111111111,2.0,1.75,1.75,0.25,0.75,0.8333333333333334,0.3880897999988519,0.3703005432323236,,,,,,,,,,,,,0.012174359884003092,-0.11331773580597516,,,48389.29086067703,-0.4718059103738968,,,,,,,,,,,,,,
4,240718_100525,TrueCHOICE,9.0,5,1.0,500.0,,,,,,,,,,,8.0,5.0,,,A,,,,,,True,cue2.png,Hard,cue1.png,Easy,Right,Easy,Easy,0.0167496000649407,,,,,,,,,,,,,47,26,Female,1.4285714285714286,1.0,0.6,0.5,2.5,2.625,2.6666666666666665,2.5555555555555554,2.25,3.111111111111111,2.0,1.75,1.75,0.25,1.0,1.0,0.4401476437415113,1.814187637455674,,,,,,,,,,,,,,,0.01968819473750989,0.45299951850055736,18404432244.668884,2.4264205823882623,,,,,,,,,,,,,,
5,240718_100547,TrueCHOICE,9.0,6,1.0,500.0,,,,,,,,,,,9.0,6.0,,,A,,,,,,True,cue2.png,Hard,cue1.png,Easy,Right,Easy,Easy,0.0156511000823229,,,,,,,,,,,,,47,26,Female,1.4285714285714286,1.0,0.6,0.5,2.5,2.625,2.6666666666666665,2.5555555555555554,2.25,3.111111111111111,2.0,1.75,1.75,0.25,1.0,1.0,0.3334211999899708,-1.1459990254222578,,,,,,,,,,,,,0.013249401888669108,0.5948189200853625,,,,,,,,,,,,,,,,,,
6,240718_100610,TrueCHOICE,9.0,7,1.0,500.0,,,,,,,,,,,10.0,7.0,,,A,,,,,,True,cue1.png,Easy,cue2.png,Hard,Left,Easy,Easy,0.0138373000081628,,,,,,,,,,,,,47,26,Female,1.4285714285714286,1.0,0.6,0.5,2.5,2.625,2.6666666666666665,2.5555555555555554,2.25,3.111111111111111,2.0,1.75,1.75,0.25,0.9090909090909092,0.9090909090909092,0.3665957499906653,-0.22586286228306818,,,,,,,,,,,,,,,0.01889405606472012,0.10192016638577919,,,,,,,,,,,,,,,,
7,240718_100633,TrueCHOICE,9.0,8,1.0,500.0,,,,,,,,,,,11.0,8.0,,,A,,,,,,True,cue2.png,Hard,cue1.png,Easy,Right,Easy,Easy,0.0155779999913647,,,,,,,,,,,,,47,26,Female,1.4285714285714286,1.0,0.6,0.5,2.5,2.625,2.6666666666666665,2.5555555555555554,2.25,3.111111111111111,2.0,1.75,1.75,0.25,1.0,1.0,0.3634277125020162,-0.3137322036735512,,,,,,,,,,,,,,,0.01853425279221707,-0.05714462182733472,,,,,,,,,,,,,,,,
8,240718_100654,TrueCHOICE,9.0,9,1.0,500.0,,,,,,,,,,,12.0,9.0,,,A,,,,,,True,cue1.png,Easy,cue2.png,Hard,Left,Easy,Easy,0.0155842000385746,,,,,,,,,,,,,47,26,Female,1.4285714285714286,1.0,0.6,0.5,2.5,2.625,2.6666666666666665,2.5555555555555554,2.25,3.111111111111111,2.0,1.75,1.75,0.25,0.8958333333333333,0.9166666666666666,0.3198266437611892,-1.5230604417088143,,,,,,,,,,,,,0.014781409217126014,1.6039613923476748,,,2527967038.747144,-0.07372245053229845,,,,,,,,,,,,,,
9,240718_100716,TrueCHOICE,9.0,10,1.0,500.0,,,,,,,,,,,13.0,10.0,,,A,,,,,,True,cue2.png,Hard,cue1.png,Easy,Right,Easy,Easy,0.0171791999600827,,,,,,,,,,,,,47,26,Female,1.4285714285714286,1.0,0.6,0.5,2.5,2.625,2.6666666666666665,2.5555555555555554,2.25,3.111111111111111,2.0,1.75,1.75,0.25,0.9090909090909092,0.9090909090909092,0.342916343754041,-0.8826397590164232,,,,,,,,,,,,,,,0.02211365976935807,1.5252690365772004,1724959.3963754782,-0.47154189284769443,,,,,,,,,,,,,,
0,240718_100850,FalseCHOICE,9.0,1,2.0,500.0,,,,,,,,,,,1.0,1.0,,,A,,,,,,False,cue1.png,Easy,cue2.png,Hard,Right,Hard,Mid,0.0167628999333828,,,,,,,,,,,,,47,26,Female,1.4285714285714286,1.0,0.6,0.5,2.5,2.625,2.6666666666666665,2.5555555555555554,2.25,3.111111111111111,2.0,1.75,1.75,0.25,0.6113636363636364,0.7272727272727273,0.4006660312588792,-0.32331397516578314,,,,,,,,,,,,,,,,,,,0.017448434238169202,-0.5556213966233094,0.03828019708382631,0.4075695560357228,,,,,,,,,,
1,240718_100914,FalseCHOICE,9.0,2,2.0,500.0,,,,,,,,,,,2.0,2.0,,,A,,,,,,False,cue2.png,Hard,cue1.png,Easy,Left,Hard,Mid,0.0156378999818116,,,,,,,,,,,,,47,26,Female,1.4285714285714286,1.0,0.6,0.5,2.5,2.625,2.6666666666666665,2.5555555555555554,2.25,3.111111111111111,2.0,1.75,1.75,0.25,0.75,0.7708333333333334,0.4101845133195941,-0.08627822384429862,,,,,,,,,,,,,,,,,,,0.016211445800166657,-0.6348525629763581,0.015492084582203533,-0.6866522718189026,7.57883048539845e+44,3.095461192095922,,,,,,,,
2,240718_100936,FalseCHOICE,9.0,3,2.0,500.0,,,,,,,,,,,3.0,3.0,,,A,,,,,,False,cue2.png,Hard,cue1.png,Easy,Left,Hard,Mid,0.0162227000109851,,,,,,,,,,,,,47,26,Female,1.4285714285714286,1.0,0.6,0.5,2.5,2.625,2.6666666666666665,2.5555555555555554,2.25,3.111111111111111,2.0,1.75,1.75,0.25,1.0,1.0,0.3981292312600999,-0.38648710401420994,,,,,,,,,,,,,,,,,,,0.026316503375525525,0.012393177697852106,0.03062618711023504,0.0400452697165218,-6.977274605037513e+44,-2.8203563683738264,,,,,,,,
3,240718_100959,FalseCHOICE,9.0,4,2.0,500.0,,,,,,,,,,,4.0,4.0,,,A,,,,,,False,cue2.png,Hard,cue1.png,Easy,Left,Hard,Mid,0.0162554000271484,,,,,,,,,,,,,47,26,Female,1.4285714285714286,1.0,0.6,0.5,2.5,2.625,2.6666666666666665,2.5555555555555554,2.25,3.111111111111111,2.0,1.75,1.75,0.25,0.9090909090909092,0.9090909090909092,0.3728772374888649,-1.0153295263405864,,,,,,,,,,,,,,,,,,,0.06061123542739447,2.209027791860076,0.0765841390908499,2.2468183939541,-8.605575907890574e+44,-3.482122230965947,,,,,,,,
4,240718_101022,FalseCHOICE,9.0,5,2.0,500.0,,,,,,,,,,,5.0,5.0,,,A,,,,,,False,cue1.png,Easy,cue2.png,Hard,Left,Easy,Mid,0.0157673000358045,,,,,,,,,,,,,47,26,Female,1.4285714285714286,1.0,0.6,0.5,2.5,2.625,2.6666666666666665,2.5555555555555554,2.25,3.111111111111111,2.0,1.75,1.75,0.25,0.9090909090909092,0.9090909090909092,0.4188199000054737,0.12876608237833387,,,,,,,,,,,,,,,,,,,,,0.01792002330364379,-0.5700694023291987,,,,,,,,,,
5,240718_101047,FalseCHOICE,9.0,6,2.0,500.0,,,,,,,,,,,6.0,6.0,,,A,,,,,,False,cue2.png,Hard,cue1.png,Easy,Right,Easy,Mid,0.0165526999626308,,,,,,,,,,,,,47,26,Female,1.4285714285714286,1.0,0.6,0.5,2.5,2.625,2.6666666666666665,2.5555555555555554,2.25,3.111111111111111,2.0,1.75,1.75,0.25,1.0,1.0,0.490280981248361,1.908338809900097,,,,,,,,,,,,,,,,,,,0.01344732158934742,-0.8118993149424077,0.021153472087753658,-0.41480817836556144,-1.1786025506924426e+44,-0.4636898182649645,,,,,,,,
6,240718_101110,FalseCHOICE,9.0,7,2.0,500.0,,,,,,,,,,,7.0,7.0,,,A,,,,,,False,cue2.png,Hard,cue1.png,Easy,Left,Hard,Mid,0.0153000000864267,,,,,,,,,,,,,47,26,Female,1.4285714285714286,1.0,0.6,0.5,2.5,2.625,2.6666666666666665,2.5555555555555554,2.25,3.111111111111111,2.0,1.75,1.75,0.25,0.7818181818181817,0.8181818181818181,0.4280616000032751,0.35890921743847165,,,,,,,,,,,,,,,,,,,0.009840170532891171,-1.0429433381801347,0.01908128632271789,-0.5143087796246744,,,,,,,,,,
7,240718_101132,FalseCHOICE,9.0,8,2.0,500.0,,,,,,,,,,,8.0,8.0,,,A,,,,,,False,cue1.png,Easy,cue2.png,Hard,Left,Easy,Mid,0.0151480000931769,,,,,,,,,,,,,47,26,Female,1.4285714285714286,1.0,0.6,0.5,2.5,2.625,2.6666666666666665,2.5555555555555554,2.25,3.111111111111111,2.0,1.75,1.75,0.25,0.7818181818181817,0.8181818181818181,0.3525724499850184,-1.5209732340974773,,,,,,,,,,,,,,,,,,,,,0.03149476900661567,0.08175215835117167,,,,,,,,,,
8,240718_101155,FalseCHOICE,9.0,9,2.0,500.0,,,,,,,,,,,9.0,9.0,,,A,,,,,,False,cue1.png,Easy,cue2.png,Hard,Right,Hard,Mid,0.0163278999971225,,,,,,,,,,,,,47,26,Female,1.4285714285714286,1.0,0.6,0.5,2.5,2.625,2.6666666666666665,2.5555555555555554,2.25,3.111111111111111,2.0,1.75,1.75,0.25,0.75,0.8333333333333334,0.3729326937609585,-1.0139485163184692,,,,,,,,,,,,,,,,,,,0.01354597545147392,-0.8055803710288031,,,,,,,,,,,,
9,240718_101218,FalseCHOICE,9.0,10,2.0,500.0,,,,,,,,,,,10.0,10.0,,,A,,,,,,False,cue2.png,Hard,cue1.png,Easy,Right,Easy,Mid,0.0168907999759539,,,,,,,,,,,,,47,26,Female,1.4285714285714286,1.0,0.6,0.5,2.5,2.625,2.6666666666666665,2.5555555555555554,2.25,3.111111111111111,2.0,1.75,1.75,0.25,0.75,0.8333333333333334,0.4376960624722414,0.5988331922217521,,,,,,,,,,,,,,,,,,,0.033440003544031496,0.4686652086460544,0.017563366369870603,-0.5871950770406313,3.532062484638673e+44,1.450794500470331,,,,,,,,
10,240718_101241,FalseCHOICE,9.0,11,2.0,500.0,,,,,,,,,,,11.0,11.0,,,A,,,,,,False,cue1.png,Easy,cue2.png,Hard,Right,Hard,Mid,0.016753299976699,,,,,,,,,,,,,47,26,Female,1.4285714285714286,1.0,0.6,0.5,2.5,2.625,2.6666666666666665,2.5555555555555554,2.25,3.111111111111111,2.0,1.75,1.75,0.25,0.8958333333333333,0.9166666666666666,0.4660707500006538,1.3054390705443735,,,,,,,,,,,,,,,,,,,0.05057690379907223,1.5663121656986458,,,,,,,,,,,,
11,240718_101304,FalseCHOICE,9.0,12,2.0,500.0,,,,,,,,,,,12.0,12.0,,,A,,,,,,False,cue2.png,Hard,cue1.png,Easy,Right,Easy,Mid,0.0168368999147787,,,,,,,,,,,,,47,26,Female,1.4285714285714286,1.0,0.6,0.5,2.5,2.625,2.6666666666666665,2.5555555555555554,2.25,3.111111111111111,2.0,1.75,1.75,0.25,0.5,0.75,0.394347587491211,-0.4806601839518595,,,,,,,,,,,,,,,,,,,0.021164295191621385,-0.31761432371713444,0.02039165439699172,-0.4513885465736856,2.7156816707046454e+44,1.1190051979683349,,,,,,,,
12,240718_101327,FalseCHOICE,9.0,13,2.0,500.0,,,,,,,,,,,13.0,13.0,,,A,,,,,,False,cue1.png,Easy,cue2.png,Hard,Right,Hard,Mid,0.0171102000167593,,,,,,,,,,,,,47,26,Female,1.4285714285714286,1.0,0.6,0.5,2.5,2.625,2.6666666666666665,2.5555555555555554,2.25,3.111111111111111,2.0,1.75,1.75,0.25,0.75,0.8333333333333334,0.4316833687407779,0.4491009799832404,,,,,,,,,,,,,,,,,,,0.03926448161629779,0.8417327142798171,,,,,,,,,,,,
13,240718_101351,FalseCHOICE,9.0,14,2.0,500.0,,,,,,,,,,,14.0,14.0,,,A,,,,,,False,cue2.png,Hard,cue1.png,Easy,Left,Hard,Mid,0.0159667000407353,,,,,,,,,,,,,47,26,Female,1.4285714285714286,1.0,0.6,0.5,2.5,2.625,2.6666666666666665,2.5555555555555554,2.25,3.111111111111111,2.0,1.75,1.75,0.25,0.8958333333333333,0.9166666666666666,0.4423865937642404,0.7156400109775153,,,,,,,,,,,,,,,,,,,,,0.018662777431746064,-0.5344044134170735,,,,,,,,,,
14,240718_101414,FalseCHOICE,9.0,15,2.0,500.0,,,,,,,,,,,15.0,15.0,,,A,,,,,,False,cue1.png,Easy,cue2.png,Hard,Right,Hard,Mid,0.0166075000306591,,,,,,,,,,,,,47,26,Female,1.4285714285714286,1.0,0.6,0.5,2.5,2.625,2.6666666666666665,2.5555555555555554,2.25,3.111111111111111,2.0,1.75,1.75,0.25,0.8958333333333333,0.9166666666666666,0.4233977812546072,0.24276761270925218,,,,,,,,,,,,,,,,,,,0.05571923596093609,1.8956870914798263,0.10280269553816489,3.5057606059274566,,,,,,,,,,
15,240718_101437,FalseCHOICE,9.0,16,2.0,500.0,,,,,,,,,,,16.0,16.0,,,A,,,,,,False,cue1.png,Easy,cue2.png,Hard,Left,Easy,Mid,0.0160514999879524,,,,,,,,,,,,,47,26,Female,1.4285714285714286,1.0,0.6,0.5,2.5,2.625,2.6666666666666665,2.5555555555555554,2.25,3.111111111111111,2.0,1.75,1.75,0.25,0.7818181818181817,0.8181818181818181,0.3687728187578614,-1.1175405691765827,,,,,,,,,,,,,,,,,,,0.0649378258457435,2.4861531025309365,0.016955831881458935,-0.6163671946676266,,,,,,,,,,
16,240718_101459,FalseCHOICE,9.0,17,2.0,500.0,,,,,,,,,,,17.0,17.0,,,A,,,,,,False,cue2.png,Hard,cue1.png,Easy,Right,Easy,Mid,0.0158792999573051,,,,,,,,,,,,,47,26,Female,1.4285714285714286,1.0,0.6,0.5,2.5,2.625,2.6666666666666665,2.5555555555555554,2.25,3.111111111111111,2.0,1.75,1.75,0.25,0.75,0.8333333333333334,0.3537588562539895,-1.4914285336353363,,,,,,,,,,,,,,,,,,,0.02452208322549806,-0.10254241672344008,0.03722130725516078,0.3567246094111807,,,,,,,,,,
17,240718_101522,FalseCHOICE,9.0,18,2.0,500.0,,,,,,,,,,,18.0,18.0,,,A,,,,,,False,cue2.png,Hard,cue1.png,Easy,Right,Easy,Mid,0.0166240000398829,,,,,,,,,,,,,47,26,Female,1.4285714285714286,1.0,0.6,0.5,2.5,2.625,2.6666666666666665,2.5555555555555554,2.25,3.111111111111111,2.0,1.75,1.75,0.25,1.0,1.0,0.3562247749941889,-1.4300205383738531,,,,,,,,,,,,,,,,,,,0.0156829239853403,-0.6687052640568478,0.01610490935038807,-0.6572261296603663,,,,,,,,,,
18,240718_101545,FalseCHOICE,9.0,19,2.0,500.0,,,,,,,,,,,19.0,19.0,,,A,,,,,,False,cue1.png,Easy,cue2.png,Hard,Right,Hard,Mid,0.0168271999573335,,,,,,,,,,,,,47,26,Female,1.4285714285714286,1.0,0.6,0.5,2.5,2.625,2.6666666666666665,2.5555555555555554,2.25,3.111111111111111,2.0,1.75,1.75,0.25,0.6113636363636364,0.7272727272727273,0.3724732812697766,-1.0253891204315162,,,,,,,,,,,,,,,,,,,0.030458930555761113,0.27772252673576137,,,,,,,,,,,,
19,240718_101609,FalseCHOICE,9.0,20,2.0,500.0,,,,,,,,,,,20.0,20.0,,,A,,,,,,False,cue1.png,Easy,cue2.png,Hard,Right,Hard,Mid,0.017395400092937,,,,,,,,,,,,,47,26,Female,1.4285714285714286,1.0,0.6,0.5,2.5,2.625,2.6666666666666665,2.5555555555555554,2.25,3.111111111111111,2.0,1.75,1.75,0.25,1.0,1.0,0.4685395249980502,1.366918194276377,,,,,,,,,,,,,,,,,,,0.013745298799159547,-0.7928133791690991,0.019027500591321907,-0.5168914209608718,1.1828898054130421e+44,0.4960557910424972,,,,,,,,
20,240718_101633,FalseCHOICE,9.0,21,2.0,500.0,,,,,,,,,,,21.0,21.0,,,A,,,,,,False,cue1.png,Easy,cue2.png,Hard,Right,Hard,Mid,0.0165048000635579,,,,,,,,,,,,,47,26,Female,1.4285714285714286,1.0,0.6,0.5,2.5,2.625,2.6666666666666665,2.5555555555555554,2.25,3.111111111111111,2.0,1.75,1.75,0.25,1.0,1.0,0.4617336750088725,1.1974342623557368,,,,,,,,,,,,,,,,,,,0.01886231237221181,-0.4650601511017591,0.02455264174823662,-0.2515894985026818,8.545250766892994e+43,0.3626034824507472,,,,,,,,
21,240718_101656,FalseCHOICE,9.0,22,2.0,500.0,,,,,,,,,,,22.0,22.0,,,A,,,,,,False,cue2.png,Hard,cue1.png,Easy,Right,Easy,Mid,0.0163595000049099,,,,,,,,,,,,,47,26,Female,1.4285714285714286,1.0,0.6,0.5,2.5,2.625,2.6666666666666665,2.5555555555555554,2.25,3.111111111111111,2.0,1.75,1.75,0.25,0.75,0.8333333333333334,0.3546925687405746,-1.4681765865954401,,,,,,,,,,,,,,,,,,,,,0.0226378463543868,-0.34353265156885887,2.694378995666458e+43,0.12481535332394646,,,,,,,,
22,240718_101719,FalseCHOICE,9.0,23,2.0,500.0,,,,,,,,,,,23.0,23.0,,,A,,,,,,False,cue1.png,Easy,cue2.png,Hard,Left,Easy,Mid,0.0151256000390276,,,,,,,,,,,,,47,26,Female,1.4285714285714286,1.0,0.6,0.5,2.5,2.625,2.6666666666666665,2.5555555555555554,2.25,3.111111111111111,2.0,1.75,1.75,0.25,0.75,0.8333333333333334,0.4094711124926107,-0.10404381923427174,,,,,,,,,,,,,,,,,,,0.05002360673201481,1.5308725685157736,0.051045011955886385,1.0205004892377085,-3.3789074792714745e+43,-0.12201204009606878,,,,,,,,
23,240718_101742,FalseCHOICE,9.0,24,2.0,500.0,,,,,,,,,,,24.0,24.0,,,A,,,,,,False,cue2.png,Hard,cue1.png,Easy,Left,Hard,Mid,0.0161811999278143,,,,,,,,,,,,,47,26,Female,1.4285714285714286,1.0,0.6,0.5,2.5,2.625,2.6666666666666665,2.5555555555555554,2.25,3.111111111111111,2.0,1.75,1.75,0.25,0.9090909090909092,0.9090909090909092,0.3950475562451174,-0.4632290832337583,,,,,,,,,,,,,,,,,,,0.013714418932290792,-0.7947912859899495,0.016016883616267612,-0.6614528807649466,-7.661220444280206e+43,-0.29605160686500576,,,,,,,,
24,240718_101806,FalseCHOICE,9.0,25,2.0,500.0,,,,,,,,,,,25.0,25.0,,,A,,,,,,False,cue2.png,Hard,cue1.png,Easy,Right,Easy,Mid,0.0164637999841943,,,,,,,,,,,,,47,26,Female,1.4285714285714286,1.0,0.6,0.5,2.5,2.625,2.6666666666666665,2.5555555555555554,2.25,3.111111111111111,2.0,1.75,1.75,0.25,0.8958333333333333,0.9166666666666666,0.4071176687648403,-0.16265088479856768,,,,,,,,,,,,,,,,,,,,,0.018703212271168484,-0.5324628448076216,-9.508034429712366e+43,-0.37110887347624505,,,,,,,,
25,240718_101829,FalseCHOICE,9.0,26,2.0,500.0,,,,,,,,,,,26.0,26.0,,,A,,,,,,False,cue1.png,Easy,cue2.png,Hard,Right,Hard,Mid,0.0139454999007284,,,,,,,,,,,,,47,26,Female,1.4285714285714286,1.0,0.6,0.5,2.5,2.625,2.6666666666666665,2.5555555555555554,2.25,3.111111111111111,2.0,1.75,1.75,0.25,0.7818181818181817,0.8181818181818181,0.4513828375056619,0.9396706264387878,,,,,,,,,,,,,,,,,,,0.02137323183633335,-0.30423158419763424,0.017168313916532105,-0.6061643978898119,-8.302796689023957e+43,-0.32212621948599535,,,,,,,,
26,240718_101853,FalseCHOICE,9.0,27,2.0,500.0,,,,,,,,,,,27.0,27.0,,,A,,,,,,False,cue1.png,Easy,cue2.png,Hard,Right,Hard,Mid,0.0165675999596714,,,,,,,,,,,,,47,26,Female,1.4285714285714286,1.0,0.6,0.5,2.5,2.625,2.6666666666666665,2.5555555555555554,2.25,3.111111111111111,2.0,1.75,1.75,0.25,0.9090909090909092,0.9090909090909092,0.4456611937639536,0.7971863401357014,,,,,,,,,,,,,,,,,,,0.020859897686434706,-0.33711149008502983,,,3.4065469963725883e+43,0.1537589198783686,,,,,,,,
27,240718_101917,FalseCHOICE,9.0,28,2.0,500.0,,,,,,,,,,,28.0,28.0,,,A,,,,,,False,cue2.png,Hard,cue1.png,Easy,Right,Easy,Mid,0.0163625000277534,,,,,,,,,,,,,47,26,Female,1.4285714285714286,1.0,0.6,0.5,2.5,2.625,2.6666666666666665,2.5555555555555554,2.25,3.111111111111111,2.0,1.75,1.75,0.25,0.8958333333333333,0.9166666666666666,0.474424718755472,1.5134753149459106,,,,,,,,,,,,,,,,,,,0.010997036351318969,-0.9688441588409825,,,-7.135051691742423e+42,-0.013686126715914832,,,,,,,,
28,240718_101942,FalseCHOICE,9.0,29,2.0,500.0,,,,,,,,,,,29.0,29.0,,,A,,,,,,False,cue1.png,Easy,cue2.png,Hard,Right,Hard,Mid,0.0166561999358236,,,,,,,,,,,,,47,26,Female,1.4285714285714286,1.0,0.6,0.5,2.5,2.625,2.6666666666666665,2.5555555555555554,2.25,3.111111111111111,2.0,1.75,1.75,0.25,0.7818181818181817,0.8181818181818181,0.5311828812627937,2.926905902694416,,,,,,,,,,,,,,,,,,,0.021020851415873038,-0.32680213607613995,0.01698778205057998,-0.614833036344799,3.5134450174237244e+43,0.15810341441303144,,,,,,,,
29,240718_102005,FalseCHOICE,9.0,30,2.0,500.0,,,,,,,,,,,30.0,30.0,,,A,,,,,,False,cue1.png,Easy,cue2.png,Hard,Right,Hard,Mid,0.0169988999841734,,,,,,,,,,,,,47,26,Female,1.4285714285714286,1.0,0.6,0.5,2.5,2.625,2.6666666666666665,2.5555555555555554,2.25,3.111111111111111,2.0,1.75,1.75,0.25,0.9090909090909092,0.9090909090909092,0.4033210812631296,-0.25719610379309277,,,,,,,,,,,,,,,,,,,0.04374704841908686,1.1288485717359584,0.08217013629410129,2.515042454621577,6.772173856935859e+43,0.2905430002350771,,,,,,,,
30,240718_102027,FalseCHOICE,9.0,31,2.0,500.0,,,,,,,,,,,31.0,31.0,,,A,,,,,,False,cue2.png,Hard,cue1.png,Easy,Right,Easy,Mid,0.0165475000394508,,,,,,,,,,,,,47,26,Female,1.4285714285714286,1.0,0.6,0.5,2.5,2.625,2.6666666666666665,2.5555555555555554,2.25,3.111111111111111,2.0,1.75,1.75,0.25,0.8958333333333333,0.9166666666666666,0.3775186562706949,-0.8997457409080917,,,,,,,,,,,,,,,,,,,0.019474524851451666,-0.42584692380240613,0.0210175544825353,-0.42133456401549463,8.101856128074242e+43,0.34458326499391134,,,,,,,,
31,240718_102049,FalseCHOICE,9.0,32,2.0,500.0,,,,,,,,,,,32.0,32.0,,,A,,,,,,False,cue1.png,Easy,cue2.png,Hard,Left,Easy,Mid,0.0141542999772354,,,,,,,,,,,,,47,26,Female,1.4285714285714286,1.0,0.6,0.5,2.5,2.625,2.6666666666666665,2.5555555555555554,2.25,3.111111111111111,2.0,1.75,1.75,0.25,0.75,0.8333333333333334,0.364815475018986,-1.21608904995307,,,,,,,,,,,,,,,,,,,0.014682223647109416,-0.7328017847130578,0.01605667027249645,-0.65954243611097,7.025740956665588e+43,0.3008483442266104,,,,,,,,
32,240718_102113,FalseCHOICE,9.0,33,2.0,500.0,,,,,,,,,,,33.0,33.0,,,A,,,,,,False,cue2.png,Hard,cue1.png,Easy,Right,Easy,Mid,0.0168238999322056,,,,,,,,,,,,,47,26,Female,1.4285714285714286,1.0,0.6,0.5,2.5,2.625,2.6666666666666665,2.5555555555555554,2.25,3.111111111111111,2.0,1.75,1.75,0.25,0.6113636363636364,0.7272727272727273,0.41777208748681,0.10267273829035295,,,,,,,,,,,,,,,,,,,0.022151303093472297,-0.254394826379228,,,4.079178655772674e+43,0.18109567073091243,,,,,,,,
33,240718_102137,FalseCHOICE,9.0,34,2.0,500.0,,,,,,,,,,,34.0,34.0,,,A,,,,,,False,cue2.png,Hard,cue1.png,Easy,Right,Easy,Mid,0.0166914999717846,,,,,,,,,,,,,47,26,Female,1.4285714285714286,1.0,0.6,0.5,2.5,2.625,2.6666666666666665,2.5555555555555554,2.25,3.111111111111111,2.0,1.75,1.75,0.25,0.75,0.8333333333333334,0.458271981238795,1.111228796147861,,,,,,,,,,,,,,,,,,,,,0.02008120965242172,-0.4662952403960483,1.5263286563496968e+42,0.021515010980471715,,,,,,,,
34,240718_102159,FalseCHOICE,9.0,35,2.0,500.0,,,,,,,,,,,35.0,35.0,,,A,,,,,,False,cue2.png,Hard,cue1.png,Easy,Right,Easy,Mid,0.0163608000148087,,,,,,,,,,,,,47,26,Female,1.4285714285714286,1.0,0.6,0.5,2.5,2.625,2.6666666666666665,2.5555555555555554,2.25,3.111111111111111,2.0,1.75,1.75,0.25,0.9090909090909092,0.9090909090909092,0.3649736874940572,-1.212149134674802,,,,,,,,,,,,,,,,,,,0.010262525237754975,-1.0158908170303875,0.015387917138154083,-0.6916541029719926,-3.585752867392098e+43,-0.13041854425184166,,,,,,,,
35,240718_102222,FalseCHOICE,9.0,36,2.0,500.0,,,,,,,,,,,36.0,36.0,,,A,,,,,,False,cue1.png,Easy,cue2.png,Hard,Right,Hard,Mid,0.0156638000626117,,,,,,,,,,,,,47,26,Female,1.4285714285714286,1.0,0.6,0.5,2.5,2.625,2.6666666666666665,2.5555555555555554,2.25,3.111111111111111,2.0,1.75,1.75,0.25,0.7818181818181817,0.8181818181818181,0.4051314687603735,-0.2121125959548699,,,,,,,,,,,,,,,,,,,0.03567127814895804,0.6115820573174434,0.015425066928742914,-0.6898702732774695,-6.634643929493501e+43,-0.25433001076763156,,,,,,,,
36,240718_102244,FalseCHOICE,9.0,37,2.0,500.0,,,,,,,,,,,37.0,37.0,,,A,,,,,,False,cue2.png,Hard,cue1.png,Easy,Right,Easy,Mid,0.016580699943006,,,,,,,,,,,,,47,26,Female,1.4285714285714286,1.0,0.6,0.5,2.5,2.625,2.6666666666666665,2.5555555555555554,2.25,3.111111111111111,2.0,1.75,1.75,0.25,0.9090909090909092,0.9090909090909092,0.3984594875146285,-0.3782628368546493,,,,,,,,,,,,,,,,,,,0.014288282629154502,-0.7580343619692171,0.07283836700887801,2.0669568291154046,,,,,,,,,,
37,240718_102308,FalseCHOICE,9.0,38,2.0,500.0,,,,,,,,,,,38.0,38.0,,,A,,,,,,False,cue1.png,Easy,cue2.png,Hard,Right,Hard,Mid,0.016944000031799,,,,,,,,,,,,,47,26,Female,1.4285714285714286,1.0,0.6,0.5,2.5,2.625,2.6666666666666665,2.5555555555555554,2.25,3.111111111111111,2.0,1.75,1.75,0.25,0.7818181818181817,0.8181818181818181,0.4207797499984735,0.177571607524559,,,,,,,,,,,,,,,,,,,0.014984580145189105,-0.7134353482442088,0.020584999543099322,-0.44210465001728516,-5.45311706089011e+43,-0.2063110018773802,,,,,,,,
38,240718_102332,FalseCHOICE,9.0,39,2.0,500.0,,,,,,,,,,,39.0,39.0,,,A,,,,,,False,cue1.png,Easy,cue2.png,Hard,Left,Easy,Mid,0.0149322999641299,,,,,,,,,,,,,47,26,Female,1.4285714285714286,1.0,0.6,0.5,2.5,2.625,2.6666666666666665,2.5555555555555554,2.25,3.111111111111111,2.0,1.75,1.75,0.25,0.7818181818181817,0.8181818181818181,0.4376870187188615,0.5986079784887749,,,,,,,,,,,,,,,,,,,0.029364814661485064,0.20764258438085823,0.045297768748237606,0.7445338435863542,-2.2747750503138607e+43,-0.07713845631984767,,,,,,,,
39,240718_102355,FalseCHOICE,9.0,40,2.0,500.0,,,,,,,,,,,40.0,40.0,,,A,,,,,,False,cue2.png,Hard,cue1.png,Easy,Right,Easy,Mid,0.0163903998909518,,,,,,,,,,,,,47,26,Female,1.4285714285714286,1.0,0.6,0.5,2.5,2.625,2.6666666666666665,2.5555555555555554,2.25,3.111111111111111,2.0,1.75,1.75,0.25,0.9090909090909092,0.9090909090909092,0.4335147624879027,0.4947075998251646,,,,,,,,,,,,,,,,,,,,,0.04612200734599477,0.7841114902634079,2.938186744288017e+43,0.13472406277412544,,,,,,,,
40,240718_102418,FalseCHOICE,9.0,41,2.0,500.0,,,,,,,,,,,41.0,41.0,,,A,,,,,,False,cue2.png,Hard,cue1.png,Easy,Right,Easy,Mid,0.0167530999751761,,,,,,,,,,,,,47,26,Female,1.4285714285714286,1.0,0.6,0.5,2.5,2.625,2.6666666666666665,2.5555555555555554,2.25,3.111111111111111,2.0,1.75,1.75,0.25,0.8958333333333333,0.9166666666666666,0.4030628000327851,-0.26362799966645073,,,,,,,,,,,,,,,,,,,0.009975823664655947,-1.0342545295227779,0.018115745652842023,-0.5606713590872917,5.754873329647642e+43,0.24919839406318992,,,,,,,,
41,240718_102441,FalseCHOICE,9.0,42,2.0,500.0,,,,,,,,,,,42.0,42.0,,,A,,,,,,False,cue1.png,Easy,cue2.png,Hard,Right,Hard,Mid,0.0165897000115364,,,,,,,,,,,,,47,26,Female,1.4285714285714286,1.0,0.6,0.5,2.5,2.625,2.6666666666666665,2.5555555555555554,2.25,3.111111111111111,2.0,1.75,1.75,0.25,0.9090909090909092,0.9090909090909092,0.4107572187567712,-0.07201632129289832,,,,,,,,,,,,,,,,,,,0.01995795012893554,-0.39488273092648635,,,,,,,,,,,,
42,240718_102504,FalseCHOICE,9.0,43,2.0,500.0,,,,,,,,,,,43.0,43.0,,,A,,,,,,False,cue2.png,Hard,cue1.png,Easy,Right,Easy,Mid,0.0165923000313341,,,,,,,,,,,,,47,26,Female,1.4285714285714286,1.0,0.6,0.5,2.5,2.625,2.6666666666666665,2.5555555555555554,2.25,3.111111111111111,2.0,1.75,1.75,0.25,1.0,1.0,0.4270145812406554,0.3328356400064613,,,,,,,,,,,,,,,,,,,0.015658953024630114,-0.6702406439499194,0.019008633967486477,-0.5177973438018785,5.929337947281623e+43,0.2562888955556385,,,,,,,,
43,240718_102526,FalseCHOICE,9.0,44,2.0,500.0,,,,,,,,,,,44.0,44.0,,,A,,,,,,False,cue1.png,Easy,cue2.png,Hard,Right,Hard,Mid,0.0165834999643266,,,,,,,,,,,,,47,26,Female,1.4285714285714286,1.0,0.6,0.5,2.5,2.625,2.6666666666666665,2.5555555555555554,2.25,3.111111111111111,2.0,1.75,1.75,0.25,1.0,1.0,0.3378586875187466,-1.8873854118703521,,,,,,,,,,,,,,,,,,,0.015142142261345273,-0.703343232705711,0.02176033203590371,-0.3856684502871948,2.114326350627223e+43,0.10124115128156991,,,,,,,,
44,240718_102549,FalseCHOICE,9.0,45,2.0,500.0,,,,,,,,,,,45.0,45.0,,,A,,,,,,False,cue2.png,Hard,cue1.png,Easy,Right,Easy,Mid,0.0168036000104621,,,,,,,,,,,,,47,26,Female,1.4285714285714286,1.0,0.6,0.5,2.5,2.625,2.6666666666666665,2.5555555555555554,2.25,3.111111111111111,2.0,1.75,1.75,0.25,0.8958333333333333,0.9166666666666666,0.3943367624960956,-0.48092975538497906,,,,,,,,,,,,,,,,,,,,,0.018667926589702562,-0.5341571651629379,-3.8373962209985795e+43,-0.1406457043402835,,,,,,,,
45,240718_102612,FalseCHOICE,9.0,46,2.0,500.0,,,,,,,,,,,46.0,46.0,,,A,,,,,,False,cue2.png,Hard,cue1.png,Easy,Right,Easy,Mid,0.0164253000402823,,,,,,,,,,,,,47,26,Female,1.4285714285714286,1.0,0.6,0.5,2.5,2.625,2.6666666666666665,2.5555555555555554,2.25,3.111111111111111,2.0,1.75,1.75,0.25,0.7818181818181817,0.8181818181818181,0.403151006270491,-0.26143142759828986,,,,,,,,,,,,,,,,,,,0.05173137995068848,1.6402582829049137,0.04418540646530382,0.6911212983226044,-7.759488274581361e+43,-0.30004535761435147,,,,,,,,
46,240718_102635,FalseCHOICE,9.0,47,2.0,500.0,,,,,,,,,,,47.0,47.0,,,A,,,,,,False,cue1.png,Easy,cue2.png,Hard,Left,Easy,Mid,0.0159705999540165,,,,,,,,,,,,,47,26,Female,1.4285714285714286,1.0,0.6,0.5,2.5,2.625,2.6666666666666665,2.5555555555555554,2.25,3.111111111111111,2.0,1.75,1.75,0.25,0.8958333333333333,0.9166666666666666,0.4244946499966318,0.27008258842790367,,,,,,,,,,,,,,,,,,,0.05241745212162764,1.684202346273569,0.018702549086810513,-0.5324946890773185,-6.117492448488874e+43,-0.2333122055667041,,,,,,,,
47,240718_102658,FalseCHOICE,9.0,48,2.0,500.0,,,,,,,,,,,48.0,48.0,,,A,,,,,,False,cue1.png,Easy,cue2.png,Hard,Left,Easy,Mid,0.0162079000147059,,,,,,,,,,,,,47,26,Female,1.4285714285714286,1.0,0.6,0.5,2.5,2.625,2.6666666666666665,2.5555555555555554,2.25,3.111111111111111,2.0,1.75,1.75,0.25,1.0,1.0,0.4078047187285847,-0.14554149663008026,,,,,,,,,,,,,,,,,,,,,,,2.725980871227422e+43,0.1260997005392614,,,,,,,,
48,240718_102723,FalseCHOICE,9.0,49,2.0,500.0,,,,,,,,,,,49.0,49.0,,,A,,,,,,False,cue2.png,Hard,cue1.png,Easy,Right,Easy,Mid,0.0159378999378532,,,,,,,,,,,,,47,26,Female,1.4285714285714286,1.0,0.6,0.5,2.5,2.625,2.6666666666666665,2.5555555555555554,2.25,3.111111111111111,2.0,1.75,1.75,0.25,0.7818181818181817,0.8181818181818181,0.4920427624965668,1.9522118916760374,,,,,,,,,,,,,,,,,,,0.011625940269771698,-0.9285618171050529,,,9.677057833368179e+43,0.4086018046483312,,,,,,,,
49,240718_102746,FalseCHOICE,9.0,50,2.0,500.0,,,,,,,,,,,50.0,50.0,,,A,,,,,,False,cue1.png,Easy,cue2.png,Hard,Left,Easy,Mid,0.0166426000650972,,,,,,,,,,,,,47,26,Female,1.4285714285714286,1.0,0.6,0.5,2.5,2.625,2.6666666666666665,2.5555555555555554,2.25,3.111111111111111,2.0,1.75,1.75,0.25,0.7818181818181817,0.8181818181818181,0.4090975437502493,-0.11334668359342379,,,,,,,,,,,,,,,,,,,,,,,-3.8702907445045454e+43,-0.14198258669027244,,,,,,,,
0,240718_094019,OFFLINERATING,9.0,1,1.0,,,,,,,,,,,,,,,,,T0,cue1.png,Easy,61.0,2.1435427999822423,,,,,,,,,,,,,,,,,,,,,,47,26,Female,1.4285714285714286,1.0,0.6,0.5,2.5,2.625,2.6666666666666665,2.5555555555555554,2.25,3.111111111111111,2.0,1.75,1.75,0.25,,,,,,,,,,,,,,,,,,,,,,,,,,,,,0.8072571530318781,,,0.011604161769660403,-1.2922018184820316,13153398.163587825,-0.33497581348919897,
1,240718_094027,OFFLINERATING,9.0,2,3.0,,,,,,,,,,,,,,,,,T0,cue2.png,Hard,31.0,1.8189386999001729,,,,,,,,,,,,,,,,,,,,,,47,26,Female,1.4285714285714286,1.0,0.6,0.5,2.5,2.625,2.6666666666666665,2.5555555555555554,2.25,3.111111111111111,2.0,1.75,1.75,0.25,,,,,,,,,,,,,,,,,,,,,,,,,,,,,-1.4720571614110716,0.006201785478920556,-0.998067850152685,,,,,
2,240718_100242,OFFLINERATING,9.0,3,1.0,,,,,,,,,,,,,,,,,T1,cue1.png,Easy,70.0,1.9224166000494731,,,,,,,,,,,,,,,,,,,,,,47,26,Female,1.4285714285714286,1.0,0.6,0.5,2.5,2.625,2.6666666666666665,2.5555555555555554,2.25,3.111111111111111,2.0,1.75,1.75,0.25,,,,,,,,,,,,,,,,,,,,,,,,,,,,,1.491051447364763,0.008541851752174947,-0.3686615427398139,0.020006786247719358,1.143756257081063,,,
3,240718_100250,OFFLINERATING,9.0,4,3.0,,,,,,,,,,,,,,,,,T1,cue2.png,Hard,41.0,1.5186787999700757,,,,,,,,,,,,,,,,,,,,,,47,26,Female,1.4285714285714286,1.0,0.6,0.5,2.5,2.625,2.6666666666666665,2.5555555555555554,2.25,3.111111111111111,2.0,1.75,1.75,0.25,,,,,,,,,,,,,,,,,,,,,,,,,,,,,-0.7122857232634218,,,0.01657354899347711,0.14844556140096635,-1084.789097722715,-0.6894455596009381,
4,240718_100734,OFFLINERATING,9.0,5,1.0,,,,,,,,,,,,,,,,,T2,cue1.png,Easy,66.0,1.3519928000168877,,,,,,,,,,,,,,,,,,,,,,47,26,Female,1.4285714285714286,1.0,0.6,0.5,2.5,2.625,2.6666666666666665,2.5555555555555554,2.25,3.111111111111111,2.0,1.75,1.75,0.25,,,,,,,,,,,,,,,,,,,,,,,,,,,,,1.187142872105703,,,,,89184901.18061908,1.7138213659878443,
5,240718_100741,OFFLINERATING,9.0,6,3.0,,,,,,,,,,,,,,,,,T2,cue2.png,Hard,40.0,1.1016154999379069,,,,,,,,,,,,,,,,,,,,,,47,26,Female,1.4285714285714286,1.0,0.6,0.5,2.5,2.625,2.6666666666666665,2.5555555555555554,2.25,3.111111111111111,2.0,1.75,1.75,0.25,,,,,,,,,,,,,,,,,,,,,,,,,,,,,-0.7882628670781867,0.014993852235101014,1.3667293928924984,,,,,
6,240718_102800,OFFLINERATING,9.0,7,1.0,,,,,,,,,,,,,,,,,T3,cue1.png,Easy,52.0,0.7719256998971105,,,,,,,,,,,,,,,,,,,,,,47,26,Female,1.4285714285714286,1.0,0.6,0.5,2.5,2.625,2.6666666666666665,2.5555555555555554,2.25,3.111111111111111,2.0,1.75,1.75,0.25,,,,,,,,,,,,,,,,,,,,,,,,,,,,,0.12346285869899311,,,,,,,
7,240718_102807,OFFLINERATING,9.0,8,3.0,,,,,,,,,,,,,,,,,T3,cue2.png,Hard,42.0,0.8014159000013024,,,,,,,,,,,,,,,,,,,,,,47,26,Female,1.4285714285714286,1.0,0.6,0.5,2.5,2.625,2.6666666666666665,2.5555555555555554,2.25,3.111111111111111,2.0,1.75,1.75,0.25,,,,,,,,,,,,,,,,,,,,,,,,,,,,,-0.6363085794486568,,,,,606.2054862614309,-0.6893999928977073,
0,240718_100801,LEARNINGCHECK,9.0,1,,,,,,,,,,,,1.0,1.0,1.0,,,A,,,,,,,,,,,,,,,cue1.png,Easy,Left,Left,Easy,0.0137735999887809,1.0,,,,,,47,26,Female,1.4285714285714286,1.0,0.6,0.5,2.5,2.625,2.6666666666666665,2.5555555555555554,2.25,3.111111111111111,2.0,1.75,1.75,0.25,,,,,,,,,,,,,,,,,,,,,,,,,,,,,,,,,,,,
1,240718_100806,LEARNINGCHECK,9.0,2,,,,,,,,,,,,2.0,2.0,2.0,,,A,,,,,,,,,,,,,,,cue2.png,Hard,Right,Right,Hard,0.014972300035879,1.0,,,,,,47,26,Female,1.4285714285714286,1.0,0.6,0.5,2.5,2.625,2.6666666666666665,2.5555555555555554,2.25,3.111111111111111,2.0,1.75,1.75,0.25,,,,,,,,,,,,,,,,,,,,,,,,,,,,,,,,,,,,
2,240718_102826,LEARNINGCHECK,9.0,1,,,,,,,,,,,,1.0,1.0,1.0,,,A,,,,,,,,,,,,,,,cue1.png,Easy,Middle,Middle,Mid,0.0144586000824347,1.0,,,,,,47,26,Female,1.4285714285714286,1.0,0.6,0.5,2.5,2.625,2.6666666666666665,2.5555555555555554,2.25,3.111111111111111,2.0,1.75,1.75,0.25,,,,,,,,,,,,,,,,,,,,,,,,,,,,,,,,,,,,
3,240718_102832,LEARNINGCHECK,9.0,2,,,,,,,,,,,,2.0,2.0,2.0,,,A,,,,,,,,,,,,,,,cue2.png,Hard,Middle,Middle,Mid,0.0144300999818369,1.0,,,,,,47,26,Female,1.4285714285714286,1.0,0.6,0.5,2.5,2.625,2.6666666666666665,2.5555555555555554,2.25,3.111111111111111,2.0,1.75,1.75,0.25,,,,,,,,,,,,,,,,,,,,,,,,,,,,,,,,,,,,
0,240718_102850,DEMANDRATING,9.0,-1,,,,,,,,,,,,,,,,,,,,,,,,,,,,,,,,,,,,,,,1.0,MentalDemand,1.0,36.0,6.802638399996795,47,26,Female,1.4285714285714286,1.0,0.6,0.5,2.5,2.625,2.6666666666666665,2.5555555555555554,2.25,3.111111111111111,2.0,1.75,1.75,0.25,,,,,,,,,,,,,,,,,,,,,,,,,,,,,,,,,,,,-1.7063566402434684
1,240718_102859,DEMANDRATING,9.0,-1,,,,,,,,,,,,,,,,,,,,,,,,,,,,,,,,,,,,,,,2.0,Effort,1.0,53.0,6.685729300021194,47,26,Female,1.4285714285714286,1.0,0.6,0.5,2.5,2.625,2.6666666666666665,2.5555555555555554,2.25,3.111111111111111,2.0,1.75,1.75,0.25,,,,,,,,,,,,,,,,,,,,,,,,,,,,,,,,,,,,-0.5087760624579148
2,240718_102911,DEMANDRATING,9.0,-1,,,,,,,,,,,,,,,,,,,,,,,,,,,,,,,,,,,,,,,3.0,Frustration,1.0,45.0,10.968696200056002,47,26,Female,1.4285714285714286,1.0,0.6,0.5,2.5,2.625,2.6666666666666665,2.5555555555555554,2.25,3.111111111111111,2.0,1.75,1.75,0.25,,,,,,,,,,,,,,,,,,,,,,,,,,,,,,,,,,,,-1.0723433931805282
3,240718_102919,DEMANDRATING,9.0,-1,,,,,,,,,,,,,,,,,,,,,,,,,,,,,,,,,,,,,,,4.0,MentalDemand,2.0,59.0,6.962293300079182,47,26,Female,1.4285714285714286,1.0,0.6,0.5,2.5,2.625,2.6666666666666665,2.5555555555555554,2.25,3.111111111111111,2.0,1.75,1.75,0.25,,,,,,,,,,,,,,,,,,,,,,,,,,,,,,,,,,,,-0.08610056441595478
4,240718_102925,DEMANDRATING,9.0,-1,,,,,,,,,,,,,,,,,,,,,,,,,,,,,,,,,,,,,,,5.0,Effort,2.0,55.0,3.977215399965644,47,26,Female,1.4285714285714286,1.0,0.6,0.5,2.5,2.625,2.6666666666666665,2.5555555555555554,2.25,3.111111111111111,2.0,1.75,1.75,0.25,,,,,,,,,,,,,,,,,,,,,,,,,,,,,,,,,,,,-0.3678842297772615
5,240718_102934,DEMANDRATING,9.0,-1,,,,,,,,,,,,,,,,,,,,,,,,,,,,,,,,,,,,,,,6.0,Frustration,2.0,66.0,7.665937900077552,47,26,Female,1.4285714285714286,1.0,0.6,0.5,2.5,2.625,2.6666666666666665,2.5555555555555554,2.25,3.111111111111111,2.0,1.75,1.75,0.25,,,,,,,,,,,,,,,,,,,,,,,,,,,,,,,,,,,,0.407020849966332
6,240718_102941,DEMANDRATING,9.0,-1,,,,,,,,,,,,,,,,,,,,,,,,,,,,,,,,,,,,,,,7.0,MentalDemand,3.0,83.0,5.587640000041574,47,26,Female,1.4285714285714286,1.0,0.6,0.5,2.5,2.625,2.6666666666666665,2.5555555555555554,2.25,3.111111111111111,2.0,1.75,1.75,0.25,,,,,,,,,,,,,,,,,,,,,,,,,,,,,,,,,,,,1.6046014277518854
7,240718_102948,DEMANDRATING,9.0,-1,,,,,,,,,,,,,,,,,,,,,,,,,,,,,,,,,,,,,,,8.0,Effort,3.0,67.0,5.412299400079064,47,26,Female,1.4285714285714286,1.0,0.6,0.5,2.5,2.625,2.6666666666666665,2.5555555555555554,2.25,3.111111111111111,2.0,1.75,1.75,0.25,,,,,,,,,,,,,,,,,,,,,,,,,,,,,,,,,,,,0.47746676630665863
8,240718_102954,DEMANDRATING,9.0,-1,,,,,,,,,,,,,,,,,,,,,,,,,,,,,,,,,,,,,,,9.0,Frustration,3.0,78.0,3.973415300017223,47,26,Female,1.4285714285714286,1.0,0.6,0.5,2.5,2.625,2.6666666666666665,2.5555555555555554,2.25,3.111111111111111,2.0,1.75,1.75,0.25,,,,,,,,,,,,,,,,,,,,,,,,,,,,,,,,,,,,1.252371846050252
