,END,Phase,Block,TrialN,NbackLevel,ISI,Letter_Resp,Letter_RT,Letter_Accuracy,Trial_A_measure,Trial_ACC,Trial_RT,TrialCountCali,CaliEnd_A_measure,ISI_calibrated,TrialIndex,TrialNumber_total,TrialNumber_valid,CueLearning,TrialDemandLearning,CueMapping,OfflineRatingTimePoint,CueFigure,TrialDemand,OfflineRating,OfflineRatingRT,PhaseType,CueLeft,CueDemandLeft,CueRight,CueDemandRight,Choice,ChoiceDemand,TaskDemand,ChoiceRT,CueCheck,CueDemandCheck,CorrectAnswer,Answer,AnswerDemand,AnswerRT,AnswerACC,DemandRatingQuesIndex,QuesTLX,DemandLevel,DemandRating,DemandRatingRT,PID,Age,Gender,Task_A_measure,Task_ACC,Task_RT,cue_i_on_zyg_values,cue_i_on_zyg_zvalues,cue_e_on_zyg_values,cue_e_on_zyg_zvalues,cue_i_on_cor_values,cue_i_on_cor_zvalues,cue_e_on_cor_values,cue_e_on_cor_zvalues,cue_i_on_scr_values,cue_i_on_scr_zvalues,cue_e_on_scr_values,cue_e_on_scr_zvalues,BAI_bis,BAI_bas_d,BAI_bas_rr,BAI_bas_fs,NFC,BFI_ext,BFI_agr,BFI_con,BFI_neu,BFI_open,UPPS_lps,UPPS_lpm,UPPS_pu,UPPS_ss,cue_e_true_zyg_values,cue_e_true_zyg_zvalues,cue_e_true_cor_values,cue_e_true_cor_zvalues,cue_e_true_scr_values,cue_e_true_scr_zvalues,cue_i_off_zyg_values,cue_i_off_zyg_zvalues,cue_i_off_cor_values,cue_i_off_cor_zvalues,cue_i_off_scr_values,cue_i_off_scr_zvalues
0,240722_144217,LEARNING,1.0,1,1.0,1472.0,,,,,,,,,,1.0,1.0,1.0,cue1.png,Easy,A,,,,,,,,,,,,,,,,,,,,,,,,,,,49,28,Female,1.0,1.0,0.4595109000025938,,,,,,,,,1.2579999999999998,0.09649099131063828,,,0.14285714285714285,0.25,0.0,0.25,3.111111111111111,3.75,3.5555555555555554,3.2222222222222223,1.625,3.7777777777777777,2.0,2.25,3.0,2.5,,,,,,,,,,,,
1,240722_144236,LEARNING,1.0,2,3.0,1472.0,,,,,,,,,,2.0,2.0,2.0,cue2.png,Hard,A,,,,,,,,,,,,,,,,,,,,,,,,,,,49,28,Female,0.5,0.6666666666666667,0.3950490777561855,-0.0008634288218104507,-0.7258120504108367,0.00024800861253348235,0.09900216387635426,,,-0.00011804945861965295,-0.24523860272519296,1.1340000000000001,-0.09965463037000384,1.4629999999999999,-0.3784002196350591,0.14285714285714285,0.25,0.0,0.25,3.111111111111111,3.75,3.5555555555555554,3.2222222222222223,1.625,3.7777777777777777,2.0,2.25,3.0,2.5,,,,,,,,,,,,
2,240722_144256,LEARNING,1.0,3,1.0,1472.0,,,,,,,,,,3.0,3.0,3.0,cue1.png,Easy,A,,,,,,,,,,,,,,,,,,,,,,,,,,,49,28,Female,0.8194444444444444,0.8333333333333334,0.4069337000061447,-0.00012722659969090135,0.18510645161914802,,,,,0.0006040968763432039,1.0419989558684626,1.573,0.5947641431606582,1.117,-1.0461004469089277,0.14285714285714285,0.25,0.0,0.25,3.111111111111111,3.75,3.5555555555555554,3.2222222222222223,1.625,3.7777777777777777,2.0,2.25,3.0,2.5,,,,,,,,,,,,
3,240722_144316,LEARNING,1.0,4,3.0,1472.0,,,,,,,,,,4.0,4.0,4.0,cue2.png,Hard,A,,,,,,,,,,,,,,,,,,,,,,,,,,,49,28,Female,0.8194444444444444,0.8333333333333334,0.5173647000143925,-0.0005334007195665564,-0.3174613344101605,0.00011515279774067678,-0.11543124190841504,0.0009332252906769107,1.4767802339170963,-0.00039028154643746225,-0.7304967161122455,1.5770000000000002,0.601091421279389,1.59,-0.13331950037557497,0.14285714285714285,0.25,0.0,0.25,3.111111111111111,3.75,3.5555555555555554,3.2222222222222223,1.625,3.7777777777777777,2.0,2.25,3.0,2.5,,,,,,,,,,,,
4,240722_144336,LEARNING,1.0,5,3.0,1472.0,,,,,,,,,,5.0,5.0,5.0,cue2.png,Hard,A,,,,,,,,,,,,,,,,,,,,,,,,,,,49,28,Female,0.5,0.6666666666666667,0.4259790777901394,-0.001868699330309552,-1.9696544054373364,0.00033234468565604804,0.235123201697609,-0.0004263068674814213,-0.6000263201331355,-0.00017977296572277597,-0.3552617555746066,,,1.575,-0.16226604202039613,0.14285714285714285,0.25,0.0,0.25,3.111111111111111,3.75,3.5555555555555554,3.2222222222222223,1.625,3.7777777777777777,2.0,2.25,3.0,2.5,,,,,,,,,,,,
5,240722_144356,LEARNING,1.0,6,1.0,1472.0,,,,,,,,,,6.0,6.0,6.0,cue1.png,Easy,A,,,,,,,,,,,,,,,,,,,,,,,,,,,49,28,Female,1.0,1.0,0.4258069111060144,0.00013608816122494738,0.5109113464825308,9.545802813384473e-05,-0.1472192109147069,0.00047578044857154826,0.7779924630652283,,,0.1100000000000001,-1.7194378287649883,,,0.14285714285714285,0.25,0.0,0.25,3.111111111111111,3.75,3.5555555555555554,3.2222222222222223,1.625,3.7777777777777777,2.0,2.25,3.0,2.5,,,,,,,,,,,,
6,240722_144416,LEARNING,1.0,7,3.0,1472.0,,,,,,,,,,7.0,7.0,7.0,cue2.png,Hard,A,,,,,,,,,,,,,,,,,,,,,,,,,,,49,28,Female,0.8194444444444444,0.8333333333333334,0.4441405444328363,,,7.023186892897004e-05,-0.1879350142960356,0.00013700698053445252,0.26048579392483623,0.00041102601260552957,0.6978470087620149,,,1.4659999999999997,-0.37261091130609514,0.14285714285714285,0.25,0.0,0.25,3.111111111111111,3.75,3.5555555555555554,3.2222222222222223,1.625,3.7777777777777777,2.0,2.25,3.0,2.5,,,,,,,,,,,,
7,240722_144435,LEARNING,1.0,8,3.0,1472.0,,,,,,,,,,8.0,8.0,8.0,cue2.png,Hard,A,,,,,,,,,,,,,,,,,,,,,,,,,,,49,28,Female,0.8194444444444444,0.8333333333333334,0.3660044777724478,,,0.00012022000807017288,-0.10725260726998255,0.000349412836077043,0.5849546711502654,-7.259176014367055e-06,-0.0477531264552558,,,1.959,0.5787654240870194,0.14285714285714285,0.25,0.0,0.25,3.111111111111111,3.75,3.5555555555555554,3.2222222222222223,1.625,3.7777777777777777,2.0,2.25,3.0,2.5,,,,,,,,,,,,
8,240722_144455,LEARNING,1.0,9,1.0,1472.0,,,,,,,,,,9.0,9.0,9.0,cue1.png,Easy,A,,,,,,,,,,,,,,,,,,,,,,,,,,,49,28,Female,1.0,1.0,0.4198513333426995,,,1.8989283099551686e-05,-0.27064213718528957,-0.0004514548574442879,-0.6384421163779407,-6.944371402420497e-05,-0.1585980743759224,,,0.9349999999999998,-1.3973184855327552,0.14285714285714285,0.25,0.0,0.25,3.111111111111111,3.75,3.5555555555555554,3.2222222222222223,1.625,3.7777777777777777,2.0,2.25,3.0,2.5,,,,,,,,,,,,
9,240722_144514,LEARNING,1.0,10,1.0,1472.0,,,,,,,,,,10.0,10.0,10.0,cue1.png,Easy,A,,,,,,,,,,,,,,,,,,,,,,,,,,,49,28,Female,0.8194444444444444,0.8333333333333334,0.3566552222473547,-5.5245266610545914e-05,0.27417046981092036,7.104699590513262e-05,-0.1866193740742043,-0.0006266342133176006,-0.906044197159044,,,0.8560000000000001,-0.5394004596217672,2.778,2.159246597894241,0.14285714285714285,0.25,0.0,0.25,3.111111111111111,3.75,3.5555555555555554,3.2222222222222223,1.625,3.7777777777777777,2.0,2.25,3.0,2.5,,,,,,,,,,,,
10,240722_144534,LEARNING,1.0,11,3.0,1472.0,,,,,,,,,,11.0,11.0,11.0,cue2.png,Hard,A,,,,,,,,,,,,,,,,,,,,,,,,,,,49,28,Female,0.8194444444444444,0.8333333333333334,0.4327901777837218,2.7355956468575957e-05,0.376374701382582,,,-2.2811363398329843e-05,0.016349028093069956,-0.0008843206731249664,-1.611129475011,0.8460000000000001,-0.5552186549185932,,,0.14285714285714285,0.25,0.0,0.25,3.111111111111111,3.75,3.5555555555555554,3.2222222222222223,1.625,3.7777777777777777,2.0,2.25,3.0,2.5,,,,,,,,,,,,
11,240722_144553,LEARNING,1.0,12,1.0,1472.0,,,,,,,,,,12.0,12.0,12.0,cue1.png,Easy,A,,,,,,,,,,,,,,,,,,,,,,,,,,,49,28,Female,1.0,1.0,0.4175175555541904,-3.3675384960462316e-05,0.3008593382920421,3.432454821952584e-05,-0.24589054363692414,-0.0007870112363273212,-1.151034395078925,-0.0005932786668326646,-1.0923423767601013,-0.10399999999999998,-2.0579472081170653,1.553,-0.2047209697661335,0.14285714285714285,0.25,0.0,0.25,3.111111111111111,3.75,3.5555555555555554,3.2222222222222223,1.625,3.7777777777777777,2.0,2.25,3.0,2.5,,,,,,,,,,,,
12,240722_144613,LEARNING,1.0,13,1.0,1472.0,,,,,,,,,,13.0,13.0,13.0,cue1.png,Easy,A,,,,,,,,,,,,,,,,,,,,,,,,,,,49,28,Female,1.0,1.0,0.4049175777601906,-8.097207826341518e-06,0.3325077551259258,0.002529885179595115,3.782021718711681,-3.0188679508226166e-05,0.005079520155068889,,,0.859,-0.5346550010327196,,,0.14285714285714285,0.25,0.0,0.25,3.111111111111111,3.75,3.5555555555555554,3.2222222222222223,1.625,3.7777777777777777,2.0,2.25,3.0,2.5,,,,,,,,,,,,
13,240722_144633,LEARNING,1.0,14,1.0,1472.0,,,,,,,,,,14.0,14.0,14.0,cue1.png,Easy,A,,,,,,,,,,,,,,,,,,,,,,,,,,,49,28,Female,1.0,1.0,0.4356668555539929,,,7.410709519757846e-05,-0.181680278902931,0.0003333457935003146,0.5604108314718018,3.324906506249614e-05,0.02445347049352827,,,,,0.14285714285714285,0.25,0.0,0.25,3.111111111111111,3.75,3.5555555555555554,3.2222222222222223,1.625,3.7777777777777777,2.0,2.25,3.0,2.5,,,,,,,,,,,,
14,240722_144652,LEARNING,1.0,15,3.0,1472.0,,,,,,,,,,15.0,15.0,15.0,cue2.png,Hard,A,,,,,,,,,,,,,,,,,,,,,,,,,,,49,28,Female,1.0,1.0,0.4291727444312225,-0.00023027438942982556,0.05760325284282221,-2.241760265710201e-05,-0.33747413508908713,,,,,,,,,0.14285714285714285,0.25,0.0,0.25,3.111111111111111,3.75,3.5555555555555554,3.2222222222222223,1.625,3.7777777777777777,2.0,2.25,3.0,2.5,,,,,,,,,,,,
15,240722_144712,LEARNING,1.0,16,1.0,1472.0,,,,,,,,,,16.0,16.0,16.0,cue1.png,Easy,A,,,,,,,,,,,,,,,,,,,,,,,,,,,49,28,Female,1.0,1.0,0.4030160221866228,0.00011588006414242581,0.4859074427041775,,,0.0006162617393281403,0.9925901565541004,,,,,,,0.14285714285714285,0.25,0.0,0.25,3.111111111111111,3.75,3.5555555555555554,3.2222222222222223,1.625,3.7777777777777777,2.0,2.25,3.0,2.5,,,,,,,,,,,,
16,240722_144732,LEARNING,1.0,17,1.0,1472.0,,,,,,,,,,17.0,17.0,17.0,cue1.png,Easy,A,,,,,,,,,,,,,,,,,,,,,,,,,,,49,28,Female,1.0,1.0,0.4053404888836667,-0.0032794611621199594,-3.71521970793534,-2.179486173684497e-05,-0.3364690119286104,-0.00023441331677665628,-0.30689181692029277,0.0003667822347487703,0.6189817568955436,,,,,0.14285714285714285,0.25,0.0,0.25,3.111111111111111,3.75,3.5555555555555554,3.2222222222222223,1.625,3.7777777777777777,2.0,2.25,3.0,2.5,,,,,,,,,,,,
17,240722_144751,LEARNING,1.0,18,3.0,1472.0,,,,,,,,,,18.0,18.0,18.0,cue2.png,Hard,A,,,,,,,,,,,,,,,,,,,,,,,,,,,49,28,Female,0.5,0.6666666666666667,0.404983999983718,-0.00010149279084877656,0.21694743484045068,-2.7637500394453365e-05,-0.3458992119396119,-0.001311844168205345,-1.952763479723894,0.0006027562180049052,1.0396092106288242,,,,,0.14285714285714285,0.25,0.0,0.25,3.111111111111111,3.75,3.5555555555555554,3.2222222222222223,1.625,3.7777777777777777,2.0,2.25,3.0,2.5,,,,,,,,,,,,
18,240722_144811,LEARNING,1.0,19,3.0,1472.0,,,,,,,,,,19.0,19.0,19.0,cue2.png,Hard,A,,,,,,,,,,,,,,,,,,,,,,,,,,,49,28,Female,0.8194444444444444,0.8333333333333334,0.420148166672637,5.3797191567634545e-06,0.3491830404898756,-8.714563967737775e-05,-0.44194719447054204,-0.0004474805145907139,-0.632370953414406,0.0007498913984019077,1.3018800568932676,,,,,0.14285714285714285,0.25,0.0,0.25,3.111111111111111,3.75,3.5555555555555554,3.2222222222222223,1.625,3.7777777777777777,2.0,2.25,3.0,2.5,,,,,,,,,,,,
19,240722_144830,LEARNING,1.0,20,3.0,1472.0,,,,,,,,,,20.0,20.0,20.0,cue2.png,Hard,A,,,,,,,,,,,,,,,,,,,,,,,,,,,49,28,Female,0.8194444444444444,0.8333333333333334,0.3806705888774659,-3.1232363773627935e-05,0.3038821398173237,-3.8511530910729196e-05,-0.36345023446616825,-0.0005770536048285146,-0.8303053983038423,-0.0001791192870560527,-0.35409656274550927,0.6409999999999998,-0.8794916585035271,2.644,1.9006574925338409,0.14285714285714285,0.25,0.0,0.25,3.111111111111111,3.75,3.5555555555555554,3.2222222222222223,1.625,3.7777777777777777,2.0,2.25,3.0,2.5,,,,,,,,,,,,
20,240722_144850,LEARNING,1.0,21,1.0,1472.0,,,,,,,,,,21.0,21.0,21.0,cue1.png,Easy,A,,,,,,,,,,,,,,,,,,,,,,,,,,,49,28,Female,1.0,1.0,0.3789062333396739,0.00033464285266461904,0.7565872445754886,,,0.000214187256244407,0.37838554456771145,0.001082205382102474,1.8942351244949753,1.261,0.10123644989968626,0.9079999999999999,-1.4494222604934326,0.14285714285714285,0.25,0.0,0.25,3.111111111111111,3.75,3.5555555555555554,3.2222222222222223,1.625,3.7777777777777777,2.0,2.25,3.0,2.5,,,,,,,,,,,,
21,240722_144908,LEARNING,1.0,22,3.0,1472.0,,,,,,,,,,22.0,22.0,22.0,cue2.png,Hard,A,,,,,,,,,,,,,,,,,,,,,,,,,,,49,28,Female,0.8194444444444444,0.8333333333333334,0.3383109111131893,-1.6570475866429634e-05,0.3220236022689106,0.00016550682731675563,-0.034158276371867795,-6.253689944433691e-05,-0.04433526916935489,5.296334945540174e-06,-0.02537272446130516,1.749,0.8731643803847964,1.5669999999999997,-0.17770419756430106,0.14285714285714285,0.25,0.0,0.25,3.111111111111111,3.75,3.5555555555555554,3.2222222222222223,1.625,3.7777777777777777,2.0,2.25,3.0,2.5,,,,,,,,,,,,
22,240722_144927,LEARNING,1.0,23,3.0,1472.0,,,,,,,,,,23.0,23.0,23.0,cue2.png,Hard,A,,,,,,,,,,,,,,,,,,,,,,,,,,,49,28,Female,0.8194444444444444,0.8333333333333334,0.330481188889179,-8.991213188397438e-05,0.2312764278803884,-1.0525522298459634e-05,-0.31827994854070935,-0.0007007773056204487,-1.0193043794269603,0.0001021324038263851,0.1472391394435324,2.016,1.295510194810051,1.709,0.09632306334000422,0.14285714285714285,0.25,0.0,0.25,3.111111111111111,3.75,3.5555555555555554,3.2222222222222223,1.625,3.7777777777777777,2.0,2.25,3.0,2.5,,,,,,,,,,,,
23,240722_144946,LEARNING,1.0,24,3.0,1472.0,,,,,,,,,,24.0,24.0,24.0,cue2.png,Hard,A,,,,,,,,,,,,,,,,,,,,,,,,,,,49,28,Female,0.5,0.6666666666666667,0.3214111333299014,,,8.766131542678598e-05,-0.15980334704986487,9.850379645664868e-05,0.20166874824869196,-0.0010457891803324505,-1.8989497088673617,0.383,-1.287601097161638,1.8010000000000002,0.27386185209490593,0.14285714285714285,0.25,0.0,0.25,3.111111111111111,3.75,3.5555555555555554,3.2222222222222223,1.625,3.7777777777777777,2.0,2.25,3.0,2.5,,,,,,,,,,,,
24,240722_145005,LEARNING,1.0,25,1.0,1472.0,,,,,,,,,,25.0,25.0,25.0,cue1.png,Easy,A,,,,,,,,,,,,,,,,,,,,,,,,,,,49,28,Female,1.0,1.0,0.3765418110932741,7.807421891579003e-05,0.43912947482101045,-2.3082242915548577e-05,-0.3385468850809685,-0.0006495004938753563,-0.9409744789064273,-0.00027520598431167963,-0.5253726595701544,1.608,0.6501278266995495,0.8979999999999999,-1.4687199549233132,0.14285714285714285,0.25,0.0,0.25,3.111111111111111,3.75,3.5555555555555554,3.2222222222222223,1.625,3.7777777777777777,2.0,2.25,3.0,2.5,,,,,,,,,,,,
25,240722_145025,LEARNING,1.0,26,1.0,1472.0,,,,,,,,,,26.0,26.0,26.0,cue1.png,Easy,A,,,,,,,,,,,,,,,,,,,,,,,,,,,49,28,Female,1.0,1.0,0.3693139222191853,,,3.344267015154218e-05,-0.24731392219133325,0.001088083381895217,1.7133397715933152,-0.00041633913238947086,-0.7769447858451386,0.8140000000000003,-0.6058368798684362,1.558,-0.19507212255119297,0.14285714285714285,0.25,0.0,0.25,3.111111111111111,3.75,3.5555555555555554,3.2222222222222223,1.625,3.7777777777777777,2.0,2.25,3.0,2.5,,,,,,,,,,,,
26,240722_145044,LEARNING,1.0,27,3.0,1472.0,,,,,,,,,,27.0,27.0,27.0,cue2.png,Hard,A,,,,,,,,,,,,,,,,,,,,,,,,,,,49,28,Female,0.8194444444444444,0.8333333333333334,0.3885048222469373,,,4.226032424401718e-05,-0.2330819549941864,-0.0008633279427978872,-1.2676149667340315,8.616183485938428e-05,0.11877134114404908,,,,,0.14285714285714285,0.25,0.0,0.25,3.111111111111111,3.75,3.5555555555555554,3.2222222222222223,1.625,3.7777777777777777,2.0,2.25,3.0,2.5,,,,,,,,,,,,
27,240722_145103,LEARNING,1.0,28,1.0,1472.0,,,,,,,,,,28.0,28.0,28.0,cue1.png,Easy,A,,,,,,,,,,,,,,,,,,,,,,,,,,,49,28,Female,0.8194444444444444,0.8333333333333334,0.3749569111063869,-2.5039339001131124e-06,0.33942843065941525,4.8485632346848516e-05,-0.22303411462956632,-0.001063140207477293,-1.572846011380996,0.0007934116404707901,1.3794555944787825,1.7879999999999998,0.9348553420424174,1.3800000000000001,-0.5385710834030676,0.14285714285714285,0.25,0.0,0.25,3.111111111111111,3.75,3.5555555555555554,3.2222222222222223,1.625,3.7777777777777777,2.0,2.25,3.0,2.5,,,,,,,,,,,,
28,240722_145123,LEARNING,1.0,29,1.0,1472.0,,,,,,,,,,29.0,29.0,29.0,cue1.png,Easy,A,,,,,,,,,,,,,,,,,,,,,,,,,,,49,28,Female,1.0,1.0,0.4114921333190675,9.672705184282995e-05,0.46220901753088783,0.0029634989899683384,4.481887857793736,0.00013707209454580718,0.2605852613811449,-8.534478902892315e-05,-0.18694199856012644,1.264,0.10598190848873425,1.082,-1.1136423774135098,0.14285714285714285,0.25,0.0,0.25,3.111111111111111,3.75,3.5555555555555554,3.2222222222222223,1.625,3.7777777777777777,2.0,2.25,3.0,2.5,,,,,,,,,,,,
29,240722_145143,LEARNING,1.0,30,3.0,1472.0,,,,,,,,,,30.0,30.0,30.0,cue2.png,Hard,A,,,,,,,,,,,,,,,,,,,,,,,,,,,49,28,Female,0.8194444444444444,0.8333333333333334,0.3972170333274537,6.328638864848066e-06,0.35035715881370594,,,,,-0.0012467917629590663,-2.2572400735821705,2.1799999999999997,1.5549285976779972,2.791,2.1843336006530856,0.14285714285714285,0.25,0.0,0.25,3.111111111111111,3.75,3.5555555555555554,3.2222222222222223,1.625,3.7777777777777777,2.0,2.25,3.0,2.5,,,,,,,,,,,,
30,240722_145202,LEARNING,1.0,31,3.0,1472.0,,,,,,,,,,31.0,31.0,31.0,cue2.png,Hard,A,,,,,,,,,,,,,,,,,,,,,,,,,,,49,28,Female,0.8194444444444444,0.8333333333333334,0.3644199333179535,-0.0001524354339592789,0.1539150304854806,3.322547951801558e-05,-0.24766447461031688,,,,,,,,,0.14285714285714285,0.25,0.0,0.25,3.111111111111111,3.75,3.5555555555555554,3.2222222222222223,1.625,3.7777777777777777,2.0,2.25,3.0,2.5,,,,,,,,,,,,
31,240722_145221,LEARNING,1.0,32,1.0,1472.0,,,,,,,,,,32.0,32.0,32.0,cue1.png,Easy,A,,,,,,,,,,,,,,,,,,,,,,,,,,,49,28,Female,1.0,1.0,0.3630414444487542,-2.514490981053892e-05,0.31141427470991995,,,,,,,0.2330000000000001,-1.5248740266140282,1.388,-0.5231329278591635,0.14285714285714285,0.25,0.0,0.25,3.111111111111111,3.75,3.5555555555555554,3.2222222222222223,1.625,3.7777777777777777,2.0,2.25,3.0,2.5,,,,,,,,,,,,
32,240722_145240,LEARNING,1.0,33,1.0,1472.0,,,,,,,,,,33.0,33.0,33.0,cue1.png,Easy,A,,,,,,,,,,,,,,,,,,,,,,,,,,,49,28,Female,1.0,1.0,0.3829504444729537,-7.90910270295547e-06,0.3327405015535658,1.6842997084990513e-05,-0.27410630938285824,9.15728132902232e-05,0.19108105366591485,,,0.4690000000000001,-1.1515646176089342,2.146,0.9396323099257864,0.14285714285714285,0.25,0.0,0.25,3.111111111111111,3.75,3.5555555555555554,3.2222222222222223,1.625,3.7777777777777777,2.0,2.25,3.0,2.5,,,,,,,,,,,,
33,240722_145300,LEARNING,1.0,34,1.0,1472.0,,,,,,,,,,34.0,34.0,34.0,cue1.png,Easy,A,,,,,,,,,,,,,,,,,,,,,,,,,,,49,28,Female,1.0,1.0,0.386353166670435,-0.00017995951239322327,0.11985890902387895,3.2559019237120724e-05,-0.24874016217488026,1.4370345899506615e-06,0.05339061741119077,-0.00017820218303464704,-0.35246180994772436,1.5980000000000003,0.6343096314027238,2.3209999999999997,1.2773419624486966,0.14285714285714285,0.25,0.0,0.25,3.111111111111111,3.75,3.5555555555555554,3.2222222222222223,1.625,3.7777777777777777,2.0,2.25,3.0,2.5,,,,,,,,,,,,
34,240722_145319,LEARNING,1.0,35,3.0,1472.0,,,,,,,,,,35.0,35.0,35.0,cue2.png,Hard,A,,,,,,,,,,,,,,,,,,,,,,,,,,,49,28,Female,0.8194444444444444,0.8333333333333334,0.4250578111322183,,,,,-0.0002442094288905173,-0.321856251354736,0.0005772841779194335,0.99420488590327,,,2.014,0.6849027434513622,0.14285714285714285,0.25,0.0,0.25,3.111111111111111,3.75,3.5555555555555554,3.2222222222222223,1.625,3.7777777777777777,2.0,2.25,3.0,2.5,,,,,,,,,,,,
35,240722_145339,LEARNING,1.0,36,3.0,1472.0,,,,,,,,,,36.0,36.0,36.0,cue2.png,Hard,A,,,,,,,,,,,,,,,,,,,,,,,,,,,49,28,Female,0.5,0.6666666666666667,0.3932807555473927,-1.6615605308128913e-05,0.3219677626609944,-4.718586051134267e-05,-0.37745087148804074,0.0007495410742433695,1.1961862205459668,-6.688932075631787e-05,-0.15404482693195085,0.7429999999999999,-0.7181460664759016,1.9049999999999998,0.47455787416566353,0.14285714285714285,0.25,0.0,0.25,3.111111111111111,3.75,3.5555555555555554,3.2222222222222223,1.625,3.7777777777777777,2.0,2.25,3.0,2.5,,,,,,,,,,,,
36,240722_145358,LEARNING,1.0,37,1.0,1472.0,,,,,,,,,,37.0,37.0,37.0,cue1.png,Easy,A,,,,,,,,,,,,,,,,,,,,,,,,,,,49,28,Female,1.0,1.0,0.3653563666545475,,,,,0.0004954923560645946,0.8081041587899152,,,2.2220000000000004,1.6213650179246675,2.078,0.8084079878025981,0.14285714285714285,0.25,0.0,0.25,3.111111111111111,3.75,3.5555555555555554,3.2222222222222223,1.625,3.7777777777777777,2.0,2.25,3.0,2.5,,,,,,,,,,,,
37,240722_145418,LEARNING,1.0,38,3.0,1472.0,,,,,,,,,,38.0,38.0,38.0,cue2.png,Hard,A,,,,,,,,,,,,,,,,,,,,,,,,,,,49,28,Female,0.8194444444444444,0.8333333333333334,0.4062267111019335,3.180011774608048e-05,0.3818735556539383,-3.8890095875165204e-07,-0.3019191272969119,,,0.0009641921827187733,1.6838746818787091,1.64,0.7007460516493924,1.1910000000000003,-0.9032975081278107,0.14285714285714285,0.25,0.0,0.25,3.111111111111111,3.75,3.5555555555555554,3.2222222222222223,1.625,3.7777777777777777,2.0,2.25,3.0,2.5,,,,,,,,,,,,
38,240722_145437,LEARNING,1.0,39,3.0,1472.0,,,,,,,,,,39.0,39.0,39.0,cue2.png,Hard,A,,,,,,,,,,,,,,,,,,,,,,,,,,,49,28,Female,0.5,0.6666666666666667,0.3366619333262658,-8.836608484060794e-07,0.3414332286032346,5.435102513583678e-05,-0.21356718874476652,-0.0010786921435104006,-1.5966029798998431,,,0.6819999999999999,-0.8146370577865402,2.2670000000000003,1.1731344125273424,0.14285714285714285,0.25,0.0,0.25,3.111111111111111,3.75,3.5555555555555554,3.2222222222222223,1.625,3.7777777777777777,2.0,2.25,3.0,2.5,,,,,,,,,,,,
39,240722_145456,LEARNING,1.0,40,3.0,1472.0,,,,,,,,,,40.0,40.0,40.0,cue2.png,Hard,A,,,,,,,,,,,,,,,,,,,,,,,,,,,49,28,Female,0.8194444444444444,0.8333333333333334,0.3822853555773488,5.50763016519914e-05,0.41067366782353154,7.646326698848658e-05,-0.17787734455243703,-0.0001836071222267241,-0.22928082611402603,-0.0011480433735904256,-2.0812194673812363,1.827,0.996546303700039,1.4849999999999999,-0.3359452918893217,0.14285714285714285,0.25,0.0,0.25,3.111111111111111,3.75,3.5555555555555554,3.2222222222222223,1.625,3.7777777777777777,2.0,2.25,3.0,2.5,,,,,,,,,,,,
40,240722_145515,LEARNING,1.0,41,1.0,1472.0,,,,,,,,,,41.0,41.0,41.0,cue1.png,Easy,A,,,,,,,,,,,,,,,,,,,,,,,,,,,49,28,Female,1.0,1.0,0.3531201000118421,,,2.229133055786734e-06,-0.297693539195455,,,-0.0001822425018409117,-0.35966374377237453,,,1.919,0.5015746463674968,0.14285714285714285,0.25,0.0,0.25,3.111111111111111,3.75,3.5555555555555554,3.2222222222222223,1.625,3.7777777777777777,2.0,2.25,3.0,2.5,,,,,,,,,,,,
41,240722_145534,LEARNING,1.0,42,3.0,1472.0,,,,,,,,,,42.0,42.0,42.0,cue2.png,Hard,A,,,,,,,,,,,,,,,,,,,,,,,,,,,49,28,Female,0.5,0.6666666666666667,0.3602963777569433,-0.00015473408096590945,0.15107086617156798,-7.636604274079356e-05,-0.4245485906705977,,,0.0002716871398042043,0.44947320727869744,,,,,0.14285714285714285,0.25,0.0,0.25,3.111111111111111,3.75,3.5555555555555554,3.2222222222222223,1.625,3.7777777777777777,2.0,2.25,3.0,2.5,,,,,,,,,,,,
42,240722_145554,LEARNING,1.0,43,3.0,1472.0,,,,,,,,,,43.0,43.0,43.0,cue2.png,Hard,A,,,,,,,,,,,,,,,,,,,,,,,,,,,49,28,Female,0.8194444444444444,0.8333333333333334,0.387723399985892,-0.0033691676575230284,-3.8262154424764043,,,0.0007567053622337377,1.2071303090430388,0.0004980587618246008,0.852984296314978,1.523,0.515673166676528,1.626,-0.06384780042800517,0.14285714285714285,0.25,0.0,0.25,3.111111111111111,3.75,3.5555555555555554,3.2222222222222223,1.625,3.7777777777777777,2.0,2.25,3.0,2.5,,,,,,,,,,,,
43,240722_145613,LEARNING,1.0,44,1.0,1472.0,,,,,,,,,,44.0,44.0,44.0,cue1.png,Easy,A,,,,,,,,,,,,,,,,,,,,,,,,,,,49,28,Female,1.0,1.0,0.3433564111150594,7.123982094429156e-05,0.43067313038815813,-6.802374093429348e-05,-0.4110838568067313,,,0.00038218678492476024,0.6464406175166317,1.3730000000000002,0.2784002372241382,1.7249999999999999,0.1271993744278128,0.14285714285714285,0.25,0.0,0.25,3.111111111111111,3.75,3.5555555555555554,3.2222222222222223,1.625,3.7777777777777777,2.0,2.25,3.0,2.5,,,,,,,,,,,,
44,240722_145632,LEARNING,1.0,45,1.0,1472.0,,,,,,,,,,45.0,45.0,45.0,cue1.png,Easy,A,,,,,,,,,,,,,,,,,,,,,,,,,,,49,28,Female,1.0,1.0,0.3479312555217702,,,1.1002747531253885e-05,-0.2835326533061092,-0.0004977847046195912,-0.7092150875683801,0.0006497842310130009,1.123437406825604,1.1390000000000002,-0.09174553272159064,,,0.14285714285714285,0.25,0.0,0.25,3.111111111111111,3.75,3.5555555555555554,3.2222222222222223,1.625,3.7777777777777777,2.0,2.25,3.0,2.5,,,,,,,,,,,,
45,240722_145651,LEARNING,1.0,46,1.0,1472.0,,,,,,,,,,46.0,46.0,46.0,cue1.png,Easy,A,,,,,,,,,,,,,,,,,,,,,,,,,,,49,28,Female,1.0,1.0,0.3784979778057378,-0.00014837942671173119,0.15893361360727803,-3.0912928544804975e-05,-0.35118585456627116,,,0.000496841984205465,0.8508153704671603,0.6280000000000001,-0.9000553123894004,0.4720000000000002,-2.2908017376362264,0.14285714285714285,0.25,0.0,0.25,3.111111111111111,3.75,3.5555555555555554,3.2222222222222223,1.625,3.7777777777777777,2.0,2.25,3.0,2.5,,,,,,,,,,,,
46,240722_145710,LEARNING,1.0,47,3.0,1472.0,,,,,,,,,,47.0,47.0,47.0,cue2.png,Hard,A,,,,,,,,,,,,,,,,,,,,,,,,,,,49,28,Female,0.5,0.6666666666666667,0.3928022110938198,-1.965095675372265e-05,0.31821205844158257,,,0.0012654079052487506,1.98421878691085,,,,,1.6710000000000003,0.02299182450645828,0.14285714285714285,0.25,0.0,0.25,3.111111111111111,3.75,3.5555555555555554,3.2222222222222223,1.625,3.7777777777777777,2.0,2.25,3.0,2.5,,,,,,,,,,,,
47,240722_145730,LEARNING,1.0,48,3.0,1472.0,,,,,,,,,,48.0,48.0,48.0,cue2.png,Hard,A,,,,,,,,,,,,,,,,,,,,,,,,,,,49,28,Female,0.5,0.6666666666666667,0.3587461222454698,9.667621836798902e-05,0.46214612020273016,,,0.0010276041214533037,1.6209523104243029,-0.00013488933460836447,-0.2752559548950186,2.414,1.9250743676237267,1.707,0.09246352445402808,0.14285714285714285,0.25,0.0,0.25,3.111111111111111,3.75,3.5555555555555554,3.2222222222222223,1.625,3.7777777777777777,2.0,2.25,3.0,2.5,,,,,,,,,,,,
48,240722_145748,LEARNING,1.0,49,1.0,1472.0,,,,,,,,,,49.0,49.0,49.0,cue1.png,Easy,A,,,,,,,,,,,,,,,,,,,,,,,,,,,49,28,Female,1.0,1.0,0.3147736110905599,,,,,-0.0006882501099738474,-1.0001679714599916,-0.0006921091051317312,-1.268509236510729,,,,,0.14285714285714285,0.25,0.0,0.25,3.111111111111111,3.75,3.5555555555555554,3.2222222222222223,1.625,3.7777777777777777,2.0,2.25,3.0,2.5,,,,,,,,,,,,
49,240722_145808,LEARNING,1.0,50,1.0,1472.0,,,,,,,,,,50.0,50.0,50.0,cue1.png,Easy,A,,,,,,,,,,,,,,,,,,,,,,,,,,,49,28,Female,1.0,1.0,0.3568097555544227,1.8151223346418287e-05,0.3649854913866088,8.348978636401163e-05,-0.16653632434299942,0.0009028579526087644,1.430391418212716,-4.151149748312169e-05,-0.10880844520290624,,,1.379,-0.5405008528460559,0.14285714285714285,0.25,0.0,0.25,3.111111111111111,3.75,3.5555555555555554,3.2222222222222223,1.625,3.7777777777777777,2.0,2.25,3.0,2.5,,,,,,,,,,,,
0,240722_145909,TrueCHOICE,9.0,1,1.0,1472.0,,,,,,,,,,,1.0,1.0,,,A,,,,,,True,cue1.png,Easy,cue2.png,Hard,Left,Easy,Easy,0.0162428999319672,,,,,,,,,,,,,49,28,Female,0.8194444444444444,0.8333333333333334,0.3894428000009308,,,,,,,,,,,,,0.14285714285714285,0.25,0.0,0.25,3.111111111111111,3.75,3.5555555555555554,3.2222222222222223,1.625,3.7777777777777777,2.0,2.25,3.0,2.5,3.621687893143278e-05,-0.36448277028264525,,,,,,,,,,
1,240722_145927,TrueCHOICE,9.0,2,1.0,1472.0,,,,,,,,,,,2.0,2.0,,,A,,,,,,True,cue1.png,Easy,cue2.png,Hard,Left,Easy,Easy,0.0169873998966068,,,,,,,,,,,,,49,28,Female,,,,,,,,,,,,,,,,0.14285714285714285,0.25,0.0,0.25,3.111111111111111,3.75,3.5555555555555554,3.2222222222222223,1.625,3.7777777777777777,2.0,2.25,3.0,2.5,0.0008354243613995023,1.9875398653244272,-0.0016935097600153156,-2.0365541697308127,,,,,,,,
2,240722_145945,TrueCHOICE,9.0,3,1.0,1472.0,,,,,,,,,,,3.0,3.0,,,A,,,,,,True,cue2.png,Hard,cue1.png,Easy,Right,Easy,Easy,0.0159531000535935,,,,,,,,,,,,,49,28,Female,1.0,1.0,0.3872100444407099,,,,,,,,,,,,,0.14285714285714285,0.25,0.0,0.25,3.111111111111111,3.75,3.5555555555555554,3.2222222222222223,1.625,3.7777777777777777,2.0,2.25,3.0,2.5,-6.411316576245343e-05,-0.6597484445012517,9.214229865037692e-05,0.5814187715335045,1.591,1.1959551753994104,,,,,,
3,240722_150004,TrueCHOICE,9.0,4,3.0,1472.0,,,,,,,,,,,4.0,4.0,,,A,,,,,,True,cue1.png,Easy,cue2.png,Hard,Right,Hard,Hard,0.0164573000511154,,,,,,,,,,,,,49,28,Female,0.8194444444444444,0.8333333333333334,0.4122406333271,,,,,,,,,,,,,0.14285714285714285,0.25,0.0,0.25,3.111111111111111,3.75,3.5555555555555554,3.2222222222222223,1.625,3.7777777777777777,2.0,2.25,3.0,2.5,,,0.00012819258748412825,0.6342726745284964,1.5810000000000002,1.0662420327313644,,,,,,
4,240722_150022,TrueCHOICE,9.0,5,3.0,1472.0,,,,,,,,,,,5.0,5.0,,,A,,,,,,True,cue2.png,Hard,cue1.png,Easy,Left,Hard,Hard,0.0163869999814778,,,,,,,,,,,,,49,28,Female,0.5,0.6666666666666667,0.3468187777842912,,,,,,,,,,,,,0.14285714285714285,0.25,0.0,0.25,3.111111111111111,3.75,3.5555555555555554,3.2222222222222223,1.625,3.7777777777777777,2.0,2.25,3.0,2.5,-3.54621565748529e-05,-0.5754301371524275,,,,,,,,,,
5,240722_150039,TrueCHOICE,9.0,6,1.0,1472.0,,,,,,,,,,,6.0,6.0,,,A,,,,,,True,cue2.png,Hard,cue1.png,Easy,Right,Easy,Easy,0.0164918999653309,,,,,,,,,,,,,49,28,Female,0.8194444444444444,0.8333333333333334,0.4049089110922068,,,,,,,,,,,,,0.14285714285714285,0.25,0.0,0.25,3.111111111111111,3.75,3.5555555555555554,3.2222222222222223,1.625,3.7777777777777777,2.0,2.25,3.0,2.5,,,,,1.467,-0.41248779368439287,,,,,,
6,240722_150057,TrueCHOICE,9.0,7,1.0,1472.0,,,,,,,,,,,7.0,7.0,,,A,,,,,,True,cue1.png,Easy,cue2.png,Hard,Left,Easy,Easy,0.016888799960725,,,,,,,,,,,,,49,28,Female,,,,,,,,,,,,,,,,0.14285714285714285,0.25,0.0,0.25,3.111111111111111,3.75,3.5555555555555554,3.2222222222222223,1.625,3.7777777777777777,2.0,2.25,3.0,2.5,2.826710299615306e-05,-0.38787851338810264,-2.177552036075614e-06,0.4431349352604198,1.4679999999999997,-0.39951647941759233,,,,,,
7,240722_150115,TrueCHOICE,9.0,8,1.0,1472.0,,,,,,,,,,,8.0,8.0,,,A,,,,,,True,cue2.png,Hard,cue1.png,Easy,Right,Easy,Easy,0.0165950999362394,,,,,,,,,,,,,49,28,Female,1.0,1.0,0.3756759555803405,,,,,,,,,,,,,0.14285714285714285,0.25,0.0,0.25,3.111111111111111,3.75,3.5555555555555554,3.2222222222222223,1.625,3.7777777777777777,2.0,2.25,3.0,2.5,,,0.00026757889064846045,0.8386291550064239,,,,,,,,
8,240722_150132,TrueCHOICE,9.0,9,3.0,1472.0,,,,,,,,,,,9.0,9.0,,,A,,,,,,True,cue1.png,Easy,cue2.png,Hard,Right,Hard,Hard,0.0167008000425994,,,,,,,,,,,,,49,28,Female,1.0,1.0,0.3702729555467764,,,,,,,,,,,,,0.14285714285714285,0.25,0.0,0.25,3.111111111111111,3.75,3.5555555555555554,3.2222222222222223,1.625,3.7777777777777777,2.0,2.25,3.0,2.5,,,-0.00061879747888011,-0.46090136659803244,1.3869999999999998,-1.450192935028787,,,,,,
9,240722_150149,TrueCHOICE,9.0,10,3.0,1472.0,,,,,,,,,,,10.0,10.0,,,A,,,,,,True,cue2.png,Hard,cue1.png,Easy,Left,Hard,Hard,0.0161547000752761,,,,,,,,,,,,,49,28,Female,0.8194444444444444,0.8333333333333334,0.3639739222126081,,,,,,,,,,,,,0.14285714285714285,0.25,0.0,0.25,3.111111111111111,3.75,3.5555555555555554,3.2222222222222223,1.625,3.7777777777777777,2.0,2.25,3.0,2.5,,,,,,,,,,,,
0,240722_150306,FalseCHOICE,9.0,1,2.0,1472.0,,,,,,,,,,,1.0,1.0,,,A,,,,,,False,cue1.png,Easy,cue2.png,Hard,Left,Easy,Mid,0.015630800044164,,,,,,,,,,,,,49,28,Female,1.0,1.0,0.3900742111210193,,,,,,,,,,,,,0.14285714285714285,0.25,0.0,0.25,3.111111111111111,3.75,3.5555555555555554,3.2222222222222223,1.625,3.7777777777777777,2.0,2.25,3.0,2.5,3.621687893143278e-05,-0.36448277028264525,,,,,,,,,,
1,240722_150323,FalseCHOICE,9.0,2,2.0,1472.0,,,,,,,,,,,2.0,2.0,,,A,,,,,,False,cue2.png,Hard,cue1.png,Easy,Left,Hard,Mid,0.0163120999932289,,,,,,,,,,,,,49,28,Female,,,,,,,,,,,,,,,,0.14285714285714285,0.25,0.0,0.25,3.111111111111111,3.75,3.5555555555555554,3.2222222222222223,1.625,3.7777777777777777,2.0,2.25,3.0,2.5,0.0008354243613995023,1.9875398653244272,-0.0016935097600153156,-2.0365541697308127,,,,,,,,
2,240722_150341,FalseCHOICE,9.0,3,2.0,1472.0,,,,,,,,,,,3.0,3.0,,,A,,,,,,False,cue2.png,Hard,cue1.png,Easy,Left,Hard,Mid,0.0150250999722629,,,,,,,,,,,,,49,28,Female,,,,,,,,,,,,,,,,0.14285714285714285,0.25,0.0,0.25,3.111111111111111,3.75,3.5555555555555554,3.2222222222222223,1.625,3.7777777777777777,2.0,2.25,3.0,2.5,-6.411316576245343e-05,-0.6597484445012517,9.214229865037692e-05,0.5814187715335045,1.591,1.1959551753994104,,,,,,
3,240722_150358,FalseCHOICE,9.0,4,2.0,1472.0,,,,,,,,,,,4.0,4.0,,,A,,,,,,False,cue2.png,Hard,cue1.png,Easy,Right,Easy,Mid,0.0167346000671386,,,,,,,,,,,,,49,28,Female,0.5,0.6666666666666667,0.3523033000270111,,,,,,,,,,,,,0.14285714285714285,0.25,0.0,0.25,3.111111111111111,3.75,3.5555555555555554,3.2222222222222223,1.625,3.7777777777777777,2.0,2.25,3.0,2.5,,,0.00012819258748412825,0.6342726745284964,1.5810000000000002,1.0662420327313644,,,,,,
4,240722_150415,FalseCHOICE,9.0,5,2.0,1472.0,,,,,,,,,,,5.0,5.0,,,A,,,,,,False,cue1.png,Easy,cue2.png,Hard,Left,Easy,Mid,0.0165794999338686,,,,,,,,,,,,,49,28,Female,,,,,,,,,,,,,,,,0.14285714285714285,0.25,0.0,0.25,3.111111111111111,3.75,3.5555555555555554,3.2222222222222223,1.625,3.7777777777777777,2.0,2.25,3.0,2.5,-3.54621565748529e-05,-0.5754301371524275,,,,,,,,,,
5,240722_150432,FalseCHOICE,9.0,6,2.0,1472.0,,,,,,,,,,,6.0,6.0,,,A,,,,,,False,cue2.png,Hard,cue1.png,Easy,Left,Hard,Mid,0.0159092000685632,,,,,,,,,,,,,49,28,Female,0.5,0.6666666666666667,0.4048332110978663,,,,,,,,,,,,,0.14285714285714285,0.25,0.0,0.25,3.111111111111111,3.75,3.5555555555555554,3.2222222222222223,1.625,3.7777777777777777,2.0,2.25,3.0,2.5,,,,,1.467,-0.41248779368439287,,,,,,
6,240722_150450,FalseCHOICE,9.0,7,2.0,1472.0,,,,,,,,,,,7.0,7.0,,,A,,,,,,False,cue2.png,Hard,cue1.png,Easy,Left,Hard,Mid,0.0161102999700233,,,,,,,,,,,,,49,28,Female,1.0,1.0,0.3400103888836586,,,,,,,,,,,,,0.14285714285714285,0.25,0.0,0.25,3.111111111111111,3.75,3.5555555555555554,3.2222222222222223,1.625,3.7777777777777777,2.0,2.25,3.0,2.5,2.826710299615306e-05,-0.38787851338810264,-2.177552036075614e-06,0.4431349352604198,1.4679999999999997,-0.39951647941759233,,,,,,
7,240722_150508,FalseCHOICE,9.0,8,2.0,1472.0,,,,,,,,,,,8.0,8.0,,,A,,,,,,False,cue1.png,Easy,cue2.png,Hard,Left,Easy,Mid,0.0158008000580593,,,,,,,,,,,,,49,28,Female,,,,,,,,,,,,,,,,0.14285714285714285,0.25,0.0,0.25,3.111111111111111,3.75,3.5555555555555554,3.2222222222222223,1.625,3.7777777777777777,2.0,2.25,3.0,2.5,,,0.00026757889064846045,0.8386291550064239,,,,,,,,
8,240722_150526,FalseCHOICE,9.0,9,2.0,1472.0,,,,,,,,,,,9.0,9.0,,,A,,,,,,False,cue1.png,Easy,cue2.png,Hard,Left,Easy,Mid,0.0152650000527501,,,,,,,,,,,,,49,28,Female,0.8194444444444444,0.8333333333333334,0.4297733110789623,,,,,,,,,,,,,0.14285714285714285,0.25,0.0,0.25,3.111111111111111,3.75,3.5555555555555554,3.2222222222222223,1.625,3.7777777777777777,2.0,2.25,3.0,2.5,,,-0.00061879747888011,-0.46090136659803244,1.3869999999999998,-1.450192935028787,,,,,,
9,240722_150544,FalseCHOICE,9.0,10,2.0,1472.0,,,,,,,,,,,10.0,10.0,,,A,,,,,,False,cue2.png,Hard,cue1.png,Easy,Left,Hard,Mid,0.0159315000055357,,,,,,,,,,,,,49,28,Female,,,,,,,,,,,,,,,,0.14285714285714285,0.25,0.0,0.25,3.111111111111111,3.75,3.5555555555555554,3.2222222222222223,1.625,3.7777777777777777,2.0,2.25,3.0,2.5,,,,,,,,,,,,
0,240722_144134,OFFLINERATING,9.0,1,1.0,,,,,,,,,,,,,,,,,T0,cue1.png,Easy,72.0,1.677834999980405,,,,,,,,,,,,,,,,,,,,,,49,28,Female,,,,,,,,,,,,,,,,0.14285714285714285,0.25,0.0,0.25,3.111111111111111,3.75,3.5555555555555554,3.2222222222222223,1.625,3.7777777777777777,2.0,2.25,3.0,2.5,,,,,,,,,,,1.227,-1.314480874600825
1,240722_144142,OFFLINERATING,9.0,2,3.0,,,,,,,,,,,,,,,,,T0,cue2.png,Hard,29.0,1.2017526000272485,,,,,,,,,,,,,,,,,,,,,,49,28,Female,,,,,,,,,,,,,,,,0.14285714285714285,0.25,0.0,0.25,3.111111111111111,3.75,3.5555555555555554,3.2222222222222223,1.625,3.7777777777777777,2.0,2.25,3.0,2.5,,,,,,,,,,,,
2,240722_145824,OFFLINERATING,9.0,3,1.0,,,,,,,,,,,,,,,,,T1,cue1.png,Easy,70.0,0.9961621999973432,,,,,,,,,,,,,,,,,,,,,,49,28,Female,,,,,,,,,,,,,,,,0.14285714285714285,0.25,0.0,0.25,3.111111111111111,3.75,3.5555555555555554,3.2222222222222223,1.625,3.7777777777777777,2.0,2.25,3.0,2.5,,,,,,,3.043636414249958e-05,-1.059780612921079,-0.0006838820458968994,-1.5743401561730008,1.573,1.1090202760841794
3,240722_145831,OFFLINERATING,9.0,4,3.0,,,,,,,,,,,,,,,,,T1,cue2.png,Hard,50.0,0.5847059999359772,,,,,,,,,,,,,,,,,,,,,,49,28,Female,,,,,,,,,,,,,,,,0.14285714285714285,0.25,0.0,0.25,3.111111111111111,3.75,3.5555555555555554,3.2222222222222223,1.625,3.7777777777777777,2.0,2.25,3.0,2.5,,,,,,,9.77826798525443e-05,1.3408457857301888,0.00040930168654399086,0.8964339999371865,,
4,240722_150206,OFFLINERATING,9.0,5,1.0,,,,,,,,,,,,,,,,,T2,cue1.png,Easy,78.0,0.9513082000194116,,,,,,,,,,,,,,,,,,,,,,49,28,Female,,,,,,,,,,,,,,,,0.14285714285714285,0.25,0.0,0.25,3.111111111111111,3.75,3.5555555555555554,3.2222222222222223,1.625,3.7777777777777777,2.0,2.25,3.0,2.5,,,,,,,,,-5.5923632470594384e-05,-0.1550513642136266,,
5,240722_150213,OFFLINERATING,9.0,6,3.0,,,,,,,,,,,,,,,,,T2,cue2.png,Hard,69.0,0.667925100075081,,,,,,,,,,,,,,,,,,,,,,49,28,Female,,,,,,,,,,,,,,,,0.14285714285714285,0.25,0.0,0.25,3.111111111111111,3.75,3.5555555555555554,3.2222222222222223,1.625,3.7777777777777777,2.0,2.25,3.0,2.5,,,,,,,5.2282169015565715e-05,-0.28106517280911014,0.00038121678262955684,0.8329575204494408,1.4440000000000002,0.2054605985166501
6,240722_151751,OFFLINERATING,9.0,7,1.0,,,,,,,,,,,,,,,,,T3,cue1.png,Easy,46.0,1.0628638999769464,,,,,,,,,,,,,,,,,,,,,,49,28,Female,,,,,,,,,,,,,,,,0.14285714285714285,0.25,0.0,0.25,3.111111111111111,3.75,3.5555555555555554,3.2222222222222223,1.625,3.7777777777777777,2.0,2.25,3.0,2.5,,,,,,,,,,,,
7,240722_151758,OFFLINERATING,9.0,8,3.0,,,,,,,,,,,,,,,,,T3,cue2.png,Hard,46.0,0.6677925999974832,,,,,,,,,,,,,,,,,,,,,,49,28,Female,,,,,,,,,,,,,,,,0.14285714285714285,0.25,0.0,0.25,3.111111111111111,3.75,3.5555555555555554,3.2222222222222223,1.625,3.7777777777777777,2.0,2.25,3.0,2.5,,,,,,,,,,,,
