,END,Phase,Block,TrialN,NbackLevel,ISI,Letter_Resp,Letter_RT,Letter_Accuracy,Trial_A_measure,Trial_ACC,Trial_RT,TrialCountCali,CaliEnd_A_measure,ISI_calibrated,TrialIndex,TrialNumber_total,TrialNumber_valid,CueLearning,TrialDemandLearning,CueMapping,OfflineRatingTimePoint,CueFigure,TrialDemand,OfflineRating,OfflineRatingRT,PhaseType,CueLeft,CueDemandLeft,CueRight,CueDemandRight,Choice,ChoiceDemand,TaskDemand,ChoiceRT,CueCheck,CueDemandCheck,CorrectAnswer,Answer,AnswerDemand,AnswerRT,AnswerACC,DemandRatingQuesIndex,QuesTLX,DemandLevel,DemandRating,DemandRatingRT,PID,Age,Gender,BAI_bis,BAI_bas_d,BAI_bas_rr,BAI_bas_fs,NFC,BFI_ext,BFI_agr,BFI_con,BFI_neu,BFI_open,UPPS_lps,UPPS_lpm,UPPS_pu,UPPS_ss,Task_A_measure,Task_ACC,Task_RT,Task_RT_z,Task_RT_log,Task_RT_log_z,cue_i_on_zyg_values,cue_i_on_zyg_zvalues,cue_e_on_zyg_values,cue_e_on_zyg_zvalues,cue_i_on_cor_values,cue_i_on_cor_zvalues,cue_e_on_cor_values,cue_e_on_cor_zvalues,cue_i_on_scr_values,cue_i_on_scr_zvalues,cue_e_on_scr_values,cue_e_on_scr_zvalues,cue_e_true_zyg_values,cue_e_true_zyg_zvalues,cue_e_true_cor_values,cue_e_true_cor_zvalues,cue_e_true_scr_values,cue_e_true_scr_zvalues,cue_e_false_zyg_values,cue_e_false_zyg_zvalues,cue_e_false_cor_values,cue_e_false_cor_zvalues,cue_e_false_scr_values,cue_e_false_scr_zvalues,OfflineRating_z,cue_i_off_zyg_values,cue_i_off_zyg_zvalues,cue_i_off_cor_values,cue_i_off_cor_zvalues,cue_i_off_scr_values,cue_i_off_scr_zvalues,DemandRating_z
0,240724_093344,PRACTICE,0.0,1,3.0,500.0,,,,,,,,,,3.0,1.0,1.0,cue1.png,Hard,B,,,,,,,,,,,,,,,,,,,,,,,,,,,50,23,Female,1.1428571428571428,1.5,0.4,1.0,1.7777777777777777,2.125,3.111111111111111,2.3333333333333335,1.25,1.7777777777777777,1.25,1.5,2.75,2.25,,,,,,,,,,,,,,,,,,,,,,,,,,,,,,,,,,,,,,
0,240724_093628,LEARNING,1.0,1,1.0,500.0,,,,,,,,,,1.0,1.0,1.0,cue2.png,Easy,B,,,,,,,,,,,,,,,,,,,,,,,,,,,50,23,Female,1.1428571428571428,1.5,0.4,1.0,1.7777777777777777,2.125,3.111111111111111,2.3333333333333335,1.25,1.7777777777777777,1.25,1.5,2.75,2.25,1.0,1.0,0.4811813437700039,-0.7108505348259111,-0.7315110658534723,-0.6701615101233042,,,6.1235333951898015e-06,0.22204928147801353,0.0003568991419703911,1.1575307375323753,5.0254404907916234e-05,0.26504455176433483,,,1.3969999999999998,-0.28267350613547154,,,,,,,,,,,,,,,,,,,,
1,240724_093659,LEARNING,1.0,2,3.0,500.0,,,,,,,,,,2.0,2.0,2.0,cue1.png,Hard,B,,,,,,,,,,,,,,,,,,,,,,,,,,,50,23,Female,1.1428571428571428,1.5,0.4,1.0,1.7777777777777777,2.125,3.111111111111111,2.3333333333333335,1.25,1.7777777777777777,1.25,1.5,2.75,2.25,0.0484848484848484,0.6647727272727273,0.6743218200126042,1.500749005836773,-0.3940478042625567,1.4172354430454026,1.2090259537525776e-05,0.15434459459370348,-0.00015572805156693383,-0.37249251910415515,-6.355476677939557e-05,0.06459888853185297,-1.4064642161820944e-05,0.10446278221822199,1.457,-0.3206259215205281,1.445,-0.20134914096337328,,,,,,,,,,,,,,,,,,,,
2,240724_093725,LEARNING,1.0,3,1.0,500.0,,,,,,,,,,3.0,3.0,3.0,cue2.png,Easy,B,,,,,,,,,,,,,,,,,,,,,,,,,,,50,23,Female,1.1428571428571428,1.5,0.4,1.0,1.7777777777777777,2.125,3.111111111111111,2.3333333333333335,1.25,1.7777777777777777,1.25,1.5,2.75,2.25,1.0,1.0,0.4846794375189347,-0.6707948060691231,-0.7242675601399666,-0.6253564202733731,-3.8168119595421556e-05,-0.15437660475949944,1.5938746718941518e-05,0.2581042549524288,-0.0004880987862601084,-1.0389648328112526,0.00023974490706473416,0.7381348964569631,1.0709999999999997,-1.098581417163908,1.159,-0.6859068167804561,,,,,,,,,,,,,,,,,,,,
3,240724_093754,LEARNING,1.0,4,3.0,500.0,,,,,,,,,,4.0,4.0,4.0,cue1.png,Hard,B,,,,,,,,,,,,,,,,,,,,,,,,,,,50,23,Female,1.1428571428571428,1.5,0.4,1.0,1.7777777777777777,2.125,3.111111111111111,2.3333333333333335,1.25,1.7777777777777777,1.25,1.5,2.75,2.25,0.7818181818181817,0.8181818181818181,0.5870329437457258,0.5012276087045325,-0.5326743385044286,0.5597536423876374,,,0.00012094379383024555,0.6438273221338836,0.0003503184031465956,1.1404247030757888,8.243681152020343e-05,0.3453925674376759,1.582,-0.06869732837176544,1.5930000000000002,0.04940098498392849,,,,,,,,,,,,,,,,,,,,
4,240724_093822,LEARNING,1.0,5,3.0,500.0,,,,,,,,,,5.0,5.0,5.0,cue1.png,Hard,B,,,,,,,,,,,,,,,,,,,,,,,,,,,50,23,Female,1.1428571428571428,1.5,0.4,1.0,1.7777777777777777,2.125,3.111111111111111,2.3333333333333335,1.25,1.7777777777777777,1.25,1.5,2.75,2.25,0.75,0.7708333333333334,0.5625327333342284,0.22068230227095817,-0.5753059540025014,0.2960535172842042,2.5589202608569152e-05,0.2372642980697978,0.00014557724456818345,0.734315259954901,-0.0008208640741274491,-1.9039580550968291,3.208331207293306e-05,0.21967780000160209,1.5690000000000002,-0.09489790205923655,1.531,-0.0556429866966983,,,,,,,,,,,,,,,,,,,,
5,240724_093850,LEARNING,1.0,6,1.0,500.0,,,,,,,,,,6.0,6.0,6.0,cue2.png,Easy,B,,,,,,,,,,,,,,,,,,,,,,,,,,,50,23,Female,1.1428571428571428,1.5,0.4,1.0,1.7777777777777777,2.125,3.111111111111111,2.3333333333333335,1.25,1.7777777777777777,1.25,1.5,2.75,2.25,0.9090909090909092,0.9090909090909092,0.5391668999945978,-0.046873558035706565,-0.6177301085186891,0.033636653118411214,-2.6549550608924617e-05,-0.08300743977328048,7.827243185819406e-05,0.48707934597971736,0.0004288102515467157,1.3444571528120655,-0.00021105649409842303,-0.38735576316301457,1.551,-0.13117561947265885,-0.010000000000000009,-2.6664939602425877,,,,,,,,,,,,,,,,,,,,
6,240724_093919,LEARNING,1.0,7,3.0,500.0,,,,,,,,,,7.0,7.0,7.0,cue1.png,Hard,B,,,,,,,,,,,,,,,,,,,,,,,,,,,50,23,Female,1.1428571428571428,1.5,0.4,1.0,1.7777777777777777,2.125,3.111111111111111,2.3333333333333335,1.25,1.7777777777777777,1.25,1.5,2.75,2.25,0.95,0.9375,0.6110932199905316,0.7767353475608428,-0.49250576190548584,0.8082185093792923,0.00010785096160914782,0.7425720564514093,-8.999955883096447e-05,-0.13104702179907596,-0.00013146943360109117,-0.1119391358247296,0.00010231642331772709,0.39502488299227223,,,1.457,-0.18101804967034882,,,,,,,,,,,,,,,,,,,,
7,240724_093949,LEARNING,1.0,8,3.0,500.0,,,,,,,,,,8.0,8.0,8.0,cue1.png,Hard,B,,,,,,,,,,,,,,,,,,,,,,,,,,,50,23,Female,1.1428571428571428,1.5,0.4,1.0,1.7777777777777777,2.125,3.111111111111111,2.3333333333333335,1.25,1.7777777777777777,1.25,1.5,2.75,2.25,0.8958333333333333,0.8541666666666666,0.6377313666666548,1.0817615859709615,-0.44983813968747366,1.0721413559639934,-0.0003157472994331314,-1.8594570071395742,0.00020186022458082648,0.941063833264689,-0.0002856838124736683,-0.5128054442028375,-6.42502204282417e-05,-0.020832745791996073,,,2.012,0.7592949226320319,,,,,,,,,,,,,,,,,,,,
8,240724_094017,LEARNING,1.0,9,1.0,500.0,,,,,,,,,,9.0,9.0,9.0,cue2.png,Easy,B,,,,,,,,,,,,,,,,,,,,,,,,,,,50,23,Female,1.1428571428571428,1.5,0.4,1.0,1.7777777777777777,2.125,3.111111111111111,2.3333333333333335,1.25,1.7777777777777777,1.25,1.5,2.75,2.25,1.0,1.0,0.5522243062296184,0.10264328169365607,-0.5938009633783512,0.1816516530991316,-0.00014942577474540098,-0.8377969085513864,7.18764577017205e-05,0.46358452513902737,0.0002519395389675534,0.884697757286451,0.00042358344136583705,1.19711428893501,,,,,,,,,,,,,,,,,,,,,,,,
9,240724_094043,LEARNING,1.0,10,1.0,500.0,,,,,,,,,,10.0,10.0,10.0,cue2.png,Easy,B,,,,,,,,,,,,,,,,,,,,,,,,,,,50,23,Female,1.1428571428571428,1.5,0.4,1.0,1.7777777777777777,2.125,3.111111111111111,2.3333333333333335,1.25,1.7777777777777777,1.25,1.5,2.75,2.25,1.0,1.0,0.48361080622999,-0.6830314149547684,-0.7264748151024236,-0.6390095132405255,-9.488280555594022e-05,-0.5027568385182396,0.00016947677505681127,0.8221072324159829,-0.0005548230432320467,-1.212408494596603,0.0004398251344647883,1.2376640162253825,1.742,0.25377127085865064,2.771,2.045236446915828,,,,,,,,,,,,,,,,,,,,
10,240724_094114,LEARNING,1.0,11,3.0,500.0,,,,,,,,,,11.0,11.0,11.0,cue1.png,Hard,B,,,,,,,,,,,,,,,,,,,,,,,,,,,50,23,Female,1.1428571428571428,1.5,0.4,1.0,1.7777777777777777,2.125,3.111111111111111,2.3333333333333335,1.25,1.7777777777777777,1.25,1.5,2.75,2.25,0.95,0.9375,0.6909871933205675,1.6915797041445066,-0.3696339889309803,1.568248396272095,4.3683575315307636e-05,0.3484122606571176,-0.0003936393071288921,-1.2464301224564653,-0.0005512012310981288,-1.2029939220361392,0.0005798771871613809,1.5873241476356004,2.0460000000000003,0.866461609396442,,,,,,,,,,,,,,,,,,,,,,
11,240724_094141,LEARNING,1.0,12,1.0,500.0,,,,,,,,,,12.0,12.0,12.0,cue2.png,Easy,B,,,,,,,,,,,,,,,,,,,,,,,,,,,50,23,Female,1.1428571428571428,1.5,0.4,1.0,1.7777777777777777,2.125,3.111111111111111,2.3333333333333335,1.25,1.7777777777777777,1.25,1.5,2.75,2.25,1.0,1.0,0.4976060937478905,-0.5227751494211121,-0.6979464913542375,-0.46254604936527055,,,-0.00033030628737738214,-1.0137840991989202,,,-0.00029252776032604073,-0.590760519514713,1.4409999999999998,-0.3528727814435702,1.692,0.21713248815137978,,,,,,,,,,,,,,,,,,,,
12,240724_094208,LEARNING,1.0,13,1.0,500.0,,,,,,,,,,13.0,13.0,13.0,cue2.png,Easy,B,,,,,,,,,,,,,,,,,,,,,,,,,,,50,23,Female,1.1428571428571428,1.5,0.4,1.0,1.7777777777777777,2.125,3.111111111111111,2.3333333333333335,1.25,1.7777777777777777,1.25,1.5,2.75,2.25,1.0,1.0,0.503211424977053,-0.4585900121943272,-0.6867448692092709,-0.3932578198089076,-8.39191411857892e-05,-0.43541054378984234,-0.00012435001749538368,-0.2572291877009204,-0.00019839147340354902,-0.2858969161618684,-0.0011287935818878872,-2.678618651052853,1.4460000000000002,-0.342795637717619,2.2439999999999998,1.1523626876305042,,,,,,,,,,,,,,,,,,,,
13,240724_094235,LEARNING,1.0,14,1.0,500.0,,,,,,,,,,14.0,14.0,14.0,cue2.png,Easy,B,,,,,,,,,,,,,,,,,,,,,,,,,,,50,23,Female,1.1428571428571428,1.5,0.4,1.0,1.7777777777777777,2.125,3.111111111111111,2.3333333333333335,1.25,1.7777777777777777,1.25,1.5,2.75,2.25,1.0,1.0,0.5237606500013499,-0.2232863746097102,-0.6467204738210697,-0.1456847933648345,-0.00018586141283263077,-1.061609416705172,6.440900277829764e-05,0.436153752082483,5.5133530733628665e-05,0.3731183665439586,0.00014538937624973807,0.5025627169079298,,,,,,,,,,,,,,,,,,,,,,,,
14,240724_094305,LEARNING,1.0,15,3.0,500.0,,,,,,,,,,15.0,15.0,15.0,cue1.png,Hard,B,,,,,,,,,,,,,,,,,,,,,,,,,,,50,23,Female,1.1428571428571428,1.5,0.4,1.0,1.7777777777777777,2.125,3.111111111111111,2.3333333333333335,1.25,1.7777777777777777,1.25,1.5,2.75,2.25,0.8125,0.7916666666666666,0.6057364285890279,0.715396172917251,-0.5013103238467953,0.7537574232046623,6.881484952655538e-07,0.08430506174658546,0.000247564222025026,1.1089518211434373,1.1026134314196835e-05,0.2584651850177609,0.00023458892073726853,0.7252622335998425,,,,,,,,,,,,,,,,,,,,,,,,
15,240724_094331,LEARNING,1.0,16,1.0,500.0,,,,,,,,,,16.0,16.0,16.0,cue2.png,Easy,B,,,,,,,,,,,,,,,,,,,,,,,,,,,50,23,Female,1.1428571428571428,1.5,0.4,1.0,1.7777777777777777,2.125,3.111111111111111,2.3333333333333335,1.25,1.7777777777777777,1.25,1.5,2.75,2.25,1.0,1.0,0.4730036999535514,-0.8044905302324267,-0.7486520682088502,-0.7761880918679191,0.0003924554310279489,2.4908065728855964,0.00011321747048995004,0.6154456279311712,-0.00038207505603540977,-0.7633657502460077,-8.269205983340178e-05,-0.06687545538243746,,,,,,,,,,,,,,,,,,,,,,,,
16,240724_094358,LEARNING,1.0,17,1.0,500.0,,,,,,,,,,17.0,17.0,17.0,cue2.png,Easy,B,,,,,,,,,,,,,,,,,,,,,,,,,,,50,23,Female,1.1428571428571428,1.5,0.4,1.0,1.7777777777777777,2.125,3.111111111111111,2.3333333333333335,1.25,1.7777777777777777,1.25,1.5,2.75,2.25,1.0,1.0,0.4833024249965092,-0.6865626053483261,-0.7271126825634897,-0.6429550763470923,-3.921821129974391e-05,-0.16082698330297943,0.00011969370768288292,0.6392352851197899,0.00017559934879357152,0.6862583482011767,,,,,,,,,,,,,,,,,,,,,,,,,,
17,240724_094428,LEARNING,1.0,18,3.0,500.0,,,,,,,,,,18.0,18.0,18.0,cue1.png,Hard,B,,,,,,,,,,,,,,,,,,,,,,,,,,,50,23,Female,1.1428571428571428,1.5,0.4,1.0,1.7777777777777777,2.125,3.111111111111111,2.3333333333333335,1.25,1.7777777777777777,1.25,1.5,2.75,2.25,1.0,1.0,0.6633938750310335,1.3756160530150583,-0.4103863852054552,1.3161722816259236,-0.0002450162979984877,-1.4249790161842024,0.00011952911340703783,0.6386306683831089,0.0005179565354060398,1.576184842393084,0.0006665077389217755,1.8036098037859027,,,,,,,,,,,,,,,,,,,,,,,,
18,240724_094458,LEARNING,1.0,19,3.0,500.0,,,,,,,,,,19.0,19.0,19.0,cue1.png,Hard,B,,,,,,,,,,,,,,,,,,,,,,,,,,,50,23,Female,1.1428571428571428,1.5,0.4,1.0,1.7777777777777777,2.125,3.111111111111111,2.3333333333333335,1.25,1.7777777777777777,1.25,1.5,2.75,2.25,0.9375,0.9375,0.6639142133140316,1.381574306458641,-0.40960233466854834,1.3210220679231164,0.00013533778986931592,0.9114148789476821,-0.0001833775830674192,-0.4740596569693725,-0.00025135494109025745,-0.42357065272061556,-0.0005258261377485713,-1.1732235376332423,,,,,,,,,,,,,,,,,,,,,,,,
19,240724_094528,LEARNING,1.0,20,3.0,500.0,,,,,,,,,,20.0,20.0,20.0,cue1.png,Hard,B,,,,,,,,,,,,,,,,,,,,,,,,,,,50,23,Female,1.1428571428571428,1.5,0.4,1.0,1.7777777777777777,2.125,3.111111111111111,2.3333333333333335,1.25,1.7777777777777777,1.25,1.5,2.75,2.25,0.6041666666666667,0.5208333333333334,0.555725209118629,0.14273117715641345,-0.5874813351064734,0.22074204989576973,-6.283622641583457e-05,-0.30590492013205745,1.0144448950105082e-05,0.23681961798455825,3.237816389189529e-05,0.3139678517325454,0.00012152885291948946,0.4429914820525174,1.952,0.6770113073485718,,,,,,,,,,,,,,,,,,,,,,
20,240724_094555,LEARNING,1.0,21,1.0,500.0,,,,,,,,,,21.0,21.0,21.0,cue2.png,Easy,B,,,,,,,,,,,,,,,,,,,,,,,,,,,50,23,Female,1.1428571428571428,1.5,0.4,1.0,1.7777777777777777,2.125,3.111111111111111,2.3333333333333335,1.25,1.7777777777777777,1.25,1.5,2.75,2.25,1.0,1.0,0.4981310999864945,-0.516763444475934,-0.6968919836175422,-0.45602333567402786,-0.00028212085908529754,-1.652900505054597,2.8198724083877604e-05,0.30313976708134316,,,,,1.619,0.00587353520026816,1.3330000000000002,-0.39110599303160126,,,,,,,,,,,,,,,,,,,,
21,240724_094624,LEARNING,1.0,22,3.0,500.0,,,,,,,,,,22.0,22.0,22.0,cue1.png,Hard,B,,,,,,,,,,,,,,,,,,,,,,,,,,,50,23,Female,1.1428571428571428,1.5,0.4,1.0,1.7777777777777777,2.125,3.111111111111111,2.3333333333333335,1.25,1.7777777777777777,1.25,1.5,2.75,2.25,1.0,0.8125,0.550904292272977,0.08752815762971057,-0.5961941831506695,0.1668482649097049,-0.00017440979596424584,-0.9912657853518971,0.00012749783816544315,0.6679027942465332,-0.0011653624783330204,-2.7994504504599282,-0.00027295367032414194,-0.5418909831493536,2.1159999999999997,1.007541621559748,1.208,-0.6028881940006063,,,,,,,,,,,,,,,,,,,,
22,240724_094652,LEARNING,1.0,23,3.0,500.0,,,,,,,,,,23.0,23.0,23.0,cue1.png,Hard,B,,,,,,,,,,,,,,,,,,,,,,,,,,,50,23,Female,1.1428571428571428,1.5,0.4,1.0,1.7777777777777777,2.125,3.111111111111111,2.3333333333333335,1.25,1.7777777777777777,1.25,1.5,2.75,2.25,0.6041666666666667,0.7708333333333334,0.5026631866736958,-0.4648677412517796,-0.6878349421692492,-0.40000052408036896,-6.253046750054553e-05,-0.30402674059922236,0.00023696043821085392,1.0700001314004097,,,-0.0002825502173103532,-0.5658501455869963,2.195,1.1667604924297663,2.189,1.0591785192041425,,,,,,,,,,,,,,,,,,,,
23,240724_094721,LEARNING,1.0,24,3.0,500.0,,,,,,,,,,24.0,24.0,24.0,cue1.png,Hard,B,,,,,,,,,,,,,,,,,,,,,,,,,,,50,23,Female,1.1428571428571428,1.5,0.4,1.0,1.7777777777777777,2.125,3.111111111111111,2.3333333333333335,1.25,1.7777777777777777,1.25,1.5,2.75,2.25,0.7818181818181817,0.7556818181818181,0.6149377533234656,0.8207580626260127,-0.48623423040629876,0.8470114010303373,0.00014409936464856868,0.9652344394018408,0.00017204058928541044,0.8315250872252902,,,,,0.548,-2.1526506508983303,0.851,-1.2077381599680836,,,,,,,,,,,,,,,,,,,,
24,240724_094747,LEARNING,1.0,25,1.0,500.0,,,,,,,,,,25.0,25.0,25.0,cue2.png,Easy,B,,,,,,,,,,,,,,,,,,,,,,,,,,,50,23,Female,1.1428571428571428,1.5,0.4,1.0,1.7777777777777777,2.125,3.111111111111111,2.3333333333333335,1.25,1.7777777777777777,1.25,1.5,2.75,2.25,1.0,1.0,0.4364361499756342,-1.223215689803529,-0.8291131916629031,-1.2738846504643362,0.00014233431921277734,0.9543923280315364,-0.00023247715754016237,-0.6544208775386641,-0.00025899224213505895,-0.44342312496207564,,,0.8130000000000002,-1.6185620334229531,2.7,1.924944156765434,,,,,,,,,,,,,,,,,,,,
25,240724_094813,LEARNING,1.0,26,1.0,500.0,,,,,,,,,,26.0,26.0,26.0,cue2.png,Easy,B,,,,,,,,,,,,,,,,,,,,,,,,,,,50,23,Female,1.1428571428571428,1.5,0.4,1.0,1.7777777777777777,2.125,3.111111111111111,2.3333333333333335,1.25,1.7777777777777777,1.25,1.5,2.75,2.25,1.0,1.0,0.4553964249935234,-1.0061066905084703,-0.7865869756390789,-1.0108364794147306,-2.3292743707237565e-05,-0.0630019133298006,0.00030178998040661506,1.3081434449614446,-0.0007759314093972571,-1.7871596633536955,0.00040571579001038617,1.1525051225526102,,,1.1039999999999999,-0.7790909852068184,,,,,,,,,,,,,,,,,,,,
26,240724_094843,LEARNING,1.0,27,3.0,500.0,,,,,,,,,,27.0,27.0,27.0,cue1.png,Hard,B,,,,,,,,,,,,,,,,,,,,,,,,,,,50,23,Female,1.1428571428571428,1.5,0.4,1.0,1.7777777777777777,2.125,3.111111111111111,2.3333333333333335,1.25,1.7777777777777777,1.25,1.5,2.75,2.25,0.8125,0.8541666666666666,0.6395217267020296,1.1022625162207254,-0.4470346840258498,1.0894822800658623,0.00013434530031005212,0.9053183320162554,-0.00012442868538218525,-0.25751816446366227,-0.0002523670311372272,-0.4262014891175914,-0.00032459567122281215,-0.6708226801351481,1.621,0.009904392690648366,0.8380000000000001,-1.2297635088688599,,,,,,,,,,,,,,,,,,,,
27,240724_094909,LEARNING,1.0,28,1.0,500.0,,,,,,,,,,28.0,28.0,28.0,cue2.png,Easy,B,,,,,,,,,,,,,,,,,,,,,,,,,,,50,23,Female,1.1428571428571428,1.5,0.4,1.0,1.7777777777777777,2.125,3.111111111111111,2.3333333333333335,1.25,1.7777777777777777,1.25,1.5,2.75,2.25,1.0,0.9375,0.4029775332969924,-1.6063412920452187,-0.9088744672321662,-1.7672522627467024,6.886301713401096e-05,0.5030815438974587,0.00011289203778645698,0.6142501911021258,7.939383611159367e-05,0.4361808327555301,-0.0010221762955657764,-2.4124332319304878,2.4530000000000003,1.6867411086888133,2.406,1.426832420086335,,,,,,,,,,,,,,,,,,,,
28,240724_094934,LEARNING,1.0,29,1.0,500.0,,,,,,,,,,29.0,29.0,29.0,cue2.png,Easy,B,,,,,,,,,,,,,,,,,,,,,,,,,,,50,23,Female,1.1428571428571428,1.5,0.4,1.0,1.7777777777777777,2.125,3.111111111111111,2.3333333333333335,1.25,1.7777777777777777,1.25,1.5,2.75,2.25,1.0,1.0,0.4184701624908484,-1.428939370524887,-0.8711496879124743,-1.5339036338036616,,,,,,,0.0002464725832808743,0.754931509605627,2.073,0.9208781855165741,1.287,-0.46904184298819546,,,,,,,,,,,,,,,,,,,,
29,240724_095004,LEARNING,1.0,30,3.0,500.0,,,,,,,,,,30.0,30.0,30.0,cue1.png,Hard,B,,,,,,,,,,,,,,,,,,,,,,,,,,,50,23,Female,1.1428571428571428,1.5,0.4,1.0,1.7777777777777777,2.125,3.111111111111111,2.3333333333333335,1.25,1.7777777777777777,1.25,1.5,2.75,2.25,0.0484848484848484,0.6647727272727273,0.6172375866677612,0.8470928344293922,-0.4825012616633867,0.8701018777343604,,,,,-0.0003001921428142434,-0.5505185346868444,-0.00018684621043790414,-0.3269113012417389,1.546,-0.14125276319860916,1.474,-0.15221567033856434,,,,,,,,,,,,,,,,,,,,
30,240724_095034,LEARNING,1.0,31,3.0,500.0,,,,,,,,,,31.0,31.0,31.0,cue1.png,Hard,B,,,,,,,,,,,,,,,,,,,,,,,,,,,50,23,Female,1.1428571428571428,1.5,0.4,1.0,1.7777777777777777,2.125,3.111111111111111,2.3333333333333335,1.25,1.7777777777777777,1.25,1.5,2.75,2.25,0.9375,0.8125,0.6201031692146969,0.8799058478785956,-0.4778694128270816,0.8987524250646406,-1.3318840390816843e-05,-0.0017354051932553577,-0.00015438545613590156,-0.3675606606660304,-0.00016769334879260852,-0.20609992202368355,-0.00026969124034547775,-0.53374585658325,,,,,,,,,,,,,,,,,,,,,,,,
31,240724_095101,LEARNING,1.0,32,1.0,500.0,,,,,,,,,,32.0,32.0,32.0,cue2.png,Easy,B,,,,,,,,,,,,,,,,,,,,,,,,,,,50,23,Female,1.1428571428571428,1.5,0.4,1.0,1.7777777777777777,2.125,3.111111111111111,2.3333333333333335,1.25,1.7777777777777777,1.25,1.5,2.75,2.25,1.0,1.0,0.5127683999889996,-0.349155667008199,-0.6679309977607705,-0.27688361731419453,-0.0001952226128469148,-1.1191122838022214,5.310666328205106e-05,0.39463600434796475,-0.00033757499945382286,-0.6476918841973874,-0.00038946899364900554,-0.8327882779811273,1.2719999999999998,-0.6934802393806975,1.0959999999999999,-0.7926450460688347,,,,,,,,,,,,,,,,,,,,
32,240724_095127,LEARNING,1.0,33,1.0,500.0,,,,,,,,,,33.0,33.0,33.0,cue2.png,Easy,B,,,,,,,,,,,,,,,,,,,,,,,,,,,50,23,Female,1.1428571428571428,1.5,0.4,1.0,1.7777777777777777,2.125,3.111111111111111,2.3333333333333335,1.25,1.7777777777777777,1.25,1.5,2.75,2.25,1.0,1.0,0.4245153687661513,-1.3597173426943363,-0.8568070694899822,-1.4451866047130577,0.00040839432210343016,2.5887140990349393,-0.00024907844113157595,-0.715403641721814,0.00035658626135326183,1.1567174327104215,-0.0008059653642252208,-1.872631485299583,1.466,-0.30248706281381743,1.104,-0.779090985206818,,,,,,,,,,,,,,,,,,,,
33,240724_095152,LEARNING,1.0,34,1.0,500.0,,,,,,,,,,34.0,34.0,34.0,cue2.png,Easy,B,,,,,,,,,,,,,,,,,,,,,,,,,,,50,23,Female,1.1428571428571428,1.5,0.4,1.0,1.7777777777777777,2.125,3.111111111111111,2.3333333333333335,1.25,1.7777777777777777,1.25,1.5,2.75,2.25,1.0,1.0,0.3973005374864442,-1.6713470410793148,-0.9230622633146655,-1.8550116300187722,-0.00021821436738295522,-1.2603433015559884,-0.0003274230404174648,-1.003192847717055,-0.00013132263000297656,-0.11155753316962665,-0.00035783108374265286,-0.7537996767974972,,,1.8880000000000003,0.5492069792707798,,,,,,,,,,,,,,,,,,,,
34,240724_095222,LEARNING,1.0,35,3.0,500.0,,,,,,,,,,35.0,35.0,35.0,cue1.png,Hard,B,,,,,,,,,,,,,,,,,,,,,,,,,,,50,23,Female,1.1428571428571428,1.5,0.4,1.0,1.7777777777777777,2.125,3.111111111111111,2.3333333333333335,1.25,1.7777777777777777,1.25,1.5,2.75,2.25,1.0,0.8125,0.6007587922772822,0.6583986010213687,-0.5095617689715626,0.7027176705172793,,,,,0.00030802635280579183,1.0304903492379585,4.289266445511343e-05,0.24666490587859075,1.9900000000000002,0.7535975996657962,1.3090000000000002,-0.4317681756176502,,,,,,,,,,,,,,,,,,,,
35,240724_095252,LEARNING,1.0,36,3.0,500.0,,,,,,,,,,36.0,36.0,36.0,cue1.png,Hard,B,,,,,,,,,,,,,,,,,,,,,,,,,,,50,23,Female,1.1428571428571428,1.5,0.4,1.0,1.7777777777777777,2.125,3.111111111111111,2.3333333333333335,1.25,1.7777777777777777,1.25,1.5,2.75,2.25,0.75,0.8333333333333334,0.6620026187447365,1.359685152234563,-0.4124857672451939,1.3031864423596629,,,-0.001150045281140281,-4.024994013969064,,,-0.0006309468111754995,-1.4356724469971,1.262,-0.713634526832598,1.0850000000000002,-0.8112818797541066,,,,,,,,,,,,,,,,,,,,
36,240724_095318,LEARNING,1.0,37,1.0,500.0,,,,,,,,,,37.0,37.0,37.0,cue2.png,Easy,B,,,,,,,,,,,,,,,,,,,,,,,,,,,50,23,Female,1.1428571428571428,1.5,0.4,1.0,1.7777777777777777,2.125,3.111111111111111,2.3333333333333335,1.25,1.7777777777777777,1.25,1.5,2.75,2.25,1.0,1.0,0.4529925624956377,-1.0336326721129814,-0.7918795719658109,-1.0435741154901055,-2.6964494249326343e-05,-0.08555630626159162,2.9722642686669763e-05,0.30873769378843563,-8.410825044140226e-05,0.011171969588670736,0.00027046063403151493,0.8148211350430702,1.9300000000000002,0.63267187495439,1.8110000000000002,0.4187491434738726,,,,,,,,,,,,,,,,,,,,
37,240724_095348,LEARNING,1.0,38,3.0,500.0,,,,,,,,,,38.0,38.0,38.0,cue1.png,Hard,B,,,,,,,,,,,,,,,,,,,,,,,,,,,50,23,Female,1.1428571428571428,1.5,0.4,1.0,1.7777777777777777,2.125,3.111111111111111,2.3333333333333335,1.25,1.7777777777777777,1.25,1.5,2.75,2.25,1.0,0.875,0.6305059071164578,0.9990247959766136,-0.4612327546813876,1.0016593588757903,6.208496710598732e-05,0.4614461435915286,-0.00031144554389101256,-0.944501488248099,,,,,1.6639999999999997,0.09656782873382214,2.711,1.9435809904507058,,,,,,,,,,,,,,,,,,,,
38,240724_095419,LEARNING,1.0,39,3.0,500.0,,,,,,,,,,39.0,39.0,39.0,cue1.png,Hard,B,,,,,,,,,,,,,,,,,,,,,,,,,,,50,23,Female,1.1428571428571428,1.5,0.4,1.0,1.7777777777777777,2.125,3.111111111111111,2.3333333333333335,1.25,1.7777777777777777,1.25,1.5,2.75,2.25,0.9375,0.875,0.7403780285967514,2.257140847695532,-0.30059437376801373,1.9952966078602805,3.1942689165321246e-05,0.27629174033343235,-4.4420483069204306e-06,0.18323792247377105,,,0.0001524681225197966,0.520235827036279,1.3860000000000001,-0.46372136242902523,2.31,1.264183689742139,,,,,,,,,,,,,,,,,,,,
39,240724_095449,LEARNING,1.0,40,3.0,500.0,,,,,,,,,,40.0,40.0,40.0,cue1.png,Hard,B,,,,,,,,,,,,,,,,,,,,,,,,,,,50,23,Female,1.1428571428571428,1.5,0.4,1.0,1.7777777777777777,2.125,3.111111111111111,2.3333333333333335,1.25,1.7777777777777777,1.25,1.5,2.75,2.25,0.7083333333333333,0.7916666666666666,0.5950799928811777,0.5933721996151466,-0.519059440655893,0.6439693171628891,0.00013783835652996217,0.9267750626992363,,,0.0006359889009125218,1.8829992845717483,,,2.044,0.8624307519060613,2.199,1.0761210952816627,,,,,,,,,,,,,,,,,,,,
40,240724_095515,LEARNING,1.0,41,1.0,500.0,,,,,,,,,,41.0,41.0,41.0,cue2.png,Easy,B,,,,,,,,,,,,,,,,,,,,,,,,,,,50,23,Female,1.1428571428571428,1.5,0.4,1.0,1.7777777777777777,2.125,3.111111111111111,2.3333333333333335,1.25,1.7777777777777777,1.25,1.5,2.75,2.25,1.0,1.0,0.4906885187665466,-0.6019864361946992,-0.7119457338234558,-0.5491391082338245,,,,,-6.0300108927376344e-05,0.07305907679517175,-0.0003414564350948737,-0.7129180068202466,0.42399999999999993,-2.402563815301903,0.9989999999999999,-0.9569880340207823,,,,,,,,,,,,,,,,,,,,
41,240724_095544,LEARNING,1.0,42,3.0,500.0,,,,,,,,,,42.0,42.0,42.0,cue1.png,Hard,B,,,,,,,,,,,,,,,,,,,,,,,,,,,50,23,Female,1.1428571428571428,1.5,0.4,1.0,1.7777777777777777,2.125,3.111111111111111,2.3333333333333335,1.25,1.7777777777777777,1.25,1.5,2.75,2.25,0.75,0.8333333333333334,0.5700956687651342,0.30728343762304955,-0.561951092298256,0.37866072465845335,-0.00022558862500659214,-1.3056410150354956,-0.0005583190119552066,-1.8513606719453053,-0.0001399585029820136,-0.13400570269854742,0.0002544529975136195,0.7748557637354456,2.7119999999999997,2.2087371536930487,,,,,,,,,,,,,,,,,,,,,,
42,240724_095613,LEARNING,1.0,43,3.0,500.0,,,,,,,,,,43.0,43.0,43.0,cue1.png,Hard,B,,,,,,,,,,,,,,,,,,,,,,,,,,,50,23,Female,1.1428571428571428,1.5,0.4,1.0,1.7777777777777777,2.125,3.111111111111111,2.3333333333333335,1.25,1.7777777777777777,1.25,1.5,2.75,2.25,0.6113636363636364,0.7272727272727273,0.6722137624892639,1.476610207274146,-0.39717889009937246,1.3978679450692768,,,0.00029244227805941183,1.273805815298362,-0.00044968883085941703,-0.9391216331108847,,,1.771,0.3122187044691634,1.786,0.37639270328007146,,,,,,,,,,,,,,,,,,,,
43,240724_095640,LEARNING,1.0,44,1.0,500.0,,,,,,,,,,44.0,44.0,44.0,cue2.png,Easy,B,,,,,,,,,,,,,,,,,,,,,,,,,,,50,23,Female,1.1428571428571428,1.5,0.4,1.0,1.7777777777777777,2.125,3.111111111111111,2.3333333333333335,1.25,1.7777777777777777,1.25,1.5,2.75,2.25,1.0,1.0,0.4552372938051121,-1.0079288588599324,-0.7869364711316048,-1.0129983023723041,,,,,0.0002371188115197877,0.8461726188207771,0.00014136959467174687,0.4925267529378352,,,1.2029999999999998,-0.6113594820393667,,,,,,,,,,,,,,,,,,,,
44,240724_095705,LEARNING,1.0,45,1.0,500.0,,,,,,,,,,45.0,45.0,45.0,cue2.png,Easy,B,,,,,,,,,,,,,,,,,,,,,,,,,,,50,23,Female,1.1428571428571428,1.5,0.4,1.0,1.7777777777777777,2.125,3.111111111111111,2.3333333333333335,1.25,1.7777777777777777,1.25,1.5,2.75,2.25,1.0,1.0,0.4011138875066535,-1.6276813977240214,-0.9135098832536451,-1.7959248750906023,-2.9527074602738162e-05,-0.10129742035624859,-0.0004324501870367134,-1.388997094710548,0.00020929352569340823,0.773843308867113,0.0003030142771282382,0.8960959960959173,1.328,-0.5806162296500512,1.407,-0.26573093005795073,,,,,,,,,,,,,,,,,,,,
45,240724_095731,LEARNING,1.0,46,1.0,500.0,,,,,,,,,,46.0,46.0,46.0,cue2.png,Easy,B,,,,,,,,,,,,,,,,,,,,,,,,,,,50,23,Female,1.1428571428571428,1.5,0.4,1.0,1.7777777777777777,2.125,3.111111111111111,2.3333333333333335,1.25,1.7777777777777777,1.25,1.5,2.75,2.25,1.0,1.0,0.461278000017046,-0.9387583600422197,-0.7737543808258502,-0.9314597816725814,0.00021450117450621566,1.3976903114544406,-0.00019037249770811806,-0.4997546116797197,0.00010801155181967923,0.5105699924044713,8.837879368319172e-05,0.3602275821621563,0.7999999999999998,-1.6447626071104253,1.104,-0.779090985206818,,,,,,,,,,,,,,,,,,,,
46,240724_095800,LEARNING,1.0,47,3.0,500.0,,,,,,,,,,47.0,47.0,47.0,cue1.png,Hard,B,,,,,,,,,,,,,,,,,,,,,,,,,,,50,23,Female,1.1428571428571428,1.5,0.4,1.0,1.7777777777777777,2.125,3.111111111111111,2.3333333333333335,1.25,1.7777777777777777,1.25,1.5,2.75,2.25,0.75,0.7708333333333334,0.6074522999891391,0.7350441538798512,-0.49848162538657176,0.7712544879798539,-0.0001571050085166243,-0.8849679932712977,,,0.00028868891933008694,0.9802244425982275,,,1.638,0.0441666813588799,1.3110000000000002,-0.42837966040214615,,,,,,,,,,,,,,,,,,,,
47,240724_095831,LEARNING,1.0,48,3.0,500.0,,,,,,,,,,48.0,48.0,48.0,cue1.png,Hard,B,,,,,,,,,,,,,,,,,,,,,,,,,,,50,23,Female,1.1428571428571428,1.5,0.4,1.0,1.7777777777777777,2.125,3.111111111111111,2.3333333333333335,1.25,1.7777777777777777,1.25,1.5,2.75,2.25,0.2291666666666666,0.6041666666666666,0.5501514272764325,0.07890730345698212,-0.597561716329069,0.15838931569997275,,,,,,,,,2.3070000000000004,1.3924885118910586,2.208,1.0913694137514316,,,,,,,,,,,,,,,,,,,,
48,240724_095857,LEARNING,1.0,49,1.0,500.0,,,,,,,,,,49.0,49.0,49.0,cue2.png,Easy,B,,,,,,,,,,,,,,,,,,,,,,,,,,,50,23,Female,1.1428571428571428,1.5,0.4,1.0,1.7777777777777777,2.125,3.111111111111111,2.3333333333333335,1.25,1.7777777777777777,1.25,1.5,2.75,2.25,1.0,1.0,0.4537731499731308,-1.0246943752823245,-0.7901578754799823,-1.0329244703054496,9.244051966867577e-05,0.6479106248552879,,,,,,,,,,,,,,,,,,,,,,,,,,,,,,
49,240724_095923,LEARNING,1.0,50,1.0,500.0,,,,,,,,,,50.0,50.0,50.0,cue2.png,Easy,B,,,,,,,,,,,,,,,,,,,,,,,,,,,50,23,Female,1.1428571428571428,1.5,0.4,1.0,1.7777777777777777,2.125,3.111111111111111,2.3333333333333335,1.25,1.7777777777777777,1.25,1.5,2.75,2.25,1.0,1.0,0.4537185750523349,-1.0253192979920118,-0.7902781518843982,-1.0336684464020838,,,,,,,,,1.7280000000000002,0.22555526842598964,1.214,-0.592722648354094,,,,,,,,,,,,,,,,,,,,
0,240724_100048,TrueCHOICE,9.0,1,1.0,500.0,,,,,,,,,,,1.0,1.0,,,B,,,,,,True,cue2.png,Easy,cue1.png,Hard,Left,Easy,Easy,0.0165186000522226,,,,,,,,,,,,,50,23,Female,1.1428571428571428,1.5,0.4,1.0,1.7777777777777777,2.125,3.111111111111111,2.3333333333333335,1.25,1.7777777777777777,1.25,1.5,2.75,2.25,0.9090909090909092,0.8465909090909091,0.6445647666696459,1.259837225095635,-0.4391799703102353,1.2666692469739087,,,,,,,,,,,,,,,-0.00037228360858908337,-1.148707404688708,1.458,-0.30517390294665714,,,,,,,,,,,,,,
1,240724_100113,TrueCHOICE,9.0,2,1.0,500.0,,,,,,,,,,,2.0,2.0,,,B,,,,,,True,cue2.png,Easy,cue1.png,Hard,Left,Easy,Easy,0.0162500999867916,,,,,,,,,,,,,50,23,Female,1.1428571428571428,1.5,0.4,1.0,1.7777777777777777,2.125,3.111111111111111,2.3333333333333335,1.25,1.7777777777777777,1.25,1.5,2.75,2.25,,,,,,,,,,,,,,,,,,,,,,,1.4680000000000002,-0.2815431803733536,,,,,,,,,,,,,,
2,240724_100138,TrueCHOICE,9.0,3,1.0,500.0,,,,,,,,,,,3.0,3.0,,,B,,,,,,True,cue1.png,Hard,cue2.png,Easy,Right,Easy,Easy,0.016700399806723,,,,,,,,,,,,,50,23,Female,1.1428571428571428,1.5,0.4,1.0,1.7777777777777777,2.125,3.111111111111111,2.3333333333333335,1.25,1.7777777777777777,1.25,1.5,2.75,2.25,0.8958333333333333,0.9166666666666666,0.498792081270949,-0.06779512110606911,-0.6955659408617184,0.03561129648592421,,,,,,,,,,,,,7.441302880861192e-05,-0.6046328653055508,,,1.107,-1.1346122652695938,,,,,,,,,,,,,,
3,240724_100203,TrueCHOICE,9.0,4,1.0,500.0,,,,,,,,,,,4.0,4.0,,,B,,,,,,True,cue2.png,Easy,cue1.png,Hard,Left,Easy,Easy,0.0161261002067476,,,,,,,,,,,,,50,23,Female,1.1428571428571428,1.5,0.4,1.0,1.7777777777777777,2.125,3.111111111111111,2.3333333333333335,1.25,1.7777777777777777,1.25,1.5,2.75,2.25,1.0,1.0,0.5078314312559087,0.014531231021197539,-0.6776057147072269,0.12184877333573216,,,,,,,,,,,,,6.931008440114877e-07,-0.9786868841448906,-0.000273103872427368,-0.8097600575537559,1.4029999999999998,-0.43514287709982424,,,,,,,,,,,,,,
4,240724_100227,TrueCHOICE,9.0,5,1.0,500.0,,,,,,,,,,,5.0,5.0,,,B,,,,,,True,cue1.png,Hard,cue2.png,Easy,Right,Easy,Easy,0.0169921999331563,,,,,,,,,,,,,50,23,Female,1.1428571428571428,1.5,0.4,1.0,1.7777777777777777,2.125,3.111111111111111,2.3333333333333335,1.25,1.7777777777777777,1.25,1.5,2.75,2.25,0.8409090909090908,0.8465909090909091,0.7135913866882523,1.8885007722823364,-0.3374447680130449,1.7551590397775705,,,,,,,,,,,,,0.0002900026365625259,0.4892661851529896,0.00027272681830030213,1.0556196234863482,1.5859999999999999,-0.0027006540083784674,,,,,,,,,,,,,,
5,240724_100251,TrueCHOICE,9.0,6,1.0,500.0,,,,,,,,,,,6.0,6.0,,,B,,,,,,True,cue1.png,Hard,cue2.png,Easy,Right,Easy,Easy,0.0165662998333573,,,,,,,,,,,,,50,23,Female,1.1428571428571428,1.5,0.4,1.0,1.7777777777777777,2.125,3.111111111111111,2.3333333333333335,1.25,1.7777777777777777,1.25,1.5,2.75,2.25,0.75,0.8333333333333334,0.4541513812582707,-0.47436262812441954,-0.7893246976243137,-0.41457894868306716,,,,,,,,,,,,,6.821571394707328e-05,-0.6360779656193281,0.0002963840572410949,1.1364683803981925,,,,,,,,,,,,,,,,
6,240724_100316,TrueCHOICE,9.0,7,1.0,500.0,,,,,,,,,,,7.0,7.0,,,B,,,,,,True,cue2.png,Easy,cue1.png,Hard,Left,Easy,Easy,0.0152410001028329,,,,,,,,,,,,,50,23,Female,1.1428571428571428,1.5,0.4,1.0,1.7777777777777777,2.125,3.111111111111111,2.3333333333333335,1.25,1.7777777777777777,1.25,1.5,2.75,2.25,,,,,,,,,,,,,,,,,,,0.0003306692253831718,0.6956079627542097,-0.0003936739775241664,-1.2218091196697058,,,,,,,,,,,,,,,,
7,240724_100339,TrueCHOICE,9.0,8,1.0,500.0,,,,,,,,,,,8.0,8.0,,,B,,,,,,True,cue1.png,Hard,cue2.png,Easy,Right,Easy,Easy,0.0142892999574542,,,,,,,,,,,,,50,23,Female,1.1428571428571428,1.5,0.4,1.0,1.7777777777777777,2.125,3.111111111111111,2.3333333333333335,1.25,1.7777777777777777,1.25,1.5,2.75,2.25,1.0,1.0,0.4367262687301263,-0.6330627506151028,-0.8284486674943106,-0.6024358507573582,,,,,,,,,,,,,0.0006212232730240528,2.169875670426102,,,,,,,,,,,,,,,,,,
8,240724_100403,TrueCHOICE,9.0,9,1.0,500.0,,,,,,,,,,,9.0,9.0,,,B,,,,,,True,cue2.png,Easy,cue1.png,Hard,Left,Easy,Easy,0.0162048998754471,,,,,,,,,,,,,50,23,Female,1.1428571428571428,1.5,0.4,1.0,1.7777777777777777,2.125,3.111111111111111,2.3333333333333335,1.25,1.7777777777777777,1.25,1.5,2.75,2.25,1.0,1.0,0.435182618748513,-0.6471216234498749,-0.831989522775393,-0.61943755344775,,,,,,,,,,,,,0.0001433733134950108,-0.2547292186329861,0.0002736581881873806,1.0588025856986278,1.5240000000000002,-0.1492111339628564,,,,,,,,,,,,,,
9,240724_100426,TrueCHOICE,9.0,10,1.0,500.0,,,,,,,,,,,10.0,10.0,,,B,,,,,,True,cue1.png,Hard,cue2.png,Easy,Right,Easy,Easy,0.0166708000469952,,,,,,,,,,,,,50,23,Female,1.1428571428571428,1.5,0.4,1.0,1.7777777777777777,2.125,3.111111111111111,2.3333333333333335,1.25,1.7777777777777777,1.25,1.5,2.75,2.25,0.9090909090909092,0.8465909090909091,0.3590473999734968,-1.340527105103699,-1.0243008658571353,-1.5428360036849558,,,,,,,,,,,,,2.0019910919598892e-05,-0.8806228846305457,-5.6821577162321276e-05,-0.07061400767099844,2.564,2.3083840136606595,,,,,,,,,,,,,,
0,240724_100600,FalseCHOICE,9.0,1,2.0,500.0,,,,,,,,,,,1.0,1.0,,,B,,,,,,False,cue2.png,Easy,cue1.png,Hard,Left,Easy,Mid,0.0161150998901575,,,,,,,,,,,,,50,23,Female,1.1428571428571428,1.5,0.4,1.0,1.7777777777777777,2.125,3.111111111111111,2.3333333333333335,1.25,1.7777777777777777,1.25,1.5,2.75,2.25,1.0,0.9375,0.5269017733633519,-0.3780939641537533,-0.6407411361180687,-0.33841300464102236,,,,,,,,,,,,,,,,,,,,,-0.0003802589945802585,-0.7568508650311123,,,,,,,,,,
1,240724_100627,FalseCHOICE,9.0,2,2.0,500.0,,,,,,,,,,,2.0,2.0,,,B,,,,,,False,cue1.png,Hard,cue2.png,Easy,Left,Hard,Mid,0.0167857999913394,,,,,,,,,,,,,50,23,Female,1.1428571428571428,1.5,0.4,1.0,1.7777777777777777,2.125,3.111111111111111,2.3333333333333335,1.25,1.7777777777777777,1.25,1.5,2.75,2.25,,,,,,,,,,,,,,,,,,,,,,,,,-1.6167705089555843e-05,0.08894870617872427,-0.0003539297566772736,-0.6950948012502443,1.4649999999999999,-0.22940921857851354,,,,,,,,
2,240724_100653,FalseCHOICE,9.0,3,2.0,500.0,,,,,,,,,,,3.0,3.0,,,B,,,,,,False,cue1.png,Hard,cue2.png,Easy,Right,Easy,Mid,0.0171216002199798,,,,,,,,,,,,,50,23,Female,1.1428571428571428,1.5,0.4,1.0,1.7777777777777777,2.125,3.111111111111111,2.3333333333333335,1.25,1.7777777777777777,1.25,1.5,2.75,2.25,,,,,,,,,,,,,,,,,,,,,,,,,,,,,1.4700000000000002,-0.21815754028310888,,,,,,,,
3,240724_100719,FalseCHOICE,9.0,4,2.0,500.0,,,,,,,,,,,4.0,4.0,,,B,,,,,,False,cue1.png,Hard,cue2.png,Easy,Right,Easy,Mid,0.0163838998414576,,,,,,,,,,,,,50,23,Female,1.1428571428571428,1.5,0.4,1.0,1.7777777777777777,2.125,3.111111111111111,2.3333333333333335,1.25,1.7777777777777777,1.25,1.5,2.75,2.25,0.6113636363636364,0.7272727272727273,0.5743420000071637,0.4738137661931513,-0.5545302412643233,0.5174996996891472,,,,,,,,,,,,,,,,,,,-2.276202241358787e-05,0.07522128330207892,,,1.956,0.8755055900301512,,,,,,,,
4,240724_100747,FalseCHOICE,9.0,5,2.0,500.0,,,,,,,,,,,5.0,5.0,,,B,,,,,,False,cue2.png,Easy,cue1.png,Hard,Left,Easy,Mid,0.0162639999762177,,,,,,,,,,,,,50,23,Female,1.1428571428571428,1.5,0.4,1.0,1.7777777777777777,2.125,3.111111111111111,2.3333333333333335,1.25,1.7777777777777777,1.25,1.5,2.75,2.25,,,,,,,,,,,,,,,,,,,,,,,,,2.511304381244304e-05,0.17488304463968607,,,1.5230000000000001,-0.09888975035182751,,,,,,,,
5,240724_100814,FalseCHOICE,9.0,6,2.0,500.0,,,,,,,,,,,6.0,6.0,,,B,,,,,,False,cue1.png,Hard,cue2.png,Easy,Right,Easy,Mid,0.0166485998779535,,,,,,,,,,,,,50,23,Female,1.1428571428571428,1.5,0.4,1.0,1.7777777777777777,2.125,3.111111111111111,2.3333333333333335,1.25,1.7777777777777777,1.25,1.5,2.75,2.25,1.0,1.0,0.6441111125459429,1.7266923992884273,-0.43988403275100824,1.6557218064924943,,,,,,,,,,,,,,,,,,,-2.016482896433861e-06,0.11840737516912947,-0.00012462408713630494,-0.15725107004671826,1.5899999999999999,0.05188273880658434,,,,,,,,
6,240724_100841,FalseCHOICE,9.0,7,2.0,500.0,,,,,,,,,,,7.0,7.0,,,B,,,,,,False,cue1.png,Hard,cue2.png,Easy,Right,Easy,Mid,0.0166960000060498,,,,,,,,,,,,,50,23,Female,1.1428571428571428,1.5,0.4,1.0,1.7777777777777777,2.125,3.111111111111111,2.3333333333333335,1.25,1.7777777777777777,1.25,1.5,2.75,2.25,1.0,1.0,0.4851544999983161,-1.1277705027505285,-0.7232878820755066,-1.1579475737456217,,,,,,,,,,,,,,,,,,,2.409139114938107e-05,0.17275626525529222,8.90506106939002e-06,0.1559457882740846,2.255,1.5483559520953052,,,,,,,,
7,240724_100908,FalseCHOICE,9.0,8,2.0,500.0,,,,,,,,,,,8.0,8.0,,,B,,,,,,False,cue2.png,Easy,cue1.png,Hard,Left,Easy,Mid,0.016279499977827,,,,,,,,,,,,,50,23,Female,1.1428571428571428,1.5,0.4,1.0,1.7777777777777777,2.125,3.111111111111111,2.3333333333333335,1.25,1.7777777777777777,1.25,1.5,2.75,2.25,,,,,,,,,,,,,,,,,,,,,,,,,-7.257749614797372e-05,-0.028479833909885694,0.00012294037353772266,0.4234192357021691,,,,,,,,,,
8,240724_100937,FalseCHOICE,9.0,9,2.0,500.0,,,,,,,,,,,9.0,9.0,,,B,,,,,,False,cue2.png,Easy,cue1.png,Hard,Left,Easy,Mid,0.0168258000630885,,,,,,,,,,,,,50,23,Female,1.1428571428571428,1.5,0.4,1.0,1.7777777777777777,2.125,3.111111111111111,2.3333333333333335,1.25,1.7777777777777777,1.25,1.5,2.75,2.25,1.0,1.0,0.6294879187335027,1.464096439435361,-0.46284861752701184,1.427726494614639,,,,,,,,,,,,,,,,,,,-1.6505872898311784e-05,0.08824474058441724,-9.824939272947862e-05,-0.09538838659228317,,,,,,,,,,
9,240724_101005,FalseCHOICE,9.0,10,2.0,500.0,,,,,,,,,,,10.0,10.0,,,B,,,,,,False,cue1.png,Hard,cue2.png,Easy,Right,Easy,Mid,0.0150282999966293,,,,,,,,,,,,,50,23,Female,1.1428571428571428,1.5,0.4,1.0,1.7777777777777777,2.125,3.111111111111111,2.3333333333333335,1.25,1.7777777777777777,1.25,1.5,2.75,2.25,,,,,,,,,,,,,,,,,,,,,,,,,-0.00017202902394403662,-0.23550856951678237,0.0005634284471212449,1.4565980032445347,0.258,-2.945564359089018,,,,,,,,
10,240724_101033,FalseCHOICE,9.0,11,2.0,500.0,,,,,,,,,,,11.0,11.0,,,B,,,,,,False,cue2.png,Easy,cue1.png,Hard,Left,Easy,Mid,0.016253599897027,,,,,,,,,,,,,50,23,Female,1.1428571428571428,1.5,0.4,1.0,1.7777777777777777,2.125,3.111111111111111,2.3333333333333335,1.25,1.7777777777777777,1.25,1.5,2.75,2.25,0.8958333333333333,0.9166666666666666,0.7027993999654427,2.7805871479134225,-0.35268377644667565,2.5214570168547454,,,,,,,,,,,,,,,,,,,-0.0005263870104932509,-0.9731773367370063,0.00014761027179443185,0.48128326563811114,1.69,0.27691630471466283,,,,,,,,
11,240724_101101,FalseCHOICE,9.0,12,2.0,500.0,,,,,,,,,,,12.0,12.0,,,B,,,,,,False,cue1.png,Hard,cue2.png,Easy,Right,Easy,Mid,0.0172552999574691,,,,,,,,,,,,,50,23,Female,1.1428571428571428,1.5,0.4,1.0,1.7777777777777777,2.125,3.111111111111111,2.3333333333333335,1.25,1.7777777777777777,1.25,1.5,2.75,2.25,,,,,,,,,,,,,,,,,,,,,,,,,-0.00014167448548676412,-0.1723193771935969,8.757560258606948e-05,0.3404700421655614,2.314,1.6811257559810717,,,,,,,,
12,240724_101127,FalseCHOICE,9.0,13,2.0,500.0,,,,,,,,,,,13.0,13.0,,,B,,,,,,False,cue2.png,Easy,cue1.png,Hard,Left,Easy,Mid,0.0160960999783128,,,,,,,,,,,,,50,23,Female,1.1428571428571428,1.5,0.4,1.0,1.7777777777777777,2.125,3.111111111111111,2.3333333333333335,1.25,1.7777777777777777,1.25,1.5,2.75,2.25,0.8125,0.8541666666666666,0.6307963533637424,1.4875926504573664,-0.4607722048805685,1.4483413828667293,,,,,,,,,,,,,,,,,,,-0.0001111887130532457,-0.10885699445521164,-0.0005418506991975397,-1.135869340749039,,,,,,,,,,
13,240724_101153,FalseCHOICE,9.0,14,2.0,500.0,,,,,,,,,,,14.0,14.0,,,B,,,,,,False,cue1.png,Hard,cue2.png,Easy,Right,Easy,Mid,0.0171176998410373,,,,,,,,,,,,,50,23,Female,1.1428571428571428,1.5,0.4,1.0,1.7777777777777777,2.125,3.111111111111111,2.3333333333333335,1.25,1.7777777777777777,1.25,1.5,2.75,2.25,0.8958333333333333,0.9166666666666666,0.5929141999804415,0.8073239925581362,-0.5227055785127025,0.833458990058953,,,,,,,,,,,,,,,,,,,0.002146480220779295,4.5909435530917815,,,,,,,,,,,,
14,240724_101222,FalseCHOICE,9.0,15,2.0,500.0,,,,,,,,,,,15.0,15.0,,,B,,,,,,False,cue2.png,Easy,cue1.png,Hard,Left,Easy,Mid,0.016378000145778,,,,,,,,,,,,,50,23,Female,1.1428571428571428,1.5,0.4,1.0,1.7777777777777777,2.125,3.111111111111111,2.3333333333333335,1.25,1.7777777777777777,1.25,1.5,2.75,2.25,,,,,,,,,,,,,,,,,,,,,,,,,-5.396214692533156e-05,0.010271830321430453,-0.00012105141451487387,-0.14887125293654488,,,,,,,,,,
15,240724_101248,FalseCHOICE,9.0,16,2.0,500.0,,,,,,,,,,,16.0,16.0,,,B,,,,,,False,cue2.png,Easy,cue1.png,Hard,Left,Easy,Mid,0.0165109999943524,,,,,,,,,,,,,50,23,Female,1.1428571428571428,1.5,0.4,1.0,1.7777777777777777,2.125,3.111111111111111,2.3333333333333335,1.25,1.7777777777777777,1.25,1.5,2.75,2.25,0.9090909090909092,0.8465909090909091,0.5486375666378687,0.012226479608259714,-0.6003172255393401,0.06292070940680712,,,,,,,,,,,,,,,,,,,-0.00027572435770130063,-0.4513716569107138,-0.0014255832382741268,-3.2086920806071864,,,,,,,,,,
16,240724_101314,FalseCHOICE,9.0,17,2.0,500.0,,,,,,,,,,,17.0,17.0,,,B,,,,,,False,cue1.png,Hard,cue2.png,Easy,Right,Easy,Mid,0.0164423999376595,,,,,,,,,,,,,50,23,Female,1.1428571428571428,1.5,0.4,1.0,1.7777777777777777,2.125,3.111111111111111,2.3333333333333335,1.25,1.7777777777777777,1.25,1.5,2.75,2.25,0.9375,0.9375,0.609934419983377,1.1129645431729418,-0.4944038358181755,1.11444228304094,,,,,,,,,,,,,,,,,,,0.00013885188778391556,0.41165375675071963,0.00022863535055987023,0.671330161432273,,,,,,,,,,
17,240724_101341,FalseCHOICE,9.0,18,2.0,500.0,,,,,,,,,,,18.0,18.0,,,B,,,,,,False,cue1.png,Hard,cue2.png,Easy,Right,Easy,Mid,0.0164975998923182,,,,,,,,,,,,,50,23,Female,1.1428571428571428,1.5,0.4,1.0,1.7777777777777777,2.125,3.111111111111111,2.3333333333333335,1.25,1.7777777777777777,1.25,1.5,2.75,2.25,1.0,1.0,0.602753037455841,0.9840048875684254,-0.5062477226040791,0.9968546720330637,,,,,,,,,,,,,,,,,,,-0.00029822164349244075,-0.4982043676306302,9.13853759142518e-05,0.34940598651430405,,,,,,,,,,
18,240724_101408,FalseCHOICE,9.0,19,2.0,500.0,,,,,,,,,,,19.0,19.0,,,B,,,,,,False,cue2.png,Easy,cue1.png,Hard,Left,Easy,Mid,0.0165279998909682,,,,,,,,,,,,,50,23,Female,1.1428571428571428,1.5,0.4,1.0,1.7777777777777777,2.125,3.111111111111111,2.3333333333333335,1.25,1.7777777777777777,1.25,1.5,2.75,2.25,0.9090909090909092,0.9090909090909092,0.6226064312650124,1.3405221484711125,-0.47384069133795065,1.3185957909178692,,,,,,,,,,,,,,,,,,,-0.00028516080238961006,-0.47101555033034265,-6.296371929038168e-06,0.12029034434248889,,,,,,,,,,
19,240724_101435,FalseCHOICE,9.0,20,2.0,500.0,,,,,,,,,,,20.0,20.0,,,B,,,,,,False,cue2.png,Easy,cue1.png,Hard,Left,Easy,Mid,0.0168904999736696,,,,,,,,,,,,,50,23,Female,1.1428571428571428,1.5,0.4,1.0,1.7777777777777777,2.125,3.111111111111111,2.3333333333333335,1.25,1.7777777777777777,1.25,1.5,2.75,2.25,1.0,1.0,0.6174008437665179,1.2470428262861486,-0.4822368002701822,1.2352381559666439,,,,,,,,,,,,,,,,,,,-0.00022261497645074176,-0.34081359618675267,-0.00013469623338118342,-0.18087560897947744,,,,,,,,,,
20,240724_101502,FalseCHOICE,9.0,21,2.0,500.0,,,,,,,,,,,21.0,21.0,,,B,,,,,,False,cue2.png,Easy,cue1.png,Hard,Left,Easy,Mid,0.0166225999128073,,,,,,,,,,,,,50,23,Female,1.1428571428571428,1.5,0.4,1.0,1.7777777777777777,2.125,3.111111111111111,2.3333333333333335,1.25,1.7777777777777777,1.25,1.5,2.75,2.25,0.8958333333333333,0.7916666666666666,0.5574689999921247,0.17081691807775248,-0.5843483825891925,0.2214614086730873,,,,,,,,,,,,,,,,,,,-0.0003910576432388222,-0.6914615258887502,-0.00015153250788319927,-0.22036562558420486,1.1869999999999998,-0.8550025318029713,,,,,,,,
21,240724_101526,FalseCHOICE,9.0,22,2.0,500.0,,,,,,,,,,,22.0,22.0,,,B,,,,,,False,cue1.png,Hard,cue2.png,Easy,Right,Easy,Mid,0.0168243001680821,,,,,,,,,,,,,50,23,Female,1.1428571428571428,1.5,0.4,1.0,1.7777777777777777,2.125,3.111111111111111,2.3333333333333335,1.25,1.7777777777777777,1.25,1.5,2.75,2.25,1.0,1.0,0.4861948312754975,-1.1090887569020798,-0.7211458480173841,-1.136681187790978,,,,,,,,,,,,,,,,,,,1.2005842457760933e-05,0.14759771897461102,-3.313195692204035e-05,0.05734662737919363,1.7570000000000001,0.4276887938730757,,,,,,,,
22,240724_101550,FalseCHOICE,9.0,23,2.0,500.0,,,,,,,,,,,23.0,23.0,,,B,,,,,,False,cue2.png,Easy,cue1.png,Hard,Left,Easy,Mid,0.0159263000823557,,,,,,,,,,,,,50,23,Female,1.1428571428571428,1.5,0.4,1.0,1.7777777777777777,2.125,3.111111111111111,2.3333333333333335,1.25,1.7777777777777777,1.25,1.5,2.75,2.25,1.0,1.0,0.4935337187198456,-0.977300707217425,-0.7061640967692473,-0.9879404602048799,,,,,,,,,,,,,,,,,,,-4.273967012270556e-05,0.03363371559673506,0.0004248414550570602,1.1315378115044552,1.242,-0.7312340705535278,,,,,,,,
23,240724_101615,FalseCHOICE,9.0,24,2.0,500.0,,,,,,,,,,,24.0,24.0,,,B,,,,,,False,cue1.png,Hard,cue2.png,Easy,Right,Easy,Mid,0.0156141000334173,,,,,,,,,,,,,50,23,Female,1.1428571428571428,1.5,0.4,1.0,1.7777777777777777,2.125,3.111111111111111,2.3333333333333335,1.25,1.7777777777777777,1.25,1.5,2.75,2.25,1.0,1.0,0.5325058562593767,-0.2774586620403473,-0.6301613837888398,-0.23337588093854958,,,,,,,,,,,,,,,,,,,-0.00011967981257547059,-0.12653295818302213,0.0001365996402596572,0.45545747964936845,0.581,-2.2187059412059256,,,,,,,,
24,240724_101640,FalseCHOICE,9.0,25,2.0,500.0,,,,,,,,,,,25.0,25.0,,,B,,,,,,False,cue1.png,Hard,cue2.png,Easy,Right,Easy,Mid,0.016610600054264,,,,,,,,,,,,,50,23,Female,1.1428571428571428,1.5,0.4,1.0,1.7777777777777777,2.125,3.111111111111111,2.3333333333333335,1.25,1.7777777777777777,1.25,1.5,2.75,2.25,0.8958333333333333,0.8541666666666666,0.4811376066567997,-1.199903853109705,-0.7316019652651795,-1.240490846715601,,,,,,,,,,,,,,,,,,,0.0007044622150515468,1.5890875629014223,0.0006357421883537865,1.6262121801624219,1.997,0.9677693520524636,,,,,,,,
25,240724_101706,FalseCHOICE,9.0,26,2.0,500.0,,,,,,,,,,,26.0,26.0,,,B,,,,,,False,cue2.png,Easy,cue1.png,Hard,Left,Easy,Mid,0.0160156998317688,,,,,,,,,,,,,50,23,Female,1.1428571428571428,1.5,0.4,1.0,1.7777777777777777,2.125,3.111111111111111,2.3333333333333335,1.25,1.7777777777777777,1.25,1.5,2.75,2.25,1.0,1.0,0.5677379437547643,0.3552214454754177,-0.5660953333522517,0.4026799978220087,,,,,,,,,,,,,,,,,,,0.0006406548468847915,1.4562594500839332,0.00042519300934676027,1.1323623932571498,1.6189999999999998,0.11714247291992685,,,,,,,,
26,240724_101731,FalseCHOICE,9.0,27,2.0,500.0,,,,,,,,,,,27.0,27.0,,,B,,,,,,False,cue2.png,Easy,cue1.png,Hard,Left,Easy,Mid,0.0161948997993022,,,,,,,,,,,,,50,23,Female,1.1428571428571428,1.5,0.4,1.0,1.7777777777777777,2.125,3.111111111111111,2.3333333333333335,1.25,1.7777777777777777,1.25,1.5,2.75,2.25,0.9090909090909092,0.9090909090909092,0.5024391937331529,-0.8173806658734121,-0.688280653867117,-0.810391369651257,,,,,,,,,,,,,,,,,,,-0.00011698051728606645,-0.12091382187431762,-0.00012087556195388089,-0.14845878516923894,,,,,,,,,,
27,240724_101755,FalseCHOICE,9.0,28,2.0,500.0,,,,,,,,,,,28.0,28.0,,,B,,,,,,False,cue1.png,Hard,cue2.png,Easy,Right,Easy,Mid,0.0168988001532852,,,,,,,,,,,,,50,23,Female,1.1428571428571428,1.5,0.4,1.0,1.7777777777777777,2.125,3.111111111111111,2.3333333333333335,1.25,1.7777777777777777,1.25,1.5,2.75,2.25,0.8958333333333333,0.9166666666666666,0.4415737250092206,-1.9103721413656414,-0.81741028531564,-2.0924067373117365,,,,,,,,,,,,,,,,,,,,,0.0001472585549672327,0.4804583026485499,0.8740000000000001,-1.5593575930952557,,,,,,,,
28,240724_101821,FalseCHOICE,9.0,29,2.0,500.0,,,,,,,,,,,29.0,29.0,,,B,,,,,,False,cue2.png,Easy,cue1.png,Hard,Left,Easy,Mid,0.0160771999508142,,,,,,,,,,,,,50,23,Female,1.1428571428571428,1.5,0.4,1.0,1.7777777777777777,2.125,3.111111111111111,2.3333333333333335,1.25,1.7777777777777777,1.25,1.5,2.75,2.25,1.0,0.9375,0.5734422666641573,0.4576568073338915,-0.556098015894838,0.5019346342057122,,,,,,,,,,,,,,,,,,,,,,,1.694,0.28591764735098596,,,,,,,,
29,240724_101847,FalseCHOICE,9.0,30,2.0,500.0,,,,,,,,,,,30.0,30.0,,,B,,,,,,False,cue2.png,Easy,cue1.png,Hard,Left,Easy,Mid,0.0156633998267352,,,,,,,,,,,,,50,23,Female,1.1428571428571428,1.5,0.4,1.0,1.7777777777777777,2.125,3.111111111111111,2.3333333333333335,1.25,1.7777777777777777,1.25,1.5,2.75,2.25,0.0484848484848484,0.6647727272727273,0.5214769733293603,-0.47550979479979877,-0.6510901602057825,-0.44115942908215927,,,,,,,,,,,,,,,,,,,-0.0012205850769986793,-2.418292873464445,0.00013443159888998184,0.4503722697546281,1.6840000000000002,0.26341429076017864,,,,,,,,
30,240724_101912,FalseCHOICE,9.0,31,2.0,500.0,,,,,,,,,,,31.0,31.0,,,B,,,,,,False,cue1.png,Hard,cue2.png,Easy,Right,Easy,Mid,0.0167407998815178,,,,,,,,,,,,,50,23,Female,1.1428571428571428,1.5,0.4,1.0,1.7777777777777777,2.125,3.111111111111111,2.3333333333333335,1.25,1.7777777777777777,1.25,1.5,2.75,2.25,0.8958333333333333,0.8541666666666666,0.5011592866387218,-0.8403645937550883,-0.6908312910260197,-0.8357144190424626,,,,,,,,,,,,,,,,,,,0.0002338020606775502,0.6093119996701775,-0.00028356786724718745,-0.5300587547304867,2.019,1.0172767365522408,,,,,,,,
31,240724_101937,FalseCHOICE,9.0,32,2.0,500.0,,,,,,,,,,,32.0,32.0,,,B,,,,,,False,cue2.png,Easy,cue1.png,Hard,Left,Easy,Mid,0.0141869999933987,,,,,,,,,,,,,50,23,Female,1.1428571428571428,1.5,0.4,1.0,1.7777777777777777,2.125,3.111111111111111,2.3333333333333335,1.25,1.7777777777777777,1.25,1.5,2.75,2.25,0.8958333333333333,0.9166666666666666,0.5097355312609579,-0.6863567061898616,-0.6738632539206794,-0.667253593404999,,,,,,,,,,,,,,,,,,,0.00016317654503582562,0.4622905156475843,0.0005896071694736979,1.518001028020897,,,,,,,,,,
32,240724_102002,FalseCHOICE,9.0,33,2.0,500.0,,,,,,,,,,,33.0,33.0,,,B,,,,,,False,cue1.png,Hard,cue2.png,Easy,Right,Easy,Mid,0.0173188000917434,,,,,,,,,,,,,50,23,Female,1.1428571428571428,1.5,0.4,1.0,1.7777777777777777,2.125,3.111111111111111,2.3333333333333335,1.25,1.7777777777777777,1.25,1.5,2.75,2.25,0.9090909090909092,0.9090909090909092,0.5263518874562578,-0.3879685387121642,-0.6417853023574285,-0.3487796195708041,,,,,,,,,,,,,,,,,,,-2.4551685285926356e-05,0.07149573327953304,-0.0004262283157902636,-0.8646733680245029,1.3920000000000001,-0.3936837216914101,,,,,,,,
33,240724_102026,FalseCHOICE,9.0,34,2.0,500.0,,,,,,,,,,,34.0,34.0,,,B,,,,,,False,cue1.png,Hard,cue2.png,Easy,Right,Easy,Mid,0.0168732998427003,,,,,,,,,,,,,50,23,Female,1.1428571428571428,1.5,0.4,1.0,1.7777777777777777,2.125,3.111111111111111,2.3333333333333335,1.25,1.7777777777777777,1.25,1.5,2.75,2.25,0.8958333333333333,0.9166666666666666,0.4474659562547458,-1.8045624161140603,-0.804154819569497,-1.9608047912562574,,,,,,,,,,,,,,,,,,,-0.0002573605745516223,-0.4131436790134487,5.6198266384208453e-05,0.2668735034850328,0.8899999999999999,-1.5233522225499636,,,,,,,,
34,240724_102053,FalseCHOICE,9.0,35,2.0,500.0,,,,,,,,,,,35.0,35.0,,,B,,,,,,False,cue1.png,Hard,cue2.png,Easy,Right,Easy,Mid,0.0167591001372784,,,,,,,,,,,,,50,23,Female,1.1428571428571428,1.5,0.4,1.0,1.7777777777777777,2.125,3.111111111111111,2.3333333333333335,1.25,1.7777777777777777,1.25,1.5,2.75,2.25,0.9090909090909092,0.8465909090909091,0.6044087266859909,1.0137369220464019,-0.5035046100941565,1.0240886411344505,,,,,,,,,,,,,,,,,,,-0.00012232022453290093,-0.13202951676932242,-0.0002369316615185705,-0.4206720529168485,1.5450000000000002,-0.04938236585205024,,,,,,,,
35,240724_102119,FalseCHOICE,9.0,36,2.0,500.0,,,,,,,,,,,36.0,36.0,,,B,,,,,,False,cue2.png,Easy,cue1.png,Hard,Left,Easy,Mid,0.0161329999100416,,,,,,,,,,,,,50,23,Female,1.1428571428571428,1.5,0.4,1.0,1.7777777777777777,2.125,3.111111111111111,2.3333333333333335,1.25,1.7777777777777777,1.25,1.5,2.75,2.25,0.9090909090909092,0.9090909090909092,0.5564420624723425,0.15237569058838363,-0.5861922242482466,0.2031555146972169,,,,,,,,,,,,,,,,,,,,,,,1.352,-0.4836971480546415,,,,,,,,
36,240724_102144,FalseCHOICE,9.0,37,2.0,500.0,,,,,,,,,,,37.0,37.0,,,B,,,,,,False,cue1.png,Hard,cue2.png,Easy,Right,Easy,Mid,0.0167980000842362,,,,,,,,,,,,,50,23,Female,1.1428571428571428,1.5,0.4,1.0,1.7777777777777777,2.125,3.111111111111111,2.3333333333333335,1.25,1.7777777777777777,1.25,1.5,2.75,2.25,1.0,0.9375,0.5416647533265253,-0.11298779491026328,-0.6131080052129085,-0.06406777435116781,,,,,,,,,,,,,,,,,,,-5.266002258611478e-05,0.0129824689765129,-0.00021988477070819523,-0.3806880290711876,1.383,-0.4139367426231374,,,,,,,,
37,240724_102210,FalseCHOICE,9.0,38,2.0,500.0,,,,,,,,,,,38.0,38.0,,,B,,,,,,False,cue2.png,Easy,cue1.png,Hard,Left,Easy,Mid,0.0169343999586999,,,,,,,,,,,,,50,23,Female,1.1428571428571428,1.5,0.4,1.0,1.7777777777777777,2.125,3.111111111111111,2.3333333333333335,1.25,1.7777777777777777,1.25,1.5,2.75,2.25,0.9090909090909092,0.9090909090909092,0.5401315374911064,-0.14052051376277755,-0.6159425811400505,-0.09220980386547908,,,,,,,,,,,,,,,,,,,-8.039013569255665e-05,-0.04474344415812842,7.02328958508457e-05,0.29979217267234876,1.5079999999999998,-0.13264478523804005,,,,,,,,
38,240724_102236,FalseCHOICE,9.0,39,2.0,500.0,,,,,,,,,,,39.0,39.0,,,B,,,,,,False,cue2.png,Easy,cue1.png,Hard,Left,Easy,Mid,0.0149679000023752,,,,,,,,,,,,,50,23,Female,1.1428571428571428,1.5,0.4,1.0,1.7777777777777777,2.125,3.111111111111111,2.3333333333333335,1.25,1.7777777777777777,1.25,1.5,2.75,2.25,0.6113636363636364,0.7272727272727273,0.6057950812246418,1.038632379594395,-0.5012134998926767,1.0468350739582108,,,,,,,,,,,,,,,,,,,0.00019039145956942704,0.5189439373737441,-0.0006186801303491576,-1.316075211801206,1.792,0.5064505419409029,,,,,,,,
39,240724_102303,FalseCHOICE,9.0,40,2.0,500.0,,,,,,,,,,,40.0,40.0,,,B,,,,,,False,cue1.png,Hard,cue2.png,Easy,Right,Easy,Mid,0.0170318998862057,,,,,,,,,,,,,50,23,Female,1.1428571428571428,1.5,0.4,1.0,1.7777777777777777,2.125,3.111111111111111,2.3333333333333335,1.25,1.7777777777777777,1.25,1.5,2.75,2.25,0.95,0.9375,0.5746950533706695,0.480153720929324,-0.5539157208298806,0.5236007365453621,,,,,,,,,,,,,,,,,,,-5.872969082208355e-05,0.00034721069246968937,-4.81434633375433e-05,0.0221366622803705,1.672,0.2364102628512087,,,,,,,,
40,240724_102328,FalseCHOICE,9.0,41,2.0,500.0,,,,,,,,,,,41.0,41.0,,,B,,,,,,False,cue1.png,Hard,cue2.png,Easy,Right,Easy,Mid,0.0168512999080121,,,,,,,,,,,,,50,23,Female,1.1428571428571428,1.5,0.4,1.0,1.7777777777777777,2.125,3.111111111111111,2.3333333333333335,1.25,1.7777777777777777,1.25,1.5,2.75,2.25,0.75,0.7708333333333334,0.4886496000147114,-1.0650072544916558,-0.7161096107493281,-1.086680785091725,,,,,,,,,,,,,,,,,,,,,,,1.0809999999999997,-1.0935381116655345,,,,,,,,
41,240724_102354,FalseCHOICE,9.0,42,2.0,500.0,,,,,,,,,,,42.0,42.0,,,B,,,,,,False,cue2.png,Easy,cue1.png,Hard,Left,Easy,Mid,0.0163509999401867,,,,,,,,,,,,,50,23,Female,1.1428571428571428,1.5,0.4,1.0,1.7777777777777777,2.125,3.111111111111111,2.3333333333333335,1.25,1.7777777777777777,1.25,1.5,2.75,2.25,0.95,0.875,0.5073146785476378,-0.7298291616651081,-0.6786238001786973,-0.7145169007712137,,,,,,,,,,,,,,,,,,,-3.1209262796860586e-05,0.057636621360005656,-0.0012507454661289125,-2.7986045327757827,1.631,0.14414650082889677,,,,,,,,
42,240724_102419,FalseCHOICE,9.0,43,2.0,500.0,,,,,,,,,,,43.0,43.0,,,B,,,,,,False,cue1.png,Hard,cue2.png,Easy,Right,Easy,Mid,0.0163636000361293,,,,,,,,,,,,,50,23,Female,1.1428571428571428,1.5,0.4,1.0,1.7777777777777777,2.125,3.111111111111111,2.3333333333333335,1.25,1.7777777777777777,1.25,1.5,2.75,2.25,0.8409090909090908,0.8465909090909091,0.5236193267007668,-0.4370384904373845,-0.6469903344343796,-0.40045583855294536,,,,,,,,,,,,,,,,,,,-0.0011535550056342445,-2.2787560435157315,0.0009052839828911767,2.2584310205403875,2.46,2.009674762206866,,,,,,,,
43,240724_102444,FalseCHOICE,9.0,44,2.0,500.0,,,,,,,,,,,44.0,44.0,,,B,,,,,,False,cue2.png,Easy,cue1.png,Hard,Left,Easy,Mid,0.0154870999976992,,,,,,,,,,,,,50,23,Female,1.1428571428571428,1.5,0.4,1.0,1.7777777777777777,2.125,3.111111111111111,2.3333333333333335,1.25,1.7777777777777777,1.25,1.5,2.75,2.25,0.9090909090909092,0.9090909090909092,0.535141325002769,-0.230132239836663,-0.6252244080862649,-0.18436095965775467,,,,,,,,,,,,,,,,,,,-8.648700654525273e-05,-0.05743533026349383,-5.3821333052798785e-05,0.008819038520549308,1.7400000000000002,0.3894330876687026,,,,,,,,
44,240724_102509,FalseCHOICE,9.0,45,2.0,500.0,,,,,,,,,,,45.0,45.0,,,B,,,,,,False,cue1.png,Hard,cue2.png,Easy,Right,Easy,Mid,0.015478900168091,,,,,,,,,,,,,50,23,Female,1.1428571428571428,1.5,0.4,1.0,1.7777777777777777,2.125,3.111111111111111,2.3333333333333335,1.25,1.7777777777777777,1.25,1.5,2.75,2.25,1.0,1.0,0.5238879812386585,-0.43221412736380344,-0.6464773937765991,-0.3953632986099762,,,,,,,,,,,,,,,,,,,-0.00032692092899322487,-0.5579478117155978,8.348484010897586e-05,0.3308750288431616,1.5950000000000002,0.06313441710198901,,,,,,,,
45,240724_102535,FalseCHOICE,9.0,46,2.0,500.0,,,,,,,,,,,46.0,46.0,,,B,,,,,,False,cue1.png,Hard,cue2.png,Easy,Right,Easy,Mid,0.016289500053972,,,,,,,,,,,,,50,23,Female,1.1428571428571428,1.5,0.4,1.0,1.7777777777777777,2.125,3.111111111111111,2.3333333333333335,1.25,1.7777777777777777,1.25,1.5,2.75,2.25,0.95,0.9375,0.542335886694491,-0.10093591943006323,-0.6118697523393585,-0.05177424268741671,,,,,,,,,,,,,,,,,,,,,0.00011425146456300102,0.40303912372147893,,,,,,,,,,
46,240724_102600,FalseCHOICE,9.0,47,2.0,500.0,,,,,,,,,,,47.0,47.0,,,B,,,,,,False,cue2.png,Easy,cue1.png,Hard,Left,Easy,Mid,0.0159595001023262,,,,,,,,,,,,,50,23,Female,1.1428571428571428,1.5,0.4,1.0,1.7777777777777777,2.125,3.111111111111111,2.3333333333333335,1.25,1.7777777777777777,1.25,1.5,2.75,2.25,1.0,1.0,0.5354996937385295,-0.2236968343188692,-0.6245549610113422,-0.1777146041446256,,,,,,,,,,,,,,,,,,,,,-0.00017095244640400516,-0.26591570820833815,2.0340000000000003,1.051031771438453,,,,,,,,
47,240724_102625,FalseCHOICE,9.0,48,2.0,500.0,,,,,,,,,,,48.0,48.0,,,B,,,,,,False,cue2.png,Easy,cue1.png,Hard,Left,Easy,Mid,0.0162158000748604,,,,,,,,,,,,,50,23,Female,1.1428571428571428,1.5,0.4,1.0,1.7777777777777777,2.125,3.111111111111111,2.3333333333333335,1.25,1.7777777777777777,1.25,1.5,2.75,2.25,0.75,0.7708333333333334,0.4631243866713097,-1.5233761979889853,-0.7697596072591195,-1.6193247586625983,,,,,,,,,,,,,,,,,,,-0.00028855107233499277,-0.4780730919861927,-5.422671655628056e-05,0.007868198637185502,1.64,0.16439952176062358,,,,,,,,
48,240724_102650,FalseCHOICE,9.0,49,2.0,500.0,,,,,,,,,,,49.0,49.0,,,B,,,,,,False,cue1.png,Hard,cue2.png,Easy,Right,Easy,Mid,0.0168549998197704,,,,,,,,,,,,,50,23,Female,1.1428571428571428,1.5,0.4,1.0,1.7777777777777777,2.125,3.111111111111111,2.3333333333333335,1.25,1.7777777777777777,1.25,1.5,2.75,2.25,0.9090909090909092,0.9090909090909092,0.5413640000333544,-0.11838857128730901,-0.6136633982252709,-0.06958178665765917,,,,,,,,,,,,,,,,,,,,,,,1.6760000000000002,0.24541160548753235,,,,,,,,
49,240724_102716,FalseCHOICE,9.0,50,2.0,500.0,,,,,,,,,,,50.0,50.0,,,B,,,,,,False,cue2.png,Easy,cue1.png,Hard,Left,Easy,Mid,0.0161208000499755,,,,,,,,,,,,,50,23,Female,1.1428571428571428,1.5,0.4,1.0,1.7777777777777777,2.125,3.111111111111111,2.3333333333333335,1.25,1.7777777777777777,1.25,1.5,2.75,2.25,0.7818181818181817,0.8181818181818181,0.5480011062172707,0.0007972434783778991,-0.6014779733915044,0.051396657430814126,,,,,,,,,,,,,,,,,,,-0.0001030142191219682,-0.09184011014661654,-0.0005367562694292638,-1.1239201939163035,1.8439999999999999,0.6234679962131032,,,,,,,,
0,240724_093536,OFFLINERATING,9.0,1,1.0,,,,,,,,,,,,,,,,,T0,cue2.png,Easy,33.0,2.8090702001936734,,,,,,,,,,,,,,,,,,,,,,50,23,Female,1.1428571428571428,1.5,0.4,1.0,1.7777777777777777,2.125,3.111111111111111,2.3333333333333335,1.25,1.7777777777777777,1.25,1.5,2.75,2.25,,,,,,,,,,,,,,,,,,,,,,,,,,,,,,,-0.9927945535915402,0.00012581355293423075,1.062217061409965,-0.0005142246628622245,-0.4148372759279047,0.829,-0.6805597791002255,
1,240724_093544,OFFLINERATING,9.0,2,3.0,,,,,,,,,,,,,,,,,T0,cue1.png,Hard,36.0,1.852209400152788,,,,,,,,,,,,,,,,,,,,,,50,23,Female,1.1428571428571428,1.5,0.4,1.0,1.7777777777777777,2.125,3.111111111111111,2.3333333333333335,1.25,1.7777777777777777,1.25,1.5,2.75,2.25,,,,,,,,,,,,,,,,,,,,,,,,,,,,,,,-0.6084869844593311,-0.0001543446747244064,-1.5247448444559375,,,1.587,1.140673451466309,
2,240724_095946,OFFLINERATING,9.0,3,1.0,,,,,,,,,,,,,,,,,T1,cue2.png,Easy,40.0,1.82724849996157,,,,,,,,,,,,,,,,,,,,,,50,23,Female,1.1428571428571428,1.5,0.4,1.0,1.7777777777777777,2.125,3.111111111111111,2.3333333333333335,1.25,1.7777777777777777,1.25,1.5,2.75,2.25,,,,,,,,,,,,,,,,,,,,,,,,,,,,,,,-0.09607689228305229,,,,,,,
3,240724_095954,OFFLINERATING,9.0,4,3.0,,,,,,,,,,,,,,,,,T1,cue1.png,Hard,33.0,2.286127300001681,,,,,,,,,,,,,,,,,,,,,,50,23,Female,1.1428571428571428,1.5,0.4,1.0,1.7777777777777777,2.125,3.111111111111111,2.3333333333333335,1.25,1.7777777777777777,1.25,1.5,2.75,2.25,,,,,,,,,,,,,,,,,,,,,,,,,,,,,,,-0.9927945535915402,,,,,,,
4,240724_100444,OFFLINERATING,9.0,5,1.0,,,,,,,,,,,,,,,,,T2,cue2.png,Easy,51.0,1.684984700055793,,,,,,,,,,,,,,,,,,,,,,50,23,Female,1.1428571428571428,1.5,0.4,1.0,1.7777777777777777,2.125,3.111111111111111,2.3333333333333335,1.25,1.7777777777777777,1.25,1.5,2.75,2.25,,,,,,,,,,,,,,,,,,,,,,,,,,,,,,,1.3130508612017147,,,,,1.4460000000000002,0.8018952383925874,
5,240724_100452,OFFLINERATING,9.0,6,3.0,,,,,,,,,,,,,,,,,T2,cue1.png,Hard,33.0,1.5353003002237529,,,,,,,,,,,,,,,,,,,,,,50,23,Female,1.1428571428571428,1.5,0.4,1.0,1.7777777777777777,2.125,3.111111111111111,2.3333333333333335,1.25,1.7777777777777777,1.25,1.5,2.75,2.25,,,,,,,,,,,,,,,,,,,,,,,,,,,,,,,-0.9927945535915402,,,-0.00037829495384535203,0.11000739047027133,,,
6,240724_102743,OFFLINERATING,9.0,7,1.0,,,,,,,,,,,,,,,,,T3,cue2.png,Easy,52.0,1.821869199862704,,,,,,,,,,,,,,,,,,,,,,50,23,Female,1.1428571428571428,1.5,0.4,1.0,1.7777777777777777,2.125,3.111111111111111,2.3333333333333335,1.25,1.7777777777777777,1.25,1.5,2.75,2.25,,,,,,,,,,,,,,,,,,,,,,,,,,,,,,,1.4411533842457842,-1.4964174164116412e-05,-0.23771483865030563,-1.1760969113097479e-05,1.5252491969286053,,,
7,240724_102751,OFFLINERATING,9.0,8,3.0,,,,,,,,,,,,,,,,,T3,cue1.png,Hard,48.0,2.502945799846202,,,,,,,,,,,,,,,,,,,,,,50,23,Female,1.1428571428571428,1.5,0.4,1.0,1.7777777777777777,2.125,3.111111111111111,2.3333333333333335,1.25,1.7777777777777777,1.25,1.5,2.75,2.25,,,,,,,,,,,,,,,,,,,,,,,,,,,,,,,0.9287432920695055,8.661308490338394e-05,0.7002426216962778,-0.0007228626441378393,-1.220419311470972,0.587,-1.2620089107586705,
0,240724_100509,LEARNINGCHECK,9.0,1,,,,,,,,,,,,1.0,1.0,1.0,,,B,,,,,,,,,,,,,,,cue2.png,Easy,Left,Left,Easy,0.013953800080344,1.0,,,,,,50,23,Female,1.1428571428571428,1.5,0.4,1.0,1.7777777777777777,2.125,3.111111111111111,2.3333333333333335,1.25,1.7777777777777777,1.25,1.5,2.75,2.25,,,,,,,,,,,,,,,,,,,,,,,,,,,,,,,,,,,,,,
1,240724_102803,LEARNINGCHECK,9.0,1,,,,,,,,,,,,1.0,1.0,1.0,,,B,,,,,,,,,,,,,,,cue2.png,Easy,Middle,Middle,Mid,0.0161131001077592,1.0,,,,,,50,23,Female,1.1428571428571428,1.5,0.4,1.0,1.7777777777777777,2.125,3.111111111111111,2.3333333333333335,1.25,1.7777777777777777,1.25,1.5,2.75,2.25,,,,,,,,,,,,,,,,,,,,,,,,,,,,,,,,,,,,,,
2,240724_100515,LEARNINGCHECK,9.0,2,,,,,,,,,,,,2.0,2.0,2.0,,,B,,,,,,,,,,,,,,,cue1.png,Hard,Right,Right,Hard,0.0158534999936819,1.0,,,,,,50,23,Female,1.1428571428571428,1.5,0.4,1.0,1.7777777777777777,2.125,3.111111111111111,2.3333333333333335,1.25,1.7777777777777777,1.25,1.5,2.75,2.25,,,,,,,,,,,,,,,,,,,,,,,,,,,,,,,,,,,,,,
3,240724_102808,LEARNINGCHECK,9.0,2,,,,,,,,,,,,2.0,2.0,2.0,,,B,,,,,,,,,,,,,,,cue1.png,Hard,Middle,Middle,Mid,0.0115075998473912,1.0,,,,,,50,23,Female,1.1428571428571428,1.5,0.4,1.0,1.7777777777777777,2.125,3.111111111111111,2.3333333333333335,1.25,1.7777777777777777,1.25,1.5,2.75,2.25,,,,,,,,,,,,,,,,,,,,,,,,,,,,,,,,,,,,,,
0,240724_102826,DEMANDRATING,9.0,-1,,,,,,,,,,,,,,,,,,,,,,,,,,,,,,,,,,,,,,,1.0,MentalDemand,1.0,46.0,9.139015999855474,50,23,Female,1.1428571428571428,1.5,0.4,1.0,1.7777777777777777,2.125,3.111111111111111,2.3333333333333335,1.25,1.7777777777777777,1.25,1.5,2.75,2.25,,,,,,,,,,,,,,,,,,,,,,,,,,,,,,,,,,,,,,-1.0945519676013336
1,240724_102836,DEMANDRATING,9.0,-1,,,,,,,,,,,,,,,,,,,,,,,,,,,,,,,,,,,,,,,2.0,Effort,1.0,54.0,7.951450099935755,50,23,Female,1.1428571428571428,1.5,0.4,1.0,1.7777777777777777,2.125,3.111111111111111,2.3333333333333335,1.25,1.7777777777777777,1.25,1.5,2.75,2.25,,,,,,,,,,,,,,,,,,,,,,,,,,,,,,,,,,,,,,-0.7192770072808763
2,240724_102842,DEMANDRATING,9.0,-1,,,,,,,,,,,,,,,,,,,,,,,,,,,,,,,,,,,,,,,3.0,Frustration,1.0,38.0,4.291413400089368,50,23,Female,1.1428571428571428,1.5,0.4,1.0,1.7777777777777777,2.125,3.111111111111111,2.3333333333333335,1.25,1.7777777777777777,1.25,1.5,2.75,2.25,,,,,,,,,,,,,,,,,,,,,,,,,,,,,,,,,,,,,,-1.4698269279217908
3,240724_102847,DEMANDRATING,9.0,-1,,,,,,,,,,,,,,,,,,,,,,,,,,,,,,,,,,,,,,,4.0,MentalDemand,2.0,62.0,3.594545300118625,50,23,Female,1.1428571428571428,1.5,0.4,1.0,1.7777777777777777,2.125,3.111111111111111,2.3333333333333335,1.25,1.7777777777777777,1.25,1.5,2.75,2.25,,,,,,,,,,,,,,,,,,,,,,,,,,,,,,,,,,,,,,-0.344002046960419
4,240724_102851,DEMANDRATING,9.0,-1,,,,,,,,,,,,,,,,,,,,,,,,,,,,,,,,,,,,,,,5.0,Effort,2.0,70.0,2.864719599951058,50,23,Female,1.1428571428571428,1.5,0.4,1.0,1.7777777777777777,2.125,3.111111111111111,2.3333333333333335,1.25,1.7777777777777777,1.25,1.5,2.75,2.25,,,,,,,,,,,,,,,,,,,,,,,,,,,,,,,,,,,,,,0.03127291336003833
5,240724_102855,DEMANDRATING,9.0,-1,,,,,,,,,,,,,,,,,,,,,,,,,,,,,,,,,,,,,,,6.0,Frustration,2.0,64.0,1.8433320000767708,50,23,Female,1.1428571428571428,1.5,0.4,1.0,1.7777777777777777,2.125,3.111111111111111,2.3333333333333335,1.25,1.7777777777777777,1.25,1.5,2.75,2.25,,,,,,,,,,,,,,,,,,,,,,,,,,,,,,,,,,,,,,-0.25018330688030466
6,240724_102858,DEMANDRATING,9.0,-1,,,,,,,,,,,,,,,,,,,,,,,,,,,,,,,,,,,,,,,7.0,MentalDemand,3.0,97.0,2.263611099915579,50,23,Female,1.1428571428571428,1.5,0.4,1.0,1.7777777777777777,2.125,3.111111111111111,2.3333333333333335,1.25,1.7777777777777777,1.25,1.5,2.75,2.25,,,,,,,,,,,,,,,,,,,,,,,,,,,,,,,,,,,,,,1.2978259044415816
7,240724_102902,DEMANDRATING,9.0,-1,,,,,,,,,,,,,,,,,,,,,,,,,,,,,,,,,,,,,,,8.0,Effort,3.0,98.0,2.547537500038743,50,23,Female,1.1428571428571428,1.5,0.4,1.0,1.7777777777777777,2.125,3.111111111111111,2.3333333333333335,1.25,1.7777777777777777,1.25,1.5,2.75,2.25,,,,,,,,,,,,,,,,,,,,,,,,,,,,,,,,,,,,,,1.3447352744816388
8,240724_102906,DEMANDRATING,9.0,-1,,,,,,,,,,,,,,,,,,,,,,,,,,,,,,,,,,,,,,,9.0,Frustration,3.0,95.0,2.285885199904442,50,23,Female,1.1428571428571428,1.5,0.4,1.0,1.7777777777777777,2.125,3.111111111111111,2.3333333333333335,1.25,1.7777777777777777,1.25,1.5,2.75,2.25,,,,,,,,,,,,,,,,,,,,,,,,,,,,,,,,,,,,,,1.2040071643614674
