,END,Phase,Block,TrialN,NbackLevel,ISI,Letter_Resp,Letter_RT,Letter_Accuracy,Trial_A_measure,Trial_ACC,Trial_RT,TrialCountCali,CaliEnd_A_measure,ISI_calibrated,TrialIndex,TrialNumber_total,TrialNumber_valid,CueLearning,TrialDemandLearning,CueMapping,OfflineRatingTimePoint,CueFigure,TrialDemand,OfflineRating,OfflineRatingRT,PhaseType,CueLeft,CueDemandLeft,CueRight,CueDemandRight,Choice,ChoiceDemand,TaskDemand,ChoiceRT,CueCheck,CueDemandCheck,CorrectAnswer,Answer,AnswerDemand,AnswerRT,AnswerACC,DemandRatingQuesIndex,QuesTLX,DemandLevel,DemandRating,DemandRatingRT,PID,Age,Gender,BAI_bis,BAI_bas_d,BAI_bas_rr,BAI_bas_fs,NFC,BFI_ext,BFI_agr,BFI_con,BFI_neu,BFI_open,UPPS_lps,UPPS_lpm,UPPS_pu,UPPS_ss,Task_A_measure,Task_ACC,Task_RT,Task_RT_z,cue_i_on_zyg_values,cue_i_on_zyg_zvalues,cue_e_on_zyg_values,cue_e_on_zyg_zvalues,cue_i_on_cor_values,cue_i_on_cor_zvalues,cue_e_on_cor_values,cue_e_on_cor_zvalues,cue_i_on_scr_values,cue_i_on_scr_zvalues,cue_e_on_scr_values,cue_e_on_scr_zvalues,cue_e_true_zyg_values,cue_e_true_zyg_zvalues,cue_e_true_cor_values,cue_e_true_cor_zvalues,cue_e_true_scr_values,cue_e_true_scr_zvalues,cue_e_false_zyg_values,cue_e_false_zyg_zvalues,cue_e_false_cor_values,cue_e_false_cor_zvalues,cue_e_false_scr_values,cue_e_false_scr_zvalues,OfflineRating_z,cue_i_off_zyg_values,cue_i_off_zyg_zvalues,cue_i_off_cor_values,cue_i_off_cor_zvalues,cue_i_off_scr_values,cue_i_off_scr_zvalues,DemandRating_z
0,240725_142623,PRACTICE,0.0,1,3.0,2583.0,,,,,,,,,,36.0,1.0,1.0,cue2.png,Hard,A,,,,,,,,,,,,,,,,,,,,,,,,,,,51,28,Female,0.7142857142857143,0.5,0.4,1.0,2.111111111111111,3.375,1.8888888888888888,2.6666666666666665,3.25,3.5555555555555554,1.5,1.75,2.5,0.0,,,,,,,,,,,,,,,,,,,,,,,,,,,,,,,,,,,,
0,240725_143007,LEARNING,1.0,1,1.0,2583.0,,,,,,,,,,1.0,1.0,1.0,cue1.png,Easy,A,,,,,,,,,,,,,,,,,,,,,,,,,,,51,28,Female,0.7142857142857143,0.5,0.4,1.0,2.111111111111111,3.375,1.8888888888888888,2.6666666666666665,3.25,3.5555555555555554,1.5,1.75,2.5,0.0,0.6875,0.75,0.4464364666667582,-0.23037025346545945,-7.328446947620559e-05,-0.6137811520694242,4.17688084594762e-05,0.11478355937620781,-0.0013674572165826362,-2.0489636778867926,-6.918313150050884e-05,-0.04924882872856158,,,,,,,,,,,,,,,,,,,,,,,,
1,240725_143025,LEARNING,1.0,2,3.0,2583.0,,,,,,,,,,2.0,2.0,2.0,cue2.png,Hard,A,,,,,,,,,,,,,,,,,,,,,,,,,,,51,28,Female,0.7142857142857143,0.5,0.4,1.0,2.111111111111111,3.375,1.8888888888888888,2.6666666666666665,3.25,3.5555555555555554,1.5,1.75,2.5,0.0,1.0,1.0,0.5025705333324973,0.42475146553435694,4.7287383105840044e-05,-0.024597629364833125,6.046785056693701e-06,0.052859768736400296,0.00010140125260747193,0.009153239575614718,3.089090833708523e-05,0.11209321545269839,1.4500000000000002,-0.35392812679616276,1.4650000000000003,-0.007797803089130259,,,,,,,,,,,,,,,,,,,,
2,240725_143042,LEARNING,1.0,3,1.0,2583.0,,,,,,,,,,3.0,3.0,3.0,cue1.png,Easy,A,,,,,,,,,,,,,,,,,,,,,,,,,,,51,28,Female,0.7142857142857143,0.5,0.4,1.0,2.111111111111111,3.375,1.8888888888888888,2.6666666666666665,3.25,3.5555555555555554,1.5,1.75,2.5,0.0,1.0,1.0,0.4066889833338791,-0.6942496969771691,,,,,-0.00017243120202643748,-0.37453192768427074,0.00028475610002859234,0.5213814688343547,1.4489999999999998,-0.3559505732349987,1.5460000000000003,0.13898760294780926,,,,,,,,,,,,,,,,,,,,
3,240725_143100,LEARNING,1.0,4,3.0,2583.0,,,,,,,,,,4.0,4.0,4.0,cue2.png,Hard,A,,,,,,,,,,,,,,,,,,,,,,,,,,,51,28,Female,0.7142857142857143,0.5,0.4,1.0,2.111111111111111,3.375,1.8888888888888888,2.6666666666666665,3.25,3.5555555555555554,1.5,1.75,2.5,0.0,1.0,1.0,0.5376870166661926,0.8345840733122648,-2.4737214759115375e-05,-0.3765513016581218,4.995818638052528e-05,0.12897976876041095,0.00031954107115268965,0.3148036887762352,0.00023155681322155125,0.4356121554703435,1.9969999999999999,0.7523500752467008,1.5830000000000002,0.20603772669307782,,,,,,,,,,,,,,,,,,,,
4,240725_143117,LEARNING,1.0,5,3.0,2583.0,,,,,,,,,,5.0,5.0,5.0,cue2.png,Hard,A,,,,,,,,,,,,,,,,,,,,,,,,,,,51,28,Female,0.7142857142857143,0.5,0.4,1.0,2.111111111111111,3.375,1.8888888888888888,2.6666666666666665,3.25,3.5555555555555554,1.5,1.75,2.5,0.0,1.0,1.0,0.4097436166666739,-0.6586001038021201,-5.8558258537858444e-05,-0.5418204029315423,,,-0.0008679101824126466,-1.3490145516375425,-0.0013434687036771456,-2.1036861175530945,1.5310000000000001,-0.19010996525051022,1.55,0.1462362649743244,,,,,,,,,,,,,,,,,,,,
5,240725_143134,LEARNING,1.0,6,1.0,2583.0,,,,,,,,,,6.0,6.0,6.0,cue1.png,Easy,A,,,,,,,,,,,,,,,,,,,,,,,,,,,51,28,Female,0.7142857142857143,0.5,0.4,1.0,2.111111111111111,3.375,1.8888888888888888,2.6666666666666665,3.25,3.5555555555555554,1.5,1.75,2.5,0.0,1.0,1.0,0.4383648666662338,-0.3245711689079504,-7.772452989415453e-05,-0.6354778448053034,0.0005217438850943631,0.9468158276141031,1.5679283969245467e-05,-0.11095760674015903,,,,,,,,,,,,,,,,,,,,,,,,,,
6,240725_143153,LEARNING,1.0,7,3.0,2583.0,,,,,,,,,,7.0,7.0,7.0,cue2.png,Hard,A,,,,,,,,,,,,,,,,,,,,,,,,,,,51,28,Female,0.7142857142857143,0.5,0.4,1.0,2.111111111111111,3.375,1.8888888888888888,2.6666666666666665,3.25,3.5555555555555554,1.5,1.75,2.5,0.0,1.0,1.0,0.5676867499999693,1.18470082127906,-7.406941472672254e-05,-0.6176168467023412,,,0.00021630326858329985,0.1701502232133762,0.0002789713317067877,0.5120551105933002,,,1.4620000000000002,-0.013234299609017116,,,,,,,,,,,,,,,,,,,,
7,240725_143212,LEARNING,1.0,8,3.0,2583.0,,,,,,,,,,8.0,8.0,8.0,cue2.png,Hard,A,,,,,,,,,,,,,,,,,,,,,,,,,,,51,28,Female,0.7142857142857143,0.5,0.4,1.0,2.111111111111111,3.375,1.8888888888888888,2.6666666666666665,3.25,3.5555555555555554,1.5,1.75,2.5,0.0,0.1875,0.5833333333333334,0.371242180000263,-1.107937357827515,-0.00048127616717908014,-2.6074635956831465,7.277594041093073e-05,0.16853413015583493,-0.0005361035233202214,-0.8840978066080951,0.00012234962938928147,0.2595454122133377,,,,,,,,,,,,,,,,,,,,,,,,
8,240725_143229,LEARNING,1.0,9,1.0,2583.0,,,,,,,,,,9.0,9.0,9.0,cue1.png,Easy,A,,,,,,,,,,,,,,,,,,,,,,,,,,,51,28,Female,0.7142857142857143,0.5,0.4,1.0,2.111111111111111,3.375,1.8888888888888888,2.6666666666666665,3.25,3.5555555555555554,1.5,1.75,2.5,0.0,1.0,1.0,0.4335557833328494,-0.38069635504386,7.743831042609063e-05,0.12273716885656072,2.322498927334214e-05,0.08263802372171948,,,0.0005203115013132143,0.9011501883032058,,,0.6479999999999999,-1.488337022004929,,,,,,,,,,,,,,,,,,,,
9,240725_143246,LEARNING,1.0,10,1.0,2583.0,,,,,,,,,,10.0,10.0,10.0,cue1.png,Easy,A,,,,,,,,,,,,,,,,,,,,,,,,,,,51,28,Female,0.7142857142857143,0.5,0.4,1.0,2.111111111111111,3.375,1.8888888888888888,2.6666666666666665,3.25,3.5555555555555554,1.5,1.75,2.5,0.0,1.0,1.0,0.3987710166657052,-0.7866576097251565,6.899435900939704e-05,0.08147515840641367,0.0003392180683832475,0.6304090459227111,-0.0020355520494925792,-2.9850765212428465,3.92773031966942e-05,0.125613985596048,1.405,-0.4449382165437479,2.85,2.5020514235918734,,,,,,,,,,,,,,,,,,,,
10,240725_143304,LEARNING,1.0,11,3.0,2583.0,,,,,,,,,,11.0,11.0,11.0,cue2.png,Hard,A,,,,,,,,,,,,,,,,,,,,,,,,,,,51,28,Female,0.7142857142857143,0.5,0.4,1.0,2.111111111111111,3.375,1.8888888888888888,2.6666666666666665,3.25,3.5555555555555554,1.5,1.75,2.5,0.0,0.6875,0.75,0.4827964666656044,0.19397501700851938,0.0006459159535292316,2.9006463837323673,,,-0.0006736599980446435,-1.0768374841707138,-0.0006495308022603312,-0.9849008688398434,1.57,-0.11123455413593686,,,,,,,,,,,,,,,,,,,,,,
11,240725_143322,LEARNING,1.0,12,1.0,2583.0,,,,,,,,,,12.0,12.0,12.0,cue1.png,Easy,A,,,,,,,,,,,,,,,,,,,,,,,,,,,51,28,Female,0.7142857142857143,0.5,0.4,1.0,2.111111111111111,3.375,1.8888888888888888,2.6666666666666665,3.25,3.5555555555555554,1.5,1.75,2.5,0.0,1.0,1.0,0.5738527333336,1.256661928691893,4.24254817447435e-06,-0.23493948723619693,5.00129859620402e-05,0.12907476331809928,5.3749711193695586e-05,-0.057614557039213865,0.0006813391237691789,1.1607632289964385,,,2.2439999999999998,1.4038791265747694,,,,,,,,,,,,,,,,,,,,
12,240725_143339,LEARNING,1.0,13,1.0,2583.0,,,,,,,,,,13.0,13.0,13.0,cue1.png,Easy,A,,,,,,,,,,,,,,,,,,,,,,,,,,,51,28,Female,0.7142857142857143,0.5,0.4,1.0,2.111111111111111,3.375,1.8888888888888888,2.6666666666666665,3.25,3.5555555555555554,1.5,1.75,2.5,0.0,1.0,1.0,0.3618217166658724,-1.2178804013299638,3.3688457896745294e-06,-0.2392089003525084,,,0.00030644924002660306,0.29645983898652994,0.00045350020322307326,0.7934352262035402,,,0.5110000000000001,-1.7366036964130858,,,,,,,,,,,,,,,,,,,,
13,240725_143356,LEARNING,1.0,14,1.0,2583.0,,,,,,,,,,14.0,14.0,14.0,cue1.png,Easy,A,,,,,,,,,,,,,,,,,,,,,,,,,,,51,28,Female,0.7142857142857143,0.5,0.4,1.0,2.111111111111111,3.375,1.8888888888888888,2.6666666666666665,3.25,3.5555555555555554,1.5,1.75,2.5,0.0,1.0,1.0,0.4421989833335829,-0.27982448919709624,-2.382761117088617e-06,-0.2673145647009335,0.00019978877461875825,0.38870968027434966,0.0007163930936642951,0.8708598905086272,0.00011329197285808073,0.24494241604562744,,,1.459,-0.018670796128903974,,,,,,,,,,,,,,,,,,,,
14,240725_143414,LEARNING,1.0,15,3.0,2583.0,,,,,,,,,,15.0,15.0,15.0,cue2.png,Hard,A,,,,,,,,,,,,,,,,,,,,,,,,,,,51,28,Female,0.7142857142857143,0.5,0.4,1.0,2.111111111111111,3.375,1.8888888888888888,2.6666666666666665,3.25,3.5555555555555554,1.5,1.75,2.5,0.0,1.0,1.0,0.4935428666673639,0.31939261919534334,0.0007673677084084835,3.494129615896519,-0.0010171644946527399,-1.7208673337457365,-0.00044840335360708675,-0.7612151690109901,0.00017714994446732264,0.34789594618615355,,,,,,,,,,,,,,,,,,,,,,,,
15,240725_143431,LEARNING,1.0,16,1.0,2583.0,,,,,,,,,,16.0,16.0,16.0,cue1.png,Easy,A,,,,,,,,,,,,,,,,,,,,,,,,,,,51,28,Female,0.7142857142857143,0.5,0.4,1.0,2.111111111111111,3.375,1.8888888888888888,2.6666666666666665,3.25,3.5555555555555554,1.5,1.75,2.5,0.0,1.0,1.0,0.4142515166665059,-0.6059899265535214,-2.957290506372433e-05,-0.400181269908292,-3.8627818388905534e-05,-0.02458323496719801,-0.0010436779258560717,-1.5952946214420662,0.0007725506620342741,1.3078169110551428,,,,,,,,,,,,,,,,,,,,,,,,
16,240725_143449,LEARNING,1.0,17,1.0,2583.0,,,,,,,,,,17.0,17.0,17.0,cue1.png,Easy,A,,,,,,,,,,,,,,,,,,,,,,,,,,,51,28,Female,0.7142857142857143,0.5,0.4,1.0,2.111111111111111,3.375,1.8888888888888888,2.6666666666666665,3.25,3.5555555555555554,1.5,1.75,2.5,0.0,1.0,1.0,0.5530375333340393,1.0137347649387618,6.705083289042279e-05,0.07197797029224391,9.412230905388045e-05,0.20553785886016154,-0.0004078884714141034,-0.7044470281727843,,,,,,,,,,,,,,,,,,,,,,,,,,
17,240725_143506,LEARNING,1.0,18,3.0,2583.0,,,,,,,,,,18.0,18.0,18.0,cue2.png,Hard,A,,,,,,,,,,,,,,,,,,,,,,,,,,,51,28,Female,0.7142857142857143,0.5,0.4,1.0,2.111111111111111,3.375,1.8888888888888888,2.6666666666666665,3.25,3.5555555555555554,1.5,1.75,2.5,0.0,0.6875,0.75,0.4241502166672338,-0.490465544560041,,,,,2.4954863714656862e-05,-0.09796096479423437,-4.7534198454191566e-05,-0.014345839724575008,,,,,,,,,,,,,,,,,,,,,,,,
18,240725_143524,LEARNING,1.0,19,3.0,2583.0,,,,,,,,,,19.0,19.0,19.0,cue2.png,Hard,A,,,,,,,,,,,,,,,,,,,,,,,,,,,51,28,Female,0.7142857142857143,0.5,0.4,1.0,2.111111111111111,3.375,1.8888888888888888,2.6666666666666665,3.25,3.5555555555555554,1.5,1.75,2.5,0.0,0.6875,0.75,0.4224415666667482,-0.5104066211998768,,,-7.900372264714635e-06,0.028682503068854847,0.0010893103566562631,1.3933794823388266,,,,,,,,,,,,,,,,,,,,,,,,,,
19,240725_143540,LEARNING,1.0,20,3.0,2583.0,,,,,,,,,,20.0,20.0,20.0,cue2.png,Hard,A,,,,,,,,,,,,,,,,,,,,,,,,,,,51,28,Female,0.7142857142857143,0.5,0.4,1.0,2.111111111111111,3.375,1.8888888888888888,2.6666666666666665,3.25,3.5555555555555554,1.5,1.75,2.5,0.0,1.0,1.0,0.3401318500006406,-1.4710155041048365,4.167281192460565e-05,-0.05203365822392651,3.690894479664976e-05,0.1063590315547678,,,-0.0018848482091389663,-2.9765126391045573,1.511,-0.23055889402721505,0.8870000000000002,-1.0552294659206252,,,,,,,,,,,,,,,,,,,,
20,240725_143557,LEARNING,1.0,21,1.0,2583.0,,,,,,,,,,21.0,21.0,21.0,cue1.png,Easy,A,,,,,,,,,,,,,,,,,,,,,,,,,,,51,28,Female,0.7142857142857143,0.5,0.4,1.0,2.111111111111111,3.375,1.8888888888888888,2.6666666666666665,3.25,3.5555555555555554,1.5,1.75,2.5,0.0,1.0,1.0,0.3978886833331974,-0.7969550238242522,0.00010003208453528666,0.23314336346810613,-0.00021718204323021954,-0.3341052996122092,0.0005664793755782872,0.6608056437420042,0.0009021202368820593,1.5167124458368335,0.585,-2.103344296388627,0.968,-0.9084440598836862,,,,,,,,,,,,,,,,,,,,
21,240725_143616,LEARNING,1.0,22,3.0,2583.0,,,,,,,,,,22.0,22.0,22.0,cue2.png,Hard,A,,,,,,,,,,,,,,,,,,,,,,,,,,,51,28,Female,0.7142857142857143,0.5,0.4,1.0,2.111111111111111,3.375,1.8888888888888888,2.6666666666666665,3.25,3.5555555555555554,1.5,1.75,2.5,0.0,1.0,1.0,0.6676200499999444,2.3509885885835806,,,7.373362284119082e-05,0.1701942636158625,,,-0.00025246677648440956,-0.344743624328749,2.463,1.6948101157439128,,,,,,,,,,,,,,,,,,,,,,
22,240725_143633,LEARNING,1.0,23,3.0,2583.0,,,,,,,,,,23.0,23.0,23.0,cue2.png,Hard,A,,,,,,,,,,,,,,,,,,,,,,,,,,,51,28,Female,0.7142857142857143,0.5,0.4,1.0,2.111111111111111,3.375,1.8888888888888888,2.6666666666666665,3.25,3.5555555555555554,1.5,1.75,2.5,0.0,1.0,1.0,0.4485788333337647,-0.2053674162048939,1.2989051855752474e-05,-0.1921990321471665,3.443699394387869e-05,0.10207392806684594,-0.00031944359325896364,-0.5805209292244211,0.0007501685599456921,1.2717318873076664,1.6769999999999998,0.10516721481943098,1.7719999999999998,0.5485370074459361,,,,,,,,,,,,,,,,,,,,
23,240725_143651,LEARNING,1.0,24,3.0,2583.0,,,,,,,,,,24.0,24.0,24.0,cue2.png,Hard,A,,,,,,,,,,,,,,,,,,,,,,,,,,,51,28,Female,0.7142857142857143,0.5,0.4,1.0,2.111111111111111,3.375,1.8888888888888888,2.6666666666666665,3.25,3.5555555555555554,1.5,1.75,2.5,0.0,1.0,1.0,0.5176600166657105,0.6008557253404107,,,-0.0012941020911698626,-2.2009360452421296,0.0004991936825408747,0.5665271097319601,0.0004478233308500227,0.7842828206974719,1.7270000000000003,0.20628953676119285,1.677,0.37638128431619267,,,,,,,,,,,,,,,,,,,,
24,240725_143709,LEARNING,1.0,25,1.0,2583.0,,,,,,,,,,25.0,25.0,25.0,cue1.png,Easy,A,,,,,,,,,,,,,,,,,,,,,,,,,,,51,28,Female,0.7142857142857143,0.5,0.4,1.0,2.111111111111111,3.375,1.8888888888888888,2.6666666666666665,3.25,3.5555555555555554,1.5,1.75,2.5,0.0,1.0,1.0,0.4415548666662895,-0.28734175711260973,-0.0001048491065732027,-0.768024150575612,0.00039008486071974305,0.7185861506641621,-9.235618995175922e-05,-0.26233341402640253,-0.00023683291595363604,-0.31953829614800194,1.399,-0.4570728951767592,1.099,-0.6710503785153024,,,,,,,,,,,,,,,,,,,,
25,240725_143727,LEARNING,1.0,26,1.0,2583.0,,,,,,,,,,26.0,26.0,26.0,cue1.png,Easy,A,,,,,,,,,,,,,,,,,,,,,,,,,,,51,28,Female,0.7142857142857143,0.5,0.4,1.0,2.111111111111111,3.375,1.8888888888888888,2.6666666666666665,3.25,3.5555555555555554,1.5,1.75,2.5,0.0,1.0,1.0,0.5771850166674994,1.2955518811854123,-1.0332447092928267e-05,-0.3061613095036086,1.2689420405415097e-07,0.04259769377955984,,,,,2.3240000000000003,1.4136900607458178,1.5739999999999998,0.18972823713341724,,,,,,,,,,,,,,,,,,,,
26,240725_143744,LEARNING,1.0,27,3.0,2583.0,,,,,,,,,,27.0,27.0,27.0,cue2.png,Hard,A,,,,,,,,,,,,,,,,,,,,,,,,,,,51,28,Female,0.7142857142857143,0.5,0.4,1.0,2.111111111111111,3.375,1.8888888888888888,2.6666666666666665,3.25,3.5555555555555554,1.5,1.75,2.5,0.0,1.0,1.0,0.4851265833331126,0.22116902106630468,,,,,,,0.0005109723400804848,0.8860933427249491,,,0.774,-1.2600041681696896,,,,,,,,,,,,,,,,,,,,
27,240725_143802,LEARNING,1.0,28,1.0,2583.0,,,,,,,,,,28.0,28.0,28.0,cue1.png,Easy,A,,,,,,,,,,,,,,,,,,,,,,,,,,,51,28,Female,0.7142857142857143,0.5,0.4,1.0,2.111111111111111,3.375,1.8888888888888888,2.6666666666666665,3.25,3.5555555555555554,1.5,1.75,2.5,0.0,1.0,1.0,0.5352439333334283,0.8060716734864892,,,-3.051819006227169e-05,-0.010525270752718197,0.001037401134337671,1.3206459611268628,0.00020445616460636282,0.39191976478332385,2.263,1.2903208279768688,2.343,1.583283511731029,,,,,,,,,,,,,,,,,,,,
28,240725_143819,LEARNING,1.0,29,1.0,2583.0,,,,,,,,,,29.0,29.0,29.0,cue1.png,Easy,A,,,,,,,,,,,,,,,,,,,,,,,,,,,51,28,Female,0.7142857142857143,0.5,0.4,1.0,2.111111111111111,3.375,1.8888888888888888,2.6666666666666665,3.25,3.5555555555555554,1.5,1.75,2.5,0.0,1.0,1.0,0.375548183332891,-1.0576834483417101,6.205768119805144e-05,0.04757855500161565,-0.0020462095822561454,-3.504707287187796,0.0006505155280056569,0.7785543789789553,-0.0002880721485551958,-0.40214755768706795,0.2330000000000001,-2.815245442858623,1.4189999999999998,-0.09115741639405979,,,,,,,,,,,,,,,,,,,,
29,240725_143837,LEARNING,1.0,30,3.0,2583.0,,,,,,,,,,30.0,30.0,30.0,cue2.png,Hard,A,,,,,,,,,,,,,,,,,,,,,,,,,,,51,28,Female,0.7142857142857143,0.5,0.4,1.0,2.111111111111111,3.375,1.8888888888888888,2.6666666666666665,3.25,3.5555555555555554,1.5,1.75,2.5,0.0,1.0,1.0,0.5025549166675773,0.4245692087164364,-0.0001038752202438091,-0.7632651809987325,-5.3526837553168234e-05,-0.05041054416140281,0.0006961669632741226,0.842519691637209,-0.00026768385495036257,-0.3692770053149454,1.6560000000000001,0.06269583960389204,1.651,0.3292649811438416,,,,,,,,,,,,,,,,,,,,
30,240725_143855,LEARNING,1.0,31,3.0,2583.0,,,,,,,,,,31.0,31.0,31.0,cue2.png,Hard,A,,,,,,,,,,,,,,,,,,,,,,,,,,,51,28,Female,0.7142857142857143,0.5,0.4,1.0,2.111111111111111,3.375,1.8888888888888888,2.6666666666666665,3.25,3.5555555555555554,1.5,1.75,2.5,0.0,1.0,1.0,0.5723704833326337,1.2393630899242902,9.173850482802667e-05,0.1926161558063538,-7.753825946045035e-05,-0.09203411756275744,-0.0002261158485800975,-0.4497531158365906,-0.00022468481065287356,-0.29995279579911005,1.844,0.4429157701049129,,,,,,,,,,,,,,,,,,,,,,
31,240725_143912,LEARNING,1.0,32,1.0,2583.0,,,,,,,,,,32.0,32.0,32.0,cue1.png,Easy,A,,,,,,,,,,,,,,,,,,,,,,,,,,,51,28,Female,0.7142857142857143,0.5,0.4,1.0,2.111111111111111,3.375,1.8888888888888888,2.6666666666666665,3.25,3.5555555555555554,1.5,1.75,2.5,0.0,1.0,1.0,0.4721557166661417,0.06979042028928764,2.1372745878929338e-06,-0.24522706664578522,0.0001157508928764121,0.24303080491644946,0.0009036543304851885,1.1332442710122967,0.0003503703933645337,0.6271665878473347,1.074,-1.114367987798205,,,,,,,,,,,,,,,,,,,,,,
32,240725_143929,LEARNING,1.0,33,1.0,2583.0,,,,,,,,,,33.0,33.0,33.0,cue1.png,Easy,A,,,,,,,,,,,,,,,,,,,,,,,,,,,51,28,Female,0.7142857142857143,0.5,0.4,1.0,2.111111111111111,3.375,1.8888888888888888,2.6666666666666665,3.25,3.5555555555555554,1.5,1.75,2.5,0.0,1.0,1.0,0.3046427500000088,-1.885196795059844,-9.349082504160697e-06,-0.3013560236918245,,,0.0002497158184307153,0.21696680598083512,-0.0007639198232846874,-1.1693219086411129,1.792,0.3377485552854815,2.131,1.1991044243257054,,,,,,,,,,,,,,,,,,,,
33,240725_143946,LEARNING,1.0,34,1.0,2583.0,,,,,,,,,,34.0,34.0,34.0,cue1.png,Easy,A,,,,,,,,,,,,,,,,,,,,,,,,,,,51,28,Female,0.7142857142857143,0.5,0.4,1.0,2.111111111111111,3.375,1.8888888888888888,2.6666666666666665,3.25,3.5555555555555554,1.5,1.75,2.5,0.0,1.0,1.0,0.4427019166663133,-0.27395492425994966,4.864386029685298e-05,-0.017969100460663006,-1.9840632419648035e-05,0.007984174710407535,0.000652450711688395,0.7812658956835132,0.0001557755218134062,0.31343553018042736,1.6600000000000001,0.07078562535923291,1.072,-0.7199788471942821,,,,,,,,,,,,,,,,,,,,
34,240725_144003,LEARNING,1.0,35,3.0,2583.0,,,,,,,,,,35.0,35.0,35.0,cue2.png,Hard,A,,,,,,,,,,,,,,,,,,,,,,,,,,,51,28,Female,0.7142857142857143,0.5,0.4,1.0,2.111111111111111,3.375,1.8888888888888888,2.6666666666666665,3.25,3.5555555555555554,1.5,1.75,2.5,0.0,1.0,1.0,0.3843487833346444,-0.9549746202835182,,,-0.0013366195659953936,-2.274639686828804,0.0014654214327365625,1.9203741416354865,,,1.7640000000000002,0.2811200549980958,,,,,,,,,,,,,,,,,,,,,,
35,240725_144021,LEARNING,1.0,36,3.0,2583.0,,,,,,,,,,36.0,36.0,36.0,cue2.png,Hard,A,,,,,,,,,,,,,,,,,,,,,,,,,,,51,28,Female,0.7142857142857143,0.5,0.4,1.0,2.111111111111111,3.375,1.8888888888888888,2.6666666666666665,3.25,3.5555555555555554,1.5,1.75,2.5,0.0,1.0,1.0,0.4815721999996943,0.17968701454717798,-6.447807363802556e-05,-0.570748029403093,3.065871908036581e-05,0.09552432422750702,0.00016447210344954681,0.09752607320089576,-0.0004917726767943642,-0.7305589986586312,1.7469999999999999,0.24673846553789636,1.9849999999999999,0.9345282603578886,,,,,,,,,,,,,,,,,,,,
36,240725_144038,LEARNING,1.0,37,1.0,2583.0,,,,,,,,,,37.0,37.0,37.0,cue1.png,Easy,A,,,,,,,,,,,,,,,,,,,,,,,,,,,51,28,Female,0.7142857142857143,0.5,0.4,1.0,2.111111111111111,3.375,1.8888888888888888,2.6666666666666665,3.25,3.5555555555555554,1.5,1.75,2.5,0.0,1.0,1.0,0.4436001999996127,-0.2634713630926424,,,0.0010065701352494107,1.7872575593930926,-0.00014422379458584695,-0.3350086218866442,0.0004549216714583499,0.7957269553192076,1.9989999999999997,0.7563949681243708,0.883,-1.0624781279471411,,,,,,,,,,,,,,,,,,,,
37,240725_144056,LEARNING,1.0,38,3.0,2583.0,,,,,,,,,,38.0,38.0,38.0,cue2.png,Hard,A,,,,,,,,,,,,,,,,,,,,,,,,,,,51,28,Female,0.7142857142857143,0.5,0.4,1.0,2.111111111111111,3.375,1.8888888888888888,2.6666666666666665,3.25,3.5555555555555554,1.5,1.75,2.5,0.0,1.0,1.0,0.5504327166666675,0.9833348300299037,-0.00011038601153934161,-0.7950806575709773,0.0007375949637243896,1.3209916365191845,-5.155725115378942e-06,-0.1401509467194641,-0.0010611905653497445,-1.6485897515091763,2.493,1.7554835089089689,1.615,0.26402702290520175,,,,,,,,,,,,,,,,,,,,
38,240725_144114,LEARNING,1.0,39,3.0,2583.0,,,,,,,,,,39.0,39.0,39.0,cue2.png,Hard,A,,,,,,,,,,,,,,,,,,,,,,,,,,,51,28,Female,0.7142857142857143,0.5,0.4,1.0,2.111111111111111,3.375,1.8888888888888888,2.6666666666666665,3.25,3.5555555555555554,1.5,1.75,2.5,0.0,1.0,1.0,0.5182876333340877,0.6081804273454972,,,6.601713459750656e-06,0.05382173188903361,0.000545278787242949,0.6311000659560287,0.0002712167428768784,0.49955295503294556,,,1.998,0.9580864119440643,,,,,,,,,,,,,,,,,,,,
39,240725_144131,LEARNING,1.0,40,3.0,2583.0,,,,,,,,,,40.0,40.0,40.0,cue2.png,Hard,A,,,,,,,,,,,,,,,,,,,,,,,,,,,51,28,Female,0.7142857142857143,0.5,0.4,1.0,2.111111111111111,3.375,1.8888888888888888,2.6666666666666665,3.25,3.5555555555555554,1.5,1.75,2.5,0.0,1.0,1.0,0.4880050833332158,0.2547630216477651,0.00028062540109244447,1.1156263323156461,-0.00016066278541267479,-0.23612969927322253,0.0011002995448493127,1.4087771769456894,-0.000890469450358004,-1.3733486028319355,1.996,0.7503276288078659,1.233,-0.4282202006270317,,,,,,,,,,,,,,,,,,,,
40,240725_144149,LEARNING,1.0,41,1.0,2583.0,,,,,,,,,,41.0,41.0,41.0,cue1.png,Easy,A,,,,,,,,,,,,,,,,,,,,,,,,,,,51,28,Female,0.7142857142857143,0.5,0.4,1.0,2.111111111111111,3.375,1.8888888888888888,2.6666666666666665,3.25,3.5555555555555554,1.5,1.75,2.5,0.0,1.0,1.0,0.5188201000012972,0.614394665847218,0.0001035659706101759,0.25041196639533686,0.0003863278541938993,0.7120734152875704,0.00014747258158875724,0.07370689370584611,-0.0010447200225592802,-1.6220355018066464,,,1.2619999999999998,-0.3756674009347946,,,,,,,,,,,,,,,,,,,,
41,240725_144206,LEARNING,1.0,42,3.0,2583.0,,,,,,,,,,42.0,42.0,42.0,cue2.png,Hard,A,,,,,,,,,,,,,,,,,,,,,,,,,,,51,28,Female,0.7142857142857143,0.5,0.4,1.0,2.111111111111111,3.375,1.8888888888888888,2.6666666666666665,3.25,3.5555555555555554,1.5,1.75,2.5,0.0,1.0,1.0,0.4256307666667756,-0.4731865459344705,7.812874142827837e-06,-0.2174928179996372,0.0005774548158226931,1.0433902005680498,0.001067373483732368,1.3626422464322347,-0.0002855675291102795,-0.3981095432150357,,,,,,,,,,,,,,,,,,,,,,,,
42,240725_144223,LEARNING,1.0,43,3.0,2583.0,,,,,,,,,,43.0,43.0,43.0,cue2.png,Hard,A,,,,,,,,,,,,,,,,,,,,,,,,,,,51,28,Female,0.7142857142857143,0.5,0.4,1.0,2.111111111111111,3.375,1.8888888888888888,2.6666666666666665,3.25,3.5555555555555554,1.5,1.75,2.5,0.0,1.0,1.0,0.3903542500011099,-0.8848868486392762,0.00022411894716752425,0.8395032499704159,-0.00010950228528454906,-0.14744345484522262,,,,,1.492,-0.268985376365084,2.4250000000000003,1.731881083274598,,,,,,,,,,,,,,,,,,,,
43,240725_144242,LEARNING,1.0,44,1.0,2583.0,,,,,,,,,,44.0,44.0,44.0,cue1.png,Easy,A,,,,,,,,,,,,,,,,,,,,,,,,,,,51,28,Female,0.7142857142857143,0.5,0.4,1.0,2.111111111111111,3.375,1.8888888888888888,2.6666666666666665,3.25,3.5555555555555554,1.5,1.75,2.5,0.0,0.6875,0.75,0.704815916666727,2.7850889764199613,5.539211624487617e-07,-0.25296424351511115,-0.00031157007474582905,-0.49772606197979896,-0.0006131366374738456,-0.9920341114120587,,,2.115,0.9909987550292572,1.6980000000000002,0.41443675995539947,,,,,,,,,,,,,,,,,,,,
44,240725_144259,LEARNING,1.0,45,1.0,2583.0,,,,,,,,,,45.0,45.0,45.0,cue1.png,Easy,A,,,,,,,,,,,,,,,,,,,,,,,,,,,51,28,Female,0.7142857142857143,0.5,0.4,1.0,2.111111111111111,3.375,1.8888888888888888,2.6666666666666665,3.25,3.5555555555555554,1.5,1.75,2.5,0.0,1.0,1.0,0.4170080166671444,-0.5738197467303756,0.0004041293065127909,1.719137554089558,,,6.371632279672523e-05,-0.043649663633736555,,,,,,,,,,,,,,,,,,,,,,,,,,
45,240725_144319,LEARNING,1.0,46,1.0,2583.0,,,,,,,,,,46.0,46.0,46.0,cue1.png,Easy,A,,,,,,,,,,,,,,,,,,,,,,,,,,,51,28,Female,0.7142857142857143,0.5,0.4,1.0,2.111111111111111,3.375,1.8888888888888888,2.6666666666666665,3.25,3.5555555555555554,1.5,1.75,2.5,0.0,0.6875,0.5833333333333334,0.4128471800002444,-0.6223794651261333,-1.2322946154462878e-05,-0.3158880344721672,,,,,,,1.39,-0.4752749131262764,0.7660000000000002,-1.2745014922227202,,,,,,,,,,,,,,,,,,,,
46,240725_144336,LEARNING,1.0,47,3.0,2583.0,,,,,,,,,,47.0,47.0,47.0,cue2.png,Hard,A,,,,,,,,,,,,,,,,,,,,,,,,,,,51,28,Female,0.7142857142857143,0.5,0.4,1.0,2.111111111111111,3.375,1.8888888888888888,2.6666666666666665,3.25,3.5555555555555554,1.5,1.75,2.5,0.0,0.6875,0.75,0.3948945499996625,-0.8318985419566595,0.00021762329154127171,0.8077617349966195,,,,,0.0008902558447792422,1.497584355495492,,,0.651,-1.4829005254850423,,,,,,,,,,,,,,,,,,,,
47,240725_144353,LEARNING,1.0,48,3.0,2583.0,,,,,,,,,,48.0,48.0,48.0,cue2.png,Hard,A,,,,,,,,,,,,,,,,,,,,,,,,,,,51,28,Female,0.7142857142857143,0.5,0.4,1.0,2.111111111111111,3.375,1.8888888888888888,2.6666666666666665,3.25,3.5555555555555554,1.5,1.75,2.5,0.0,1.0,1.0,0.3898287833326321,-0.8910193925217667,-5.3966598802342256e-05,-0.5193829086068088,-6.335399956982875e-05,-0.06744583682782421,,,,,1.0070000000000001,-1.2498718992001645,1.2859999999999998,-0.3321754287757014,,,,,,,,,,,,,,,,,,,,
48,240725_144410,LEARNING,1.0,49,1.0,2583.0,,,,,,,,,,49.0,49.0,49.0,cue1.png,Easy,A,,,,,,,,,,,,,,,,,,,,,,,,,,,51,28,Female,0.7142857142857143,0.5,0.4,1.0,2.111111111111111,3.375,1.8888888888888888,2.6666666666666665,3.25,3.5555555555555554,1.5,1.75,2.5,0.0,1.0,1.0,0.3478204666668413,-1.381284257710634,,,,,,,-0.0003488864679377975,-0.5001940302847996,,,,,,,,,,,,,,,,,,,,,,,,
49,240725_144429,LEARNING,1.0,50,1.0,2583.0,,,,,,,,,,50.0,50.0,50.0,cue1.png,Easy,A,,,,,,,,,,,,,,,,,,,,,,,,,,,51,28,Female,0.7142857142857143,0.5,0.4,1.0,2.111111111111111,3.375,1.8888888888888888,2.6666666666666665,3.25,3.5555555555555554,1.5,1.75,2.5,0.0,1.0,1.0,0.6787151666667341,2.4804759451033456,,,0.0010604420572052956,1.8806440279854744,,,,,1.137,-0.9869538621515863,,,,,,,,,,,,,,,,,,,,,,
0,240725_144621,TrueCHOICE,9.0,1,1.0,2583.0,,,,,,,,,,,1.0,1.0,,,A,,,,,,True,cue1.png,Easy,cue2.png,Hard,Left,Easy,Easy,0.0161369000015838,,,,,,,,,,,,,51,28,Female,0.7142857142857143,0.5,0.4,1.0,2.111111111111111,3.375,1.8888888888888888,2.6666666666666665,3.25,3.5555555555555554,1.5,1.75,2.5,0.0,0.6875,0.75,0.5390858500001438,1.1952930285725731,,,,,,,,,,,,,,,,,1.4659999999999997,-0.15709303649811485,,,,,,,,,,,,,,
1,240725_144637,TrueCHOICE,9.0,2,1.0,2583.0,,,,,,,,,,,2.0,2.0,,,A,,,,,,True,cue1.png,Easy,cue2.png,Hard,Left,Easy,Easy,0.0149787000009382,,,,,,,,,,,,,51,28,Female,0.7142857142857143,0.5,0.4,1.0,2.111111111111111,3.375,1.8888888888888888,2.6666666666666665,3.25,3.5555555555555554,1.5,1.75,2.5,0.0,1.0,1.0,0.5497417166673889,1.3325620865034231,,,,,,,,,,,,,,,-0.0002026922608676096,-0.21186333213661473,0.8330000000000002,-2.1068948424452976,,,,,,,,,,,,,,
2,240725_144653,TrueCHOICE,9.0,3,1.0,2583.0,,,,,,,,,,,3.0,3.0,,,A,,,,,,True,cue2.png,Hard,cue1.png,Easy,Right,Easy,Easy,0.0160952000005636,,,,,,,,,,,,,51,28,Female,0.7142857142857143,0.5,0.4,1.0,2.111111111111111,3.375,1.8888888888888888,2.6666666666666665,3.25,3.5555555555555554,1.5,1.75,2.5,0.0,1.0,1.0,0.5004585666671725,0.6976956994089387,,,,,,,,,,,,,-7.931410783517962e-06,-0.8239922478437096,-0.00018012457939313962,-0.1887880007919264,1.5930000000000002,0.23409942693836738,,,,,,,,,,,,,,
3,240725_144709,TrueCHOICE,9.0,4,1.0,2583.0,,,,,,,,,,,4.0,4.0,,,A,,,,,,True,cue1.png,Easy,cue2.png,Hard,Left,Easy,Easy,0.0152544000011403,,,,,,,,,,,,,51,28,Female,0.7142857142857143,0.5,0.4,1.0,2.111111111111111,3.375,1.8888888888888888,2.6666666666666665,3.25,3.5555555555555554,1.5,1.75,2.5,0.0,1.0,1.0,0.5217775000000984,0.9723265657744895,,,,,,,,,,,,,0.00026616841433707876,1.6973881324774664,-0.00039537470975518864,-0.4088800862686997,1.588,0.2186981488503166,,,,,,,,,,,,,,
4,240725_144724,TrueCHOICE,9.0,5,1.0,2583.0,,,,,,,,,,,5.0,5.0,,,A,,,,,,True,cue2.png,Hard,cue1.png,Easy,Right,Easy,Easy,0.0164818000012019,,,,,,,,,,,,,51,28,Female,0.7142857142857143,0.5,0.4,1.0,2.111111111111111,3.375,1.8888888888888888,2.6666666666666665,3.25,3.5555555555555554,1.5,1.75,2.5,0.0,1.0,1.0,0.4877937166669047,0.5345468835818603,,,,,,,,,,,,,5.605815209007133e-05,-0.23536717920745592,5.2050359185223764e-05,0.048609608869002355,1.5799999999999998,0.1940561039094352,,,,,,,,,,,,,,
5,240725_144739,TrueCHOICE,9.0,6,1.0,2583.0,,,,,,,,,,,6.0,6.0,,,A,,,,,,True,cue2.png,Hard,cue1.png,Easy,Right,Easy,Easy,0.0162584999998216,,,,,,,,,,,,,51,28,Female,0.7142857142857143,0.5,0.4,1.0,2.111111111111111,3.375,1.8888888888888888,2.6666666666666665,3.25,3.5555555555555554,1.5,1.75,2.5,0.0,1.0,1.0,0.3666726166660131,-1.0257372126688478,,,,,,,,,,,,,0.00018585622400426336,0.9586150197376566,0.0007160648492234318,0.7275608069634782,,,,,,,,,,,,,,,,
6,240725_144754,TrueCHOICE,9.0,7,1.0,2583.0,,,,,,,,,,,7.0,7.0,,,A,,,,,,True,cue1.png,Easy,cue2.png,Hard,Left,Easy,Easy,0.0156566000005113,,,,,,,,,,,,,51,28,Female,0.7142857142857143,0.5,0.4,1.0,2.111111111111111,3.375,1.8888888888888888,2.6666666666666665,3.25,3.5555555555555554,1.5,1.75,2.5,0.0,1.0,1.0,0.3760754166663294,-0.9046101811226377,,,,,,,,,,,,,-3.8729795393284156e-05,-1.107299406709952,,,,,,,,,,,,,,,,,,
7,240725_144808,TrueCHOICE,9.0,8,1.0,2583.0,,,,,,,,,,,8.0,8.0,,,A,,,,,,True,cue2.png,Hard,cue1.png,Easy,Right,Easy,Easy,0.0145198999998683,,,,,,,,,,,,,51,28,Female,0.7142857142857143,0.5,0.4,1.0,2.111111111111111,3.375,1.8888888888888888,2.6666666666666665,3.25,3.5555555555555554,1.5,1.75,2.5,0.0,1.0,1.0,0.3308626333327993,-1.487042034713934,,,,,,,,,,,,,,,0.0017378544109878861,1.772335066513879,,,,,,,,,,,,,,,,
8,240725_144823,TrueCHOICE,9.0,9,1.0,2583.0,,,,,,,,,,,9.0,9.0,,,A,,,,,,True,cue1.png,Easy,cue2.png,Hard,Left,Easy,Easy,0.0160623999981908,,,,,,,,,,,,,51,28,Female,0.7142857142857143,0.5,0.4,1.0,2.111111111111111,3.375,1.8888888888888888,2.6666666666666665,3.25,3.5555555555555554,1.5,1.75,2.5,0.0,1.0,1.0,0.4151394166668372,-0.4013870603263329,,,,,,,,,,,,,2.8448240473625316e-05,-0.4893443184540056,0.0002622296878674289,0.2635168272570599,1.5399999999999998,0.07084587920503169,,,,,,,,,,,,,,
9,240725_144838,TrueCHOICE,9.0,10,1.0,2583.0,,,,,,,,,,,10.0,10.0,,,A,,,,,,True,cue2.png,Hard,cue1.png,Easy,Right,Easy,Easy,0.0164755000005243,,,,,,,,,,,,,51,28,Female,0.7142857142857143,0.5,0.4,1.0,2.111111111111111,3.375,1.8888888888888888,2.6666666666666665,3.25,3.5555555555555554,1.5,1.75,2.5,0.0,1.0,1.0,0.3753738499993536,-0.9136477750095318,,,,,,,,,,,,,,,-0.0019539265885921138,-2.002490890406179,2.0189999999999997,1.5462883200402622,,,,,,,,,,,,,,
0,240725_145009,FalseCHOICE,9.0,1,2.0,2583.0,,,,,,,,,,,1.0,1.0,,,A,,,,,,False,cue1.png,Easy,cue2.png,Hard,Left,Easy,Mid,0.016058699999121,,,,,,,,,,,,,51,28,Female,0.7142857142857143,0.5,0.4,1.0,2.111111111111111,3.375,1.8888888888888888,2.6666666666666665,3.25,3.5555555555555554,1.5,1.75,2.5,0.0,1.0,1.0,0.5796408166667485,1.1701118920698848,,,,,,,,,,,,,,,,,,,0.00013713725864595476,0.10069787686606856,-0.00024992674341691064,-0.6801392575182109,1.589,0.29032702709096647,,,,,,,,
1,240725_145025,FalseCHOICE,9.0,2,2.0,2583.0,,,,,,,,,,,2.0,2.0,,,A,,,,,,False,cue2.png,Hard,cue1.png,Easy,Left,Hard,Mid,0.0165615000005345,,,,,,,,,,,,,51,28,Female,0.7142857142857143,0.5,0.4,1.0,2.111111111111111,3.375,1.8888888888888888,2.6666666666666665,3.25,3.5555555555555554,1.5,1.75,2.5,0.0,1.0,1.0,0.5293997499993566,0.5948942374696787,,,,,,,,,,,,,,,,,,,,,,,,,,,,,,,,
2,240725_145041,FalseCHOICE,9.0,3,2.0,2583.0,,,,,,,,,,,3.0,3.0,,,A,,,,,,False,cue2.png,Hard,cue1.png,Easy,Left,Hard,Mid,0.0161804999988817,,,,,,,,,,,,,51,28,Female,0.7142857142857143,0.5,0.4,1.0,2.111111111111111,3.375,1.8888888888888888,2.6666666666666665,3.25,3.5555555555555554,1.5,1.75,2.5,0.0,1.0,1.0,0.4911576666666709,0.15705477782440413,,,,,,,,,,,,,,,,,,,9.934193869610541e-05,-0.0556059813385727,,,,,,,,,,,,
3,240725_145056,FalseCHOICE,9.0,4,2.0,2583.0,,,,,,,,,,,4.0,4.0,,,A,,,,,,False,cue2.png,Hard,cue1.png,Easy,Right,Easy,Mid,0.0165041000000201,,,,,,,,,,,,,51,28,Female,0.7142857142857143,0.5,0.4,1.0,2.111111111111111,3.375,1.8888888888888888,2.6666666666666665,3.25,3.5555555555555554,1.5,1.75,2.5,0.0,1.0,1.0,0.4326197166671288,-0.5131551627160301,,,,,,,,,,,,,,,,,,,,,0.00025973893639573507,0.7315065394812792,1.04,-1.1128952120804434,,,,,,,,
4,240725_145112,FalseCHOICE,9.0,5,2.0,2583.0,,,,,,,,,,,5.0,5.0,,,A,,,,,,False,cue1.png,Easy,cue2.png,Hard,Right,Hard,Mid,0.016799599998194,,,,,,,,,,,,,51,28,Female,0.7142857142857143,0.5,0.4,1.0,2.111111111111111,3.375,1.8888888888888888,2.6666666666666665,3.25,3.5555555555555554,1.5,1.75,2.5,0.0,1.0,1.0,0.528395383333797,0.5833950899387053,,,,,,,,,,,,,,,,,,,-4.7877484737932074e-05,-0.6644370195712455,0.00012789761797925726,0.36633923396071133,1.895,1.0724508981045395,,,,,,,,
5,240725_145128,FalseCHOICE,9.0,6,2.0,2583.0,,,,,,,,,,,6.0,6.0,,,A,,,,,,False,cue2.png,Hard,cue1.png,Easy,Left,Hard,Mid,0.0153286999993724,,,,,,,,,,,,,51,28,Female,0.7142857142857143,0.5,0.4,1.0,2.111111111111111,3.375,1.8888888888888888,2.6666666666666665,3.25,3.5555555555555554,1.5,1.75,2.5,0.0,0.6875,0.75,0.4778915999995661,0.005169552048043989,,,,,,,,,,,,,,,,,,,9.992960962879006e-05,-0.053175647787878755,-8.81884396668111e-05,-0.2321648190851878,2.043,1.450733031797379,,,,,,,,
6,240725_145142,FalseCHOICE,9.0,7,2.0,2583.0,,,,,,,,,,,7.0,7.0,,,A,,,,,,False,cue2.png,Hard,cue1.png,Easy,Left,Hard,Mid,0.0162698000021919,,,,,,,,,,,,,51,28,Female,0.7142857142857143,0.5,0.4,1.0,2.111111111111111,3.375,1.8888888888888888,2.6666666666666665,3.25,3.5555555555555554,1.5,1.75,2.5,0.0,1.0,1.0,0.469072199999573,-0.09580510711996436,,,,,,,,,,,,,,,,,,,7.82141850999207e-05,-0.14298054005807936,-0.00033397779112075794,-0.9129395282136124,,,,,,,,,,
7,240725_145200,FalseCHOICE,9.0,8,2.0,2583.0,,,,,,,,,,,8.0,8.0,,,A,,,,,,False,cue1.png,Easy,cue2.png,Hard,Left,Easy,Mid,0.0152113000003737,,,,,,,,,,,,,51,28,Female,0.7142857142857143,0.5,0.4,1.0,2.111111111111111,3.375,1.8888888888888888,2.6666666666666665,3.25,3.5555555555555554,1.5,1.75,2.5,0.0,1.0,1.0,0.7003985833337841,2.552686027623704,,,,,,,,,,,,,,,,,,,2.1621831513860684e-05,-0.3770201836467481,0.0004323532422673185,1.2096047694330763,,,,,,,,,,
8,240725_145218,FalseCHOICE,9.0,9,2.0,2583.0,,,,,,,,,,,9.0,9.0,,,A,,,,,,False,cue1.png,Easy,cue2.png,Hard,Right,Hard,Mid,0.0165745000012975,,,,,,,,,,,,,51,28,Female,0.7142857142857143,0.5,0.4,1.0,2.111111111111111,3.375,1.8888888888888888,2.6666666666666665,3.25,3.5555555555555554,1.5,1.75,2.5,0.0,0.6875,0.75,0.571036366667613,1.0715982283295449,,,,,,,,,,,,,,,,,,,0.0003136894263384648,0.8308354976442232,9.179291316338371e-05,0.2663382787777554,,,,,,,,,,
9,240725_145233,FalseCHOICE,9.0,10,2.0,2583.0,,,,,,,,,,,10.0,10.0,,,A,,,,,,False,cue2.png,Hard,cue1.png,Easy,Right,Easy,Mid,0.016968200001429,,,,,,,,,,,,,51,28,Female,0.7142857142857143,0.5,0.4,1.0,2.111111111111111,3.375,1.8888888888888888,2.6666666666666665,3.25,3.5555555555555554,1.5,1.75,2.5,0.0,0.6875,0.75,0.4794339999989461,0.022828725488216028,,,,,,,,,,,,,,,,,,,0.00015093702409390512,0.1577672861129226,2.4407048893665753e-05,0.07969637636734857,1.684,0.5331432615559645,,,,,,,,
10,240725_145249,FalseCHOICE,9.0,11,2.0,2583.0,,,,,,,,,,,11.0,11.0,,,A,,,,,,False,cue1.png,Easy,cue2.png,Hard,Left,Easy,Mid,0.0166262000020651,,,,,,,,,,,,,51,28,Female,0.7142857142857143,0.5,0.4,1.0,2.111111111111111,3.375,1.8888888888888888,2.6666666666666665,3.25,3.5555555555555554,1.5,1.75,2.5,0.0,1.0,1.0,0.5236702166663841,0.5292959342416714,,,,,,,,,,,,,,,,,,,,,,,,,,,,,,,,
11,240725_145310,FalseCHOICE,9.0,12,2.0,2583.0,,,,,,,,,,,13.0,12.0,,,A,,,,,,False,cue2.png,Hard,cue1.png,Easy,Left,Hard,Mid,0.0159851999997044,,,,,,,,,,,,,51,28,Female,0.7142857142857143,0.5,0.4,1.0,2.111111111111111,3.375,1.8888888888888888,2.6666666666666665,3.25,3.5555555555555554,1.5,1.75,2.5,0.0,1.0,1.0,0.401995483332333,-0.8637766928955194,,,,,,,,,,,,,,,,,,,0.00011103548324434102,-0.007246921767114821,0.000117509347623692,0.33756633681190035,,,,,,,,,,
12,240725_145325,FalseCHOICE,9.0,13,2.0,2583.0,,,,,,,,,,,14.0,13.0,,,A,,,,,,False,cue1.png,Easy,cue2.png,Hard,Left,Easy,Mid,0.0160265000013168,,,,,,,,,,,,,51,28,Female,0.7142857142857143,0.5,0.4,1.0,2.111111111111111,3.375,1.8888888888888888,2.6666666666666665,3.25,3.5555555555555554,1.5,1.75,2.5,0.0,1.0,1.0,0.5142714666653774,0.4216882083240671,,,,,,,,,,,,,,,,,,,7.532164124081885e-05,-0.15494275563936494,-0.00010067425974280607,-0.26674740161036264,,,,,,,,,,
13,240725_145341,FalseCHOICE,9.0,14,2.0,2583.0,,,,,,,,,,,15.0,14.0,,,A,,,,,,False,cue2.png,Hard,cue1.png,Easy,Left,Hard,Mid,0.0162692000012611,,,,,,,,,,,,,51,28,Female,0.7142857142857143,0.5,0.4,1.0,2.111111111111111,3.375,1.8888888888888888,2.6666666666666665,3.25,3.5555555555555554,1.5,1.75,2.5,0.0,1.0,1.0,0.5075609333331764,0.34485828610089087,,,,,,,,,,,,,,,,,,,0.00016718492397394934,0.2249610403222652,-1.549753169945026e-05,-0.030829279384098338,0.7039999999999997,-1.9716978939777006,,,,,,,,
14,240725_145357,FalseCHOICE,9.0,15,2.0,2583.0,,,,,,,,,,,16.0,15.0,,,A,,,,,,False,cue1.png,Easy,cue2.png,Hard,Left,Easy,Mid,0.0151810000024852,,,,,,,,,,,,,51,28,Female,0.7142857142857143,0.5,0.4,1.0,2.111111111111111,3.375,1.8888888888888888,2.6666666666666665,3.25,3.5555555555555554,1.5,1.75,2.5,0.0,1.0,1.0,0.6187322499990842,1.6176756897346471,,,,,,,,,,,,,,,,,,,,,-2.0206842179805104e-05,-0.04387288543738868,,,,,,,,,,
15,240725_145413,FalseCHOICE,9.0,16,2.0,2583.0,,,,,,,,,,,17.0,16.0,,,A,,,,,,False,cue1.png,Easy,cue2.png,Hard,Left,Easy,Mid,0.0139051000005565,,,,,,,,,,,,,51,28,Female,0.7142857142857143,0.5,0.4,1.0,2.111111111111111,3.375,1.8888888888888888,2.6666666666666665,3.25,3.5555555555555554,1.5,1.75,2.5,0.0,1.0,1.0,0.3895247833346123,-1.0065556440551575,,,,,,,,,,,,,,,,,,,-9.096701379685641e-05,-0.8426352634032235,0.0001925370039006103,0.5453740818438354,,,,,,,,,,
16,240725_145429,FalseCHOICE,9.0,17,2.0,2583.0,,,,,,,,,,,18.0,17.0,,,A,,,,,,False,cue2.png,Hard,cue1.png,Easy,Left,Hard,Mid,0.0160489000008965,,,,,,,,,,,,,51,28,Female,0.7142857142857143,0.5,0.4,1.0,2.111111111111111,3.375,1.8888888888888888,2.6666666666666665,3.25,3.5555555555555554,1.5,1.75,2.5,0.0,1.0,1.0,0.4981228833342659,0.2368006084979522,,,,,,,,,,,,,,,,,,,1.7632761555795486e-05,-0.3935171209903438,0.0003471861609943105,0.9737133663353612,,,,,,,,,,
17,240725_145446,FalseCHOICE,9.0,18,2.0,2583.0,,,,,,,,,,,19.0,18.0,,,A,,,,,,False,cue2.png,Hard,cue1.png,Easy,Left,Hard,Mid,0.016008900001907,,,,,,,,,,,,,51,28,Female,0.7142857142857143,0.5,0.4,1.0,2.111111111111111,3.375,1.8888888888888888,2.6666666666666665,3.25,3.5555555555555554,1.5,1.75,2.5,0.0,1.0,1.0,0.6816820333339516,2.338397384741472,,,,,,,,,,,,,,,,,,,,,-0.0001408662698984117,-0.3780691649866569,,,,,,,,,,
18,240725_145501,FalseCHOICE,9.0,19,2.0,2583.0,,,,,,,,,,,20.0,19.0,,,A,,,,,,False,cue1.png,Easy,cue2.png,Hard,Left,Easy,Mid,0.0166916999987734,,,,,,,,,,,,,51,28,Female,0.7142857142857143,0.5,0.4,1.0,2.111111111111111,3.375,1.8888888888888888,2.6666666666666665,3.25,3.5555555555555554,1.5,1.75,2.5,0.0,1.0,1.0,0.4382804999998673,-0.44834398875321396,,,,,,,,,,,,,,,,,,,-5.119905681474305e-05,-0.6781734962461157,,,1.403,-0.18508160038787172,,,,,,,,
19,240725_145515,FalseCHOICE,9.0,20,2.0,2583.0,,,,,,,,,,,21.0,20.0,,,A,,,,,,False,cue1.png,Easy,cue2.png,Hard,Left,Easy,Mid,0.0160680999979376,,,,,,,,,,,,,51,28,Female,0.7142857142857143,0.5,0.4,1.0,2.111111111111111,3.375,1.8888888888888888,2.6666666666666665,3.25,3.5555555555555554,1.5,1.75,2.5,0.0,0.6875,0.75,0.3474266333335739,-1.4885438006147733,,,,,,,,,,,,,,,,,,,5.332523332554368e-05,-0.24590966446200932,,,1.4349999999999998,-0.1032908687786097,,,,,,,,
20,240725_145530,FalseCHOICE,9.0,21,2.0,2583.0,,,,,,,,,,,22.0,21.0,,,A,,,,,,False,cue1.png,Easy,cue2.png,Hard,Left,Easy,Mid,0.0150696999990032,,,,,,,,,,,,,51,28,Female,0.7142857142857143,0.5,0.4,1.0,2.111111111111111,3.375,1.8888888888888888,2.6666666666666665,3.25,3.5555555555555554,1.5,1.75,2.5,0.0,1.0,1.0,0.3540274166662129,-1.4129704229183746,,,,,,,,,,,,,,,,,,,9.379909719511425e-06,-0.4276470763634984,3.952272577284867e-05,0.12156300105972502,1.943,1.1951369955184332,,,,,,,,
21,240725_145545,FalseCHOICE,9.0,22,2.0,2583.0,,,,,,,,,,,23.0,22.0,,,A,,,,,,False,cue2.png,Hard,cue1.png,Easy,Left,Hard,Mid,0.0157964999998512,,,,,,,,,,,,,51,28,Female,0.7142857142857143,0.5,0.4,1.0,2.111111111111111,3.375,1.8888888888888888,2.6666666666666665,3.25,3.5555555555555554,1.5,1.75,2.5,0.0,1.0,1.0,0.4397856833335633,-0.43111091460923107,,,,,,,,,,,,,,,,,,,,,3.672376434029094e-05,0.1138105815841067,1.7840000000000003,0.7887392978349107,,,,,,,,
22,240725_145600,FalseCHOICE,9.0,23,2.0,2583.0,,,,,,,,,,,24.0,23.0,,,A,,,,,,False,cue1.png,Easy,cue2.png,Hard,Left,Easy,Mid,0.0143664999995962,,,,,,,,,,,,,51,28,Female,0.7142857142857143,0.5,0.4,1.0,2.111111111111111,3.375,1.8888888888888888,2.6666666666666665,3.25,3.5555555555555554,1.5,1.75,2.5,0.0,1.0,1.0,0.4938718166661904,0.18812949618762026,,,,,,,,,,,,,,,,,,,7.770157573095543e-05,-0.14510045390528142,-0.000363676570171527,-0.9951976795540088,2.117,1.639874098643798,,,,,,,,
23,240725_145614,FalseCHOICE,9.0,24,2.0,2583.0,,,,,,,,,,,25.0,24.0,,,A,,,,,,False,cue2.png,Hard,cue1.png,Easy,Left,Hard,Mid,0.0126976999999897,,,,,,,,,,,,,51,28,Female,0.7142857142857143,0.5,0.4,1.0,2.111111111111111,3.375,1.8888888888888888,2.6666666666666665,3.25,3.5555555555555554,1.5,1.75,2.5,0.0,1.0,1.0,0.3679466499991879,-1.253606992109223,,,,,,,,,,,,,,,,,,,0.0008982307191421003,3.2482263139244094,2.8527786647666257e-05,0.09110978394289944,1.3439999999999999,-0.3358832617924499,,,,,,,,
24,240725_145630,FalseCHOICE,9.0,25,2.0,2583.0,,,,,,,,,,,26.0,25.0,,,A,,,,,,False,cue2.png,Hard,cue1.png,Easy,Left,Hard,Mid,0.0150503999975626,,,,,,,,,,,,,51,28,Female,0.7142857142857143,0.5,0.4,1.0,2.111111111111111,3.375,1.8888888888888888,2.6666666666666665,3.25,3.5555555555555554,1.5,1.75,2.5,0.0,1.0,1.0,0.4121544000002662,-0.7474657025717377,,,,,,,,,,,,,,,,,,,0.00015305785802761495,0.16653806849788544,-0.00041616649134192064,-1.1405815645985324,1.1,-0.959537590313076,,,,,,,,
25,240725_145645,FalseCHOICE,9.0,26,2.0,2583.0,,,,,,,,,,,27.0,26.0,,,A,,,,,,False,cue1.png,Easy,cue2.png,Hard,Left,Easy,Mid,0.0162453000011737,,,,,,,,,,,,,51,28,Female,0.7142857142857143,0.5,0.4,1.0,2.111111111111111,3.375,1.8888888888888888,2.6666666666666665,3.25,3.5555555555555554,1.5,1.75,2.5,0.0,0.6875,0.75,0.3477235833330875,-1.4851439746639317,,,,,,,,,,,,,,,,,,,-0.00011788610206639981,-0.9539600877852884,0.0005045816536206186,1.4096593097904284,1.6839999999999997,0.5331432615559639,,,,,,,,
26,240725_145700,FalseCHOICE,9.0,27,2.0,2583.0,,,,,,,,,,,28.0,27.0,,,A,,,,,,False,cue1.png,Easy,cue2.png,Hard,Right,Hard,Mid,0.0164843999991717,,,,,,,,,,,,,51,28,Female,0.7142857142857143,0.5,0.4,1.0,2.111111111111111,3.375,1.8888888888888888,2.6666666666666665,3.25,3.5555555555555554,1.5,1.75,2.5,0.0,0.6875,0.75,0.3779419666661852,-1.139169083212115,,,,,,,,,,,,,,,,,,,0.00016084942102906428,0.19876034787498906,0.00033545612892148377,0.9412241265647686,1.471,-0.011276295718188726,,,,,,,,
27,240725_145715,FalseCHOICE,9.0,28,2.0,2583.0,,,,,,,,,,,29.0,28.0,,,A,,,,,,False,cue2.png,Hard,cue1.png,Easy,Right,Easy,Mid,0.0164226000015332,,,,,,,,,,,,,51,28,Female,0.7142857142857143,0.5,0.4,1.0,2.111111111111111,3.375,1.8888888888888888,2.6666666666666665,3.25,3.5555555555555554,1.5,1.75,2.5,0.0,1.0,1.0,0.4300482833338416,-0.5425958961448498,,,,,,,,,,,,,,,,,,,-8.194713305609107e-05,-0.8053332333582846,-0.00033129410955274165,-0.9055064049800294,0.845,-1.611307482824387,,,,,,,,
28,240725_145730,FalseCHOICE,9.0,29,2.0,2583.0,,,,,,,,,,,30.0,29.0,,,A,,,,,,False,cue1.png,Easy,cue2.png,Hard,Right,Hard,Mid,0.0165561999965575,,,,,,,,,,,,,51,28,Female,0.7142857142857143,0.5,0.4,1.0,2.111111111111111,3.375,1.8888888888888888,2.6666666666666665,3.25,3.5555555555555554,1.5,1.75,2.5,0.0,1.0,1.0,0.3665990333326287,-1.2690360613877507,,,,,,,,,,,,,,,,,,,0.00018513958072060265,0.29921314682554906,,,1.0230000000000001,-1.1563465382478637,,,,,,,,
29,240725_145745,FalseCHOICE,9.0,30,2.0,2583.0,,,,,,,,,,,31.0,30.0,,,A,,,,,,False,cue1.png,Easy,cue2.png,Hard,Left,Easy,Mid,0.016080299999885,,,,,,,,,,,,,51,28,Female,0.7142857142857143,0.5,0.4,1.0,2.111111111111111,3.375,1.8888888888888888,2.6666666666666665,3.25,3.5555555555555554,1.5,1.75,2.5,0.0,1.0,1.0,0.3881655000004684,-1.0221182867948047,,,,,,,,,,,,,,,,,,,,,-0.00038606579971767327,-1.057210216475256,,,,,,,,,,
30,240725_145801,FalseCHOICE,9.0,31,2.0,2583.0,,,,,,,,,,,32.0,31.0,,,A,,,,,,False,cue2.png,Hard,cue1.png,Easy,Right,Easy,Mid,0.015703900000517,,,,,,,,,,,,,51,28,Female,0.7142857142857143,0.5,0.4,1.0,2.111111111111111,3.375,1.8888888888888888,2.6666666666666665,3.25,3.5555555555555554,1.5,1.75,2.5,0.0,1.0,1.0,0.4882661999999982,0.12394993382558803,,,,,,,,,,,,,,,,,,,2.1107461979140082e-05,-0.3791473767205582,8.487484812087168e-05,0.24717697789475077,0.9299999999999999,-1.3940508519872834,,,,,,,,
31,240725_145818,FalseCHOICE,9.0,32,2.0,2583.0,,,,,,,,,,,33.0,32.0,,,A,,,,,,False,cue1.png,Easy,cue2.png,Hard,Left,Easy,Mid,0.0168045999998867,,,,,,,,,,,,,51,28,Female,0.7142857142857143,0.5,0.4,1.0,2.111111111111111,3.375,1.8888888888888888,2.6666666666666665,3.25,3.5555555555555554,1.5,1.75,2.5,0.0,0.6875,0.75,0.656169866667066,2.04630468752531,,,,,,,,,,,,,,,,,,,3.631969707211654e-05,-0.31623665020459607,-2.6913677590808486e-05,-0.06244913334678413,1.5199999999999998,0.11396576205849376,,,,,,,,
32,240725_145833,FalseCHOICE,9.0,33,2.0,2583.0,,,,,,,,,,,34.0,33.0,,,A,,,,,,False,cue2.png,Hard,cue1.png,Easy,Left,Hard,Mid,0.0159218000007967,,,,,,,,,,,,,51,28,Female,0.7142857142857143,0.5,0.4,1.0,2.111111111111111,3.375,1.8888888888888888,2.6666666666666665,3.25,3.5555555555555554,1.5,1.75,2.5,0.0,0.125,0.5,0.4881963999996515,0.12315078294855064,,,,,,,,,,,,,,,,,,,,,-0.00015077331751765354,-0.40550919614103553,1.4060000000000001,-0.1774137192995031,,,,,,,,
33,240725_145848,FalseCHOICE,9.0,34,2.0,2583.0,,,,,,,,,,,35.0,34.0,,,A,,,,,,False,cue2.png,Hard,cue1.png,Easy,Left,Hard,Mid,0.0141007999991416,,,,,,,,,,,,,51,28,Female,0.7142857142857143,0.5,0.4,1.0,2.111111111111111,3.375,1.8888888888888888,2.6666666666666665,3.25,3.5555555555555554,1.5,1.75,2.5,0.0,1.0,1.0,0.3785076833325244,-1.1326921065958706,,,,,,,,,,,,,,,,,,,,,-0.00013843404147002207,-0.3713325037314964,0.8719999999999999,-1.542296553029072,,,,,,,,
34,240725_145904,FalseCHOICE,9.0,35,2.0,2583.0,,,,,,,,,,,36.0,35.0,,,A,,,,,,False,cue2.png,Hard,cue1.png,Easy,Left,Hard,Mid,0.0141407000010076,,,,,,,,,,,,,51,28,Female,0.7142857142857143,0.5,0.4,1.0,2.111111111111111,3.375,1.8888888888888888,2.6666666666666665,3.25,3.5555555555555554,1.5,1.75,2.5,0.0,1.0,1.0,0.4347634499996881,-0.4886112319948424,,,,,,,,,,,,,,,,,,,0.0006884672197643828,2.3807420776023194,-0.0010488230272509063,-2.8928811116044786,1.627,0.38745352087696583,,,,,,,,
35,240725_145918,FalseCHOICE,9.0,36,2.0,2583.0,,,,,,,,,,,37.0,36.0,,,A,,,,,,False,cue1.png,Easy,cue2.png,Hard,Right,Hard,Mid,0.0175973000004887,,,,,,,,,,,,,51,28,Female,0.7142857142857143,0.5,0.4,1.0,2.111111111111111,3.375,1.8888888888888888,2.6666666666666665,3.25,3.5555555555555554,1.5,1.75,2.5,0.0,1.0,1.0,0.3680613333326619,-1.2522939650881337,,,,,,,,,,,,,,,,,,,0.00019738510931458777,0.34985495558745,-6.42492126861063e-05,-0.16585917895821012,1.4729999999999999,-0.006164374992610381,,,,,,,,
36,240725_145934,FalseCHOICE,9.0,37,2.0,2583.0,,,,,,,,,,,38.0,37.0,,,A,,,,,,False,cue2.png,Hard,cue1.png,Easy,Right,Easy,Mid,0.0181317000024137,,,,,,,,,,,,,51,28,Female,0.7142857142857143,0.5,0.4,1.0,2.111111111111111,3.375,1.8888888888888888,2.6666666666666665,3.25,3.5555555555555554,1.5,1.75,2.5,0.0,1.0,1.0,0.532095799999297,0.6257617261700561,,,,,,,,,,,,,,,,,,,,,0.00032090296368406275,0.9009155176978808,,,,,,,,,,
37,240725_145950,FalseCHOICE,9.0,38,2.0,2583.0,,,,,,,,,,,39.0,38.0,,,A,,,,,,False,cue1.png,Easy,cue2.png,Hard,Right,Hard,Mid,0.0154211000008217,,,,,,,,,,,,,51,28,Female,0.7142857142857143,0.5,0.4,1.0,2.111111111111111,3.375,1.8888888888888888,2.6666666666666665,3.25,3.5555555555555554,1.5,1.75,2.5,0.0,1.0,1.0,0.5885879833331273,1.2725493713380522,,,,,,,,,,,,,,,,,,,4.633781704121683e-05,-0.2748063671641273,0.0004895245291045265,1.3679548604230454,1.9540000000000002,1.2232525595091177,,,,,,,,
38,240725_150006,FalseCHOICE,9.0,39,2.0,2583.0,,,,,,,,,,,40.0,39.0,,,A,,,,,,False,cue1.png,Easy,cue2.png,Hard,Left,Easy,Mid,0.0149682000010216,,,,,,,,,,,,,51,28,Female,0.7142857142857143,0.5,0.4,1.0,2.111111111111111,3.375,1.8888888888888888,2.6666666666666665,3.25,3.5555555555555554,1.5,1.75,2.5,0.0,1.0,1.0,0.5453588166668245,0.7776120320348826,,,,,,,,,,,,,,,,,,,-0.0001888700970651548,-1.247516864227621,-0.0010573738292835367,-2.916564683460395,1.499,0.06029059443991604,,,,,,,,
39,240725_150022,FalseCHOICE,9.0,40,2.0,2583.0,,,,,,,,,,,41.0,40.0,,,A,,,,,,False,cue2.png,Hard,cue1.png,Easy,Left,Hard,Mid,0.0162798999990627,,,,,,,,,,,,,51,28,Female,0.7142857142857143,0.5,0.4,1.0,2.111111111111111,3.375,1.8888888888888888,2.6666666666666665,3.25,3.5555555555555554,1.5,1.75,2.5,0.0,1.0,1.0,0.5251274499999757,0.5459800215024587,,,,,,,,,,,,,,,,,,,-5.669589290734599e-05,-0.7009058528006415,-8.024706341760784e-05,-0.21016920343239295,2.0949999999999998,1.5836429706624295,,,,,,,,
40,240725_150036,FalseCHOICE,9.0,41,2.0,2583.0,,,,,,,,,,,42.0,41.0,,,A,,,,,,False,cue2.png,Hard,cue1.png,Easy,Left,Hard,Mid,0.0161136999995505,,,,,,,,,,,,,51,28,Female,0.7142857142857143,0.5,0.4,1.0,2.111111111111111,3.375,1.8888888888888888,2.6666666666666665,3.25,3.5555555555555554,1.5,1.75,2.5,0.0,1.0,1.0,0.4253013833337415,-0.596943880091048,,,,,,,,,,,,,,,,,,,-4.086194470301514e-05,-0.6354240101218835,-0.000187813160522291,-0.5081002490018801,,,,,,,,,,
41,240725_150052,FalseCHOICE,9.0,42,2.0,2583.0,,,,,,,,,,,43.0,42.0,,,A,,,,,,False,cue1.png,Easy,cue2.png,Hard,Left,Easy,Mid,0.0166420999994443,,,,,,,,,,,,,51,28,Female,0.7142857142857143,0.5,0.4,1.0,2.111111111111111,3.375,1.8888888888888888,2.6666666666666665,3.25,3.5555555555555554,1.5,1.75,2.5,0.0,1.0,1.0,0.4881200500009678,0.12227664013899815,,,,,,,,,,,,,,,,,,,-0.00011158516872527419,-0.9279023591348892,,,1.973,1.271815806402117,,,,,,,,
42,240725_150108,FalseCHOICE,9.0,43,2.0,2583.0,,,,,,,,,,,44.0,43.0,,,A,,,,,,False,cue2.png,Hard,cue1.png,Easy,Right,Easy,Mid,0.0166110999998636,,,,,,,,,,,,,51,28,Female,0.7142857142857143,0.5,0.4,1.0,2.111111111111111,3.375,1.8888888888888888,2.6666666666666665,3.25,3.5555555555555554,1.5,1.75,2.5,0.0,1.0,1.0,0.5777190500005721,1.1481092916528777,,,,,,,,,,,,,,,,,,,0.000748756731063917,2.630071445309579,,,1.9030000000000002,1.0928985810068557,,,,,,,,
43,240725_150124,FalseCHOICE,9.0,44,2.0,2583.0,,,,,,,,,,,45.0,44.0,,,A,,,,,,False,cue1.png,Easy,cue2.png,Hard,Left,Easy,Mid,0.0151101000010385,,,,,,,,,,,,,51,28,Female,0.7142857142857143,0.5,0.4,1.0,2.111111111111111,3.375,1.8888888888888888,2.6666666666666665,3.25,3.5555555555555554,1.5,1.75,2.5,0.0,1.0,1.0,0.3995740500001072,-0.8915000533757951,,,,,,,,,,,,,,,,,,,3.3458424994791194e-06,-0.45260117090241664,-0.00019029042238414336,-0.5149616415457856,1.459,-0.041947820071662194,,,,,,,,
44,240725_150139,FalseCHOICE,9.0,45,2.0,2583.0,,,,,,,,,,,46.0,45.0,,,A,,,,,,False,cue2.png,Hard,cue1.png,Easy,Left,Hard,Mid,0.0157055000017862,,,,,,,,,,,,,51,28,Female,0.7142857142857143,0.5,0.4,1.0,2.111111111111111,3.375,1.8888888888888888,2.6666666666666665,3.25,3.5555555555555554,1.5,1.75,2.5,0.0,0.6875,0.75,0.4075650000001284,-0.8000104449351564,,,,,,,,,,,,,,,,,,,4.9904097753560375e-05,-0.26005788942879554,0.00016263389212573193,0.46254998022936045,,,,,,,,,,
45,240725_150155,FalseCHOICE,9.0,46,2.0,2583.0,,,,,,,,,,,47.0,46.0,,,A,,,,,,False,cue2.png,Hard,cue1.png,Easy,Left,Hard,Mid,0.016416599999502,,,,,,,,,,,,,51,28,Female,0.7142857142857143,0.5,0.4,1.0,2.111111111111111,3.375,1.8888888888888888,2.6666666666666665,3.25,3.5555555555555554,1.5,1.75,2.5,0.0,1.0,1.0,0.4900851833329701,0.14477575214421132,,,,,,,,,,,,,,,,,,,-2.6560720353186514e-05,-0.5762808001716979,0.00030624967672187404,0.8603295968251921,1.2220000000000002,-0.6477104260527624,,,,,,,,
46,240725_150210,FalseCHOICE,9.0,47,2.0,2583.0,,,,,,,,,,,48.0,47.0,,,A,,,,,,False,cue1.png,Easy,cue2.png,Hard,Left,Easy,Mid,0.015980699998181,,,,,,,,,,,,,51,28,Female,0.7142857142857143,0.5,0.4,1.0,2.111111111111111,3.375,1.8888888888888888,2.6666666666666665,3.25,3.5555555555555554,1.5,1.75,2.5,0.0,0.6875,0.75,0.363920783333621,-1.2996997551556642,,,,,,,,,,,,,,,,,,,4.229304819661304e-05,-0.2915336491873086,-0.00015162278493154567,-0.40786200731119254,1.1800000000000002,-0.7550607612899195,,,,,,,,
47,240725_150226,FalseCHOICE,9.0,48,2.0,2583.0,,,,,,,,,,,49.0,48.0,,,A,,,,,,False,cue1.png,Easy,cue2.png,Hard,Left,Easy,Mid,0.016438200000266,,,,,,,,,,,,,51,28,Female,0.7142857142857143,0.5,0.4,1.0,2.111111111111111,3.375,1.8888888888888888,2.6666666666666665,3.25,3.5555555555555554,1.5,1.75,2.5,0.0,0.6875,0.75,0.5178768166667093,0.46296641178078196,,,,,,,,,,,,,,,,,,,7.068964880263626e-06,-0.4372040690004657,0.0005259816919429726,1.4689320357163413,0.837,-1.6317551657267026,,,,,,,,
48,240725_150241,FalseCHOICE,9.0,49,2.0,2583.0,,,,,,,,,,,50.0,49.0,,,A,,,,,,False,cue2.png,Hard,cue1.png,Easy,Left,Hard,Mid,0.0167080999999598,,,,,,,,,,,,,51,28,Female,0.7142857142857143,0.5,0.4,1.0,2.111111111111111,3.375,1.8888888888888888,2.6666666666666665,3.25,3.5555555555555554,1.5,1.75,2.5,0.0,1.0,1.0,0.4730601833343826,-0.05014607612007642,,,,,,,,,,,,,,,,,,,-7.364000160276852e-05,-0.7709788027438503,5.8935195217579926e-05,0.17533066089334282,1.659,0.4692442524862284,,,,,,,,
49,240725_150257,FalseCHOICE,9.0,50,2.0,2583.0,,,,,,,,,,,51.0,50.0,,,A,,,,,,False,cue1.png,Easy,cue2.png,Hard,Left,Easy,Mid,0.0162171000010857,,,,,,,,,,,,,51,28,Female,0.7142857142857143,0.5,0.4,1.0,2.111111111111111,3.375,1.8888888888888888,2.6666666666666665,3.25,3.5555555555555554,1.5,1.75,2.5,0.0,0.6875,0.75,0.5650687833337239,1.0032744542409886,,,,,,,,,,,,,,,,,,,0.0007488877434457032,2.6306132515642404,0.0008723379147399049,2.428251694743885,1.4509999999999998,-0.06239550297397841,,,,,,,,
0,240725_142929,OFFLINERATING,9.0,1,1.0,,,,,,,,,,,,,,,,,T0,cue1.png,Easy,7.0,1.341774100001203,,,,,,,,,,,,,,,,,,,,,,51,28,Female,0.7142857142857143,0.5,0.4,1.0,2.111111111111111,3.375,1.8888888888888888,2.6666666666666665,3.25,3.5555555555555554,1.5,1.75,2.5,0.0,,,,,,,,,,,,,,,,,,,,,,,,,,,,,-0.8516910493274727,,,,,1.5850000000000002,-0.3872451697377093,
1,240725_142937,OFFLINERATING,9.0,2,3.0,,,,,,,,,,,,,,,,,T0,cue2.png,Hard,7.0,1.468922699998075,,,,,,,,,,,,,,,,,,,,,,51,28,Female,0.7142857142857143,0.5,0.4,1.0,2.111111111111111,3.375,1.8888888888888888,2.6666666666666665,3.25,3.5555555555555554,1.5,1.75,2.5,0.0,,,,,,,,,,,,,,,,,,,,,,,,,,,,,-0.8516910493274727,,,,,,,
2,240725_144458,OFFLINERATING,9.0,3,1.0,,,,,,,,,,,,,,,,,T1,cue1.png,Easy,48.0,1.6984948999997869,,,,,,,,,,,,,,,,,,,,,,51,28,Female,0.7142857142857143,0.5,0.4,1.0,2.111111111111111,3.375,1.8888888888888888,2.6666666666666665,3.25,3.5555555555555554,1.5,1.75,2.5,0.0,,,,,,,,,,,,,,,,,,,,,,,,,,,,,0.5735878495470735,,,0.00016285323959507698,0.7884573089548496,,,
3,240725_144506,OFFLINERATING,9.0,4,3.0,,,,,,,,,,,,,,,,,T1,cue2.png,Hard,3.0,1.0182284000002255,,,,,,,,,,,,,,,,,,,,,,51,28,Female,0.7142857142857143,0.5,0.4,1.0,2.111111111111111,3.375,1.8888888888888888,2.6666666666666665,3.25,3.5555555555555554,1.5,1.75,2.5,0.0,,,,,,,,,,,,,,,,,,,,,,,,,,,,,-0.9907426492176724,3.986817722137232e-05,-0.927936984630313,0.00019327063415284585,0.8736547838896617,1.456,-0.9843124234767291,
4,240725_144901,OFFLINERATING,9.0,5,1.0,,,,,,,,,,,,,,,,,T2,cue1.png,Easy,85.0,0.801524899998185,,,,,,,,,,,,,,,,,,,,,,51,28,Female,0.7142857142857143,0.5,0.4,1.0,2.111111111111111,3.375,1.8888888888888888,2.6666666666666665,3.25,3.5555555555555554,1.5,1.75,2.5,0.0,,,,,,,,,,,,,,,,,,,,,,,,,,,,,1.8598151485314203,0.00013733597649809737,1.3881977465678024,-0.0006957597760563388,-1.616471250614409,,,
5,240725_144908,OFFLINERATING,9.0,6,3.0,,,,,,,,,,,,,,,,,T2,cue2.png,Hard,3.0,0.9015422000011312,,,,,,,,,,,,,,,,,,,,,,51,28,Female,0.7142857142857143,0.5,0.4,1.0,2.111111111111111,3.375,1.8888888888888888,2.6666666666666665,3.25,3.5555555555555554,1.5,1.75,2.5,0.0,,,,,,,,,,,,,,,,,,,,,,,,,,,,,-0.9907426492176724,5.954897194627214e-05,-0.460260761937489,,,,,
6,240725_150310,OFFLINERATING,9.0,7,1.0,,,,,,,,,,,,,,,,,T3,cue1.png,Easy,52.0,1.0140532000004896,,,,,,,,,,,,,,,,,,,,,,51,28,Female,0.7142857142857143,0.5,0.4,1.0,2.111111111111111,3.375,1.8888888888888888,2.6666666666666665,3.25,3.5555555555555554,1.5,1.75,2.5,0.0,,,,,,,,,,,,,,,,,,,,,,,,,,,,,0.7126394494372732,,,,,,,
7,240725_150317,OFFLINERATING,9.0,8,3.0,,,,,,,,,,,,,,,,,T3,cue2.png,Hard,47.0,0.5012800000004063,,,,,,,,,,,,,,,,,,,,,,51,28,Female,0.7142857142857143,0.5,0.4,1.0,2.111111111111111,3.375,1.8888888888888888,2.6666666666666665,3.25,3.5555555555555554,1.5,1.75,2.5,0.0,,,,,,,,,,,,,,,,,,,,,,,,,,,,,0.5388249495745236,,,-0.00013493836260804757,-0.04564084223010222,1.9649999999999999,1.3715575932144373,
0,240725_144928,LEARNINGCHECK,9.0,1,,,,,,,,,,,,1.0,1.0,1.0,,,A,,,,,,,,,,,,,,,cue1.png,Easy,Left,Left,Easy,0.0130337000009603,1.0,,,,,,51,28,Female,0.7142857142857143,0.5,0.4,1.0,2.111111111111111,3.375,1.8888888888888888,2.6666666666666665,3.25,3.5555555555555554,1.5,1.75,2.5,0.0,,,,,,,,,,,,,,,,,,,,,,,,,,,,,,,,,,,,
1,240725_144934,LEARNINGCHECK,9.0,2,,,,,,,,,,,,2.0,2.0,2.0,,,A,,,,,,,,,,,,,,,cue2.png,Hard,Right,Right,Hard,0.0136005000022123,1.0,,,,,,51,28,Female,0.7142857142857143,0.5,0.4,1.0,2.111111111111111,3.375,1.8888888888888888,2.6666666666666665,3.25,3.5555555555555554,1.5,1.75,2.5,0.0,,,,,,,,,,,,,,,,,,,,,,,,,,,,,,,,,,,,
2,240725_150330,LEARNINGCHECK,9.0,1,,,,,,,,,,,,1.0,1.0,1.0,,,A,,,,,,,,,,,,,,,cue1.png,Easy,Middle,Middle,Mid,0.0162802000013471,1.0,,,,,,51,28,Female,0.7142857142857143,0.5,0.4,1.0,2.111111111111111,3.375,1.8888888888888888,2.6666666666666665,3.25,3.5555555555555554,1.5,1.75,2.5,0.0,,,,,,,,,,,,,,,,,,,,,,,,,,,,,,,,,,,,
3,240725_150335,LEARNINGCHECK,9.0,2,,,,,,,,,,,,2.0,2.0,2.0,,,A,,,,,,,,,,,,,,,cue2.png,Hard,Middle,Middle,Mid,0.0147262000027694,1.0,,,,,,51,28,Female,0.7142857142857143,0.5,0.4,1.0,2.111111111111111,3.375,1.8888888888888888,2.6666666666666665,3.25,3.5555555555555554,1.5,1.75,2.5,0.0,,,,,,,,,,,,,,,,,,,,,,,,,,,,,,,,,,,,
0,240725_150358,DEMANDRATING,9.0,-1,,,,,,,,,,,,,,,,,,,,,,,,,,,,,,,,,,,,,,,1.0,MentalDemand,1.0,5.0,4.309312400000636,51,28,Female,0.7142857142857143,0.5,0.4,1.0,2.111111111111111,3.375,1.8888888888888888,2.6666666666666665,3.25,3.5555555555555554,1.5,1.75,2.5,0.0,,,,,,,,,,,,,,,,,,,,,,,,,,,,,,,,,,,,-1.1686463835437038
1,240725_150403,DEMANDRATING,9.0,-1,,,,,,,,,,,,,,,,,,,,,,,,,,,,,,,,,,,,,,,2.0,Effort,1.0,3.0,3.664224899999681,51,28,Female,0.7142857142857143,0.5,0.4,1.0,2.111111111111111,3.375,1.8888888888888888,2.6666666666666665,3.25,3.5555555555555554,1.5,1.75,2.5,0.0,,,,,,,,,,,,,,,,,,,,,,,,,,,,,,,,,,,,-1.2462686525613667
2,240725_150407,DEMANDRATING,9.0,-1,,,,,,,,,,,,,,,,,,,,,,,,,,,,,,,,,,,,,,,3.0,Frustration,1.0,1.0,2.934079300001031,51,28,Female,0.7142857142857143,0.5,0.4,1.0,2.111111111111111,3.375,1.8888888888888888,2.6666666666666665,3.25,3.5555555555555554,1.5,1.75,2.5,0.0,,,,,,,,,,,,,,,,,,,,,,,,,,,,,,,,,,,,-1.3238909215790295
3,240725_150413,DEMANDRATING,9.0,-1,,,,,,,,,,,,,,,,,,,,,,,,,,,,,,,,,,,,,,,4.0,MentalDemand,2.0,36.0,3.7657877999990887,51,28,Female,0.7142857142857143,0.5,0.4,1.0,2.111111111111111,3.375,1.8888888888888888,2.6666666666666665,3.25,3.5555555555555554,1.5,1.75,2.5,0.0,,,,,,,,,,,,,,,,,,,,,,,,,,,,,,,,,,,,0.034498786230072305
4,240725_150416,DEMANDRATING,9.0,-1,,,,,,,,,,,,,,,,,,,,,,,,,,,,,,,,,,,,,,,5.0,Effort,2.0,32.0,1.465843699999823,51,28,Female,0.7142857142857143,0.5,0.4,1.0,2.111111111111111,3.375,1.8888888888888888,2.6666666666666665,3.25,3.5555555555555554,1.5,1.75,2.5,0.0,,,,,,,,,,,,,,,,,,,,,,,,,,,,,,,,,,,,-0.12074575180525363
5,240725_150421,DEMANDRATING,9.0,-1,,,,,,,,,,,,,,,,,,,,,,,,,,,,,,,,,,,,,,,6.0,Frustration,2.0,73.0,3.967034299999796,51,28,Female,0.7142857142857143,0.5,0.4,1.0,2.111111111111111,3.375,1.8888888888888888,2.6666666666666665,3.25,3.5555555555555554,1.5,1.75,2.5,0.0,,,,,,,,,,,,,,,,,,,,,,,,,,,,,,,,,,,,1.4705107630568373
6,240725_150426,DEMANDRATING,9.0,-1,,,,,,,,,,,,,,,,,,,,,,,,,,,,,,,,,,,,,,,7.0,MentalDemand,3.0,45.0,3.297169599998597,51,28,Female,0.7142857142857143,0.5,0.4,1.0,2.111111111111111,3.375,1.8888888888888888,2.6666666666666665,3.25,3.5555555555555554,1.5,1.75,2.5,0.0,,,,,,,,,,,,,,,,,,,,,,,,,,,,,,,,,,,,0.38379899680955565
7,240725_150430,DEMANDRATING,9.0,-1,,,,,,,,,,,,,,,,,,,,,,,,,,,,,,,,,,,,,,,8.0,Effort,3.0,56.0,2.372430399998848,51,28,Female,0.7142857142857143,0.5,0.4,1.0,2.111111111111111,3.375,1.8888888888888888,2.6666666666666665,3.25,3.5555555555555554,1.5,1.75,2.5,0.0,,,,,,,,,,,,,,,,,,,,,,,,,,,,,,,,,,,,0.810721476406702
8,240725_150434,DEMANDRATING,9.0,-1,,,,,,,,,,,,,,,,,,,,,,,,,,,,,,,,,,,,,,,9.0,Frustration,3.0,65.0,2.597865399999137,51,28,Female,0.7142857142857143,0.5,0.4,1.0,2.111111111111111,3.375,1.8888888888888888,2.6666666666666665,3.25,3.5555555555555554,1.5,1.75,2.5,0.0,,,,,,,,,,,,,,,,,,,,,,,,,,,,,,,,,,,,1.1600216869861852
