,END,Phase,Block,TrialN,NbackLevel,ISI,Letter_Resp,Letter_RT,Letter_Accuracy,Trial_A_measure,Trial_ACC,Trial_RT,TrialCountCali,CaliEnd_A_measure,ISI_calibrated,TrialIndex,TrialNumber_total,TrialNumber_valid,CueLearning,TrialDemandLearning,CueMapping,OfflineRatingTimePoint,CueFigure,TrialDemand,OfflineRating,OfflineRatingRT,PhaseType,CueLeft,CueDemandLeft,CueRight,CueDemandRight,Choice,ChoiceDemand,TaskDemand,ChoiceRT,CueCheck,CueDemandCheck,CorrectAnswer,Answer,AnswerDemand,AnswerRT,AnswerACC,DemandRatingQuesIndex,QuesTLX,DemandLevel,DemandRating,DemandRatingRT,PID,Age,Gender,Task_A_measure,Task_ACC,Task_RT,cue_i_on_zyg_values,cue_i_on_zyg_zvalues,cue_e_on_zyg_values,cue_e_on_zyg_zvalues,cue_i_on_cor_values,cue_i_on_cor_zvalues,cue_e_on_cor_values,cue_e_on_cor_zvalues,cue_i_on_scr_values,cue_i_on_scr_zvalues,cue_e_on_scr_values,cue_e_on_scr_zvalues,BAI_bis,BAI_bas_d,BAI_bas_rr,BAI_bas_fs,NFC,BFI_ext,BFI_agr,BFI_con,BFI_neu,BFI_open,UPPS_lps,UPPS_lpm,UPPS_pu,UPPS_ss,cue_e_true_zyg_values,cue_e_true_zyg_zvalues,cue_e_true_cor_values,cue_e_true_cor_zvalues,cue_e_true_scr_values,cue_e_true_scr_zvalues,cue_i_off_zyg_values,cue_i_off_zyg_zvalues,cue_i_off_cor_values,cue_i_off_cor_zvalues,cue_i_off_scr_values,cue_i_off_scr_zvalues
0,240725_143007,LEARNING,1.0,1,1.0,2583.0,,,,,,,,,,1.0,1.0,1.0,cue1.png,Easy,A,,,,,,,,,,,,,,,,,,,,,,,,,,,51,28,Female,0.6875,0.75,0.4464364666667582,-7.328446947620559e-05,-0.6137811520694242,4.17688084594762e-05,0.11478355937620781,-0.0013674572165826362,-2.0489636778867926,-6.918313150050884e-05,-0.04924882872856158,,,,,0.7142857142857143,0.5,0.4,1.0,2.111111111111111,3.375,1.8888888888888888,2.6666666666666665,3.25,3.5555555555555554,1.5,1.75,2.5,0.0,,,,,,,,,,,,
1,240725_143025,LEARNING,1.0,2,3.0,2583.0,,,,,,,,,,2.0,2.0,2.0,cue2.png,Hard,A,,,,,,,,,,,,,,,,,,,,,,,,,,,51,28,Female,1.0,1.0,0.5025705333324973,4.7287383105840044e-05,-0.024597629364833125,6.046785056693701e-06,0.052859768736400296,0.00010140125260747193,0.009153239575614718,3.089090833708523e-05,0.11209321545269839,1.4500000000000002,-0.35392812679616276,1.4650000000000003,-0.007797803089130259,0.7142857142857143,0.5,0.4,1.0,2.111111111111111,3.375,1.8888888888888888,2.6666666666666665,3.25,3.5555555555555554,1.5,1.75,2.5,0.0,,,,,,,,,,,,
2,240725_143042,LEARNING,1.0,3,1.0,2583.0,,,,,,,,,,3.0,3.0,3.0,cue1.png,Easy,A,,,,,,,,,,,,,,,,,,,,,,,,,,,51,28,Female,1.0,1.0,0.4066889833338791,,,,,-0.00017243120202643748,-0.37453192768427074,0.00028475610002859234,0.5213814688343547,1.4489999999999998,-0.3559505732349987,1.5460000000000003,0.13898760294780926,0.7142857142857143,0.5,0.4,1.0,2.111111111111111,3.375,1.8888888888888888,2.6666666666666665,3.25,3.5555555555555554,1.5,1.75,2.5,0.0,,,,,,,,,,,,
3,240725_143100,LEARNING,1.0,4,3.0,2583.0,,,,,,,,,,4.0,4.0,4.0,cue2.png,Hard,A,,,,,,,,,,,,,,,,,,,,,,,,,,,51,28,Female,1.0,1.0,0.5376870166661926,-2.4737214759115375e-05,-0.3765513016581218,4.995818638052528e-05,0.12897976876041095,0.00031954107115268965,0.3148036887762352,0.00023155681322155125,0.4356121554703435,1.9969999999999999,0.7523500752467008,1.5830000000000002,0.20603772669307782,0.7142857142857143,0.5,0.4,1.0,2.111111111111111,3.375,1.8888888888888888,2.6666666666666665,3.25,3.5555555555555554,1.5,1.75,2.5,0.0,,,,,,,,,,,,
4,240725_143117,LEARNING,1.0,5,3.0,2583.0,,,,,,,,,,5.0,5.0,5.0,cue2.png,Hard,A,,,,,,,,,,,,,,,,,,,,,,,,,,,51,28,Female,1.0,1.0,0.4097436166666739,-5.8558258537858444e-05,-0.5418204029315423,,,-0.0008679101824126466,-1.3490145516375425,-0.0013434687036771456,-2.1036861175530945,1.5310000000000001,-0.19010996525051022,1.55,0.1462362649743244,0.7142857142857143,0.5,0.4,1.0,2.111111111111111,3.375,1.8888888888888888,2.6666666666666665,3.25,3.5555555555555554,1.5,1.75,2.5,0.0,,,,,,,,,,,,
5,240725_143134,LEARNING,1.0,6,1.0,2583.0,,,,,,,,,,6.0,6.0,6.0,cue1.png,Easy,A,,,,,,,,,,,,,,,,,,,,,,,,,,,51,28,Female,1.0,1.0,0.4383648666662338,-7.772452989415453e-05,-0.6354778448053034,0.0005217438850943631,0.9468158276141031,1.5679283969245467e-05,-0.11095760674015903,,,,,,,0.7142857142857143,0.5,0.4,1.0,2.111111111111111,3.375,1.8888888888888888,2.6666666666666665,3.25,3.5555555555555554,1.5,1.75,2.5,0.0,,,,,,,,,,,,
6,240725_143153,LEARNING,1.0,7,3.0,2583.0,,,,,,,,,,7.0,7.0,7.0,cue2.png,Hard,A,,,,,,,,,,,,,,,,,,,,,,,,,,,51,28,Female,1.0,1.0,0.5676867499999693,-7.406941472672254e-05,-0.6176168467023412,,,0.00021630326858329985,0.1701502232133762,0.0002789713317067877,0.5120551105933002,,,1.4620000000000002,-0.013234299609017116,0.7142857142857143,0.5,0.4,1.0,2.111111111111111,3.375,1.8888888888888888,2.6666666666666665,3.25,3.5555555555555554,1.5,1.75,2.5,0.0,,,,,,,,,,,,
7,240725_143212,LEARNING,1.0,8,3.0,2583.0,,,,,,,,,,8.0,8.0,8.0,cue2.png,Hard,A,,,,,,,,,,,,,,,,,,,,,,,,,,,51,28,Female,0.1875,0.5833333333333334,0.371242180000263,-0.00048127616717908014,-2.6074635956831465,7.277594041093073e-05,0.16853413015583493,-0.0005361035233202214,-0.8840978066080951,0.00012234962938928147,0.2595454122133377,,,,,0.7142857142857143,0.5,0.4,1.0,2.111111111111111,3.375,1.8888888888888888,2.6666666666666665,3.25,3.5555555555555554,1.5,1.75,2.5,0.0,,,,,,,,,,,,
8,240725_143229,LEARNING,1.0,9,1.0,2583.0,,,,,,,,,,9.0,9.0,9.0,cue1.png,Easy,A,,,,,,,,,,,,,,,,,,,,,,,,,,,51,28,Female,1.0,1.0,0.4335557833328494,7.743831042609063e-05,0.12273716885656072,2.322498927334214e-05,0.08263802372171948,,,0.0005203115013132143,0.9011501883032058,,,0.6479999999999999,-1.488337022004929,0.7142857142857143,0.5,0.4,1.0,2.111111111111111,3.375,1.8888888888888888,2.6666666666666665,3.25,3.5555555555555554,1.5,1.75,2.5,0.0,,,,,,,,,,,,
9,240725_143246,LEARNING,1.0,10,1.0,2583.0,,,,,,,,,,10.0,10.0,10.0,cue1.png,Easy,A,,,,,,,,,,,,,,,,,,,,,,,,,,,51,28,Female,1.0,1.0,0.3987710166657052,6.899435900939704e-05,0.08147515840641367,0.0003392180683832475,0.6304090459227111,-0.0020355520494925792,-2.9850765212428465,3.92773031966942e-05,0.125613985596048,1.405,-0.4449382165437479,2.85,2.5020514235918734,0.7142857142857143,0.5,0.4,1.0,2.111111111111111,3.375,1.8888888888888888,2.6666666666666665,3.25,3.5555555555555554,1.5,1.75,2.5,0.0,,,,,,,,,,,,
10,240725_143304,LEARNING,1.0,11,3.0,2583.0,,,,,,,,,,11.0,11.0,11.0,cue2.png,Hard,A,,,,,,,,,,,,,,,,,,,,,,,,,,,51,28,Female,0.6875,0.75,0.4827964666656044,0.0006459159535292316,2.9006463837323673,,,-0.0006736599980446435,-1.0768374841707138,-0.0006495308022603312,-0.9849008688398434,1.57,-0.11123455413593686,,,0.7142857142857143,0.5,0.4,1.0,2.111111111111111,3.375,1.8888888888888888,2.6666666666666665,3.25,3.5555555555555554,1.5,1.75,2.5,0.0,,,,,,,,,,,,
11,240725_143322,LEARNING,1.0,12,1.0,2583.0,,,,,,,,,,12.0,12.0,12.0,cue1.png,Easy,A,,,,,,,,,,,,,,,,,,,,,,,,,,,51,28,Female,1.0,1.0,0.5738527333336,4.24254817447435e-06,-0.23493948723619693,5.00129859620402e-05,0.12907476331809928,5.3749711193695586e-05,-0.057614557039213865,0.0006813391237691789,1.1607632289964385,,,2.2439999999999998,1.4038791265747694,0.7142857142857143,0.5,0.4,1.0,2.111111111111111,3.375,1.8888888888888888,2.6666666666666665,3.25,3.5555555555555554,1.5,1.75,2.5,0.0,,,,,,,,,,,,
12,240725_143339,LEARNING,1.0,13,1.0,2583.0,,,,,,,,,,13.0,13.0,13.0,cue1.png,Easy,A,,,,,,,,,,,,,,,,,,,,,,,,,,,51,28,Female,1.0,1.0,0.3618217166658724,3.3688457896745294e-06,-0.2392089003525084,,,0.00030644924002660306,0.29645983898652994,0.00045350020322307326,0.7934352262035402,,,0.5110000000000001,-1.7366036964130858,0.7142857142857143,0.5,0.4,1.0,2.111111111111111,3.375,1.8888888888888888,2.6666666666666665,3.25,3.5555555555555554,1.5,1.75,2.5,0.0,,,,,,,,,,,,
13,240725_143356,LEARNING,1.0,14,1.0,2583.0,,,,,,,,,,14.0,14.0,14.0,cue1.png,Easy,A,,,,,,,,,,,,,,,,,,,,,,,,,,,51,28,Female,1.0,1.0,0.4421989833335829,-2.382761117088617e-06,-0.2673145647009335,0.00019978877461875825,0.38870968027434966,0.0007163930936642951,0.8708598905086272,0.00011329197285808073,0.24494241604562744,,,1.459,-0.018670796128903974,0.7142857142857143,0.5,0.4,1.0,2.111111111111111,3.375,1.8888888888888888,2.6666666666666665,3.25,3.5555555555555554,1.5,1.75,2.5,0.0,,,,,,,,,,,,
14,240725_143414,LEARNING,1.0,15,3.0,2583.0,,,,,,,,,,15.0,15.0,15.0,cue2.png,Hard,A,,,,,,,,,,,,,,,,,,,,,,,,,,,51,28,Female,1.0,1.0,0.4935428666673639,0.0007673677084084835,3.494129615896519,-0.0010171644946527399,-1.7208673337457365,-0.00044840335360708675,-0.7612151690109901,0.00017714994446732264,0.34789594618615355,,,,,0.7142857142857143,0.5,0.4,1.0,2.111111111111111,3.375,1.8888888888888888,2.6666666666666665,3.25,3.5555555555555554,1.5,1.75,2.5,0.0,,,,,,,,,,,,
15,240725_143431,LEARNING,1.0,16,1.0,2583.0,,,,,,,,,,16.0,16.0,16.0,cue1.png,Easy,A,,,,,,,,,,,,,,,,,,,,,,,,,,,51,28,Female,1.0,1.0,0.4142515166665059,-2.957290506372433e-05,-0.400181269908292,-3.8627818388905534e-05,-0.02458323496719801,-0.0010436779258560717,-1.5952946214420662,0.0007725506620342741,1.3078169110551428,,,,,0.7142857142857143,0.5,0.4,1.0,2.111111111111111,3.375,1.8888888888888888,2.6666666666666665,3.25,3.5555555555555554,1.5,1.75,2.5,0.0,,,,,,,,,,,,
16,240725_143449,LEARNING,1.0,17,1.0,2583.0,,,,,,,,,,17.0,17.0,17.0,cue1.png,Easy,A,,,,,,,,,,,,,,,,,,,,,,,,,,,51,28,Female,1.0,1.0,0.5530375333340393,6.705083289042279e-05,0.07197797029224391,9.412230905388045e-05,0.20553785886016154,-0.0004078884714141034,-0.7044470281727843,,,,,,,0.7142857142857143,0.5,0.4,1.0,2.111111111111111,3.375,1.8888888888888888,2.6666666666666665,3.25,3.5555555555555554,1.5,1.75,2.5,0.0,,,,,,,,,,,,
17,240725_143506,LEARNING,1.0,18,3.0,2583.0,,,,,,,,,,18.0,18.0,18.0,cue2.png,Hard,A,,,,,,,,,,,,,,,,,,,,,,,,,,,51,28,Female,0.6875,0.75,0.4241502166672338,,,,,2.4954863714656862e-05,-0.09796096479423437,-4.7534198454191566e-05,-0.014345839724575008,,,,,0.7142857142857143,0.5,0.4,1.0,2.111111111111111,3.375,1.8888888888888888,2.6666666666666665,3.25,3.5555555555555554,1.5,1.75,2.5,0.0,,,,,,,,,,,,
18,240725_143524,LEARNING,1.0,19,3.0,2583.0,,,,,,,,,,19.0,19.0,19.0,cue2.png,Hard,A,,,,,,,,,,,,,,,,,,,,,,,,,,,51,28,Female,0.6875,0.75,0.4224415666667482,,,-7.900372264714635e-06,0.028682503068854847,0.0010893103566562631,1.3933794823388266,,,,,,,0.7142857142857143,0.5,0.4,1.0,2.111111111111111,3.375,1.8888888888888888,2.6666666666666665,3.25,3.5555555555555554,1.5,1.75,2.5,0.0,,,,,,,,,,,,
19,240725_143540,LEARNING,1.0,20,3.0,2583.0,,,,,,,,,,20.0,20.0,20.0,cue2.png,Hard,A,,,,,,,,,,,,,,,,,,,,,,,,,,,51,28,Female,1.0,1.0,0.3401318500006406,4.167281192460565e-05,-0.05203365822392651,3.690894479664976e-05,0.1063590315547678,,,-0.0018848482091389663,-2.9765126391045573,1.511,-0.23055889402721505,0.8870000000000002,-1.0552294659206252,0.7142857142857143,0.5,0.4,1.0,2.111111111111111,3.375,1.8888888888888888,2.6666666666666665,3.25,3.5555555555555554,1.5,1.75,2.5,0.0,,,,,,,,,,,,
20,240725_143557,LEARNING,1.0,21,1.0,2583.0,,,,,,,,,,21.0,21.0,21.0,cue1.png,Easy,A,,,,,,,,,,,,,,,,,,,,,,,,,,,51,28,Female,1.0,1.0,0.3978886833331974,0.00010003208453528666,0.23314336346810613,-0.00021718204323021954,-0.3341052996122092,0.0005664793755782872,0.6608056437420042,0.0009021202368820593,1.5167124458368335,0.585,-2.103344296388627,0.968,-0.9084440598836862,0.7142857142857143,0.5,0.4,1.0,2.111111111111111,3.375,1.8888888888888888,2.6666666666666665,3.25,3.5555555555555554,1.5,1.75,2.5,0.0,,,,,,,,,,,,
21,240725_143616,LEARNING,1.0,22,3.0,2583.0,,,,,,,,,,22.0,22.0,22.0,cue2.png,Hard,A,,,,,,,,,,,,,,,,,,,,,,,,,,,51,28,Female,1.0,1.0,0.6676200499999444,,,7.373362284119082e-05,0.1701942636158625,,,-0.00025246677648440956,-0.344743624328749,2.463,1.6948101157439128,,,0.7142857142857143,0.5,0.4,1.0,2.111111111111111,3.375,1.8888888888888888,2.6666666666666665,3.25,3.5555555555555554,1.5,1.75,2.5,0.0,,,,,,,,,,,,
22,240725_143633,LEARNING,1.0,23,3.0,2583.0,,,,,,,,,,23.0,23.0,23.0,cue2.png,Hard,A,,,,,,,,,,,,,,,,,,,,,,,,,,,51,28,Female,1.0,1.0,0.4485788333337647,1.2989051855752474e-05,-0.1921990321471665,3.443699394387869e-05,0.10207392806684594,-0.00031944359325896364,-0.5805209292244211,0.0007501685599456921,1.2717318873076664,1.6769999999999998,0.10516721481943098,1.7719999999999998,0.5485370074459361,0.7142857142857143,0.5,0.4,1.0,2.111111111111111,3.375,1.8888888888888888,2.6666666666666665,3.25,3.5555555555555554,1.5,1.75,2.5,0.0,,,,,,,,,,,,
23,240725_143651,LEARNING,1.0,24,3.0,2583.0,,,,,,,,,,24.0,24.0,24.0,cue2.png,Hard,A,,,,,,,,,,,,,,,,,,,,,,,,,,,51,28,Female,1.0,1.0,0.5176600166657105,,,-0.0012941020911698626,-2.2009360452421296,0.0004991936825408747,0.5665271097319601,0.0004478233308500227,0.7842828206974719,1.7270000000000003,0.20628953676119285,1.677,0.37638128431619267,0.7142857142857143,0.5,0.4,1.0,2.111111111111111,3.375,1.8888888888888888,2.6666666666666665,3.25,3.5555555555555554,1.5,1.75,2.5,0.0,,,,,,,,,,,,
24,240725_143709,LEARNING,1.0,25,1.0,2583.0,,,,,,,,,,25.0,25.0,25.0,cue1.png,Easy,A,,,,,,,,,,,,,,,,,,,,,,,,,,,51,28,Female,1.0,1.0,0.4415548666662895,-0.0001048491065732027,-0.768024150575612,0.00039008486071974305,0.7185861506641621,-9.235618995175922e-05,-0.26233341402640253,-0.00023683291595363604,-0.31953829614800194,1.399,-0.4570728951767592,1.099,-0.6710503785153024,0.7142857142857143,0.5,0.4,1.0,2.111111111111111,3.375,1.8888888888888888,2.6666666666666665,3.25,3.5555555555555554,1.5,1.75,2.5,0.0,,,,,,,,,,,,
25,240725_143727,LEARNING,1.0,26,1.0,2583.0,,,,,,,,,,26.0,26.0,26.0,cue1.png,Easy,A,,,,,,,,,,,,,,,,,,,,,,,,,,,51,28,Female,1.0,1.0,0.5771850166674994,-1.0332447092928267e-05,-0.3061613095036086,1.2689420405415097e-07,0.04259769377955984,,,,,2.3240000000000003,1.4136900607458178,1.5739999999999998,0.18972823713341724,0.7142857142857143,0.5,0.4,1.0,2.111111111111111,3.375,1.8888888888888888,2.6666666666666665,3.25,3.5555555555555554,1.5,1.75,2.5,0.0,,,,,,,,,,,,
26,240725_143744,LEARNING,1.0,27,3.0,2583.0,,,,,,,,,,27.0,27.0,27.0,cue2.png,Hard,A,,,,,,,,,,,,,,,,,,,,,,,,,,,51,28,Female,1.0,1.0,0.4851265833331126,,,,,,,0.0005109723400804848,0.8860933427249491,,,0.774,-1.2600041681696896,0.7142857142857143,0.5,0.4,1.0,2.111111111111111,3.375,1.8888888888888888,2.6666666666666665,3.25,3.5555555555555554,1.5,1.75,2.5,0.0,,,,,,,,,,,,
27,240725_143802,LEARNING,1.0,28,1.0,2583.0,,,,,,,,,,28.0,28.0,28.0,cue1.png,Easy,A,,,,,,,,,,,,,,,,,,,,,,,,,,,51,28,Female,1.0,1.0,0.5352439333334283,,,-3.051819006227169e-05,-0.010525270752718197,0.001037401134337671,1.3206459611268628,0.00020445616460636282,0.39191976478332385,2.263,1.2903208279768688,2.343,1.583283511731029,0.7142857142857143,0.5,0.4,1.0,2.111111111111111,3.375,1.8888888888888888,2.6666666666666665,3.25,3.5555555555555554,1.5,1.75,2.5,0.0,,,,,,,,,,,,
28,240725_143819,LEARNING,1.0,29,1.0,2583.0,,,,,,,,,,29.0,29.0,29.0,cue1.png,Easy,A,,,,,,,,,,,,,,,,,,,,,,,,,,,51,28,Female,1.0,1.0,0.375548183332891,6.205768119805144e-05,0.04757855500161565,-0.0020462095822561454,-3.504707287187796,0.0006505155280056569,0.7785543789789553,-0.0002880721485551958,-0.40214755768706795,0.2330000000000001,-2.815245442858623,1.4189999999999998,-0.09115741639405979,0.7142857142857143,0.5,0.4,1.0,2.111111111111111,3.375,1.8888888888888888,2.6666666666666665,3.25,3.5555555555555554,1.5,1.75,2.5,0.0,,,,,,,,,,,,
29,240725_143837,LEARNING,1.0,30,3.0,2583.0,,,,,,,,,,30.0,30.0,30.0,cue2.png,Hard,A,,,,,,,,,,,,,,,,,,,,,,,,,,,51,28,Female,1.0,1.0,0.5025549166675773,-0.0001038752202438091,-0.7632651809987325,-5.3526837553168234e-05,-0.05041054416140281,0.0006961669632741226,0.842519691637209,-0.00026768385495036257,-0.3692770053149454,1.6560000000000001,0.06269583960389204,1.651,0.3292649811438416,0.7142857142857143,0.5,0.4,1.0,2.111111111111111,3.375,1.8888888888888888,2.6666666666666665,3.25,3.5555555555555554,1.5,1.75,2.5,0.0,,,,,,,,,,,,
30,240725_143855,LEARNING,1.0,31,3.0,2583.0,,,,,,,,,,31.0,31.0,31.0,cue2.png,Hard,A,,,,,,,,,,,,,,,,,,,,,,,,,,,51,28,Female,1.0,1.0,0.5723704833326337,9.173850482802667e-05,0.1926161558063538,-7.753825946045035e-05,-0.09203411756275744,-0.0002261158485800975,-0.4497531158365906,-0.00022468481065287356,-0.29995279579911005,1.844,0.4429157701049129,,,0.7142857142857143,0.5,0.4,1.0,2.111111111111111,3.375,1.8888888888888888,2.6666666666666665,3.25,3.5555555555555554,1.5,1.75,2.5,0.0,,,,,,,,,,,,
31,240725_143912,LEARNING,1.0,32,1.0,2583.0,,,,,,,,,,32.0,32.0,32.0,cue1.png,Easy,A,,,,,,,,,,,,,,,,,,,,,,,,,,,51,28,Female,1.0,1.0,0.4721557166661417,2.1372745878929338e-06,-0.24522706664578522,0.0001157508928764121,0.24303080491644946,0.0009036543304851885,1.1332442710122967,0.0003503703933645337,0.6271665878473347,1.074,-1.114367987798205,,,0.7142857142857143,0.5,0.4,1.0,2.111111111111111,3.375,1.8888888888888888,2.6666666666666665,3.25,3.5555555555555554,1.5,1.75,2.5,0.0,,,,,,,,,,,,
32,240725_143929,LEARNING,1.0,33,1.0,2583.0,,,,,,,,,,33.0,33.0,33.0,cue1.png,Easy,A,,,,,,,,,,,,,,,,,,,,,,,,,,,51,28,Female,1.0,1.0,0.3046427500000088,-9.349082504160697e-06,-0.3013560236918245,,,0.0002497158184307153,0.21696680598083512,-0.0007639198232846874,-1.1693219086411129,1.792,0.3377485552854815,2.131,1.1991044243257054,0.7142857142857143,0.5,0.4,1.0,2.111111111111111,3.375,1.8888888888888888,2.6666666666666665,3.25,3.5555555555555554,1.5,1.75,2.5,0.0,,,,,,,,,,,,
33,240725_143946,LEARNING,1.0,34,1.0,2583.0,,,,,,,,,,34.0,34.0,34.0,cue1.png,Easy,A,,,,,,,,,,,,,,,,,,,,,,,,,,,51,28,Female,1.0,1.0,0.4427019166663133,4.864386029685298e-05,-0.017969100460663006,-1.9840632419648035e-05,0.007984174710407535,0.000652450711688395,0.7812658956835132,0.0001557755218134062,0.31343553018042736,1.6600000000000001,0.07078562535923291,1.072,-0.7199788471942821,0.7142857142857143,0.5,0.4,1.0,2.111111111111111,3.375,1.8888888888888888,2.6666666666666665,3.25,3.5555555555555554,1.5,1.75,2.5,0.0,,,,,,,,,,,,
34,240725_144003,LEARNING,1.0,35,3.0,2583.0,,,,,,,,,,35.0,35.0,35.0,cue2.png,Hard,A,,,,,,,,,,,,,,,,,,,,,,,,,,,51,28,Female,1.0,1.0,0.3843487833346444,,,-0.0013366195659953936,-2.274639686828804,0.0014654214327365625,1.9203741416354865,,,1.7640000000000002,0.2811200549980958,,,0.7142857142857143,0.5,0.4,1.0,2.111111111111111,3.375,1.8888888888888888,2.6666666666666665,3.25,3.5555555555555554,1.5,1.75,2.5,0.0,,,,,,,,,,,,
35,240725_144021,LEARNING,1.0,36,3.0,2583.0,,,,,,,,,,36.0,36.0,36.0,cue2.png,Hard,A,,,,,,,,,,,,,,,,,,,,,,,,,,,51,28,Female,1.0,1.0,0.4815721999996943,-6.447807363802556e-05,-0.570748029403093,3.065871908036581e-05,0.09552432422750702,0.00016447210344954681,0.09752607320089576,-0.0004917726767943642,-0.7305589986586312,1.7469999999999999,0.24673846553789636,1.9849999999999999,0.9345282603578886,0.7142857142857143,0.5,0.4,1.0,2.111111111111111,3.375,1.8888888888888888,2.6666666666666665,3.25,3.5555555555555554,1.5,1.75,2.5,0.0,,,,,,,,,,,,
36,240725_144038,LEARNING,1.0,37,1.0,2583.0,,,,,,,,,,37.0,37.0,37.0,cue1.png,Easy,A,,,,,,,,,,,,,,,,,,,,,,,,,,,51,28,Female,1.0,1.0,0.4436001999996127,,,0.0010065701352494107,1.7872575593930926,-0.00014422379458584695,-0.3350086218866442,0.0004549216714583499,0.7957269553192076,1.9989999999999997,0.7563949681243708,0.883,-1.0624781279471411,0.7142857142857143,0.5,0.4,1.0,2.111111111111111,3.375,1.8888888888888888,2.6666666666666665,3.25,3.5555555555555554,1.5,1.75,2.5,0.0,,,,,,,,,,,,
37,240725_144056,LEARNING,1.0,38,3.0,2583.0,,,,,,,,,,38.0,38.0,38.0,cue2.png,Hard,A,,,,,,,,,,,,,,,,,,,,,,,,,,,51,28,Female,1.0,1.0,0.5504327166666675,-0.00011038601153934161,-0.7950806575709773,0.0007375949637243896,1.3209916365191845,-5.155725115378942e-06,-0.1401509467194641,-0.0010611905653497445,-1.6485897515091763,2.493,1.7554835089089689,1.615,0.26402702290520175,0.7142857142857143,0.5,0.4,1.0,2.111111111111111,3.375,1.8888888888888888,2.6666666666666665,3.25,3.5555555555555554,1.5,1.75,2.5,0.0,,,,,,,,,,,,
38,240725_144114,LEARNING,1.0,39,3.0,2583.0,,,,,,,,,,39.0,39.0,39.0,cue2.png,Hard,A,,,,,,,,,,,,,,,,,,,,,,,,,,,51,28,Female,1.0,1.0,0.5182876333340877,,,6.601713459750656e-06,0.05382173188903361,0.000545278787242949,0.6311000659560287,0.0002712167428768784,0.49955295503294556,,,1.998,0.9580864119440643,0.7142857142857143,0.5,0.4,1.0,2.111111111111111,3.375,1.8888888888888888,2.6666666666666665,3.25,3.5555555555555554,1.5,1.75,2.5,0.0,,,,,,,,,,,,
39,240725_144131,LEARNING,1.0,40,3.0,2583.0,,,,,,,,,,40.0,40.0,40.0,cue2.png,Hard,A,,,,,,,,,,,,,,,,,,,,,,,,,,,51,28,Female,1.0,1.0,0.4880050833332158,0.00028062540109244447,1.1156263323156461,-0.00016066278541267479,-0.23612969927322253,0.0011002995448493127,1.4087771769456894,-0.000890469450358004,-1.3733486028319355,1.996,0.7503276288078659,1.233,-0.4282202006270317,0.7142857142857143,0.5,0.4,1.0,2.111111111111111,3.375,1.8888888888888888,2.6666666666666665,3.25,3.5555555555555554,1.5,1.75,2.5,0.0,,,,,,,,,,,,
40,240725_144149,LEARNING,1.0,41,1.0,2583.0,,,,,,,,,,41.0,41.0,41.0,cue1.png,Easy,A,,,,,,,,,,,,,,,,,,,,,,,,,,,51,28,Female,1.0,1.0,0.5188201000012972,0.0001035659706101759,0.25041196639533686,0.0003863278541938993,0.7120734152875704,0.00014747258158875724,0.07370689370584611,-0.0010447200225592802,-1.6220355018066464,,,1.2619999999999998,-0.3756674009347946,0.7142857142857143,0.5,0.4,1.0,2.111111111111111,3.375,1.8888888888888888,2.6666666666666665,3.25,3.5555555555555554,1.5,1.75,2.5,0.0,,,,,,,,,,,,
41,240725_144206,LEARNING,1.0,42,3.0,2583.0,,,,,,,,,,42.0,42.0,42.0,cue2.png,Hard,A,,,,,,,,,,,,,,,,,,,,,,,,,,,51,28,Female,1.0,1.0,0.4256307666667756,7.812874142827837e-06,-0.2174928179996372,0.0005774548158226931,1.0433902005680498,0.001067373483732368,1.3626422464322347,-0.0002855675291102795,-0.3981095432150357,,,,,0.7142857142857143,0.5,0.4,1.0,2.111111111111111,3.375,1.8888888888888888,2.6666666666666665,3.25,3.5555555555555554,1.5,1.75,2.5,0.0,,,,,,,,,,,,
42,240725_144223,LEARNING,1.0,43,3.0,2583.0,,,,,,,,,,43.0,43.0,43.0,cue2.png,Hard,A,,,,,,,,,,,,,,,,,,,,,,,,,,,51,28,Female,1.0,1.0,0.3903542500011099,0.00022411894716752425,0.8395032499704159,-0.00010950228528454906,-0.14744345484522262,,,,,1.492,-0.268985376365084,2.4250000000000003,1.731881083274598,0.7142857142857143,0.5,0.4,1.0,2.111111111111111,3.375,1.8888888888888888,2.6666666666666665,3.25,3.5555555555555554,1.5,1.75,2.5,0.0,,,,,,,,,,,,
43,240725_144242,LEARNING,1.0,44,1.0,2583.0,,,,,,,,,,44.0,44.0,44.0,cue1.png,Easy,A,,,,,,,,,,,,,,,,,,,,,,,,,,,51,28,Female,0.6875,0.75,0.704815916666727,5.539211624487617e-07,-0.25296424351511115,-0.00031157007474582905,-0.49772606197979896,-0.0006131366374738456,-0.9920341114120587,,,2.115,0.9909987550292572,1.6980000000000002,0.41443675995539947,0.7142857142857143,0.5,0.4,1.0,2.111111111111111,3.375,1.8888888888888888,2.6666666666666665,3.25,3.5555555555555554,1.5,1.75,2.5,0.0,,,,,,,,,,,,
44,240725_144259,LEARNING,1.0,45,1.0,2583.0,,,,,,,,,,45.0,45.0,45.0,cue1.png,Easy,A,,,,,,,,,,,,,,,,,,,,,,,,,,,51,28,Female,1.0,1.0,0.4170080166671444,0.0004041293065127909,1.719137554089558,,,6.371632279672523e-05,-0.043649663633736555,,,,,,,0.7142857142857143,0.5,0.4,1.0,2.111111111111111,3.375,1.8888888888888888,2.6666666666666665,3.25,3.5555555555555554,1.5,1.75,2.5,0.0,,,,,,,,,,,,
45,240725_144319,LEARNING,1.0,46,1.0,2583.0,,,,,,,,,,46.0,46.0,46.0,cue1.png,Easy,A,,,,,,,,,,,,,,,,,,,,,,,,,,,51,28,Female,0.6875,0.5833333333333334,0.4128471800002444,-1.2322946154462878e-05,-0.3158880344721672,,,,,,,1.39,-0.4752749131262764,0.7660000000000002,-1.2745014922227202,0.7142857142857143,0.5,0.4,1.0,2.111111111111111,3.375,1.8888888888888888,2.6666666666666665,3.25,3.5555555555555554,1.5,1.75,2.5,0.0,,,,,,,,,,,,
46,240725_144336,LEARNING,1.0,47,3.0,2583.0,,,,,,,,,,47.0,47.0,47.0,cue2.png,Hard,A,,,,,,,,,,,,,,,,,,,,,,,,,,,51,28,Female,0.6875,0.75,0.3948945499996625,0.00021762329154127171,0.8077617349966195,,,,,0.0008902558447792422,1.497584355495492,,,0.651,-1.4829005254850423,0.7142857142857143,0.5,0.4,1.0,2.111111111111111,3.375,1.8888888888888888,2.6666666666666665,3.25,3.5555555555555554,1.5,1.75,2.5,0.0,,,,,,,,,,,,
47,240725_144353,LEARNING,1.0,48,3.0,2583.0,,,,,,,,,,48.0,48.0,48.0,cue2.png,Hard,A,,,,,,,,,,,,,,,,,,,,,,,,,,,51,28,Female,1.0,1.0,0.3898287833326321,-5.3966598802342256e-05,-0.5193829086068088,-6.335399956982875e-05,-0.06744583682782421,,,,,1.0070000000000001,-1.2498718992001645,1.2859999999999998,-0.3321754287757014,0.7142857142857143,0.5,0.4,1.0,2.111111111111111,3.375,1.8888888888888888,2.6666666666666665,3.25,3.5555555555555554,1.5,1.75,2.5,0.0,,,,,,,,,,,,
48,240725_144410,LEARNING,1.0,49,1.0,2583.0,,,,,,,,,,49.0,49.0,49.0,cue1.png,Easy,A,,,,,,,,,,,,,,,,,,,,,,,,,,,51,28,Female,1.0,1.0,0.3478204666668413,,,,,,,-0.0003488864679377975,-0.5001940302847996,,,,,0.7142857142857143,0.5,0.4,1.0,2.111111111111111,3.375,1.8888888888888888,2.6666666666666665,3.25,3.5555555555555554,1.5,1.75,2.5,0.0,,,,,,,,,,,,
49,240725_144429,LEARNING,1.0,50,1.0,2583.0,,,,,,,,,,50.0,50.0,50.0,cue1.png,Easy,A,,,,,,,,,,,,,,,,,,,,,,,,,,,51,28,Female,1.0,1.0,0.6787151666667341,,,0.0010604420572052956,1.8806440279854744,,,,,1.137,-0.9869538621515863,,,0.7142857142857143,0.5,0.4,1.0,2.111111111111111,3.375,1.8888888888888888,2.6666666666666665,3.25,3.5555555555555554,1.5,1.75,2.5,0.0,,,,,,,,,,,,
0,240725_144621,TrueCHOICE,9.0,1,1.0,2583.0,,,,,,,,,,,1.0,1.0,,,A,,,,,,True,cue1.png,Easy,cue2.png,Hard,Left,Easy,Easy,0.0161369000015838,,,,,,,,,,,,,51,28,Female,1.0,1.0,0.5796408166667485,,,,,,,,,,,,,0.7142857142857143,0.5,0.4,1.0,2.111111111111111,3.375,1.8888888888888888,2.6666666666666665,3.25,3.5555555555555554,1.5,1.75,2.5,0.0,,,,,1.4659999999999997,-0.15709303649811485,,,,,,
1,240725_144637,TrueCHOICE,9.0,2,1.0,2583.0,,,,,,,,,,,2.0,2.0,,,A,,,,,,True,cue1.png,Easy,cue2.png,Hard,Left,Easy,Easy,0.0149787000009382,,,,,,,,,,,,,51,28,Female,,,,,,,,,,,,,,,,0.7142857142857143,0.5,0.4,1.0,2.111111111111111,3.375,1.8888888888888888,2.6666666666666665,3.25,3.5555555555555554,1.5,1.75,2.5,0.0,,,-0.0002026922608676096,-0.21186333213661473,0.8330000000000002,-2.1068948424452976,,,,,,
2,240725_144653,TrueCHOICE,9.0,3,1.0,2583.0,,,,,,,,,,,3.0,3.0,,,A,,,,,,True,cue2.png,Hard,cue1.png,Easy,Right,Easy,Easy,0.0160952000005636,,,,,,,,,,,,,51,28,Female,1.0,1.0,0.5004585666671725,,,,,,,,,,,,,0.7142857142857143,0.5,0.4,1.0,2.111111111111111,3.375,1.8888888888888888,2.6666666666666665,3.25,3.5555555555555554,1.5,1.75,2.5,0.0,-7.931410783517962e-06,-0.8239922478437096,-0.00018012457939313962,-0.1887880007919264,1.5930000000000002,0.23409942693836738,,,,,,
3,240725_144709,TrueCHOICE,9.0,4,1.0,2583.0,,,,,,,,,,,4.0,4.0,,,A,,,,,,True,cue1.png,Easy,cue2.png,Hard,Left,Easy,Easy,0.0152544000011403,,,,,,,,,,,,,51,28,Female,1.0,1.0,0.5217775000000984,,,,,,,,,,,,,0.7142857142857143,0.5,0.4,1.0,2.111111111111111,3.375,1.8888888888888888,2.6666666666666665,3.25,3.5555555555555554,1.5,1.75,2.5,0.0,0.00026616841433707876,1.6973881324774664,-0.00039537470975518864,-0.4088800862686997,1.588,0.2186981488503166,,,,,,
4,240725_144724,TrueCHOICE,9.0,5,1.0,2583.0,,,,,,,,,,,5.0,5.0,,,A,,,,,,True,cue2.png,Hard,cue1.png,Easy,Right,Easy,Easy,0.0164818000012019,,,,,,,,,,,,,51,28,Female,1.0,1.0,0.528395383333797,,,,,,,,,,,,,0.7142857142857143,0.5,0.4,1.0,2.111111111111111,3.375,1.8888888888888888,2.6666666666666665,3.25,3.5555555555555554,1.5,1.75,2.5,0.0,5.605815209007133e-05,-0.23536717920745592,5.2050359185223764e-05,0.048609608869002355,1.5799999999999998,0.1940561039094352,,,,,,
5,240725_144739,TrueCHOICE,9.0,6,1.0,2583.0,,,,,,,,,,,6.0,6.0,,,A,,,,,,True,cue2.png,Hard,cue1.png,Easy,Right,Easy,Easy,0.0162584999998216,,,,,,,,,,,,,51,28,Female,1.0,1.0,0.4877937166669047,,,,,,,,,,,,,0.7142857142857143,0.5,0.4,1.0,2.111111111111111,3.375,1.8888888888888888,2.6666666666666665,3.25,3.5555555555555554,1.5,1.75,2.5,0.0,0.00018585622400426336,0.9586150197376566,0.0007160648492234318,0.7275608069634782,,,,,,,,
6,240725_144754,TrueCHOICE,9.0,7,1.0,2583.0,,,,,,,,,,,7.0,7.0,,,A,,,,,,True,cue1.png,Easy,cue2.png,Hard,Left,Easy,Easy,0.0156566000005113,,,,,,,,,,,,,51,28,Female,,,,,,,,,,,,,,,,0.7142857142857143,0.5,0.4,1.0,2.111111111111111,3.375,1.8888888888888888,2.6666666666666665,3.25,3.5555555555555554,1.5,1.75,2.5,0.0,-3.8729795393284156e-05,-1.107299406709952,,,,,,,,,,
7,240725_144808,TrueCHOICE,9.0,8,1.0,2583.0,,,,,,,,,,,8.0,8.0,,,A,,,,,,True,cue2.png,Hard,cue1.png,Easy,Right,Easy,Easy,0.0145198999998683,,,,,,,,,,,,,51,28,Female,1.0,1.0,0.3308626333327993,,,,,,,,,,,,,0.7142857142857143,0.5,0.4,1.0,2.111111111111111,3.375,1.8888888888888888,2.6666666666666665,3.25,3.5555555555555554,1.5,1.75,2.5,0.0,,,0.0017378544109878861,1.772335066513879,,,,,,,,
8,240725_144823,TrueCHOICE,9.0,9,1.0,2583.0,,,,,,,,,,,9.0,9.0,,,A,,,,,,True,cue1.png,Easy,cue2.png,Hard,Left,Easy,Easy,0.0160623999981908,,,,,,,,,,,,,51,28,Female,1.0,1.0,0.4151394166668372,,,,,,,,,,,,,0.7142857142857143,0.5,0.4,1.0,2.111111111111111,3.375,1.8888888888888888,2.6666666666666665,3.25,3.5555555555555554,1.5,1.75,2.5,0.0,2.8448240473625316e-05,-0.4893443184540056,0.0002622296878674289,0.2635168272570599,1.5399999999999998,0.07084587920503169,,,,,,
9,240725_144838,TrueCHOICE,9.0,10,1.0,2583.0,,,,,,,,,,,10.0,10.0,,,A,,,,,,True,cue2.png,Hard,cue1.png,Easy,Right,Easy,Easy,0.0164755000005243,,,,,,,,,,,,,51,28,Female,1.0,1.0,0.3753738499993536,,,,,,,,,,,,,0.7142857142857143,0.5,0.4,1.0,2.111111111111111,3.375,1.8888888888888888,2.6666666666666665,3.25,3.5555555555555554,1.5,1.75,2.5,0.0,,,-0.0019539265885921138,-2.002490890406179,2.0189999999999997,1.5462883200402622,,,,,,
0,240725_145009,FalseCHOICE,9.0,1,2.0,2583.0,,,,,,,,,,,1.0,1.0,,,A,,,,,,False,cue1.png,Easy,cue2.png,Hard,Left,Easy,Mid,0.016058699999121,,,,,,,,,,,,,51,28,Female,0.6875,0.75,0.5390858500001438,,,,,,,,,,,,,0.7142857142857143,0.5,0.4,1.0,2.111111111111111,3.375,1.8888888888888888,2.6666666666666665,3.25,3.5555555555555554,1.5,1.75,2.5,0.0,,,,,1.4659999999999997,-0.15709303649811485,,,,,,
1,240725_145025,FalseCHOICE,9.0,2,2.0,2583.0,,,,,,,,,,,2.0,2.0,,,A,,,,,,False,cue2.png,Hard,cue1.png,Easy,Left,Hard,Mid,0.0165615000005345,,,,,,,,,,,,,51,28,Female,,,,,,,,,,,,,,,,0.7142857142857143,0.5,0.4,1.0,2.111111111111111,3.375,1.8888888888888888,2.6666666666666665,3.25,3.5555555555555554,1.5,1.75,2.5,0.0,,,-0.0002026922608676096,-0.21186333213661473,0.8330000000000002,-2.1068948424452976,,,,,,
2,240725_145041,FalseCHOICE,9.0,3,2.0,2583.0,,,,,,,,,,,3.0,3.0,,,A,,,,,,False,cue2.png,Hard,cue1.png,Easy,Left,Hard,Mid,0.0161804999988817,,,,,,,,,,,,,51,28,Female,,,,,,,,,,,,,,,,0.7142857142857143,0.5,0.4,1.0,2.111111111111111,3.375,1.8888888888888888,2.6666666666666665,3.25,3.5555555555555554,1.5,1.75,2.5,0.0,-7.931410783517962e-06,-0.8239922478437096,-0.00018012457939313962,-0.1887880007919264,1.5930000000000002,0.23409942693836738,,,,,,
3,240725_145056,FalseCHOICE,9.0,4,2.0,2583.0,,,,,,,,,,,4.0,4.0,,,A,,,,,,False,cue2.png,Hard,cue1.png,Easy,Right,Easy,Mid,0.0165041000000201,,,,,,,,,,,,,51,28,Female,1.0,1.0,0.4326197166671288,,,,,,,,,,,,,0.7142857142857143,0.5,0.4,1.0,2.111111111111111,3.375,1.8888888888888888,2.6666666666666665,3.25,3.5555555555555554,1.5,1.75,2.5,0.0,0.00026616841433707876,1.6973881324774664,-0.00039537470975518864,-0.4088800862686997,1.588,0.2186981488503166,,,,,,
4,240725_145112,FalseCHOICE,9.0,5,2.0,2583.0,,,,,,,,,,,5.0,5.0,,,A,,,,,,False,cue1.png,Easy,cue2.png,Hard,Right,Hard,Mid,0.016799599998194,,,,,,,,,,,,,51,28,Female,,,,,,,,,,,,,,,,0.7142857142857143,0.5,0.4,1.0,2.111111111111111,3.375,1.8888888888888888,2.6666666666666665,3.25,3.5555555555555554,1.5,1.75,2.5,0.0,5.605815209007133e-05,-0.23536717920745592,5.2050359185223764e-05,0.048609608869002355,1.5799999999999998,0.1940561039094352,,,,,,
5,240725_145128,FalseCHOICE,9.0,6,2.0,2583.0,,,,,,,,,,,6.0,6.0,,,A,,,,,,False,cue2.png,Hard,cue1.png,Easy,Left,Hard,Mid,0.0153286999993724,,,,,,,,,,,,,51,28,Female,0.6875,0.75,0.4778915999995661,,,,,,,,,,,,,0.7142857142857143,0.5,0.4,1.0,2.111111111111111,3.375,1.8888888888888888,2.6666666666666665,3.25,3.5555555555555554,1.5,1.75,2.5,0.0,0.00018585622400426336,0.9586150197376566,0.0007160648492234318,0.7275608069634782,,,,,,,,
6,240725_145142,FalseCHOICE,9.0,7,2.0,2583.0,,,,,,,,,,,7.0,7.0,,,A,,,,,,False,cue2.png,Hard,cue1.png,Easy,Left,Hard,Mid,0.0162698000021919,,,,,,,,,,,,,51,28,Female,1.0,1.0,0.3760754166663294,,,,,,,,,,,,,0.7142857142857143,0.5,0.4,1.0,2.111111111111111,3.375,1.8888888888888888,2.6666666666666665,3.25,3.5555555555555554,1.5,1.75,2.5,0.0,-3.8729795393284156e-05,-1.107299406709952,,,,,,,,,,
7,240725_145200,FalseCHOICE,9.0,8,2.0,2583.0,,,,,,,,,,,8.0,8.0,,,A,,,,,,False,cue1.png,Easy,cue2.png,Hard,Left,Easy,Mid,0.0152113000003737,,,,,,,,,,,,,51,28,Female,,,,,,,,,,,,,,,,0.7142857142857143,0.5,0.4,1.0,2.111111111111111,3.375,1.8888888888888888,2.6666666666666665,3.25,3.5555555555555554,1.5,1.75,2.5,0.0,,,0.0017378544109878861,1.772335066513879,,,,,,,,
8,240725_145218,FalseCHOICE,9.0,9,2.0,2583.0,,,,,,,,,,,9.0,9.0,,,A,,,,,,False,cue1.png,Easy,cue2.png,Hard,Right,Hard,Mid,0.0165745000012975,,,,,,,,,,,,,51,28,Female,1.0,1.0,0.7003985833337841,,,,,,,,,,,,,0.7142857142857143,0.5,0.4,1.0,2.111111111111111,3.375,1.8888888888888888,2.6666666666666665,3.25,3.5555555555555554,1.5,1.75,2.5,0.0,2.8448240473625316e-05,-0.4893443184540056,0.0002622296878674289,0.2635168272570599,1.5399999999999998,0.07084587920503169,,,,,,
9,240725_145233,FalseCHOICE,9.0,10,2.0,2583.0,,,,,,,,,,,10.0,10.0,,,A,,,,,,False,cue2.png,Hard,cue1.png,Easy,Right,Easy,Mid,0.016968200001429,,,,,,,,,,,,,51,28,Female,,,,,,,,,,,,,,,,0.7142857142857143,0.5,0.4,1.0,2.111111111111111,3.375,1.8888888888888888,2.6666666666666665,3.25,3.5555555555555554,1.5,1.75,2.5,0.0,,,-0.0019539265885921138,-2.002490890406179,2.0189999999999997,1.5462883200402622,,,,,,
0,240725_142929,OFFLINERATING,9.0,1,1.0,,,,,,,,,,,,,,,,,T0,cue1.png,Easy,7.0,1.341774100001203,,,,,,,,,,,,,,,,,,,,,,51,28,Female,,,,,,,,,,,,,,,,0.7142857142857143,0.5,0.4,1.0,2.111111111111111,3.375,1.8888888888888888,2.6666666666666665,3.25,3.5555555555555554,1.5,1.75,2.5,0.0,,,,,,,,,,,1.5850000000000002,-0.3872451697377093
1,240725_142937,OFFLINERATING,9.0,2,3.0,,,,,,,,,,,,,,,,,T0,cue2.png,Hard,7.0,1.468922699998075,,,,,,,,,,,,,,,,,,,,,,51,28,Female,,,,,,,,,,,,,,,,0.7142857142857143,0.5,0.4,1.0,2.111111111111111,3.375,1.8888888888888888,2.6666666666666665,3.25,3.5555555555555554,1.5,1.75,2.5,0.0,,,,,,,,,,,,
2,240725_144458,OFFLINERATING,9.0,3,1.0,,,,,,,,,,,,,,,,,T1,cue1.png,Easy,48.0,1.6984948999997869,,,,,,,,,,,,,,,,,,,,,,51,28,Female,,,,,,,,,,,,,,,,0.7142857142857143,0.5,0.4,1.0,2.111111111111111,3.375,1.8888888888888888,2.6666666666666665,3.25,3.5555555555555554,1.5,1.75,2.5,0.0,,,,,,,,,0.00016285323959507698,0.7884573089548496,,
3,240725_144506,OFFLINERATING,9.0,4,3.0,,,,,,,,,,,,,,,,,T1,cue2.png,Hard,3.0,1.0182284000002255,,,,,,,,,,,,,,,,,,,,,,51,28,Female,,,,,,,,,,,,,,,,0.7142857142857143,0.5,0.4,1.0,2.111111111111111,3.375,1.8888888888888888,2.6666666666666665,3.25,3.5555555555555554,1.5,1.75,2.5,0.0,,,,,,,3.986817722137232e-05,-0.927936984630313,0.00019327063415284585,0.8736547838896617,1.456,-0.9843124234767291
4,240725_144901,OFFLINERATING,9.0,5,1.0,,,,,,,,,,,,,,,,,T2,cue1.png,Easy,85.0,0.801524899998185,,,,,,,,,,,,,,,,,,,,,,51,28,Female,,,,,,,,,,,,,,,,0.7142857142857143,0.5,0.4,1.0,2.111111111111111,3.375,1.8888888888888888,2.6666666666666665,3.25,3.5555555555555554,1.5,1.75,2.5,0.0,,,,,,,0.00013733597649809737,1.3881977465678024,-0.0006957597760563388,-1.616471250614409,,
5,240725_144908,OFFLINERATING,9.0,6,3.0,,,,,,,,,,,,,,,,,T2,cue2.png,Hard,3.0,0.9015422000011312,,,,,,,,,,,,,,,,,,,,,,51,28,Female,,,,,,,,,,,,,,,,0.7142857142857143,0.5,0.4,1.0,2.111111111111111,3.375,1.8888888888888888,2.6666666666666665,3.25,3.5555555555555554,1.5,1.75,2.5,0.0,,,,,,,5.954897194627214e-05,-0.460260761937489,,,,
6,240725_150310,OFFLINERATING,9.0,7,1.0,,,,,,,,,,,,,,,,,T3,cue1.png,Easy,52.0,1.0140532000004896,,,,,,,,,,,,,,,,,,,,,,51,28,Female,,,,,,,,,,,,,,,,0.7142857142857143,0.5,0.4,1.0,2.111111111111111,3.375,1.8888888888888888,2.6666666666666665,3.25,3.5555555555555554,1.5,1.75,2.5,0.0,,,,,,,,,,,,
7,240725_150317,OFFLINERATING,9.0,8,3.0,,,,,,,,,,,,,,,,,T3,cue2.png,Hard,47.0,0.5012800000004063,,,,,,,,,,,,,,,,,,,,,,51,28,Female,,,,,,,,,,,,,,,,0.7142857142857143,0.5,0.4,1.0,2.111111111111111,3.375,1.8888888888888888,2.6666666666666665,3.25,3.5555555555555554,1.5,1.75,2.5,0.0,,,,,,,,,-0.00013493836260804757,-0.04564084223010222,1.9649999999999999,1.3715575932144373
