,END,Phase,Block,TrialN,NbackLevel,ISI,Letter_Resp,Letter_RT,Letter_Accuracy,Trial_A_measure,Trial_ACC,Trial_RT,TrialCountCali,CaliEnd_A_measure,ISI_calibrated,TrialIndex,TrialNumber_total,TrialNumber_valid,CueLearning,TrialDemandLearning,CueMapping,OfflineRatingTimePoint,CueFigure,TrialDemand,OfflineRating,OfflineRatingRT,PhaseType,CueLeft,CueDemandLeft,CueRight,CueDemandRight,Choice,ChoiceDemand,TaskDemand,ChoiceRT,CueCheck,CueDemandCheck,CorrectAnswer,Answer,AnswerDemand,AnswerRT,AnswerACC,DemandRatingQuesIndex,QuesTLX,DemandLevel,DemandRating,DemandRatingRT,PID,Age,Gender,BAI_bis,BAI_bas_d,BAI_bas_rr,BAI_bas_fs,NFC,BFI_ext,BFI_agr,BFI_con,BFI_neu,BFI_open,UPPS_lps,UPPS_lpm,UPPS_pu,UPPS_ss,Task_A_measure,Task_ACC,Task_RT,Task_RT_z,cue_i_on_zyg_values,cue_i_on_zyg_zvalues,cue_e_on_zyg_values,cue_e_on_zyg_zvalues,cue_i_on_cor_values,cue_i_on_cor_zvalues,cue_e_on_cor_values,cue_e_on_cor_zvalues,cue_i_on_scr_values,cue_i_on_scr_zvalues,cue_e_on_scr_values,cue_e_on_scr_zvalues,cue_e_true_zyg_values,cue_e_true_zyg_zvalues,cue_e_true_cor_values,cue_e_true_cor_zvalues,cue_e_true_scr_values,cue_e_true_scr_zvalues,cue_e_false_zyg_values,cue_e_false_zyg_zvalues,cue_e_false_cor_values,cue_e_false_cor_zvalues,cue_e_false_scr_values,cue_e_false_scr_zvalues,OfflineRating_z,cue_i_off_zyg_values,cue_i_off_zyg_zvalues,cue_i_off_cor_values,cue_i_off_cor_zvalues,cue_i_off_scr_values,cue_i_off_scr_zvalues,DemandRating_z
0,240802_092818,PRACTICE,0.0,1,3.0,1750.0,,,,,,,,,,17.0,1.0,1.0,cue2.png,Hard,A,,,,,,,,,,,,,,,,,,,,,,,,,,,53,29,Female,0.2857142857142857,1.0,0.0,0.5,2.7777777777777777,3.375,2.888888888888889,2.7777777777777777,2.375,3.111111111111111,2.25,2.25,2.25,0.5,,,,,,,,,,,,,,,,,,,,,,,,,,,,,,,,,,,,
0,240802_093126,LEARNING,1.0,1,1.0,1750.0,,,,,,,,,,1.0,1.0,1.0,cue1.png,Easy,A,,,,,,,,,,,,,,,,,,,,,,,,,,,53,29,Female,0.2857142857142857,1.0,0.0,0.5,2.7777777777777777,3.375,2.888888888888889,2.7777777777777777,2.375,3.111111111111111,2.25,2.25,2.25,0.5,1.0,1.0,0.5040875875129132,-0.6649125350486909,0.011160447745048874,-0.547964703551134,0.011842448649274686,-0.757826693851657,0.020423787855300676,0.17143887219321743,0.023869435640320777,0.23718596672318282,,,,,,,,,,,,,,,,,,,,,,,,
1,240802_093148,LEARNING,1.0,2,3.0,1750.0,,,,,,,,,,2.0,2.0,2.0,cue2.png,Hard,A,,,,,,,,,,,,,,,,,,,,,,,,,,,53,29,Female,0.2857142857142857,1.0,0.0,0.5,2.7777777777777777,3.375,2.888888888888889,2.7777777777777777,2.375,3.111111111111111,2.25,2.25,2.25,0.5,0.1666666666666666,0.6666666666666667,0.7892604250228032,1.1644479111537915,0.03566525859422607,1.7468075258158837,,,0.028166482548213113,1.1816080234986757,,,2.4014089481316413e+44,-0.17127470167818307,3.5604096680764113e+44,-0.17941648841523597,,,,,,,,,,,,,,,,,,,,
2,240802_093208,LEARNING,1.0,3,1.0,1750.0,,,,,,,,,,3.0,3.0,3.0,cue1.png,Easy,A,,,,,,,,,,,,,,,,,,,,,,,,,,,53,29,Female,0.2857142857142857,1.0,0.0,0.5,2.7777777777777777,3.375,2.888888888888889,2.7777777777777777,2.375,3.111111111111111,2.25,2.25,2.25,0.5,1.0,1.0,0.5094745749956928,-0.6303554506109305,0.008990433627173808,-0.7511773774086542,0.0094426517135544,-0.9260443422583833,0.0260493523430961,0.9053915759531068,0.027243207366136772,0.5459930324510904,-1.087260579946047e+45,-0.17236826438885045,-7.7220005542384e+44,-0.1800042158806315,,,,,,,,,,,,,,,,,,,,
3,240802_093229,LEARNING,1.0,4,3.0,1750.0,,,,,,,,,,4.0,4.0,4.0,cue2.png,Hard,A,,,,,,,,,,,,,,,,,,,,,,,,,,,53,29,Female,0.2857142857142857,1.0,0.0,0.5,2.7777777777777777,3.375,2.888888888888889,2.7777777777777777,2.375,3.111111111111111,2.25,2.25,2.25,0.5,1.0,1.0,0.7097304874914698,0.6542698616622092,0.012853056829833232,-0.38945899841250864,0.03915174530854054,1.1564626342512352,0.028861607361082307,1.272299142045584,,,-1.2181191663216103e+45,-0.1724760705598937,,,,,,,,,,,,,,,,,,,,,,
4,240802_093249,LEARNING,1.0,5,3.0,1750.0,,,,,,,,,,5.0,5.0,5.0,cue2.png,Hard,A,,,,,,,,,,,,,,,,,,,,,,,,,,,53,29,Female,0.2857142857142857,1.0,0.0,0.5,2.7777777777777777,3.375,2.888888888888889,2.7777777777777777,2.375,3.111111111111111,2.25,2.25,2.25,0.5,1.0,1.0,0.5761801499902504,-0.2024446386914578,0.010649761010796469,-0.5957883632758082,0.01028212879794107,-0.8671998379901603,0.022426145908492366,0.4326812968821143,,,7.285934966186267e+48,5.8309517036271235,1.1033029439274653e+49,5.567764340109807,,,,,,,,,,,,,,,,,,,,
5,240802_093308,LEARNING,1.0,6,1.0,1750.0,,,,,,,,,,6.0,6.0,6.0,cue1.png,Easy,A,,,,,,,,,,,,,,,,,,,,,,,,,,,53,29,Female,0.2857142857142857,1.0,0.0,0.5,2.7777777777777777,3.375,2.888888888888889,2.7777777777777777,2.375,3.111111111111111,2.25,2.25,2.25,0.5,1.0,1.0,0.4502234250103356,-1.0104467353268676,0.02468523572755737,0.7185746736087343,0.014902511330904604,-0.5433266498608667,0.01696299632077834,-0.2800815591204083,0.02150800246040703,0.02103997035310762,-5.320819650285753e+43,-0.17151637357140556,,,,,,,,,,,,,,,,,,,,,,
6,240802_093328,LEARNING,1.0,7,3.0,1750.0,,,,,,,,,,7.0,7.0,7.0,cue2.png,Hard,A,,,,,,,,,,,,,,,,,,,,,,,,,,,53,29,Female,0.2857142857142857,1.0,0.0,0.5,2.7777777777777777,3.375,2.888888888888889,2.7777777777777777,2.375,3.111111111111111,2.25,2.25,2.25,0.5,1.0,1.0,0.5275024499860592,-0.5147081059183789,0.009817870348830825,-0.6736914167087876,0.020841682877103765,-0.12701081241860562,0.022400405338453905,0.4293229919480876,0.026979426423729577,0.5218487140325091,2.6351403662989806e+44,-0.17125544601453652,1.3067691192355118e+44,-0.17953388588807942,,,,,,,,,,,,,,,,,,,,
7,240802_093350,LEARNING,1.0,8,3.0,1750.0,,,,,,,,,,8.0,8.0,8.0,cue2.png,Hard,A,,,,,,,,,,,,,,,,,,,,,,,,,,,53,29,Female,0.2857142857142857,1.0,0.0,0.5,2.7777777777777777,3.375,2.888888888888889,2.7777777777777777,2.375,3.111111111111111,2.25,2.25,2.25,0.5,0.75,0.8333333333333334,0.8308993499958888,1.4315582118166787,0.008486117077124294,-0.7984044962379622,0.009643734945385188,-0.9119490878270131,,,0.018992537923326433,-0.20920477818588556,3.82311310918197e+44,-0.17115757640103907,,,,,,,,,,,,,,,,,,,,,,
8,240802_093409,LEARNING,1.0,9,1.0,1750.0,,,,,,,,,,9.0,9.0,9.0,cue1.png,Easy,A,,,,,,,,,,,,,,,,,,,,,,,,,,,53,29,Female,0.2857142857142857,1.0,0.0,0.5,2.7777777777777777,3.375,2.888888888888889,2.7777777777777777,2.375,3.111111111111111,2.25,2.25,2.25,0.5,1.0,1.0,0.4356282375083538,-1.1040736703259217,0.008098079287222842,-0.8347425993839697,,,0.02152553795688526,0.31518132998212967,0.022675333773430156,0.12788779136855874,,,,,,,,,,,,,,,,,,,,,,,,
9,240802_093429,LEARNING,1.0,10,1.0,1750.0,,,,,,,,,,10.0,10.0,10.0,cue1.png,Easy,A,,,,,,,,,,,,,,,,,,,,,,,,,,,53,29,Female,0.2857142857142857,1.0,0.0,0.5,2.7777777777777777,3.375,2.888888888888889,2.7777777777777777,2.375,3.111111111111111,2.25,2.25,2.25,0.5,1.0,1.0,0.517053349991329,-0.5817382284072049,,,,,,,0.027352525005717422,0.55599906197967,,,,,,,,,,,,,,,,,,,,,,,,
10,240802_093450,LEARNING,1.0,11,3.0,1750.0,,,,,,,,,,11.0,11.0,11.0,cue2.png,Hard,A,,,,,,,,,,,,,,,,,,,,,,,,,,,53,29,Female,0.2857142857142857,1.0,0.0,0.5,2.7777777777777777,3.375,2.888888888888889,2.7777777777777777,2.375,3.111111111111111,2.25,2.25,2.25,0.5,0.75,0.8333333333333334,0.6774222374951933,0.4470150784041085,,,,,0.024589792816385646,0.7149666571291029,0.024130552490799807,0.2610864362752653,4.759962759264107e+44,-0.17108039524203686,,,,,,,,,,,,,,,,,,,,,,
11,240802_093510,LEARNING,1.0,12,1.0,1750.0,,,,,,,,,,12.0,12.0,12.0,cue1.png,Easy,A,,,,,,,,,,,,,,,,,,,,,,,,,,,53,29,Female,0.2857142857142857,1.0,0.0,0.5,2.7777777777777777,3.375,2.888888888888889,2.7777777777777777,2.375,3.111111111111111,2.25,2.25,2.25,0.5,1.0,1.0,0.503499462531181,-0.6686853087405995,,,,,,,,,1.8648997192357902e+44,-0.1713189013041294,,,,,,,,,,,,,,,,,,,,,,
12,240802_093529,LEARNING,1.0,13,1.0,1750.0,,,,,,,,,,13.0,13.0,13.0,cue1.png,Easy,A,,,,,,,,,,,,,,,,,,,,,,,,,,,53,29,Female,0.2857142857142857,1.0,0.0,0.5,2.7777777777777777,3.375,2.888888888888889,2.7777777777777777,2.375,3.111111111111111,2.25,2.25,2.25,0.5,0.75,0.8333333333333334,0.4356919874990126,-1.1036647193459639,,,,,0.024749990382154696,0.7358672150708044,0.019554400114576563,-0.15777657594690925,,,,,,,,,,,,,,,,,,,,,,,,
13,240802_093548,LEARNING,1.0,14,1.0,1750.0,,,,,,,,,,14.0,14.0,14.0,cue1.png,Easy,A,,,,,,,,,,,,,,,,,,,,,,,,,,,53,29,Female,0.2857142857142857,1.0,0.0,0.5,2.7777777777777777,3.375,2.888888888888889,2.7777777777777777,2.375,3.111111111111111,2.25,2.25,2.25,0.5,1.0,1.0,0.4639519000047585,-0.9223796902296776,0.015559852815553166,-0.1359789655804743,0.013373038402150046,-0.6505375290595342,0.019869050017919148,0.09906367562274081,0.015651144171804535,-0.5150482328432916,,,-2.0413582164258695e+44,-0.17970829776940933,,,,,,,,,,,,,,,,,,,,
14,240802_093608,LEARNING,1.0,15,3.0,1750.0,,,,,,,,,,15.0,15.0,15.0,cue2.png,Hard,A,,,,,,,,,,,,,,,,,,,,,,,,,,,53,29,Female,0.2857142857142857,1.0,0.0,0.5,2.7777777777777777,3.375,2.888888888888889,2.7777777777777777,2.375,3.111111111111111,2.25,2.25,2.25,0.5,0.75,0.8333333333333334,0.6117778624902712,0.025911777689072768,0.014760685056901405,-0.21081765707035868,0.06260462720969512,2.800430331288387,0.02354542800495799,0.5787111082465051,0.014969522831842219,-0.5774381937053821,,,,,,,,,,,,,,,,,,,,,,,,
15,240802_093627,LEARNING,1.0,16,1.0,1750.0,,,,,,,,,,16.0,16.0,16.0,cue1.png,Easy,A,,,,,,,,,,,,,,,,,,,,,,,,,,,53,29,Female,0.2857142857142857,1.0,0.0,0.5,2.7777777777777777,3.375,2.888888888888889,2.7777777777777777,2.375,3.111111111111111,2.25,2.25,2.25,0.5,1.0,1.0,0.4539162000146461,-0.9867578854749718,0.010886296221499876,-0.5736378379715951,0.01799813248558629,-0.32633407717789054,0.022970567263316845,0.5037105289218377,0.02035128694074571,-0.08483616903570942,,,,,,,,,,,,,,,,,,,,,,,,
16,240802_093647,LEARNING,1.0,17,1.0,1750.0,,,,,,,,,,17.0,17.0,17.0,cue1.png,Easy,A,,,,,,,,,,,,,,,,,,,,,,,,,,,53,29,Female,0.2857142857142857,1.0,0.0,0.5,2.7777777777777777,3.375,2.888888888888889,2.7777777777777777,2.375,3.111111111111111,2.25,2.25,2.25,0.5,1.0,1.0,0.4517575124918949,-1.0006056895095863,0.010831527300317438,-0.5787667165471287,0.012168189969785933,-0.7349933290324553,0.02163909224715036,0.3299964616092613,0.02006036379671905,-0.11146485934447109,,,,,,,,,,,,,,,,,,,,,,,,
17,240802_093706,LEARNING,1.0,18,3.0,1750.0,,,,,,,,,,18.0,18.0,18.0,cue2.png,Hard,A,,,,,,,,,,,,,,,,,,,,,,,,,,,53,29,Female,0.2857142857142857,1.0,0.0,0.5,2.7777777777777777,3.375,2.888888888888889,2.7777777777777777,2.375,3.111111111111111,2.25,2.25,2.25,0.5,0.75,0.8333333333333334,0.4966061250015627,-0.7129055056188159,0.00964466038760488,-0.6899117993641544,0.01768239120815593,-0.34846647280007653,0.03242338201644329,1.736994577349375,0.027519362015614165,0.5712699373287039,,,,,,,,,,,,,,,,,,,,,,,,
18,240802_093726,LEARNING,1.0,19,3.0,1750.0,,,,,,,,,,19.0,19.0,19.0,cue2.png,Hard,A,,,,,,,,,,,,,,,,,,,,,,,,,,,53,29,Female,0.2857142857142857,1.0,0.0,0.5,2.7777777777777777,3.375,2.888888888888889,2.7777777777777777,2.375,3.111111111111111,2.25,2.25,2.25,0.5,0.75,0.8333333333333334,0.5915097625402268,-0.10410642703213904,0.011034647164150145,-0.5597453976059235,0.011805936345566977,-0.7603860828467011,0.020030628195851927,0.12014435842704252,0.023527670433403525,0.20590361590246112,,,,,,,,,,,,,,,,,,,,,,,,
19,240802_093746,LEARNING,1.0,20,3.0,1750.0,,,,,,,,,,20.0,20.0,20.0,cue2.png,Hard,A,,,,,,,,,,,,,,,,,,,,,,,,,,,53,29,Female,0.2857142857142857,1.0,0.0,0.5,2.7777777777777777,3.375,2.888888888888889,2.7777777777777777,2.375,3.111111111111111,2.25,2.25,2.25,0.5,0.75,0.8333333333333334,0.4823532625014195,-0.8043364537083943,0.009371337150001576,-0.7155073682976646,0.016781532279722546,-0.41161363672533713,0.021741112652118668,0.34330679735025493,0.020895987492615512,-0.03497880084563066,1.638377814729993e+44,-0.17133756302122308,1.2134798916563334e+44,-0.1795387455448543,,,,,,,,,,,,,,,,,,,,
20,240802_093805,LEARNING,1.0,21,1.0,1750.0,,,,,,,,,,21.0,21.0,21.0,cue1.png,Easy,A,,,,,,,,,,,,,,,,,,,,,,,,,,,53,29,Female,0.2857142857142857,1.0,0.0,0.5,2.7777777777777777,3.375,2.888888888888889,2.7777777777777777,2.375,3.111111111111111,2.25,2.25,2.25,0.5,1.0,1.0,0.4411100374854868,-1.0689083714856598,0.008382497294995165,-0.8081080519971355,0.015118438791848685,-0.5281908651760069,,,0.020879108706531622,-0.036523744851098175,9.681903236973131e+43,-0.17139277555965135,6.260036203445163e+43,-0.17956934857497947,,,,,,,,,,,,,,,,,,,,
21,240802_093825,LEARNING,1.0,22,3.0,1750.0,,,,,,,,,,22.0,22.0,22.0,cue2.png,Hard,A,,,,,,,,,,,,,,,,,,,,,,,,,,,53,29,Female,0.2857142857142857,1.0,0.0,0.5,2.7777777777777777,3.375,2.888888888888889,2.7777777777777777,2.375,3.111111111111111,2.25,2.25,2.25,0.5,0.75,0.8333333333333334,0.599833962507546,-0.0507073645566832,0.010486865255893698,-0.6110428639913362,0.01124824442305831,-0.7994784003438382,0.03169640647399929,1.6421479773145427,0.048852623883083916,2.5239396894901454,4.483783646977897e+42,-0.1714688447721718,3.599730116533062e+41,-0.1796017710674831,,,,,,,,,,,,,,,,,,,,
22,240802_093845,LEARNING,1.0,23,3.0,1750.0,,,,,,,,,,23.0,23.0,23.0,cue2.png,Hard,A,,,,,,,,,,,,,,,,,,,,,,,,,,,53,29,Female,0.2857142857142857,1.0,0.0,0.5,2.7777777777777777,3.375,2.888888888888889,2.7777777777777777,2.375,3.111111111111111,2.25,2.25,2.25,0.5,1.0,1.0,0.5201167375053046,-0.5620868478676289,,,,,0.019985716881219123,0.11428489652314472,0.04171863780845898,1.870953807312285,-7.370761448555707e+43,-0.17153326175446287,-5.990662793487652e+43,-0.17963316536703822,,,,,,,,,,,,,,,,,,,,
23,240802_093906,LEARNING,1.0,24,3.0,1750.0,,,,,,,,,,24.0,24.0,24.0,cue2.png,Hard,A,,,,,,,,,,,,,,,,,,,,,,,,,,,53,29,Female,0.2857142857142857,1.0,0.0,0.5,2.7777777777777777,3.375,2.888888888888889,2.7777777777777777,2.375,3.111111111111111,2.25,2.25,2.25,0.5,0.75,0.8333333333333334,0.7152245875040535,0.6895140642246378,0.00910412490139893,-0.7405306688737904,0.0170669803499438,-0.39160469246837437,0.021414625939017953,0.3007109287326587,0.02000991390288488,-0.11608262395551534,-1.3425076180657254e+44,-0.17158313945126796,-9.68167924018277e+43,-0.17965239274574724,,,,,,,,,,,,,,,,,,,,
24,240802_093925,LEARNING,1.0,25,1.0,1750.0,,,,,,,,,,25.0,25.0,25.0,cue1.png,Easy,A,,,,,,,,,,,,,,,,,,,,,,,,,,,53,29,Female,0.2857142857142857,1.0,0.0,0.5,2.7777777777777777,3.375,2.888888888888889,2.7777777777777777,2.375,3.111111111111111,2.25,2.25,2.25,0.5,1.0,1.0,0.4484525625302922,-1.0218066734084286,0.015036101049512281,-0.18502611045296408,,,0.01730795437219331,-0.2350757832433317,0.06073616222567398,3.611660170979671,-1.4589521323009991e+44,-0.1715927325834929,-1.068386814787189e+44,-0.17965761338508723,,,,,,,,,,,,,,,,,,,,
25,240802_093944,LEARNING,1.0,26,1.0,1750.0,,,,,,,,,,26.0,26.0,26.0,cue1.png,Easy,A,,,,,,,,,,,,,,,,,,,,,,,,,,,53,29,Female,0.2857142857142857,1.0,0.0,0.5,2.7777777777777777,3.375,2.888888888888889,2.7777777777777777,2.375,3.111111111111111,2.25,2.25,2.25,0.5,1.0,1.0,0.448188399997889,-1.0235012544644884,0.029594208991901065,1.1782793247099004,0.045713945919996654,1.61645070190872,0.012506993221598968,-0.8614446436073847,0.02321685495927928,0.17745414677783558,-1.1592953413566573e+44,-0.17156804574241233,-8.19686650953557e+43,-0.17964465800462745,,,,,,,,,,,,,,,,,,,,
26,240802_094004,LEARNING,1.0,27,3.0,1750.0,,,,,,,,,,27.0,27.0,27.0,cue2.png,Hard,A,,,,,,,,,,,,,,,,,,,,,,,,,,,53,29,Female,0.2857142857142857,1.0,0.0,0.5,2.7777777777777777,3.375,2.888888888888889,2.7777777777777777,2.375,3.111111111111111,2.25,2.25,2.25,0.5,0.75,0.8333333333333334,0.5683389125042595,-0.2527455363204418,0.014711695262473677,-0.21540534478878576,0.021021280821011845,-0.11442160400133904,0.011838847751845077,-0.9486158377328234,0.015265361559598048,-0.550359571655202,,,2.426275730641181e+44,-0.17947556813768298,,,,,,,,,,,,,,,,,,,,
27,240802_094025,LEARNING,1.0,28,1.0,1750.0,,,,,,,,,,28.0,28.0,28.0,cue1.png,Easy,A,,,,,,,,,,,,,,,,,,,,,,,,,,,53,29,Female,0.2857142857142857,1.0,0.0,0.5,2.7777777777777777,3.375,2.888888888888889,2.7777777777777777,2.375,3.111111111111111,2.25,2.25,2.25,0.5,0.75,0.8333333333333334,0.6050179499870865,-0.01745250854904736,0.03892165122805336,2.0517549677698423,,,0.043917790692961325,3.2366400519598035,0.019185550190843725,-0.19153803697591557,1.047972100490063e+43,-0.17146390509594361,1.1967355459913867e+43,-0.17959572450710126,,,,,,,,,,,,,,,,,,,,
28,240802_094044,LEARNING,1.0,29,1.0,1750.0,,,,,,,,,,29.0,29.0,29.0,cue1.png,Easy,A,,,,,,,,,,,,,,,,,,,,,,,,,,,53,29,Female,0.2857142857142857,1.0,0.0,0.5,2.7777777777777777,3.375,2.888888888888889,2.7777777777777777,2.375,3.111111111111111,2.25,2.25,2.25,0.5,1.0,1.0,0.4824307875096565,-0.8038391371164684,0.009465395306376658,-0.706699218480738,0.04045492355665354,1.2478110217290985,0.00931923313854515,-1.277343374654032,0.02023176014604508,-0.09577665990085121,8.050457728543654e+43,-0.1714062160146036,5.562370543072097e+43,-0.17957298288061263,,,,,,,,,,,,,,,,,,,,
29,240802_094106,LEARNING,1.0,30,3.0,1750.0,,,,,,,,,,30.0,30.0,30.0,cue2.png,Hard,A,,,,,,,,,,,,,,,,,,,,,,,,,,,53,29,Female,0.2857142857142857,1.0,0.0,0.5,2.7777777777777777,3.375,2.888888888888889,2.7777777777777777,2.375,3.111111111111111,2.25,2.25,2.25,0.5,0.75,0.8333333333333334,0.7671202000055928,1.0224201771305508,0.012653518172426673,-0.4081449524694495,0.00896084240960372,-0.9598175448509344,0.01300377065444242,-0.7966313896142313,0.011815413997850965,-0.8661391412408093,1.1756239230265374e+44,-0.1713756864081415,8.412438717495279e+43,-0.17955813620059166,,,,,,,,,,,,,,,,,,,,
30,240802_094127,LEARNING,1.0,31,3.0,1750.0,,,,,,,,,,31.0,31.0,31.0,cue2.png,Hard,A,,,,,,,,,,,,,,,,,,,,,,,,,,,53,29,Female,0.2857142857142857,1.0,0.0,0.5,2.7777777777777777,3.375,2.888888888888889,2.7777777777777777,2.375,3.111111111111111,2.25,2.25,2.25,0.5,0.75,0.8333333333333334,0.666079262518906,0.37425082096263756,0.04308870987228918,2.4419824424396666,0.03138627706929575,0.6121295756748417,0.020936334667223246,0.23830951588243468,0.012061219648955845,-0.8436401318157787,,,9.071942944884317e+43,-0.1795547006868996,,,,,,,,,,,,,,,,,,,,
31,240802_094146,LEARNING,1.0,32,1.0,1750.0,,,,,,,,,,32.0,32.0,32.0,cue1.png,Easy,A,,,,,,,,,,,,,,,,,,,,,,,,,,,53,29,Female,0.2857142857142857,1.0,0.0,0.5,2.7777777777777777,3.375,2.888888888888889,2.7777777777777777,2.375,3.111111111111111,2.25,2.25,2.25,0.5,1.0,1.0,0.4848201874847291,-0.7885113315557323,,,0.030068467767693764,0.5197556008337328,0.012505508069270034,-0.8616384075522618,0.01684794645495296,-0.4055028837944797,1.0302510829216941e+44,-0.17138766276345715,7.301496059032274e+43,-0.17956392336397248,,,,,,,,,,,,,,,,,,,,
32,240802_094206,LEARNING,1.0,33,1.0,1750.0,,,,,,,,,,33.0,33.0,33.0,cue1.png,Easy,A,,,,,,,,,,,,,,,,,,,,,,,,,,,53,29,Female,0.2857142857142857,1.0,0.0,0.5,2.7777777777777777,3.375,2.888888888888889,2.7777777777777777,2.375,3.111111111111111,2.25,2.25,2.25,0.5,1.0,1.0,0.58343379998405,-0.1559130668029054,0.009830105127254494,-0.6725456812884288,0.011585066535733823,-0.7758683094722728,0.0096053826286526,-1.2400101981524538,0.014124933317486201,-0.6547449088210168,5.55922320945886e+43,-0.17142673973124398,4.0658363075843737e+43,-0.1795807786818268,,,,,,,,,,,,,,,,,,,,
33,240802_094228,LEARNING,1.0,34,1.0,1750.0,,,,,,,,,,34.0,34.0,34.0,cue1.png,Easy,A,,,,,,,,,,,,,,,,,,,,,,,,,,,53,29,Female,0.2857142857142857,1.0,0.0,0.5,2.7777777777777777,3.375,2.888888888888889,2.7777777777777777,2.375,3.111111111111111,2.25,2.25,2.25,0.5,1.0,1.0,0.7562685000157217,0.952807408576331,,,,,,,,,-1.6020147176172221e+43,-0.17148573667307493,-7.469477717930327e+42,-0.17960584961377069,,,,,,,,,,,,,,,,,,,,
34,240802_094250,LEARNING,1.0,35,3.0,1750.0,,,,,,,,,,35.0,35.0,35.0,cue2.png,Hard,A,,,,,,,,,,,,,,,,,,,,,,,,,,,53,29,Female,0.2857142857142857,1.0,0.0,0.5,2.7777777777777777,3.375,2.888888888888889,2.7777777777777777,2.375,3.111111111111111,2.25,2.25,2.25,0.5,0.75,0.8333333333333334,0.7491229500010377,0.9069692892190795,0.00855088880653529,-0.7923388968413678,0.01193372310004435,-0.7514286635685323,0.009330654316696801,-1.2758532833747098,0.007177568798350532,-1.2906490025330972,-6.776444442032245e+43,-0.17152836554989317,,,,,,,,,,,,,,,,,,,,,,
35,240802_094314,LEARNING,1.0,36,3.0,1750.0,,,,,,,,,,36.0,36.0,36.0,cue2.png,Hard,A,,,,,,,,,,,,,,,,,,,,,,,,,,,53,29,Female,0.2857142857142857,1.0,0.0,0.5,2.7777777777777777,3.375,2.888888888888889,2.7777777777777777,2.375,3.111111111111111,2.25,2.25,2.25,0.5,0.1666666666666666,0.6666666666666667,1.114826537494082,3.252927914997814,0.04129716228873998,2.2742115639937173,,,,,,,-1.045433898313283e+44,-0.17155866541320053,-7.610581692512341e+43,-0.17964160390818246,,,,,,,,,,,,,,,,,,,,
36,240802_094334,LEARNING,1.0,37,1.0,1750.0,,,,,,,,,,37.0,37.0,37.0,cue1.png,Easy,A,,,,,,,,,,,,,,,,,,,,,,,,,,,53,29,Female,0.2857142857142857,1.0,0.0,0.5,2.7777777777777777,3.375,2.888888888888889,2.7777777777777777,2.375,3.111111111111111,2.25,2.25,2.25,0.5,1.0,1.0,0.5055218250054168,-0.6557120187507257,0.03366305160704366,1.5593092823113812,,,0.019400797534806294,0.03797199730875841,,,-1.124312482316995e+44,-0.17156516372435784,-8.070699566159861e+43,-0.17964400077114287,,,,,,,,,,,,,,,,,,,,
37,240802_094357,LEARNING,1.0,38,3.0,1750.0,,,,,,,,,,38.0,38.0,38.0,cue2.png,Hard,A,,,,,,,,,,,,,,,,,,,,,,,,,,,53,29,Female,0.2857142857142857,1.0,0.0,0.5,2.7777777777777777,3.375,2.888888888888889,2.7777777777777777,2.375,3.111111111111111,2.25,2.25,2.25,0.5,0.75,0.8333333333333334,1.0110932249808684,2.587487193075437,0.01111591418837199,-0.5521350833906702,0.03505673755155167,0.8694164409527113,,,,,-8.133384904299622e+43,-0.17153954453016665,-5.966083493664346e+43,-0.17963303732764505,,,,,,,,,,,,,,,,,,,,
38,240802_094417,LEARNING,1.0,39,3.0,1750.0,,,,,,,,,,39.0,39.0,39.0,cue2.png,Hard,A,,,,,,,,,,,,,,,,,,,,,,,,,,,53,29,Female,0.2857142857142857,1.0,0.0,0.5,2.7777777777777777,3.375,2.888888888888889,2.7777777777777777,2.375,3.111111111111111,2.25,2.25,2.25,0.5,0.75,0.8333333333333334,0.5343108625238528,-0.4710326959220227,0.036711791395810475,1.8448109107421624,0.015372448610248998,-0.5103856360386944,0.010508888264661589,-1.1221321779378164,0.014337258592911066,-0.6353104151408127,,,-1.2390109126147542e+43,-0.1796084128871925,,,,,,,,,,,,,,,,,,,,
39,240802_094440,LEARNING,1.0,40,3.0,1750.0,,,,,,,,,,40.0,40.0,40.0,cue2.png,Hard,A,,,,,,,,,,,,,,,,,,,,,,,,,,,53,29,Female,0.2857142857142857,1.0,0.0,0.5,2.7777777777777777,3.375,2.888888888888889,2.7777777777777777,2.375,3.111111111111111,2.25,2.25,2.25,0.5,0.75,0.8333333333333334,0.9094610875035868,1.9355253372850727,0.006327187836840664,-1.0005791180403443,0.052703108126920487,2.106367333304456,0.011897036874197343,-0.9410240549397341,0.013146951029939333,-0.7442612914026422,4.101186429245676e+43,-0.1714387515805898,3.3771514248212347e+43,-0.17958436620446272,,,,,,,,,,,,,,,,,,,,
40,240802_094500,LEARNING,1.0,41,1.0,1750.0,,,,,,,,,,41.0,41.0,41.0,cue1.png,Easy,A,,,,,,,,,,,,,,,,,,,,,,,,,,,53,29,Female,0.2857142857142857,1.0,0.0,0.5,2.7777777777777777,3.375,2.888888888888889,2.7777777777777777,2.375,3.111111111111111,2.25,2.25,2.25,0.5,1.0,1.0,0.4989468374842545,-0.6978900263426023,,,0.030713945562347217,0.5650014110517435,,,,,9.65795873802742e+43,-0.17139297282334037,6.984181647248937e+43,-0.17956557632988399,,,,,,,,,,,,,,,,,,,,
41,240802_094521,LEARNING,1.0,42,3.0,1750.0,,,,,,,,,,42.0,42.0,42.0,cue2.png,Hard,A,,,,,,,,,,,,,,,,,,,,,,,,,,,53,29,Female,0.2857142857142857,1.0,0.0,0.5,2.7777777777777777,3.375,2.888888888888889,2.7777777777777777,2.375,3.111111111111111,2.25,2.25,2.25,0.5,0.1666666666666666,0.6666666666666667,0.726278412505053,0.7604234482061024,,,0.033129868040986804,0.7343494054759974,0.009495140185734907,-1.254393241707296,0.01083974638709025,-0.9554436575183304,,,8.267021864431557e+43,-0.1795588937114142,,,,,,,,,,,,,,,,,,,,
42,240802_094543,LEARNING,1.0,43,3.0,1750.0,,,,,,,,,,43.0,43.0,43.0,cue2.png,Hard,A,,,,,,,,,,,,,,,,,,,,,,,,,,,53,29,Female,0.2857142857142857,1.0,0.0,0.5,2.7777777777777777,3.375,2.888888888888889,2.7777777777777777,2.375,3.111111111111111,2.25,2.25,2.25,0.5,1.0,1.0,0.7388553375203628,0.8411033943004228,,,0.017289133782305323,-0.37603248824513585,,,,,8.957309403770765e+43,-0.17139874503317867,6.297990989822949e+43,-0.17956915085950947,,,,,,,,,,,,,,,,,,,,
43,240802_094603,LEARNING,1.0,44,1.0,1750.0,,,,,,,,,,44.0,44.0,44.0,cue1.png,Easy,A,,,,,,,,,,,,,,,,,,,,,,,,,,,53,29,Female,0.2857142857142857,1.0,0.0,0.5,2.7777777777777777,3.375,2.888888888888889,2.7777777777777777,2.375,3.111111111111111,2.25,2.25,2.25,0.5,1.0,1.0,0.5632460250490112,-0.28541599311760746,0.01874214790075948,0.1620295533233884,0.007215307804633639,-1.082173616771036,0.008926179757081334,-1.3286240226091293,0.014385048493885683,-0.6309361242015437,2.0436061646844144e+43,-0.17145570269217372,,,,,,,,,,,,,,,,,,,,,,
44,240802_094624,LEARNING,1.0,45,1.0,1750.0,,,,,,,,,,45.0,45.0,45.0,cue1.png,Easy,A,,,,,,,,,,,,,,,,,,,,,,,,,,,53,29,Female,0.2857142857142857,1.0,0.0,0.5,2.7777777777777777,3.375,2.888888888888889,2.7777777777777777,2.375,3.111111111111111,2.25,2.25,2.25,0.5,1.0,1.0,0.6843301749759121,0.4913289327754189,0.026729345356759547,0.9099969228864665,0.04883928609796537,1.835526477606033,0.017561962117521313,-0.201936056223244,0.04668332863538243,2.3253804049320985,-6.501526725073614e+43,-0.1715261006754789,-4.526187031867731e+43,-0.1796255365660059,,,,,,,,,,,,,,,,,,,,
45,240802_094643,LEARNING,1.0,46,1.0,1750.0,,,,,,,,,,46.0,46.0,46.0,cue1.png,Easy,A,,,,,,,,,,,,,,,,,,,,,,,,,,,53,29,Female,0.2857142857142857,1.0,0.0,0.5,2.7777777777777777,3.375,2.888888888888889,2.7777777777777777,2.375,3.111111111111111,2.25,2.25,2.25,0.5,1.0,1.0,0.5079885499872034,-0.6398881795914874,0.011552132092688875,-0.5112851156459618,0.009167533891740659,-0.9453291710417809,0.011323837660918249,-1.0158078589992088,0.011444970545379825,-0.9000464606662396,-1.2039260808427022e+44,-0.17157172258874553,-8.698112387433756e+43,-0.17964726911310117,,,,,,,,,,,,,,,,,,,,
46,240802_094705,LEARNING,1.0,47,3.0,1750.0,,,,,,,,,,47.0,47.0,47.0,cue2.png,Hard,A,,,,,,,,,,,,,,,,,,,,,,,,,,,53,29,Female,0.2857142857142857,1.0,0.0,0.5,2.7777777777777777,3.375,2.888888888888889,2.7777777777777777,2.375,3.111111111111111,2.25,2.25,2.25,0.5,0.75,0.8333333333333334,0.7892295999918133,1.1642501710992395,,,0.0178253573512565,-0.3384450297203773,0.008721566468080765,-1.3553193839391748,0.010044580415780179,-1.0282265516566569,-9.404313709908359e+43,-0.17155001491441854,,,,,,,,,,,,,,,,,,,,,,
47,240802_094727,LEARNING,1.0,48,3.0,1750.0,,,,,,,,,,48.0,48.0,48.0,cue2.png,Hard,A,,,,,,,,,,,,,,,,,,,,,,,,,,,53,29,Female,0.2857142857142857,1.0,0.0,0.5,2.7777777777777777,3.375,2.888888888888889,2.7777777777777777,2.375,3.111111111111111,2.25,2.25,2.25,0.5,0.75,0.8333333333333334,0.8521293625090038,1.5677470070154134,0.008095953450830905,-0.8349416750000362,0.04727371528470936,1.7257852587969982,0.022769623393425406,0.47749390711779294,0.016310181478909384,-0.454725426929964,2.615493489137586e+43,-0.1714509912716682,3.556639854405454e+43,-0.1795834312067299,,,,,,,,,,,,,,,,,,,,
48,240802_094747,LEARNING,1.0,49,1.0,1750.0,,,,,,,,,,49.0,49.0,49.0,cue1.png,Easy,A,,,,,,,,,,,,,,,,,,,,,,,,,,,53,29,Female,0.2857142857142857,1.0,0.0,0.5,2.7777777777777777,3.375,2.888888888888889,2.7777777777777777,2.375,3.111111111111111,2.25,2.25,2.25,0.5,1.0,1.0,0.5443384500249522,-0.406706541630735,0.028395855652786635,1.066058586484477,0.011796121371669448,-0.7610740793199194,0.012040455406522045,-0.9223126136617332,0.015243018382488871,-0.5524046806675657,,,,,,,,,,,,,,,,,,,,,,,,
49,240802_094807,LEARNING,1.0,50,1.0,1750.0,,,,,,,,,,50.0,50.0,50.0,cue1.png,Easy,A,,,,,,,,,,,,,,,,,,,,,,,,,,,53,29,Female,0.2857142857142857,1.0,0.0,0.5,2.7777777777777777,3.375,2.888888888888889,2.7777777777777777,2.375,3.111111111111111,2.25,2.25,2.25,0.5,1.0,1.0,0.5522866625105962,-0.3557194081217603,0.01851289221233177,0.140560724591499,0.021376134804038258,-0.08954754000702571,,,0.011286584309726786,-0.9145438222717803,-3.931045948071106e+43,-0.1715049240986883,-6.307243116317118e+43,-0.17963481450890653,,,,,,,,,,,,,,,,,,,,
0,240802_094958,TrueCHOICE,9.0,1,3.0,1750.0,,,,,,,,,,,2.0,1.0,,,A,,,,,,True,cue1.png,Easy,cue2.png,Hard,Right,Hard,Hard,0.0166301999706774,,,,,,,,,,,,,53,29,Female,0.2857142857142857,1.0,0.0,0.5,2.7777777777777777,3.375,2.888888888888889,2.7777777777777777,2.375,3.111111111111111,2.25,2.25,2.25,0.5,1.0,1.0,0.6181486374844098,1.6471241738056097,,,,,,,,,,,,,,,,,,,,,,,,,,,,,,,,
1,240802_095015,TrueCHOICE,9.0,2,1.0,1750.0,,,,,,,,,,,3.0,2.0,,,A,,,,,,True,cue1.png,Easy,cue2.png,Hard,Left,Easy,Easy,0.0162021999713033,,,,,,,,,,,,,53,29,Female,0.2857142857142857,1.0,0.0,0.5,2.7777777777777777,3.375,2.888888888888889,2.7777777777777777,2.375,3.111111111111111,2.25,2.25,2.25,0.5,1.0,1.0,0.5145870625274256,0.4584987549051887,,,,,,,,,,,,,,,0.01621537341452187,-0.11515109445736892,,,,,,,,,,,,,,,,
2,240802_095035,TrueCHOICE,9.0,3,3.0,1750.0,,,,,,,,,,,4.0,3.0,,,A,,,,,,True,cue2.png,Hard,cue1.png,Easy,Left,Hard,Hard,0.0160701000131666,,,,,,,,,,,,,53,29,Female,0.2857142857142857,1.0,0.0,0.5,2.7777777777777777,3.375,2.888888888888889,2.7777777777777777,2.375,3.111111111111111,2.25,2.25,2.25,0.5,1.0,1.0,0.6549608624918619,2.069635577174223,,,,,,,,,,,,,,,,,7505138.846245195,-0.5368198578265013,,,,,,,,,,,,,,
3,240802_095052,TrueCHOICE,9.0,4,3.0,1750.0,,,,,,,,,,,5.0,4.0,,,A,,,,,,True,cue1.png,Easy,cue2.png,Hard,Right,Hard,Hard,0.0167557999957352,,,,,,,,,,,,,53,29,Female,0.2857142857142857,1.0,0.0,0.5,2.7777777777777777,3.375,2.888888888888889,2.7777777777777777,2.375,3.111111111111111,2.25,2.25,2.25,0.5,0.75,0.8333333333333334,0.4361885249963961,-0.44131852339235167,,,,,,,,,,,,,0.020490513459891797,1.3059336845655851,0.014898415213409932,-0.9405891207132645,,,,,,,,,,,,,,,,
4,240802_095108,TrueCHOICE,9.0,5,1.0,1750.0,,,,,,,,,,,6.0,5.0,,,A,,,,,,True,cue2.png,Hard,cue1.png,Easy,Right,Easy,Easy,0.016653100028634,,,,,,,,,,,,,53,29,Female,0.2857142857142857,1.0,0.0,0.5,2.7777777777777777,3.375,2.888888888888889,2.7777777777777777,2.375,3.111111111111111,2.25,2.25,2.25,0.5,1.0,1.0,0.4048130375012988,-0.8014299062344471,,,,,,,,,,,,,0.018522557120015645,0.865471338999677,,,394340650184.6045,1.9967448749615433,,,,,,,,,,,,,,
5,240802_095125,TrueCHOICE,9.0,6,1.0,1750.0,,,,,,,,,,,7.0,6.0,,,A,,,,,,True,cue2.png,Hard,cue1.png,Easy,Right,Easy,Easy,0.0165837999666109,,,,,,,,,,,,,53,29,Female,0.2857142857142857,1.0,0.0,0.5,2.7777777777777777,3.375,2.888888888888889,2.7777777777777777,2.375,3.111111111111111,2.25,2.25,2.25,0.5,1.0,1.0,0.4259510499832686,-0.5588188900197966,,,,,,,,,,,,,0.015016714226634946,0.08080363437915043,,,1328410.7615898028,-0.5368595429015094,,,,,,,,,,,,,,
6,240802_095141,TrueCHOICE,9.0,7,1.0,1750.0,,,,,,,,,,,8.0,7.0,,,A,,,,,,True,cue1.png,Easy,cue2.png,Hard,Left,Easy,Easy,0.0161461000097915,,,,,,,,,,,,,53,29,Female,0.2857142857142857,1.0,0.0,0.5,2.7777777777777777,3.375,2.888888888888889,2.7777777777777777,2.375,3.111111111111111,2.25,2.25,2.25,0.5,1.0,1.0,0.4137806999642635,-0.6985037817908358,,,,,,,,,,,,,0.00945879249887316,-1.1631544713356048,0.017974658713242362,0.9875270189183989,,,,,,,,,,,,,,,,
7,240802_095158,TrueCHOICE,9.0,8,1.0,1750.0,,,,,,,,,,,9.0,8.0,,,A,,,,,,True,cue2.png,Hard,cue1.png,Easy,Right,Easy,Easy,0.0167897000210359,,,,,,,,,,,,,53,29,Female,0.2857142857142857,1.0,0.0,0.5,2.7777777777777777,3.375,2.888888888888889,2.7777777777777777,2.375,3.111111111111111,2.25,2.25,2.25,0.5,1.0,1.0,0.4404820624768035,-0.3920395529988088,,,,,,,,,,,,,0.009789867621599871,-1.0890541866088077,0.01455429552461324,-1.1562751436077687,399121088.83310103,-0.5343037508947119,,,,,,,,,,,,,,
8,240802_095214,TrueCHOICE,9.0,9,1.0,1750.0,,,,,,,,,,,10.0,9.0,,,A,,,,,,True,cue1.png,Easy,cue2.png,Hard,Left,Easy,Easy,0.0159626000095158,,,,,,,,,,,,,53,29,Female,0.2857142857142857,1.0,0.0,0.5,2.7777777777777777,3.375,2.888888888888889,2.7777777777777777,2.375,3.111111111111111,2.25,2.25,2.25,0.5,0.75,0.8333333333333334,0.4448210000118706,-0.34223950459915803,,,,,,,,,,,,,,,0.015764501158419535,-0.39774708334784786,23051806737.52155,-0.38876172333882086,,,,,,,,,,,,,,
9,240802_095231,TrueCHOICE,9.0,10,1.0,1750.0,,,,,,,,,,,11.0,10.0,,,A,,,,,,True,cue2.png,Hard,cue1.png,Easy,Right,Easy,Easy,0.016536800074391,,,,,,,,,,,,,53,29,Female,0.2857142857142857,1.0,0.0,0.5,2.7777777777777777,3.375,2.888888888888889,2.7777777777777777,2.375,3.111111111111111,2.25,2.25,2.25,0.5,1.0,1.0,0.3926606749882921,-0.9409083468496284,,,,,,,,,,,,,,,0.018987314311549555,1.6222354232078564,,,,,,,,,,,,,,,,
0,240802_095411,FalseCHOICE,9.0,1,2.0,1750.0,,,,,,,,,,,1.0,1.0,,,A,,,,,,False,cue1.png,Easy,cue2.png,Hard,Left,Easy,Mid,0.0160407999064773,,,,,,,,,,,,,53,29,Female,0.2857142857142857,1.0,0.0,0.5,2.7777777777777777,3.375,2.888888888888889,2.7777777777777777,2.375,3.111111111111111,2.25,2.25,2.25,0.5,1.0,1.0,0.7440979749808321,0.8087839720937385,,,,,,,,,,,,,,,,,,,,,0.01378398343251681,-0.31898317172435875,2.2765605316380392e+45,-0.1613499687519891,,,,,,,,
1,240802_095430,FalseCHOICE,9.0,2,2.0,1750.0,,,,,,,,,,,2.0,2.0,,,A,,,,,,False,cue2.png,Hard,cue1.png,Easy,Left,Hard,Mid,0.016135299927555,,,,,,,,,,,,,53,29,Female,0.2857142857142857,1.0,0.0,0.5,2.7777777777777777,3.375,2.888888888888889,2.7777777777777777,2.375,3.111111111111111,2.25,2.25,2.25,0.5,1.0,1.0,0.6996938124939334,0.43201294415709457,,,,,,,,,,,,,,,,,,,0.0159539798889207,-0.30917057981241036,0.01871007197477484,-0.08112292476853183,1.3117766419247553e+44,-0.166477748591171,,,,,,,,
2,240802_095449,FalseCHOICE,9.0,3,2.0,1750.0,,,,,,,,,,,3.0,3.0,,,A,,,,,,False,cue2.png,Hard,cue1.png,Easy,Right,Easy,Mid,0.01645210001152,,,,,,,,,,,,,53,29,Female,0.2857142857142857,1.0,0.0,0.5,2.7777777777777777,3.375,2.888888888888889,2.7777777777777777,2.375,3.111111111111111,2.25,2.25,2.25,0.5,1.0,1.0,0.6521338874881621,0.028465149774054115,,,,,,,,,,,,,,,,,,,0.05767572070778712,0.14565015559491784,0.01200610741799102,-0.40482938099247356,-4.4969351263842846e+44,-0.167866115933389,,,,,,,,
3,240802_095507,FalseCHOICE,9.0,4,2.0,1750.0,,,,,,,,,,,4.0,4.0,,,A,,,,,,False,cue2.png,Hard,cue1.png,Easy,Left,Hard,Mid,0.0159473000094294,,,,,,,,,,,,,53,29,Female,0.2857142857142857,1.0,0.0,0.5,2.7777777777777777,3.375,2.888888888888889,2.7777777777777777,2.375,3.111111111111111,2.25,2.25,2.25,0.5,0.75,0.8333333333333334,0.5368027875083499,-0.9501236729580153,,,,,,,,,,,,,,,,,,,,,0.01744648367467634,-0.14213632770143,-5.1937477993437684e+44,-0.16803266438636247,,,,,,,,
4,240802_095525,FalseCHOICE,9.0,5,2.0,1750.0,,,,,,,,,,,5.0,5.0,,,A,,,,,,False,cue1.png,Easy,cue2.png,Hard,Left,Easy,Mid,0.0172961000353097,,,,,,,,,,,,,53,29,Female,0.2857142857142857,1.0,0.0,0.5,2.7777777777777777,3.375,2.888888888888889,2.7777777777777777,2.375,3.111111111111111,2.25,2.25,2.25,0.5,0.75,0.8333333333333334,0.513267687507323,-1.1498199023958497,,,,,,,,,,,,,,,,,,,,,0.021694913320559367,0.06300260069488806,2.5800878904190456e+48,5.999997344676573,,,,,,,,
5,240802_095543,FalseCHOICE,9.0,6,2.0,1750.0,,,,,,,,,,,6.0,6.0,,,A,,,,,,False,cue2.png,Hard,cue1.png,Easy,Right,Easy,Mid,0.0166708000469952,,,,,,,,,,,,,53,29,Female,0.2857142857142857,1.0,0.0,0.5,2.7777777777777777,3.375,2.888888888888889,2.7777777777777777,2.375,3.111111111111111,2.25,2.25,2.25,0.5,0.75,0.8333333333333334,0.5170570125046652,-1.117667333932119,,,,,,,,,,,,,,,,,,,0.023114883329278142,-0.2311075051419626,0.012930900005783778,-0.3601750083744628,-3.821754560469009e+43,-0.16688262799746836,,,,,,,,
6,240802_095602,FalseCHOICE,9.0,7,2.0,1750.0,,,,,,,,,,,7.0,7.0,,,A,,,,,,False,cue2.png,Hard,cue1.png,Easy,Left,Hard,Mid,0.0152306000236421,,,,,,,,,,,,,53,29,Female,0.2857142857142857,1.0,0.0,0.5,2.7777777777777777,3.375,2.888888888888889,2.7777777777777777,2.375,3.111111111111111,2.25,2.25,2.25,0.5,0.75,0.8333333333333334,0.5812419624708127,-0.5730555628184855,,,,,,,,,,,,,,,,,,,0.022451387919971567,-0.2383404600493413,0.013629546900908684,-0.3264402669901438,4.1992053259452176e+43,-0.1666909152872545,,,,,,,,
7,240802_095621,FalseCHOICE,9.0,8,2.0,1750.0,,,,,,,,,,,8.0,8.0,,,A,,,,,,False,cue1.png,Easy,cue2.png,Hard,Right,Hard,Mid,0.0149291999405249,,,,,,,,,,,,,53,29,Female,0.2857142857142857,1.0,0.0,0.5,2.7777777777777777,3.375,2.888888888888889,2.7777777777777777,2.375,3.111111111111111,2.25,2.25,2.25,0.5,1.0,1.0,0.6340519625227898,-0.1249606795789185,,,,,,,,,,,,,,,,,,,,,,,1.6664317425096499e+44,-0.16639298081837678,,,,,,,,
8,240802_095640,FalseCHOICE,9.0,9,2.0,1750.0,,,,,,,,,,,9.0,9.0,,,A,,,,,,False,cue1.png,Easy,cue2.png,Hard,Right,Hard,Mid,0.0169153000460937,,,,,,,,,,,,,53,29,Female,0.2857142857142857,1.0,0.0,0.5,2.7777777777777777,3.375,2.888888888888889,2.7777777777777777,2.375,3.111111111111111,2.25,2.25,2.25,0.5,0.75,0.8333333333333334,0.6376161125372164,-0.09471872951281586,,,,,,,,,,,,,,,,,,,0.005368517687788919,-0.42456575768495347,0.008552676035916428,-0.5715811627232856,,,,,,,,,,
9,240802_095700,FalseCHOICE,9.0,10,2.0,1750.0,,,,,,,,,,,10.0,10.0,,,A,,,,,,False,cue2.png,Hard,cue1.png,Easy,Left,Hard,Mid,0.0157946000108495,,,,,,,,,,,,,53,29,Female,0.2857142857142857,1.0,0.0,0.5,2.7777777777777777,3.375,2.888888888888889,2.7777777777777777,2.375,3.111111111111111,2.25,2.25,2.25,0.5,0.75,0.8333333333333334,0.6432084874832071,-0.04726721283057371,,,,,,,,,,,,,,,,,,,,,,,2.3406240116144312e+44,-0.16623183897382743,,,,,,,,
10,240802_095722,FalseCHOICE,9.0,11,2.0,1750.0,,,,,,,,,,,11.0,11.0,,,A,,,,,,False,cue1.png,Easy,cue2.png,Hard,Left,Easy,Mid,0.0149840000085532,,,,,,,,,,,,,53,29,Female,0.2857142857142857,1.0,0.0,0.5,2.7777777777777777,3.375,2.888888888888889,2.7777777777777777,2.375,3.111111111111111,2.25,2.25,2.25,0.5,1.0,1.0,0.7807603250112152,1.1198654233337222,,,,,,,,,,,,,,,,,,,0.05046326801251971,0.06702512762224236,0.014266953869005753,-0.29566254597633573,,,,,,,,,,
11,240802_095741,FalseCHOICE,9.0,12,2.0,1750.0,,,,,,,,,,,12.0,12.0,,,A,,,,,,False,cue2.png,Hard,cue1.png,Easy,Right,Easy,Mid,0.0165058999555185,,,,,,,,,,,,,53,29,Female,0.2857142857142857,1.0,0.0,0.5,2.7777777777777777,3.375,2.888888888888889,2.7777777777777777,2.375,3.111111111111111,2.25,2.25,2.25,0.5,0.75,0.8333333333333334,0.7045745000214083,0.47342576569847267,,,,,,,,,,,,,,,,,,,0.0437629920789266,-0.006016513683645036,0.10720252218182441,4.191807997891382,1.7128051676093008e+44,-0.16638189688935376,,,,,,,,
12,240802_095800,FalseCHOICE,9.0,13,2.0,1750.0,,,,,,,,,,,13.0,13.0,,,A,,,,,,False,cue1.png,Easy,cue2.png,Hard,Left,Easy,Mid,0.0161322000203654,,,,,,,,,,,,,53,29,Female,0.2857142857142857,1.0,0.0,0.5,2.7777777777777777,3.375,2.888888888888889,2.7777777777777777,2.375,3.111111111111111,2.25,2.25,2.25,0.5,0.1666666666666666,0.6666666666666667,0.59706274997734,-0.4388155718410583,,,,,,,,,,,,,,,,,,,0.020729582897538165,-0.2571103534229436,0.006694767862496176,-0.6612917907722937,,,,,,,,,,
13,240802_095818,FalseCHOICE,9.0,14,2.0,1750.0,,,,,,,,,,,14.0,14.0,,,A,,,,,,False,cue2.png,Hard,cue1.png,Easy,Right,Easy,Mid,0.0177982000168412,,,,,,,,,,,,,53,29,Female,0.2857142857142857,1.0,0.0,0.5,2.7777777777777777,3.375,2.888888888888889,2.7777777777777777,2.375,3.111111111111111,2.25,2.25,2.25,0.5,1.0,1.0,0.6370896750013344,-0.09918557226876729,,,,,,,,,,,,,,,,,,,0.0083890503577505,-0.39163805947988345,0.007186537382253819,-0.6375462940335601,-8.736410701679269e+43,-0.16700009549037986,,,,,,,,
14,240802_095837,FalseCHOICE,9.0,15,2.0,1750.0,,,,,,,,,,,15.0,15.0,,,A,,,,,,False,cue1.png,Easy,cue2.png,Hard,Left,Easy,Mid,0.0160767000634223,,,,,,,,,,,,,53,29,Female,0.2857142857142857,1.0,0.0,0.5,2.7777777777777777,3.375,2.888888888888889,2.7777777777777777,2.375,3.111111111111111,2.25,2.25,2.25,0.5,0.75,0.8333333333333334,0.6153985374839976,-0.2832357090534295,,,,,,,,,,,,,,,,,,,0.06585729599887215,0.23483986862335954,,,,,,,,,,,,
15,240802_095855,FalseCHOICE,9.0,16,2.0,1750.0,,,,,,,,,,,16.0,16.0,,,A,,,,,,False,cue1.png,Easy,cue2.png,Hard,Left,Easy,Mid,0.0158584000309929,,,,,,,,,,,,,53,29,Female,0.2857142857142857,1.0,0.0,0.5,2.7777777777777777,3.375,2.888888888888889,2.7777777777777777,2.375,3.111111111111111,2.25,2.25,2.25,0.5,1.0,1.0,0.5531266125035472,-0.8116153895259604,,,,,,,,,,,,,,,,,,,,,0.010898780114478849,-0.4582975928637938,,,,,,,,,,
16,240802_095914,FalseCHOICE,9.0,17,2.0,1750.0,,,,,,,,,,,17.0,17.0,,,A,,,,,,False,cue2.png,Hard,cue1.png,Easy,Right,Easy,Mid,0.0168164999922737,,,,,,,,,,,,,53,29,Female,0.2857142857142857,1.0,0.0,0.5,2.7777777777777777,3.375,2.888888888888889,2.7777777777777777,2.375,3.111111111111111,2.25,2.25,2.25,0.5,0.75,0.8333333333333334,0.7881411249836674,1.1824917952067657,,,,,,,,,,,,,,,,,,,0.5923543105476711,5.974335744082223,0.04755591271660363,1.3117222796245593,,,,,,,,,,
17,240802_095933,FalseCHOICE,9.0,18,2.0,1750.0,,,,,,,,,,,18.0,18.0,,,A,,,,,,False,cue2.png,Hard,cue1.png,Easy,Right,Easy,Mid,0.0166073999134823,,,,,,,,,,,,,53,29,Female,0.2857142857142857,1.0,0.0,0.5,2.7777777777777777,3.375,2.888888888888889,2.7777777777777777,2.375,3.111111111111111,2.25,2.25,2.25,0.5,0.75,0.8333333333333334,0.6417511249892414,-0.05963298968966443,,,,,,,,,,,,,,,,,,,0.03998152327224167,-0.04723939628202846,,,,,,,,,,,,
18,240802_095952,FalseCHOICE,9.0,19,2.0,1750.0,,,,,,,,,,,19.0,19.0,,,A,,,,,,False,cue1.png,Easy,cue2.png,Hard,Left,Easy,Mid,0.0154712999938055,,,,,,,,,,,,,53,29,Female,0.2857142857142857,1.0,0.0,0.5,2.7777777777777777,3.375,2.888888888888889,2.7777777777777777,2.375,3.111111111111111,2.25,2.25,2.25,0.5,0.75,0.8333333333333334,0.769859225008986,1.0273691702022307,,,,,,,,,,,,,,,,,,,0.022107280562269276,-0.24209167364727577,0.007782248878171484,-0.6087818732729763,,,,,,,,,,
19,240802_100011,FalseCHOICE,9.0,20,2.0,1750.0,,,,,,,,,,,20.0,20.0,,,A,,,,,,False,cue1.png,Easy,cue2.png,Hard,Left,Easy,Mid,0.015828900039196,,,,,,,,,,,,,53,29,Female,0.2857142857142857,1.0,0.0,0.5,2.7777777777777777,3.375,2.888888888888889,2.7777777777777777,2.375,3.111111111111111,2.25,2.25,2.25,0.5,1.0,1.0,0.6395374874846311,-0.0784157891251269,,,,,,,,,,,,,,,,,,,0.02577899723389892,-0.2020652307419312,0.04129647546669026,1.0094801909376143,7.613099470018993e+43,-0.16660931820810038,,,,,,,,
20,240802_100031,FalseCHOICE,9.0,21,2.0,1750.0,,,,,,,,,,,21.0,21.0,,,A,,,,,,False,cue1.png,Easy,cue2.png,Hard,Left,Easy,Mid,0.0170991000486537,,,,,,,,,,,,,53,29,Female,0.2857142857142857,1.0,0.0,0.5,2.7777777777777777,3.375,2.888888888888889,2.7777777777777777,2.375,3.111111111111111,2.25,2.25,2.25,0.5,1.0,1.0,0.7818718999915291,1.1292971798291878,,,,,,,,,,,,,,,,,,,0.012019943339801272,-0.35205664739424775,0.007405852618863442,-0.6269564770025352,4.997588970056139e+43,-0.1666718327467144,,,,,,,,
21,240802_100053,FalseCHOICE,9.0,22,2.0,1750.0,,,,,,,,,,,22.0,22.0,,,A,,,,,,False,cue2.png,Hard,cue1.png,Easy,Right,Easy,Mid,0.0166019999887794,,,,,,,,,,,,,53,29,Female,0.2857142857142857,1.0,0.0,0.5,2.7777777777777777,3.375,2.888888888888889,2.7777777777777777,2.375,3.111111111111111,2.25,2.25,2.25,0.5,1.0,1.0,0.9090608625119784,2.208500422659495,,,,,,,,,,,,,,,,,,,0.026382303918312887,-0.19548841049196605,,,1.4656789747724562e+43,-0.16675625057787377,,,,,,,,
22,240802_100114,FalseCHOICE,9.0,23,2.0,1750.0,,,,,,,,,,,23.0,23.0,,,A,,,,,,False,cue1.png,Easy,cue2.png,Hard,Left,Easy,Mid,0.0163757998961955,,,,,,,,,,,,,53,29,Female,0.2857142857142857,1.0,0.0,0.5,2.7777777777777777,3.375,2.888888888888889,2.7777777777777777,2.375,3.111111111111111,2.25,2.25,2.25,0.5,0.75,0.8333333333333334,0.9274566374951974,2.3645892814948257,,,,,,,,,,,,,,,,,,,0.03414909379031121,-0.11082039300265065,0.08378403026528002,3.0610268065226713,-2.44409030620126e+43,-0.16684969980038342,,,,,,,,
23,240802_100133,FalseCHOICE,9.0,24,2.0,1750.0,,,,,,,,,,,24.0,24.0,,,A,,,,,,False,cue2.png,Hard,cue1.png,Easy,Right,Easy,Mid,0.0155757999746128,,,,,,,,,,,,,53,29,Female,0.2857142857142857,1.0,0.0,0.5,2.7777777777777777,3.375,2.888888888888889,2.7777777777777777,2.375,3.111111111111111,2.25,2.25,2.25,0.5,0.75,0.8333333333333334,0.7683100499853026,1.014224360494376,,,,,,,,,,,,,,,,,,,0.03595175505634121,-0.0911690623866635,0.00766386977517821,-0.6144979058677705,-5.253610458098014e+43,-0.16691685145434354,,,,,,,,
24,240802_100151,FalseCHOICE,9.0,25,2.0,1750.0,,,,,,,,,,,25.0,25.0,,,A,,,,,,False,cue2.png,Hard,cue1.png,Easy,Right,Easy,Mid,0.016632099985145,,,,,,,,,,,,,53,29,Female,0.2857142857142857,1.0,0.0,0.5,2.7777777777777777,3.375,2.888888888888889,2.7777777777777777,2.375,3.111111111111111,2.25,2.25,2.25,0.5,0.75,0.8333333333333334,0.5149180999724194,-1.135816089100704,,,,,,,,,,,,,,,,,,,0.026318420164539044,-0.19618482572540857,0.04309676548103478,1.0964086786679237,,,,,,,,,,
25,240802_100209,FalseCHOICE,9.0,26,2.0,1750.0,,,,,,,,,,,26.0,26.0,,,A,,,,,,False,cue1.png,Easy,cue2.png,Hard,Left,Easy,Mid,0.0161897999932989,,,,,,,,,,,,,53,29,Female,0.2857142857142857,1.0,0.0,0.5,2.7777777777777777,3.375,2.888888888888889,2.7777777777777777,2.375,3.111111111111111,2.25,2.25,2.25,0.5,1.0,1.0,0.6550318249937845,0.05305426105864714,,,,,,,,,,,,,,,,,,,0.033158664359441925,-0.12161735001536786,,,-5.485932457401188e+43,-0.16692240429100644,,,,,,,,
26,240802_100227,FalseCHOICE,9.0,27,2.0,1750.0,,,,,,,,,,,27.0,27.0,,,A,,,,,,False,cue1.png,Easy,cue2.png,Hard,Left,Easy,Mid,0.0160736000398173,,,,,,,,,,,,,53,29,Female,0.2857142857142857,1.0,0.0,0.5,2.7777777777777777,3.375,2.888888888888889,2.7777777777777777,2.375,3.111111111111111,2.25,2.25,2.25,0.5,0.75,0.8333333333333334,0.5545779874519212,-0.7993004172216925,,,,,,,,,,,,,,,,,,,0.022626234837185982,-0.23643440335299168,0.035192741275459564,0.7147563528205342,4.9633116249829184e+42,-0.16677941941288388,,,,,,,,
27,240802_100247,FalseCHOICE,9.0,28,2.0,1750.0,,,,,,,,,,,28.0,28.0,,,A,,,,,,False,cue2.png,Hard,cue1.png,Easy,Right,Easy,Mid,0.0165735998889431,,,,,,,,,,,,,53,29,Female,0.2857142857142857,1.0,0.0,0.5,2.7777777777777777,3.375,2.888888888888889,2.7777777777777777,2.375,3.111111111111111,2.25,2.25,2.25,0.5,0.75,0.8333333333333334,0.7565723249863368,0.9146293120616342,,,,,,,,,,,,,,,,,,,0.13911584073686734,1.0334524034468984,,,-1.8190835883852573e+42,-0.16679563033260558,,,,,,,,
28,240802_100312,FalseCHOICE,9.0,29,2.0,1750.0,,,,,,,,,,,30.0,29.0,,,A,,,,,,False,cue1.png,Easy,cue2.png,Hard,Left,Easy,Mid,0.0167816000757738,,,,,,,,,,,,,53,29,Female,0.2857142857142857,1.0,0.0,0.5,2.7777777777777777,3.375,2.888888888888889,2.7777777777777777,2.375,3.111111111111111,2.25,2.25,2.25,0.5,0.75,0.8333333333333334,0.7071436624828493,0.49522520807775344,,,,,,,,,,,,,,,,,,,0.01750401077245426,-0.2922732458921054,0.013021791402034648,-0.3557862423640813,3.0360702471147514e+43,-0.16671871592227389,,,,,,,,
29,240802_100329,FalseCHOICE,9.0,30,2.0,1750.0,,,,,,,,,,,31.0,30.0,,,A,,,,,,False,cue1.png,Easy,cue2.png,Hard,Left,Easy,Mid,0.0158534999936819,,,,,,,,,,,,,53,29,Female,0.2857142857142857,1.0,0.0,0.5,2.7777777777777777,3.375,2.888888888888889,2.7777777777777777,2.375,3.111111111111111,2.25,2.25,2.25,0.5,0.75,0.8333333333333334,0.4834284625248983,-1.4030068749635232,,,,,,,,,,,,,,,,,,,0.05901363526540773,0.16023514824062285,0.021052084980827973,0.03196310428164952,4.647729965943122e+43,-0.16668019489025096,,,,,,,,
30,240802_100346,FalseCHOICE,9.0,31,2.0,1750.0,,,,,,,,,,,32.0,31.0,,,A,,,,,,False,cue2.png,Hard,cue1.png,Easy,Left,Hard,Mid,0.0151428999379277,,,,,,,,,,,,,53,29,Female,0.2857142857142857,1.0,0.0,0.5,2.7777777777777777,3.375,2.888888888888889,2.7777777777777777,2.375,3.111111111111111,2.25,2.25,2.25,0.5,0.75,0.8333333333333334,0.509226137510268,-1.1841126096909602,,,,,,,,,,,,,,,,,,,0.030076294425213486,-0.1552191540812536,,,,,,,,,,,,
31,240802_100406,FalseCHOICE,9.0,32,2.0,1750.0,,,,,,,,,,,33.0,32.0,,,A,,,,,,False,cue1.png,Easy,cue2.png,Hard,Right,Hard,Mid,0.0165487000485882,,,,,,,,,,,,,53,29,Female,0.2857142857142857,1.0,0.0,0.5,2.7777777777777777,3.375,2.888888888888889,2.7777777777777777,2.375,3.111111111111111,2.25,2.25,2.25,0.5,1.0,0.875,0.6350959000244204,-0.11610282969362883,,,,,,,,,,,,,,,,,,,0.020260053816116796,-0.2622288254213753,0.010500505429937041,-0.4775286143951169,4.720803440023458e+43,-0.1666784483270018,,,,,,,,
32,240802_100426,FalseCHOICE,9.0,33,2.0,1750.0,,,,,,,,,,,34.0,33.0,,,A,,,,,,False,cue2.png,Hard,cue1.png,Easy,Right,Easy,Mid,0.0165614000288769,,,,,,,,,,,,,53,29,Female,0.2857142857142857,1.0,0.0,0.5,2.7777777777777777,3.375,2.888888888888889,2.7777777777777777,2.375,3.111111111111111,2.25,2.25,2.25,0.5,1.0,1.0,0.8379757749935379,1.6053407188098552,,,,,,,,,,,,,,,,,,,0.030840416760324504,-0.1468892360199439,0.007296931485111225,-0.6322158237541742,,,,,,,,,,
33,240802_100444,FalseCHOICE,9.0,34,2.0,1750.0,,,,,,,,,,,35.0,34.0,,,A,,,,,,False,cue2.png,Hard,cue1.png,Easy,Right,Easy,Mid,0.0163577999919652,,,,,,,,,,,,,53,29,Female,0.2857142857142857,1.0,0.0,0.5,2.7777777777777777,3.375,2.888888888888889,2.7777777777777777,2.375,3.111111111111111,2.25,2.25,2.25,0.5,1.0,1.0,0.6715383374976227,0.19311265503365158,,,,,,,,,,,,,,,,,,,0.026612853686765144,-0.192975120941305,0.009838870940311679,-0.5094761812621637,1.9089626369953288e+42,-0.1667867197551212,,,,,,,,
34,240802_100502,FalseCHOICE,9.0,35,2.0,1750.0,,,,,,,,,,,36.0,35.0,,,A,,,,,,False,cue2.png,Hard,cue1.png,Easy,Right,Easy,Mid,0.0171710000140592,,,,,,,,,,,,,53,29,Female,0.2857142857142857,1.0,0.0,0.5,2.7777777777777777,3.375,2.888888888888889,2.7777777777777777,2.375,3.111111111111111,2.25,2.25,2.25,0.5,1.0,1.0,0.5917320249718614,-0.484046978706447,,,,,,,,,,,,,,,,,,,,,0.012125767909397093,-0.399051475501628,-2.6460868875305553e+43,-0.16685452781506108,,,,,,,,
35,240802_100521,FalseCHOICE,9.0,36,2.0,1750.0,,,,,,,,,,,37.0,36.0,,,A,,,,,,False,cue1.png,Easy,cue2.png,Hard,Right,Hard,Mid,0.0165506999474018,,,,,,,,,,,,,53,29,Female,0.2857142857142857,1.0,0.0,0.5,2.7777777777777777,3.375,2.888888888888889,2.7777777777777777,2.375,3.111111111111111,2.25,2.25,2.25,0.5,0.75,0.8333333333333334,0.5566334374889266,-0.7818598445379173,,,,,,,,,,,,,,,,,,,0.024687159982055052,-0.2139676636721551,,,-4.3479906528940124e+43,-0.16689520581220874,,,,,,,,
36,240802_100539,FalseCHOICE,9.0,37,2.0,1750.0,,,,,,,,,,,38.0,37.0,,,A,,,,,,False,cue2.png,Hard,cue1.png,Easy,Right,Easy,Mid,0.0176631999202072,,,,,,,,,,,,,53,29,Female,0.2857142857142857,1.0,0.0,0.5,2.7777777777777777,3.375,2.888888888888889,2.7777777777777777,2.375,3.111111111111111,2.25,2.25,2.25,0.5,0.75,0.8333333333333334,0.5972370249801315,-0.4373368417340598,,,,,,,,,,,,,,,,,,,0.02411695666039438,-0.22018361461282476,0.009342602990473032,-0.5334388884064356,-4.904201012896306e+43,-0.16690850005592459,,,,,,,,
37,240802_100559,FalseCHOICE,9.0,38,2.0,1750.0,,,,,,,,,,,39.0,38.0,,,A,,,,,,False,cue1.png,Easy,cue2.png,Hard,Left,Easy,Mid,0.0141873999964445,,,,,,,,,,,,,53,29,Female,0.2857142857142857,1.0,0.0,0.5,2.7777777777777777,3.375,2.888888888888889,2.7777777777777777,2.375,3.111111111111111,2.25,2.25,2.25,0.5,1.0,1.0,0.7892077499855077,1.1915421494046379,,,,,,,,,,,,,,,,,,,0.04148761976824242,-0.030821003797415182,0.026728645010457172,0.30606048578918077,-3.7639715913117406e+43,-0.16688124689972217,,,,,,,,
38,240802_100618,FalseCHOICE,9.0,39,2.0,1750.0,,,,,,,,,,,40.0,39.0,,,A,,,,,,False,cue1.png,Easy,cue2.png,Hard,Left,Easy,Mid,0.0161815999308601,,,,,,,,,,,,,53,29,Female,0.2857142857142857,1.0,0.0,0.5,2.7777777777777777,3.375,2.888888888888889,2.7777777777777777,2.375,3.111111111111111,2.25,2.25,2.25,0.5,0.75,0.8333333333333334,0.7392066000174964,0.7672804672476939,,,,,,,,,,,,,,,,,,,,,0.0077531950375468225,-0.6101847619232135,-1.4073001211485684e+43,-0.1668249189937076,,,,,,,,
39,240802_100636,FalseCHOICE,9.0,40,2.0,1750.0,,,,,,,,,,,41.0,40.0,,,A,,,,,,False,cue2.png,Hard,cue1.png,Easy,Right,Easy,Mid,0.0165296000195667,,,,,,,,,,,,,53,29,Female,0.2857142857142857,1.0,0.0,0.5,2.7777777777777777,3.375,2.888888888888889,2.7777777777777777,2.375,3.111111111111111,2.25,2.25,2.25,0.5,0.75,0.8333333333333334,0.5269214375002775,-1.033967308136173,,,,,,,,,,,,,,,,,,,0.02463727106407033,-0.2145115171624732,0.04059315768857309,0.9755199121167447,1.9852580640078737e+43,-0.16674383187527728,,,,,,,,
40,240802_100654,FalseCHOICE,9.0,41,2.0,1750.0,,,,,,,,,,,42.0,41.0,,,A,,,,,,False,cue2.png,Hard,cue1.png,Easy,Right,Easy,Mid,0.0157809000229462,,,,,,,,,,,,,53,29,Female,0.2857142857142857,1.0,0.0,0.5,2.7777777777777777,3.375,2.888888888888889,2.7777777777777777,2.375,3.111111111111111,2.25,2.25,2.25,0.5,0.75,0.8333333333333334,0.5949646875233157,-0.4566177125235057,,,,,,,,,,,,,,,,,,,0.027086081183909105,-0.18781633144590942,0.011093492097938203,-0.4488957641971756,3.8970462608409224e+43,-0.16669813733225997,,,,,,,,
41,240802_100714,FalseCHOICE,9.0,42,2.0,1750.0,,,,,,,,,,,43.0,42.0,,,A,,,,,,False,cue1.png,Easy,cue2.png,Hard,Right,Hard,Mid,0.0168663000222295,,,,,,,,,,,,,53,29,Female,0.2857142857142857,1.0,0.0,0.5,2.7777777777777777,3.375,2.888888888888889,2.7777777777777777,2.375,3.111111111111111,2.25,2.25,2.25,0.5,0.75,0.8333333333333334,0.8471257250203053,1.6829783969930932,,,,,,,,,,,,,,,,,,,,,0.011868219868290154,-0.41148739502178455,,,,,,,,,,
42,240802_100731,FalseCHOICE,9.0,43,2.0,1750.0,,,,,,,,,,,44.0,43.0,,,A,,,,,,False,cue2.png,Hard,cue1.png,Easy,Right,Easy,Mid,0.0161688000662252,,,,,,,,,,,,,53,29,Female,0.2857142857142857,1.0,0.0,0.5,2.7777777777777777,3.375,2.888888888888889,2.7777777777777777,2.375,3.111111111111111,2.25,2.25,2.25,0.5,1.0,1.0,0.470740212520468,-1.5106671646558876,,,,,,,,,,,,,,,,,,,0.023856034435937236,-0.22302800307031817,0.008053184856920359,-0.5956995061450631,3.902228986457746e+43,-0.16669801345751326,,,,,,,,
43,240802_100749,FalseCHOICE,9.0,44,2.0,1750.0,,,,,,,,,,,45.0,44.0,,,A,,,,,,False,cue1.png,Easy,cue2.png,Hard,Left,Easy,Mid,0.0161013000179082,,,,,,,,,,,,,53,29,Female,0.2857142857142857,1.0,0.0,0.5,2.7777777777777777,3.375,2.888888888888889,2.7777777777777777,2.375,3.111111111111111,2.25,2.25,2.25,0.5,1.0,1.0,0.5864242499665124,-0.5290836539373286,,,,,,,,,,,,,,,,,,,0.007668688915778374,-0.39949092741795106,0.011910007959371704,-0.40946962258850345,8.859196848487395e+42,-0.1667701076755674,,,,,,,,
44,240802_100808,FalseCHOICE,9.0,45,2.0,1750.0,,,,,,,,,,,46.0,45.0,,,A,,,,,,False,cue2.png,Hard,cue1.png,Easy,Right,Easy,Mid,0.0163337000412866,,,,,,,,,,,,,53,29,Female,0.2857142857142857,1.0,0.0,0.5,2.7777777777777777,3.375,2.888888888888889,2.7777777777777777,2.375,3.111111111111111,2.25,2.25,2.25,0.5,0.1666666666666666,0.6666666666666667,0.6640889625414275,0.12990442178391326,,,,,,,,,,,,,,,,,,,,,,,-2.1303497670052093e+43,-0.16684220094115396,,,,,,,,
45,240802_100827,FalseCHOICE,9.0,46,2.0,1750.0,,,,,,,,,,,47.0,46.0,,,A,,,,,,False,cue2.png,Hard,cue1.png,Easy,Right,Easy,Mid,0.0167053999612107,,,,,,,,,,,,,53,29,Female,0.2857142857142857,1.0,0.0,0.5,2.7777777777777777,3.375,2.888888888888889,2.7777777777777777,2.375,3.111111111111111,2.25,2.25,2.25,0.5,0.75,0.8333333333333334,0.7785670249868417,1.1012551882009127,,,,,,,,,,,,,,,,,,,0.009953690705534667,-0.37458146357424527,0.011623897935409208,-0.42328468100096595,-5.134092864177644e+43,-0.16691399480848404,,,,,,,,
46,240802_100844,FalseCHOICE,9.0,47,2.0,1750.0,,,,,,,,,,,48.0,47.0,,,A,,,,,,False,cue1.png,Easy,cue2.png,Hard,Left,Easy,Mid,0.0163751000072807,,,,,,,,,,,,,53,29,Female,0.2857142857142857,1.0,0.0,0.5,2.7777777777777777,3.375,2.888888888888889,2.7777777777777777,2.375,3.111111111111111,2.25,2.25,2.25,0.5,1.0,1.0,0.386833637530799,-2.222617683232342,,,,,,,,,,,,,,,,,,,0.01693517559063234,-0.2984742823456183,0.011745649261794146,-0.41740581781921604,-3.7418514733926204e+43,-0.1668807181964477,,,,,,,,
47,240802_100901,FalseCHOICE,9.0,48,2.0,1750.0,,,,,,,,,,,49.0,48.0,,,A,,,,,,False,cue1.png,Easy,cue2.png,Hard,Left,Easy,Mid,0.0168695000465959,,,,,,,,,,,,,53,29,Female,0.2857142857142857,1.0,0.0,0.5,2.7777777777777777,3.375,2.888888888888889,2.7777777777777777,2.375,3.111111111111111,2.25,2.25,2.25,0.5,0.75,0.8333333333333334,0.517895774988574,-1.1105504019699353,,,,,,,,,,,,,,,,,,,0.01019867712302433,-0.37191079594675575,0.02324938281818127,0.13806144208959864,1.5425812670189526e+43,-0.1667544125002525,,,,,,,,
48,240802_100920,FalseCHOICE,9.0,49,2.0,1750.0,,,,,,,,,,,50.0,49.0,,,A,,,,,,False,cue2.png,Hard,cue1.png,Easy,Right,Easy,Mid,0.0163421999895945,,,,,,,,,,,,,53,29,Female,0.2857142857142857,1.0,0.0,0.5,2.7777777777777777,3.375,2.888888888888889,2.7777777777777777,2.375,3.111111111111111,2.25,2.25,2.25,0.5,1.0,1.0,0.685529750015121,0.3118303288116177,,,,,,,,,,,,,,,,,,,,,,,,,,,,,,,,
49,240802_100940,FalseCHOICE,9.0,50,2.0,1750.0,,,,,,,,,,,51.0,50.0,,,A,,,,,,False,cue1.png,Easy,cue2.png,Hard,Left,Easy,Mid,0.0139691999647766,,,,,,,,,,,,,53,29,Female,0.2857142857142857,1.0,0.0,0.5,2.7777777777777777,3.375,2.888888888888889,2.7777777777777777,2.375,3.111111111111111,2.25,2.25,2.25,0.5,0.875,0.875,0.5071677570896489,-1.2015780467924966,,,,,,,,,,,,,,,,,,,0.009635455269118177,-0.3780506398929421,0.008635491412255076,-0.5675823539932621,-2.8411234409980566e+43,-0.1668591894748606,,,,,,,,
0,240802_093042,OFFLINERATING,9.0,1,1.0,,,,,,,,,,,,,,,,,T0,cue1.png,Easy,34.0,0.5180026999441907,,,,,,,,,,,,,,,,,,,,,,53,29,Female,0.2857142857142857,1.0,0.0,0.5,2.7777777777777777,3.375,2.888888888888889,2.7777777777777777,2.375,3.111111111111111,2.25,2.25,2.25,0.5,,,,,,,,,,,,,,,,,,,,,,,,,,,,,-0.212943141062263,0.011869589295128642,-0.927037855536419,,,2367492561.284162,-0.5962905727642418,
1,240802_093048,OFFLINERATING,9.0,2,3.0,,,,,,,,,,,,,,,,,T0,cue2.png,Hard,40.0,0.6348310000030324,,,,,,,,,,,,,,,,,,,,,,53,29,Female,0.2857142857142857,1.0,0.0,0.5,2.7777777777777777,3.375,2.888888888888889,2.7777777777777777,2.375,3.111111111111111,2.25,2.25,2.25,0.5,,,,,,,,,,,,,,,,,,,,,,,,,,,,,0.18018265782191487,,,,,23631619.89179087,-0.8124078031297532,
2,240802_094842,OFFLINERATING,9.0,3,1.0,,,,,,,,,,,,,,,,,T1,cue1.png,Easy,17.0,1.064058400108479,,,,,,,,,,,,,,,,,,,,,,53,29,Female,0.2857142857142857,1.0,0.0,0.5,2.7777777777777777,3.375,2.888888888888889,2.7777777777777777,2.375,3.111111111111111,2.25,2.25,2.25,0.5,,,,,,,,,,,,,,,,,,,,,,,,,,,,,-1.3267995712341003,,,,,,,
3,240802_094849,OFFLINERATING,9.0,4,3.0,,,,,,,,,,,,,,,,,T1,cue2.png,Hard,21.0,0.5681378999724984,,,,,,,,,,,,,,,,,,,,,,53,29,Female,0.2857142857142857,1.0,0.0,0.5,2.7777777777777777,3.375,2.888888888888889,2.7777777777777777,2.375,3.111111111111111,2.25,2.25,2.25,0.5,,,,,,,,,,,,,,,,,,,,,,,,,,,,,-1.064715705311315,0.01430570038645276,0.9859299377290739,,,,,
4,240802_095251,OFFLINERATING,9.0,5,1.0,,,,,,,,,,,,,,,,,T2,cue1.png,Easy,59.0,1.0684012999990955,,,,,,,,,,,,,,,,,,,,,,53,29,Female,0.2857142857142857,1.0,0.0,0.5,2.7777777777777777,3.375,2.888888888888889,2.7777777777777777,2.375,3.111111111111111,2.25,2.25,2.25,0.5,,,,,,,,,,,,,,,,,,,,,,,,,,,,,1.4250810209551448,0.011687132158660006,-1.0703131876667913,0.01515959262091879,0.14980879137457653,24112243207.659935,1.408698375893995,
5,240802_095257,OFFLINERATING,9.0,6,3.0,,,,,,,,,,,,,,,,,T2,cue2.png,Hard,22.0,0.5748513999860734,,,,,,,,,,,,,,,,,,,,,,53,29,Female,0.2857142857142857,1.0,0.0,0.5,2.7777777777777777,3.375,2.888888888888889,2.7777777777777777,2.375,3.111111111111111,2.25,2.25,2.25,0.5,,,,,,,,,,,,,,,,,,,,,,,,,,,,,-0.9991947388306187,,,0.011799629420732927,-1.4143706116334462,,,
6,240802_101004,OFFLINERATING,9.0,7,1.0,,,,,,,,,,,,,,,,,T3,cue1.png,Easy,53.0,0.7283935999730602,,,,,,,,,,,,,,,,,,,,,,53,29,Female,0.2857142857142857,1.0,0.0,0.5,2.7777777777777777,3.375,2.888888888888889,2.7777777777777777,2.375,3.111111111111111,2.25,2.25,2.25,0.5,,,,,,,,,,,,,,,,,,,,,,,,,,,,,1.031955222070967,,,0.014547723711749706,-0.13503740724162402,,,
7,240802_101011,OFFLINERATING,9.0,8,3.0,,,,,,,,,,,,,,,,,T3,cue2.png,Hard,52.0,0.901380999945104,,,,,,,,,,,,,,,,,,,,,,53,29,Female,0.2857142857142857,1.0,0.0,0.5,2.7777777777777777,3.375,2.888888888888889,2.7777777777777777,2.375,3.111111111111111,2.25,2.25,2.25,0.5,,,,,,,,,,,,,,,,,,,,,,,,,,,,,0.9664342555902706,0.01433816267708472,1.0114211054741418,0.017844227046645074,1.3995992275004945,,,
0,240802_095317,LEARNINGCHECK,9.0,1,,,,,,,,,,,,1.0,1.0,1.0,,,A,,,,,,,,,,,,,,,cue1.png,Easy,Left,Left,Easy,0.0130788999376818,1.0,,,,,,53,29,Female,0.2857142857142857,1.0,0.0,0.5,2.7777777777777777,3.375,2.888888888888889,2.7777777777777777,2.375,3.111111111111111,2.25,2.25,2.25,0.5,,,,,,,,,,,,,,,,,,,,,,,,,,,,,,,,,,,,
1,240802_095322,LEARNINGCHECK,9.0,2,,,,,,,,,,,,2.0,2.0,2.0,,,A,,,,,,,,,,,,,,,cue2.png,Hard,Right,Right,Hard,0.0141892000101506,1.0,,,,,,53,29,Female,0.2857142857142857,1.0,0.0,0.5,2.7777777777777777,3.375,2.888888888888889,2.7777777777777777,2.375,3.111111111111111,2.25,2.25,2.25,0.5,,,,,,,,,,,,,,,,,,,,,,,,,,,,,,,,,,,,
2,240802_101025,LEARNINGCHECK,9.0,1,,,,,,,,,,,,1.0,1.0,1.0,,,A,,,,,,,,,,,,,,,cue1.png,Easy,Middle,Middle,Mid,0.0158866998972371,1.0,,,,,,53,29,Female,0.2857142857142857,1.0,0.0,0.5,2.7777777777777777,3.375,2.888888888888889,2.7777777777777777,2.375,3.111111111111111,2.25,2.25,2.25,0.5,,,,,,,,,,,,,,,,,,,,,,,,,,,,,,,,,,,,
3,240802_101031,LEARNINGCHECK,9.0,2,,,,,,,,,,,,2.0,2.0,2.0,,,A,,,,,,,,,,,,,,,cue2.png,Hard,Middle,Middle,Mid,0.0170541999395936,1.0,,,,,,53,29,Female,0.2857142857142857,1.0,0.0,0.5,2.7777777777777777,3.375,2.888888888888889,2.7777777777777777,2.375,3.111111111111111,2.25,2.25,2.25,0.5,,,,,,,,,,,,,,,,,,,,,,,,,,,,,,,,,,,,
0,240802_101048,DEMANDRATING,9.0,-1,,,,,,,,,,,,,,,,,,,,,,,,,,,,,,,,,,,,,,,1.0,MentalDemand,1.0,3.0,5.360383899998851,53,29,Female,0.2857142857142857,1.0,0.0,0.5,2.7777777777777777,3.375,2.888888888888889,2.7777777777777777,2.375,3.111111111111111,2.25,2.25,2.25,0.5,,,,,,,,,,,,,,,,,,,,,,,,,,,,,,,,,,,,-1.3360118955038478
1,240802_101054,DEMANDRATING,9.0,-1,,,,,,,,,,,,,,,,,,,,,,,,,,,,,,,,,,,,,,,2.0,Effort,1.0,5.0,4.362104799947701,53,29,Female,0.2857142857142857,1.0,0.0,0.5,2.7777777777777777,3.375,2.888888888888889,2.7777777777777777,2.375,3.111111111111111,2.25,2.25,2.25,0.5,,,,,,,,,,,,,,,,,,,,,,,,,,,,,,,,,,,,-1.2852772665606638
2,240802_101100,DEMANDRATING,9.0,-1,,,,,,,,,,,,,,,,,,,,,,,,,,,,,,,,,,,,,,,3.0,Frustration,1.0,4.0,4.014522299985401,53,29,Female,0.2857142857142857,1.0,0.0,0.5,2.7777777777777777,3.375,2.888888888888889,2.7777777777777777,2.375,3.111111111111111,2.25,2.25,2.25,0.5,,,,,,,,,,,,,,,,,,,,,,,,,,,,,,,,,,,,-1.3106445810322558
3,240802_101105,DEMANDRATING,9.0,-1,,,,,,,,,,,,,,,,,,,,,,,,,,,,,,,,,,,,,,,4.0,MentalDemand,2.0,58.0,4.085943599930033,53,29,Female,0.2857142857142857,1.0,0.0,0.5,2.7777777777777777,3.375,2.888888888888889,2.7777777777777777,2.375,3.111111111111111,2.25,2.25,2.25,0.5,,,,,,,,,,,,,,,,,,,,,,,,,,,,,,,,,,,,0.05919040043371484
4,240802_101110,DEMANDRATING,9.0,-1,,,,,,,,,,,,,,,,,,,,,,,,,,,,,,,,,,,,,,,5.0,Effort,2.0,57.0,3.4185530999675398,53,29,Female,0.2857142857142857,1.0,0.0,0.5,2.7777777777777777,3.375,2.888888888888889,2.7777777777777777,2.375,3.111111111111111,2.25,2.25,2.25,0.5,,,,,,,,,,,,,,,,,,,,,,,,,,,,,,,,,,,,0.033823085962122794
5,240802_101116,DEMANDRATING,9.0,-1,,,,,,,,,,,,,,,,,,,,,,,,,,,,,,,,,,,,,,,6.0,Frustration,2.0,80.0,4.6006212999345735,53,29,Female,0.2857142857142857,1.0,0.0,0.5,2.7777777777777777,3.375,2.888888888888889,2.7777777777777777,2.375,3.111111111111111,2.25,2.25,2.25,0.5,,,,,,,,,,,,,,,,,,,,,,,,,,,,,,,,,,,,0.61727131880874
6,240802_101121,DEMANDRATING,9.0,-1,,,,,,,,,,,,,,,,,,,,,,,,,,,,,,,,,,,,,,,7.0,MentalDemand,3.0,98.0,2.9942999000195414,53,29,Female,0.2857142857142857,1.0,0.0,0.5,2.7777777777777777,3.375,2.888888888888889,2.7777777777777777,2.375,3.111111111111111,2.25,2.25,2.25,0.5,,,,,,,,,,,,,,,,,,,,,,,,,,,,,,,,,,,,1.0738829792973967
7,240802_101124,DEMANDRATING,9.0,-1,,,,,,,,,,,,,,,,,,,,,,,,,,,,,,,,,,,,,,,8.0,Effort,3.0,98.0,1.7392715000314638,53,29,Female,0.2857142857142857,1.0,0.0,0.5,2.7777777777777777,3.375,2.888888888888889,2.7777777777777777,2.375,3.111111111111111,2.25,2.25,2.25,0.5,,,,,,,,,,,,,,,,,,,,,,,,,,,,,,,,,,,,1.0738829792973967
8,240802_101127,DEMANDRATING,9.0,-1,,,,,,,,,,,,,,,,,,,,,,,,,,,,,,,,,,,,,,,9.0,Frustration,3.0,98.0,1.195201399968937,53,29,Female,0.2857142857142857,1.0,0.0,0.5,2.7777777777777777,3.375,2.888888888888889,2.7777777777777777,2.375,3.111111111111111,2.25,2.25,2.25,0.5,,,,,,,,,,,,,,,,,,,,,,,,,,,,,,,,,,,,1.0738829792973967
