Instruction,Stimulus,Key,RT,START,END,Phase,Block,TrialN,NbackLevel,ISI,LetterN,Letter,Letter_isSame,Letter_Resp,Letter_RT,Letter_Accuracy,Letter_Timeout,Trial_A_measure,Trial_HR,Trial_FAR,Trial_CDR,Trial_MSR,Trial_ACC,Trial_RT,Trial_HitsCount,Trial_FAsCount,Trial_SameNoRespCount,Trial_DiffNoRespCount,Trial_NoRespCount,Trial_CDsCount,Trial_CorrectRespCount,Trial_SameLetterCount,Trial_DiffLetterCount,Trial_InvalidLetterCount,TrialCountCali,CaliEnd_A_measure,ISI_calibrated,Run,TrialIndex,TrialNumber_total,TrialNumber_valid,CueLearning,TrialDemandLearning,CueMapping,OnlineRating,OnlineRatingRT,OnlineRatingTimeOut,CueSTART,RatingSTART,OfflineRatingTimePoint,OfflineRatingQuesIndex,CueFigure,TrialDemand,OfflineRating,OfflineRatingRT,CueStart,OfflineRatingStart,PhaseType,CueLeft,CueDemandLeft,CueRight,CueDemandRight,Choice,ChoiceDemand,TaskDemand,ChoiceRT,ChoiceTimeOut,ChoiceSTART,CueCheck,CueDemandCheck,CorrectAnswer,Answer,AnswerDemand,AnswerRT,AnswerACC,AnswerTimeOut,CheckSTART,DemandRatingQuesIndex,QuesTLX,DemandLevel,DemandRating,DemandRatingRT,QuesStart,PID,SONA,Age,Gender,Run,TIME,EXPERIMENTER,frameRate,
1,./instructions/inst_begin/Slide2.png,right,17.741343116998905,0.1098993720006547,17.85124248899956,,,,,,,,,,,,,,,,,,,,,,,,,,,,,,,,,1,,,,,,,,,,,,,,,,,,,,,,,,,,,,,,,,,,,,,,,,,,,,,,103,157408,18,Female,1,2024/03/19_11:59:39,YZ,None,
2,./instructions/inst_begin/Slide3.png,right,10.5063471129979,17.880811558999994,28.387158671997895,,,,,,,,,,,,,,,,,,,,,,,,,,,,,,,,,1,,,,,,,,,,,,,,,,,,,,,,,,,,,,,,,,,,,,,,,,,,,,,,103,157408,18,Female,1,2024/03/19_11:59:39,YZ,None,
3,./instructions/inst_begin/Slide4.png,right,3.701231643994106,28.413852318000863,32.11508396199497,,,,,,,,,,,,,,,,,,,,,,,,,,,,,,,,,1,,,,,,,,,,,,,,,,,,,,,,,,,,,,,,,,,,,,,,,,,,,,,,103,157408,18,Female,1,2024/03/19_11:59:39,YZ,None,
1,./instructions/inst_prac_2/Slide6.png,right,21.00656783500017,32.148623128996405,53.155190963996574,,,,,,,,,,,,,,,,,,,,,,,,,,,,,,,,,1,,,,,,,,,,,,,,,,,,,,,,,,,,,,,,,,,,,,,,,,,,,,,,103,157408,18,Female,1,2024/03/19_11:59:39,YZ,None,
2,./instructions/inst_prac_2/Slide7.png,right,7.9493965709989425,53.181940406997455,61.1313369779964,,,,,,,,,,,,,,,,,,,,,,,,,,,,,,,,,1,,,,,,,,,,,,,,,,,,,,,,,,,,,,,,,,,,,,,,,,,,,,,,103,157408,18,Female,1,2024/03/19_11:59:39,YZ,None,
3,./instructions/inst_prac_2/Slide8.png,right,6.707196169001691,61.15992398099479,67.86712014999648,,,,,,,,,,,,,,,,,,,,,,,,,,,,,,,,,1,,,,,,,,,,,,,,,,,,,,,,,,,,,,,,,,,,,,,,,,,,,,,,103,157408,18,Female,1,2024/03/19_11:59:39,YZ,None,
4,./instructions/inst_prac_2/Slide9.png,right,3.3022718470019754,67.89311446999636,71.19538631699834,,,,,,,,,,,,,,,,,,,,,,,,,,,,,,,,,1,,,,,,,,,,,,,,,,,,,,,,,,,,,,,,,,,,,,,,,,,,,,,,103,157408,18,Female,1,2024/03/19_11:59:39,YZ,None,
5,./instructions/inst_prac_2/Slide10.png,right,1.1949366139961057,71.22423113400146,72.41916774799756,,,,,,,,,,,,,,,,,,,,,,,,,,,,,,,,,1,,,,,,,,,,,,,,,,,,,,,,,,,,,,,,,,,,,,,,,,,,,,,,103,157408,18,Female,1,2024/03/19_11:59:39,YZ,None,
6,./instructions/inst_prac_2/Slide11.png,right,0.8213674490034464,72.44574978199671,73.26711723100016,,,,,,,,,,,,,,,,,,,,,,,,,,,,,,,,,1,,,,,,,,,,,,,,,,,,,,,,,,,,,,,,,,,,,,,,,,,,,,,,103,157408,18,Female,1,2024/03/19_11:59:39,YZ,None,
7,./instructions/inst_prac_2/Slide12.png,right,0.8755544619998545,73.29556795499957,74.17112241699942,,,,,,,,,,,,,,,,,,,,,,,,,,,,,,,,,1,,,,,,,,,,,,,,,,,,,,,,,,,,,,,,,,,,,,,,,,,,,,,,103,157408,18,Female,1,2024/03/19_11:59:39,YZ,None,
8,./instructions/inst_prac_2/Slide13.png,right,0.6537647259974619,74.19734200299717,74.85110672899464,,,,,,,,,,,,,,,,,,,,,,,,,,,,,,,,,1,,,,,,,,,,,,,,,,,,,,,,,,,,,,,,,,,,,,,,,,,,,,,,103,157408,18,Female,1,2024/03/19_11:59:39,YZ,None,
7,./instructions/inst_prac_2/Slide14.png,left,1.2034629020054126,74.87992497199593,76.08338787400135,,,,,,,,,,,,,,,,,,,,,,,,,,,,,,,,,1,,,,,,,,,,,,,,,,,,,,,,,,,,,,,,,,,,,,,,,,,,,,,,103,157408,18,Female,1,2024/03/19_11:59:39,YZ,None,
8,./instructions/inst_prac_2/Slide13.png,right,0.6092002799996408,76.10608704899641,76.71528732899606,,,,,,,,,,,,,,,,,,,,,,,,,,,,,,,,,1,,,,,,,,,,,,,,,,,,,,,,,,,,,,,,,,,,,,,,,,,,,,,,103,157408,18,Female,1,2024/03/19_11:59:39,YZ,None,
9,./instructions/inst_prac_2/Slide14.png,right,7.122903323004721,76.74438192499656,83.86728524800128,,,,,,,,,,,,,,,,,,,,,,,,,,,,,,,,,1,,,,,,,,,,,,,,,,,,,,,,,,,,,,,,,,,,,,,,,,,,,,,,103,157408,18,Female,1,2024/03/19_11:59:39,YZ,None,
10,./instructions/inst_prac_2/Slide15.png,right,9.442531845001213,83.89652895199833,93.33906079699955,,,,,,,,,,,,,,,,,,,,,,,,,,,,,,,,,1,,,,,,,,,,,,,,,,,,,,,,,,,,,,,,,,,,,,,,,,,,,,,,103,157408,18,Female,1,2024/03/19_11:59:39,YZ,None,
,,,,,,practice,0,13,2,2583,1,J,0,right,3.8096251280003344,1,0,,,,,,,,,,,,,,,,,,,,,1,,,,,,,,,,,,,,,,,,,,,,,,,,,,,,,,,,,,,,,,,,,,,,103,157408,18,Female,1,2024/03/19_11:59:39,YZ,None,
,,,,,,practice,0,13,2,2583,2,V,0,right,0.9881976509932429,1,0,,,,,,,,,,,,,,,,,,,,,1,,,,,,,,,,,,,,,,,,,,,,,,,,,,,,,,,,,,,,,,,,,,,,103,157408,18,Female,1,2024/03/19_11:59:39,YZ,None,
,,,,,,practice,0,13,2,2583,3,J,1,left,0.8536336039978778,1,0,,,,,,,,,,,,,,,,,,,,,1,,,,,,,,,,,,,,,,,,,,,,,,,,,,,,,,,,,,,,,,,,,,,,103,157408,18,Female,1,2024/03/19_11:59:39,YZ,None,
,,,,,,practice,0,13,2,2583,4,V,1,left,0.820358055003453,1,0,,,,,,,,,,,,,,,,,,,,,1,,,,,,,,,,,,,,,,,,,,,,,,,,,,,,,,,,,,,,,,,,,,,,103,157408,18,Female,1,2024/03/19_11:59:39,YZ,None,
,,,,,,practice,0,13,2,2583,5,S,0,right,0.6527041469962569,1,0,,,,,,,,,,,,,,,,,,,,,1,,,,,,,,,,,,,,,,,,,,,,,,,,,,,,,,,,,,,,,,,,,,,,103,157408,18,Female,1,2024/03/19_11:59:39,YZ,None,
,,,,,,practice,0,13,2,2583,6,N,0,right,0.8307441119977739,1,0,,,,,,,,,,,,,,,,,,,,,1,,,,,,,,,,,,,,,,,,,,,,,,,,,,,,,,,,,,,,,,,,,,,,103,157408,18,Female,1,2024/03/19_11:59:39,YZ,None,
,,,,,,practice,0,13,2,2583,,,,,,,,1.0,1.0,0.0,1.0,0.0,1.0,1.325877116164823,2,0,0,0,0,4,6,2,4,0,,,,1,,,,,,,,,,,,,,,,,,,,,,,,,,,,,,,,,,,,,,,,,,,,,,103,157408,18,Female,1,2024/03/19_11:59:39,YZ,None,
1,./instructions/inst_to_cali/Slide20.png,right,26.50462328299909,107.65065610400052,134.1552793869996,,,,,,,,,,,,,,,,,,,,,,,,,,,,,,,,,1,,,,,,,,,,,,,,,,,,,,,,,,,,,,,,,,,,,,,,,,,,,,,,103,157408,18,Female,1,2024/03/19_11:59:39,YZ,None,
1,./instructions/inst_cali/Slide22.png,right,31.438823538999713,134.18854901899613,165.62737255799584,,,,,,,,,,,,,,,,,,,,,,,,,,,,,,,,,1,,,,,,,,,,,,,,,,,,,,,,,,,,,,,,,,,,,,,,,,,,,,,,103,157408,18,Female,1,2024/03/19_11:59:39,YZ,None,
,,,,,,calibration,0,16,2,583,1,S,0,right,0.517172104002384,1,0,,,,,,,,,,,,,,,,,,,,,1,,,,,,,,,,,,,,,,,,,,,,,,,,,,,,,,,,,,,,,,,,,,,,103,157408,18,Female,1,2024/03/19_11:59:39,YZ,None,
,,,,,,calibration,0,16,2,583,2,N,0,right,0.5124464289983734,1,0,,,,,,,,,,,,,,,,,,,,,1,,,,,,,,,,,,,,,,,,,,,,,,,,,,,,,,,,,,,,,,,,,,,,103,157408,18,Female,1,2024/03/19_11:59:39,YZ,None,
,,,,,,calibration,0,16,2,583,3,C,0,right,0.8078685689979466,1,0,,,,,,,,,,,,,,,,,,,,,1,,,,,,,,,,,,,,,,,,,,,,,,,,,,,,,,,,,,,,,,,,,,,,103,157408,18,Female,1,2024/03/19_11:59:39,YZ,None,
,,,,,,calibration,0,16,2,583,4,N,1,left,0.6511390540035791,1,0,,,,,,,,,,,,,,,,,,,,,1,,,,,,,,,,,,,,,,,,,,,,,,,,,,,,,,,,,,,,,,,,,,,,103,157408,18,Female,1,2024/03/19_11:59:39,YZ,None,
,,,,,,calibration,0,16,2,583,5,V,0,right,0.6237669350011856,1,0,,,,,,,,,,,,,,,,,,,,,1,,,,,,,,,,,,,,,,,,,,,,,,,,,,,,,,,,,,,,,,,,,,,,103,157408,18,Female,1,2024/03/19_11:59:39,YZ,None,
,,,,,,calibration,0,16,2,583,6,X,0,right,0.3751581239994266,1,0,,,,,,,,,,,,,,,,,,,,,1,,,,,,,,,,,,,,,,,,,,,,,,,,,,,,,,,,,,,,,,,,,,,,103,157408,18,Female,1,2024/03/19_11:59:39,YZ,None,
,,,,,,calibration,0,16,2,583,7,C,0,left,0.6146220939990599,0,0,,,,,,,,,,,,,,,,,,,,,1,,,,,,,,,,,,,,,,,,,,,,,,,,,,,,,,,,,,,,,,,,,,,,103,157408,18,Female,1,2024/03/19_11:59:39,YZ,None,
,,,,,,calibration,0,16,2,583,8,S,0,left,1.0533728570007952,0,0,,,,,,,,,,,,,,,,,,,,,1,,,,,,,,,,,,,,,,,,,,,,,,,,,,,,,,,,,,,,,,,,,,,,103,157408,18,Female,1,2024/03/19_11:59:39,YZ,None,
,,,,,,calibration,0,16,2,583,9,Q,0,right,0.24511047299893107,1,0,,,,,,,,,,,,,,,,,,,,,1,,,,,,,,,,,,,,,,,,,,,,,,,,,,,,,,,,,,,,,,,,,,,,103,157408,18,Female,1,2024/03/19_11:59:39,YZ,None,
,,,,,,calibration,0,16,2,583,10,S,1,right,0.5704948050042731,0,0,,,,,,,,,,,,,,,,,,,,,1,,,,,,,,,,,,,,,,,,,,,,,,,,,,,,,,,,,,,,,,,,,,,,103,157408,18,Female,1,2024/03/19_11:59:39,YZ,None,
,,,,,,calibration,0,16,2,583,11,F,0,right,0.4621891379938461,1,0,,,,,,,,,,,,,,,,,,,,,1,,,,,,,,,,,,,,,,,,,,,,,,,,,,,,,,,,,,,,,,,,,,,,103,157408,18,Female,1,2024/03/19_11:59:39,YZ,None,
,,,,,,calibration,0,16,2,583,12,S,1,left,0.512399732004269,1,0,,,,,,,,,,,,,,,,,,,,,1,,,,,,,,,,,,,,,,,,,,,,,,,,,,,,,,,,,,,,,,,,,,,,103,157408,18,Female,1,2024/03/19_11:59:39,YZ,None,
,,,,,,calibration,0,16,2,583,13,X,0,right,0.9650526100012939,1,0,,,,,,,,,,,,,,,,,,,,,1,,,,,,,,,,,,,,,,,,,,,,,,,,,,,,,,,,,,,,,,,,,,,,103,157408,18,Female,1,2024/03/19_11:59:39,YZ,None,
,,,,,,calibration,0,16,2,583,14,V,0,left,1.3829377470028703,0,0,,,,,,,,,,,,,,,,,,,,,1,,,,,,,,,,,,,,,,,,,,,,,,,,,,,,,,,,,,,,,,,,,,,,103,157408,18,Female,1,2024/03/19_11:59:39,YZ,None,
,,,,,,calibration,0,16,2,583,15,X,1,right,0.8888321509948582,0,0,,,,,,,,,,,,,,,,,,,,,1,,,,,,,,,,,,,,,,,,,,,,,,,,,,,,,,,,,,,,,,,,,,,,103,157408,18,Female,1,2024/03/19_11:59:39,YZ,None,
,,,,,,calibration,0,16,2,583,,,,,,,,0.6704545454545455,0.5,0.2727272727272727,0.7272727272727273,0.0,0.7272727272727273,0.6788375214668728,2,3,0,0,0,8,10,4,11,0,,,,1,,,,,,,,,,,,,,,,,,,,,,,,,,,,,,,,,,,,,,,,,,,,,,103,157408,18,Female,1,2024/03/19_11:59:39,YZ,None,
,,,,,,Calibration,0,,2,583,,,,,,,,,,,,,,,,,,,,,,,,,1,,,1,,,,,,,,,,,,,,,,,,,,,,,,,,,,,,,,,,,,,,,,,,,,,,103,157408,18,Female,1,2024/03/19_11:59:39,YZ,None,
,,,,,,calibration,0,21,2,679,1,F,0,right,0.7935539640020579,1,0,,,,,,,,,,,,,,,,,,,,,1,,,,,,,,,,,,,,,,,,,,,,,,,,,,,,,,,,,,,,,,,,,,,,103,157408,18,Female,1,2024/03/19_11:59:39,YZ,None,
,,,,,,calibration,0,21,2,679,2,C,0,right,0.31501846199535066,1,0,,,,,,,,,,,,,,,,,,,,,1,,,,,,,,,,,,,,,,,,,,,,,,,,,,,,,,,,,,,,,,,,,,,,103,157408,18,Female,1,2024/03/19_11:59:39,YZ,None,
,,,,,,calibration,0,21,2,679,3,V,0,right,0.6826421600053436,1,0,,,,,,,,,,,,,,,,,,,,,1,,,,,,,,,,,,,,,,,,,,,,,,,,,,,,,,,,,,,,,,,,,,,,103,157408,18,Female,1,2024/03/19_11:59:39,YZ,None,
,,,,,,calibration,0,21,2,679,4,C,1,right,0.7903561469938722,0,0,,,,,,,,,,,,,,,,,,,,,1,,,,,,,,,,,,,,,,,,,,,,,,,,,,,,,,,,,,,,,,,,,,,,103,157408,18,Female,1,2024/03/19_11:59:39,YZ,None,
,,,,,,calibration,0,21,2,679,5,V,1,left,0.591076933000295,1,0,,,,,,,,,,,,,,,,,,,,,1,,,,,,,,,,,,,,,,,,,,,,,,,,,,,,,,,,,,,,,,,,,,,,103,157408,18,Female,1,2024/03/19_11:59:39,YZ,None,
,,,,,,calibration,0,21,2,679,6,S,0,right,0.32362486099737,1,0,,,,,,,,,,,,,,,,,,,,,1,,,,,,,,,,,,,,,,,,,,,,,,,,,,,,,,,,,,,,,,,,,,,,103,157408,18,Female,1,2024/03/19_11:59:39,YZ,None,
,,,,,,calibration,0,21,2,679,7,J,0,right,0.48990725499606924,1,0,,,,,,,,,,,,,,,,,,,,,1,,,,,,,,,,,,,,,,,,,,,,,,,,,,,,,,,,,,,,,,,,,,,,103,157408,18,Female,1,2024/03/19_11:59:39,YZ,None,
,,,,,,calibration,0,21,2,679,8,Q,0,right,0.4364084629996796,1,0,,,,,,,,,,,,,,,,,,,,,1,,,,,,,,,,,,,,,,,,,,,,,,,,,,,,,,,,,,,,,,,,,,,,103,157408,18,Female,1,2024/03/19_11:59:39,YZ,None,
,,,,,,calibration,0,21,2,679,9,X,0,right,0.4090693050020491,1,0,,,,,,,,,,,,,,,,,,,,,1,,,,,,,,,,,,,,,,,,,,,,,,,,,,,,,,,,,,,,,,,,,,,,103,157408,18,Female,1,2024/03/19_11:59:39,YZ,None,
,,,,,,calibration,0,21,2,679,10,N,0,right,0.5761777779989643,1,0,,,,,,,,,,,,,,,,,,,,,1,,,,,,,,,,,,,,,,,,,,,,,,,,,,,,,,,,,,,,,,,,,,,,103,157408,18,Female,1,2024/03/19_11:59:39,YZ,None,
,,,,,,calibration,0,21,2,679,11,X,1,left,0.38195354000345105,1,0,,,,,,,,,,,,,,,,,,,,,1,,,,,,,,,,,,,,,,,,,,,,,,,,,,,,,,,,,,,,,,,,,,,,103,157408,18,Female,1,2024/03/19_11:59:39,YZ,None,
,,,,,,calibration,0,21,2,679,12,N,1,right,0.32821543899626704,0,0,,,,,,,,,,,,,,,,,,,,,1,,,,,,,,,,,,,,,,,,,,,,,,,,,,,,,,,,,,,,,,,,,,,,103,157408,18,Female,1,2024/03/19_11:59:39,YZ,None,
,,,,,,calibration,0,21,2,679,13,F,0,right,0.841471030995308,1,0,,,,,,,,,,,,,,,,,,,,,1,,,,,,,,,,,,,,,,,,,,,,,,,,,,,,,,,,,,,,,,,,,,,,103,157408,18,Female,1,2024/03/19_11:59:39,YZ,None,
,,,,,,calibration,0,21,2,679,14,C,0,right,0.8628150149961584,1,0,,,,,,,,,,,,,,,,,,,,,1,,,,,,,,,,,,,,,,,,,,,,,,,,,,,,,,,,,,,,,,,,,,,,103,157408,18,Female,1,2024/03/19_11:59:39,YZ,None,
,,,,,,calibration,0,21,2,679,,,,,,,,0.875,0.5,0.0,1.0,0.0,1.0,0.5587350252130169,2,0,0,0,0,10,12,4,10,0,,,,1,,,,,,,,,,,,,,,,,,,,,,,,,,,,,,,,,,,,,,,,,,,,,,103,157408,18,Female,1,2024/03/19_11:59:39,YZ,None,
,,,,,,Calibration,0,,2,679,,,,,,,,,,,,,,,,,,,,,,,,,2,,,1,,,,,,,,,,,,,,,,,,,,,,,,,,,,,,,,,,,,,,,,,,,,,,103,157408,18,Female,1,2024/03/19_11:59:39,YZ,None,
,,,,,,calibration,0,4,2,583,1,F,0,right,0.6124090369994519,1,0,,,,,,,,,,,,,,,,,,,,,1,,,,,,,,,,,,,,,,,,,,,,,,,,,,,,,,,,,,,,,,,,,,,,103,157408,18,Female,1,2024/03/19_11:59:39,YZ,None,
,,,,,,calibration,0,4,2,583,2,N,0,right,0.4839815030063619,1,0,,,,,,,,,,,,,,,,,,,,,1,,,,,,,,,,,,,,,,,,,,,,,,,,,,,,,,,,,,,,,,,,,,,,103,157408,18,Female,1,2024/03/19_11:59:39,YZ,None,
,,,,,,calibration,0,4,2,583,3,S,0,right,0.4230346569966059,1,0,,,,,,,,,,,,,,,,,,,,,1,,,,,,,,,,,,,,,,,,,,,,,,,,,,,,,,,,,,,,,,,,,,,,103,157408,18,Female,1,2024/03/19_11:59:39,YZ,None,
,,,,,,calibration,0,4,2,583,4,N,1,left,0.5766821189972688,1,0,,,,,,,,,,,,,,,,,,,,,1,,,,,,,,,,,,,,,,,,,,,,,,,,,,,,,,,,,,,,,,,,,,,,103,157408,18,Female,1,2024/03/19_11:59:39,YZ,None,
,,,,,,calibration,0,4,2,583,5,C,0,right,0.3396068980000564,1,0,,,,,,,,,,,,,,,,,,,,,1,,,,,,,,,,,,,,,,,,,,,,,,,,,,,,,,,,,,,,,,,,,,,,103,157408,18,Female,1,2024/03/19_11:59:39,YZ,None,
,,,,,,calibration,0,4,2,583,6,N,1,left,0.8794619489999604,1,0,,,,,,,,,,,,,,,,,,,,,1,,,,,,,,,,,,,,,,,,,,,,,,,,,,,,,,,,,,,,,,,,,,,,103,157408,18,Female,1,2024/03/19_11:59:39,YZ,None,
,,,,,,calibration,0,4,2,583,7,S,0,right,0.40462561700405786,1,0,,,,,,,,,,,,,,,,,,,,,1,,,,,,,,,,,,,,,,,,,,,,,,,,,,,,,,,,,,,,,,,,,,,,103,157408,18,Female,1,2024/03/19_11:59:39,YZ,None,
,,,,,,calibration,0,4,2,583,8,V,0,right,0.6003364299976965,1,0,,,,,,,,,,,,,,,,,,,,,1,,,,,,,,,,,,,,,,,,,,,,,,,,,,,,,,,,,,,,,,,,,,,,103,157408,18,Female,1,2024/03/19_11:59:39,YZ,None,
,,,,,,calibration,0,4,2,583,9,Q,0,right,0.5415233739986434,1,0,,,,,,,,,,,,,,,,,,,,,1,,,,,,,,,,,,,,,,,,,,,,,,,,,,,,,,,,,,,,,,,,,,,,103,157408,18,Female,1,2024/03/19_11:59:39,YZ,None,
,,,,,,calibration,0,4,2,583,10,V,1,left,0.5858538199972827,1,0,,,,,,,,,,,,,,,,,,,,,1,,,,,,,,,,,,,,,,,,,,,,,,,,,,,,,,,,,,,,,,,,,,,,103,157408,18,Female,1,2024/03/19_11:59:39,YZ,None,
,,,,,,calibration,0,4,2,583,11,S,0,right,0.5002671350011951,1,0,,,,,,,,,,,,,,,,,,,,,1,,,,,,,,,,,,,,,,,,,,,,,,,,,,,,,,,,,,,,,,,,,,,,103,157408,18,Female,1,2024/03/19_11:59:39,YZ,None,
,,,,,,calibration,0,4,2,583,12,Q,0,left,0.9688794819958275,0,0,,,,,,,,,,,,,,,,,,,,,1,,,,,,,,,,,,,,,,,,,,,,,,,,,,,,,,,,,,,,,,,,,,,,103,157408,18,Female,1,2024/03/19_11:59:39,YZ,None,
,,,,,,calibration,0,4,2,583,13,X,0,right,1.0580286650001653,1,0,,,,,,,,,,,,,,,,,,,,,1,,,,,,,,,,,,,,,,,,,,,,,,,,,,,,,,,,,,,,,,,,,,,,103,157408,18,Female,1,2024/03/19_11:59:39,YZ,None,
,,,,,,calibration,0,4,2,583,14,Q,1,left,0.9185029150030459,1,0,,,,,,,,,,,,,,,,,,,,,1,,,,,,,,,,,,,,,,,,,,,,,,,,,,,,,,,,,,,,,,,,,,,,103,157408,18,Female,1,2024/03/19_11:59:39,YZ,None,
,,,,,,calibration,0,4,2,583,15,S,0,right,0.940379366002162,1,0,,,,,,,,,,,,,,,,,,,,,1,,,,,,,,,,,,,,,,,,,,,,,,,,,,,,,,,,,,,,,,,,,,,,103,157408,18,Female,1,2024/03/19_11:59:39,YZ,None,
,,,,,,calibration,0,4,2,583,,,,,,,,0.9772727272727273,1.0,0.09090909090909091,0.9090909090909091,0.0,0.9090909090909091,0.6555715311333188,4,1,0,0,0,10,14,4,11,0,,,,1,,,,,,,,,,,,,,,,,,,,,,,,,,,,,,,,,,,,,,,,,,,,,,103,157408,18,Female,1,2024/03/19_11:59:39,YZ,None,
,,,,,,Calibration,0,,2,583,,,,,,,,,,,,,,,,,,,,,,,,,3,,,1,,,,,,,,,,,,,,,,,,,,,,,,,,,,,,,,,,,,,,,,,,,,,,103,157408,18,Female,1,2024/03/19_11:59:39,YZ,None,
,,,,,,calibration,0,20,2,500,1,Q,0,right,0.7817419630009681,1,0,,,,,,,,,,,,,,,,,,,,,1,,,,,,,,,,,,,,,,,,,,,,,,,,,,,,,,,,,,,,,,,,,,,,103,157408,18,Female,1,2024/03/19_11:59:39,YZ,None,
,,,,,,calibration,0,20,2,500,2,V,0,right,0.42059888100629905,1,0,,,,,,,,,,,,,,,,,,,,,1,,,,,,,,,,,,,,,,,,,,,,,,,,,,,,,,,,,,,,,,,,,,,,103,157408,18,Female,1,2024/03/19_11:59:39,YZ,None,
,,,,,,calibration,0,20,2,500,3,S,0,right,0.6104944179969607,1,0,,,,,,,,,,,,,,,,,,,,,1,,,,,,,,,,,,,,,,,,,,,,,,,,,,,,,,,,,,,,,,,,,,,,103,157408,18,Female,1,2024/03/19_11:59:39,YZ,None,
,,,,,,calibration,0,20,2,500,4,F,0,right,0.6008737759984797,1,0,,,,,,,,,,,,,,,,,,,,,1,,,,,,,,,,,,,,,,,,,,,,,,,,,,,,,,,,,,,,,,,,,,,,103,157408,18,Female,1,2024/03/19_11:59:39,YZ,None,
,,,,,,calibration,0,20,2,500,5,X,0,right,0.6520751909993123,1,0,,,,,,,,,,,,,,,,,,,,,1,,,,,,,,,,,,,,,,,,,,,,,,,,,,,,,,,,,,,,,,,,,,,,103,157408,18,Female,1,2024/03/19_11:59:39,YZ,None,
,,,,,,calibration,0,20,2,500,6,F,1,left,0.5882795239958796,1,0,,,,,,,,,,,,,,,,,,,,,1,,,,,,,,,,,,,,,,,,,,,,,,,,,,,,,,,,,,,,,,,,,,,,103,157408,18,Female,1,2024/03/19_11:59:39,YZ,None,
,,,,,,calibration,0,20,2,500,7,C,0,right,0.6355995240010088,1,0,,,,,,,,,,,,,,,,,,,,,1,,,,,,,,,,,,,,,,,,,,,,,,,,,,,,,,,,,,,,,,,,,,,,103,157408,18,Female,1,2024/03/19_11:59:39,YZ,None,
,,,,,,calibration,0,20,2,500,8,V,0,right,0.5190108120004879,1,0,,,,,,,,,,,,,,,,,,,,,1,,,,,,,,,,,,,,,,,,,,,,,,,,,,,,,,,,,,,,,,,,,,,,103,157408,18,Female,1,2024/03/19_11:59:39,YZ,None,
,,,,,,calibration,0,20,2,500,9,C,1,left,0.6076060799969127,1,0,,,,,,,,,,,,,,,,,,,,,1,,,,,,,,,,,,,,,,,,,,,,,,,,,,,,,,,,,,,,,,,,,,,,103,157408,18,Female,1,2024/03/19_11:59:39,YZ,None,
,,,,,,calibration,0,20,2,500,10,V,1,left,0.6214741260046139,1,0,,,,,,,,,,,,,,,,,,,,,1,,,,,,,,,,,,,,,,,,,,,,,,,,,,,,,,,,,,,,,,,,,,,,103,157408,18,Female,1,2024/03/19_11:59:39,YZ,None,
,,,,,,calibration,0,20,2,500,11,N,0,right,0.5810956960049225,1,0,,,,,,,,,,,,,,,,,,,,,1,,,,,,,,,,,,,,,,,,,,,,,,,,,,,,,,,,,,,,,,,,,,,,103,157408,18,Female,1,2024/03/19_11:59:39,YZ,None,
,,,,,,calibration,0,20,2,500,12,V,1,right,0.5583758309949189,0,0,,,,,,,,,,,,,,,,,,,,,1,,,,,,,,,,,,,,,,,,,,,,,,,,,,,,,,,,,,,,,,,,,,,,103,157408,18,Female,1,2024/03/19_11:59:39,YZ,None,
,,,,,,calibration,0,20,2,500,13,C,0,right,0.6082085029993323,1,0,,,,,,,,,,,,,,,,,,,,,1,,,,,,,,,,,,,,,,,,,,,,,,,,,,,,,,,,,,,,,,,,,,,,103,157408,18,Female,1,2024/03/19_11:59:39,YZ,None,
,,,,,,calibration,0,20,2,500,14,S,0,right,0.4509885139996186,1,0,,,,,,,,,,,,,,,,,,,,,1,,,,,,,,,,,,,,,,,,,,,,,,,,,,,,,,,,,,,,,,,,,,,,103,157408,18,Female,1,2024/03/19_11:59:39,YZ,None,
,,,,,,calibration,0,20,2,500,15,J,0,right,0.5331006009946577,1,0,,,,,,,,,,,,,,,,,,,,,1,,,,,,,,,,,,,,,,,,,,,,,,,,,,,,,,,,,,,,,,,,,,,,103,157408,18,Female,1,2024/03/19_11:59:39,YZ,None,
,,,,,,calibration,0,20,2,500,16,C,0,left,0.5838498529992648,0,0,,,,,,,,,,,,,,,,,,,,,1,,,,,,,,,,,,,,,,,,,,,,,,,,,,,,,,,,,,,,,,,,,,,,103,157408,18,Female,1,2024/03/19_11:59:39,YZ,None,
,,,,,,calibration,0,20,2,500,,,,,,,,0.8958333333333333,0.75,0.08333333333333333,0.9166666666666666,0.0,0.9166666666666666,0.5845858308121024,3,1,0,0,0,11,14,4,12,0,,,,1,,,,,,,,,,,,,,,,,,,,,,,,,,,,,,,,,,,,,,,,,,,,,,103,157408,18,Female,1,2024/03/19_11:59:39,YZ,None,
,,,,,,Calibration,0,,2,500,,,,,,,,,,,,,,,,,,,,,,,,,4,,,1,,,,,,,,,,,,,,,,,,,,,,,,,,,,,,,,,,,,,,,,,,,,,,103,157408,18,Female,1,2024/03/19_11:59:39,YZ,None,
,,,,,,calibration,0,24,2,426,1,V,0,right,0.6520486150038778,1,0,,,,,,,,,,,,,,,,,,,,,1,,,,,,,,,,,,,,,,,,,,,,,,,,,,,,,,,,,,,,,,,,,,,,103,157408,18,Female,1,2024/03/19_11:59:39,YZ,None,
,,,,,,calibration,0,24,2,426,2,S,0,right,0.3389888570018229,1,0,,,,,,,,,,,,,,,,,,,,,1,,,,,,,,,,,,,,,,,,,,,,,,,,,,,,,,,,,,,,,,,,,,,,103,157408,18,Female,1,2024/03/19_11:59:39,YZ,None,
,,,,,,calibration,0,24,2,426,3,X,0,right,0.5246163129995693,1,0,,,,,,,,,,,,,,,,,,,,,1,,,,,,,,,,,,,,,,,,,,,,,,,,,,,,,,,,,,,,,,,,,,,,103,157408,18,Female,1,2024/03/19_11:59:39,YZ,None,
,,,,,,calibration,0,24,2,426,4,S,1,left,0.41886569000052987,1,0,,,,,,,,,,,,,,,,,,,,,1,,,,,,,,,,,,,,,,,,,,,,,,,,,,,,,,,,,,,,,,,,,,,,103,157408,18,Female,1,2024/03/19_11:59:39,YZ,None,
,,,,,,calibration,0,24,2,426,5,V,0,left,0.6424311489972752,0,0,,,,,,,,,,,,,,,,,,,,,1,,,,,,,,,,,,,,,,,,,,,,,,,,,,,,,,,,,,,,,,,,,,,,103,157408,18,Female,1,2024/03/19_11:59:39,YZ,None,
,,,,,,calibration,0,24,2,426,6,Q,0,right,0.41990829900169047,1,0,,,,,,,,,,,,,,,,,,,,,1,,,,,,,,,,,,,,,,,,,,,,,,,,,,,,,,,,,,,,,,,,,,,,103,157408,18,Female,1,2024/03/19_11:59:39,YZ,None,
,,,,,,calibration,0,24,2,426,7,N,0,right,0.6325077809960931,1,0,,,,,,,,,,,,,,,,,,,,,1,,,,,,,,,,,,,,,,,,,,,,,,,,,,,,,,,,,,,,,,,,,,,,103,157408,18,Female,1,2024/03/19_11:59:39,YZ,None,
,,,,,,calibration,0,24,2,426,8,S,0,right,0.512397159000102,1,0,,,,,,,,,,,,,,,,,,,,,1,,,,,,,,,,,,,,,,,,,,,,,,,,,,,,,,,,,,,,,,,,,,,,103,157408,18,Female,1,2024/03/19_11:59:39,YZ,None,
,,,,,,calibration,0,24,2,426,9,F,0,right,0.4856025289991521,1,0,,,,,,,,,,,,,,,,,,,,,1,,,,,,,,,,,,,,,,,,,,,,,,,,,,,,,,,,,,,,,,,,,,,,103,157408,18,Female,1,2024/03/19_11:59:39,YZ,None,
,,,,,,calibration,0,24,2,426,10,S,1,left,0.6937281899954542,1,0,,,,,,,,,,,,,,,,,,,,,1,,,,,,,,,,,,,,,,,,,,,,,,,,,,,,,,,,,,,,,,,,,,,,103,157408,18,Female,1,2024/03/19_11:59:39,YZ,None,
,,,,,,calibration,0,24,2,426,11,F,1,left,0.8800262950026081,1,0,,,,,,,,,,,,,,,,,,,,,1,,,,,,,,,,,,,,,,,,,,,,,,,,,,,,,,,,,,,,,,,,,,,,103,157408,18,Female,1,2024/03/19_11:59:39,YZ,None,
,,,,,,calibration,0,24,2,426,12,C,0,right,0.5747144289998687,1,0,,,,,,,,,,,,,,,,,,,,,1,,,,,,,,,,,,,,,,,,,,,,,,,,,,,,,,,,,,,,,,,,,,,,103,157408,18,Female,1,2024/03/19_11:59:39,YZ,None,
,,,,,,calibration,0,24,2,426,13,S,0,left,0.47832579399982933,0,0,,,,,,,,,,,,,,,,,,,,,1,,,,,,,,,,,,,,,,,,,,,,,,,,,,,,,,,,,,,,,,,,,,,,103,157408,18,Female,1,2024/03/19_11:59:39,YZ,None,
,,,,,,calibration,0,24,2,426,14,C,1,left,0.812827230001858,1,0,,,,,,,,,,,,,,,,,,,,,1,,,,,,,,,,,,,,,,,,,,,,,,,,,,,,,,,,,,,,,,,,,,,,103,157408,18,Female,1,2024/03/19_11:59:39,YZ,None,
,,,,,,calibration,0,24,2,426,15,S,1,left,0.7057186269958038,1,0,,,,,,,,,,,,,,,,,,,,,1,,,,,,,,,,,,,,,,,,,,,,,,,,,,,,,,,,,,,,,,,,,,,,103,157408,18,Female,1,2024/03/19_11:59:39,YZ,None,
,,,,,,calibration,0,24,2,426,16,Q,0,right,0.6241320519984583,1,0,,,,,,,,,,,,,,,,,,,,,1,,,,,,,,,,,,,,,,,,,,,,,,,,,,,,,,,,,,,,,,,,,,,,103,157408,18,Female,1,2024/03/19_11:59:39,YZ,None,
,,,,,,calibration,0,24,2,426,17,X,0,right,0.5243511869994109,1,0,,,,,,,,,,,,,,,,,,,,,1,,,,,,,,,,,,,,,,,,,,,,,,,,,,,,,,,,,,,,,,,,,,,,103,157408,18,Female,1,2024/03/19_11:59:39,YZ,None,
,,,,,,calibration,0,24,2,426,,,,,,,,0.9583333333333334,1.0,0.16666666666666666,0.8333333333333334,0.0,0.8333333333333334,0.5835994232937296,5,2,0,0,0,10,15,5,12,0,,,,1,,,,,,,,,,,,,,,,,,,,,,,,,,,,,,,,,,,,,,,,,,,,,,103,157408,18,Female,1,2024/03/19_11:59:39,YZ,None,
,,,,,,Calibration,0,,2,426,,,,,,,,,,,,,,,,,,,,,,,,,5,,,1,,,,,,,,,,,,,,,,,,,,,,,,,,,,,,,,,,,,,,,,,,,,,,103,157408,18,Female,1,2024/03/19_11:59:39,YZ,None,
,,,,,,calibration,0,9,2,361,1,Q,0,right,0.48020109899516683,1,0,,,,,,,,,,,,,,,,,,,,,1,,,,,,,,,,,,,,,,,,,,,,,,,,,,,,,,,,,,,,,,,,,,,,103,157408,18,Female,1,2024/03/19_11:59:39,YZ,None,
,,,,,,calibration,0,9,2,361,2,N,0,right,0.3886876610049512,1,0,,,,,,,,,,,,,,,,,,,,,1,,,,,,,,,,,,,,,,,,,,,,,,,,,,,,,,,,,,,,,,,,,,,,103,157408,18,Female,1,2024/03/19_11:59:39,YZ,None,
,,,,,,calibration,0,9,2,361,3,J,0,right,0.5002177770002163,1,0,,,,,,,,,,,,,,,,,,,,,1,,,,,,,,,,,,,,,,,,,,,,,,,,,,,,,,,,,,,,,,,,,,,,103,157408,18,Female,1,2024/03/19_11:59:39,YZ,None,
,,,,,,calibration,0,9,2,361,4,X,0,right,0.465173862001393,1,0,,,,,,,,,,,,,,,,,,,,,1,,,,,,,,,,,,,,,,,,,,,,,,,,,,,,,,,,,,,,,,,,,,,,103,157408,18,Female,1,2024/03/19_11:59:39,YZ,None,
,,,,,,calibration,0,9,2,361,5,C,0,right,0.4742147759970976,1,0,,,,,,,,,,,,,,,,,,,,,1,,,,,,,,,,,,,,,,,,,,,,,,,,,,,,,,,,,,,,,,,,,,,,103,157408,18,Female,1,2024/03/19_11:59:39,YZ,None,
,,,,,,calibration,0,9,2,361,6,J,0,left,0.5685366129982867,0,0,,,,,,,,,,,,,,,,,,,,,1,,,,,,,,,,,,,,,,,,,,,,,,,,,,,,,,,,,,,,,,,,,,,,103,157408,18,Female,1,2024/03/19_11:59:39,YZ,None,
,,,,,,calibration,0,9,2,361,7,S,0,right,0.4936775910027791,1,0,,,,,,,,,,,,,,,,,,,,,1,,,,,,,,,,,,,,,,,,,,,,,,,,,,,,,,,,,,,,,,,,,,,,103,157408,18,Female,1,2024/03/19_11:59:39,YZ,None,
,,,,,,calibration,0,9,2,361,8,Q,0,right,0.5977132890038774,1,0,,,,,,,,,,,,,,,,,,,,,1,,,,,,,,,,,,,,,,,,,,,,,,,,,,,,,,,,,,,,,,,,,,,,103,157408,18,Female,1,2024/03/19_11:59:39,YZ,None,
,,,,,,calibration,0,9,2,361,9,J,0,left,0.6123087009982555,0,0,,,,,,,,,,,,,,,,,,,,,1,,,,,,,,,,,,,,,,,,,,,,,,,,,,,,,,,,,,,,,,,,,,,,103,157408,18,Female,1,2024/03/19_11:59:39,YZ,None,
,,,,,,calibration,0,9,2,361,10,F,0,right,0.43695229799777735,1,0,,,,,,,,,,,,,,,,,,,,,1,,,,,,,,,,,,,,,,,,,,,,,,,,,,,,,,,,,,,,,,,,,,,,103,157408,18,Female,1,2024/03/19_11:59:39,YZ,None,
,,,,,,calibration,0,9,2,361,11,X,0,right,0.5124047779972898,1,0,,,,,,,,,,,,,,,,,,,,,1,,,,,,,,,,,,,,,,,,,,,,,,,,,,,,,,,,,,,,,,,,,,,,103,157408,18,Female,1,2024/03/19_11:59:39,YZ,None,
,,,,,,calibration,0,9,2,361,12,F,1,left,0.5594371059996774,1,0,,,,,,,,,,,,,,,,,,,,,1,,,,,,,,,,,,,,,,,,,,,,,,,,,,,,,,,,,,,,,,,,,,,,103,157408,18,Female,1,2024/03/19_11:59:39,YZ,None,
,,,,,,calibration,0,9,2,361,13,X,1,left,0.5189030500041554,1,0,,,,,,,,,,,,,,,,,,,,,1,,,,,,,,,,,,,,,,,,,,,,,,,,,,,,,,,,,,,,,,,,,,,,103,157408,18,Female,1,2024/03/19_11:59:39,YZ,None,
,,,,,,calibration,0,9,2,361,14,J,0,right,0.4415952790004667,1,0,,,,,,,,,,,,,,,,,,,,,1,,,,,,,,,,,,,,,,,,,,,,,,,,,,,,,,,,,,,,,,,,,,,,103,157408,18,Female,1,2024/03/19_11:59:39,YZ,None,
,,,,,,calibration,0,9,2,361,15,X,1,left,0.6320410539992736,1,0,,,,,,,,,,,,,,,,,,,,,1,,,,,,,,,,,,,,,,,,,,,,,,,,,,,,,,,,,,,,,,,,,,,,103,157408,18,Female,1,2024/03/19_11:59:39,YZ,None,
,,,,,,calibration,0,9,2,361,16,J,1,right,0.4766691870026989,0,0,,,,,,,,,,,,,,,,,,,,,1,,,,,,,,,,,,,,,,,,,,,,,,,,,,,,,,,,,,,,,,,,,,,,103,157408,18,Female,1,2024/03/19_11:59:39,YZ,None,
,,,,,,calibration,0,9,2,361,17,S,0,right,nan,0,1,,,,,,,,,,,,,,,,,,,,,1,,,,,,,,,,,,,,,,,,,,,,,,,,,,,,,,,,,,,,,,,,,,,,103,157408,18,Female,1,2024/03/19_11:59:39,YZ,None,
,,,,,,calibration,0,9,2,361,18,J,1,right,nan,0,1,,,,,,,,,,,,,,,,,,,,,1,,,,,,,,,,,,,,,,,,,,,,,,,,,,,,,,,,,,,,,,,,,,,,103,157408,18,Female,1,2024/03/19_11:59:39,YZ,None,
,,,,,,calibration,0,9,2,361,,,,,,,,0.8,0.6,0.15384615384615385,0.8333333333333334,0.1111111111111111,0.7350427350427351,0.5099208825627102,3,2,1,1,2,10,13,5,13,0,,,,1,,,,,,,,,,,,,,,,,,,,,,,,,,,,,,,,,,,,,,,,,,,,,,103,157408,18,Female,1,2024/03/19_11:59:39,YZ,None,
,,,,,,Calibration,0,,2,361,,,,,,,,,,,,,,,,,,,,,,,,,6,,,1,,,,,,,,,,,,,,,,,,,,,,,,,,,,,,,,,,,,,,,,,,,,,,103,157408,18,Female,1,2024/03/19_11:59:39,YZ,None,
,,,,,,calibration,0,9,2,361,1,Q,0,right,0.33410676199855516,1,0,,,,,,,,,,,,,,,,,,,,,1,,,,,,,,,,,,,,,,,,,,,,,,,,,,,,,,,,,,,,,,,,,,,,103,157408,18,Female,1,2024/03/19_11:59:39,YZ,None,
,,,,,,calibration,0,9,2,361,2,N,0,right,0.3480798910022713,1,0,,,,,,,,,,,,,,,,,,,,,1,,,,,,,,,,,,,,,,,,,,,,,,,,,,,,,,,,,,,,,,,,,,,,103,157408,18,Female,1,2024/03/19_11:59:39,YZ,None,
,,,,,,calibration,0,9,2,361,3,J,0,right,0.4881470559994341,1,0,,,,,,,,,,,,,,,,,,,,,1,,,,,,,,,,,,,,,,,,,,,,,,,,,,,,,,,,,,,,,,,,,,,,103,157408,18,Female,1,2024/03/19_11:59:39,YZ,None,
,,,,,,calibration,0,9,2,361,4,X,0,right,0.45720697499928065,1,0,,,,,,,,,,,,,,,,,,,,,1,,,,,,,,,,,,,,,,,,,,,,,,,,,,,,,,,,,,,,,,,,,,,,103,157408,18,Female,1,2024/03/19_11:59:39,YZ,None,
,,,,,,calibration,0,9,2,361,5,C,0,right,0.5415419379933155,1,0,,,,,,,,,,,,,,,,,,,,,1,,,,,,,,,,,,,,,,,,,,,,,,,,,,,,,,,,,,,,,,,,,,,,103,157408,18,Female,1,2024/03/19_11:59:39,YZ,None,
,,,,,,calibration,0,9,2,361,6,J,0,left,0.6740171199999168,0,0,,,,,,,,,,,,,,,,,,,,,1,,,,,,,,,,,,,,,,,,,,,,,,,,,,,,,,,,,,,,,,,,,,,,103,157408,18,Female,1,2024/03/19_11:59:39,YZ,None,
,,,,,,calibration,0,9,2,361,7,S,0,right,0.49647458200342953,1,0,,,,,,,,,,,,,,,,,,,,,1,,,,,,,,,,,,,,,,,,,,,,,,,,,,,,,,,,,,,,,,,,,,,,103,157408,18,Female,1,2024/03/19_11:59:39,YZ,None,
,,,,,,calibration,0,9,2,361,8,Q,0,right,0.6479925309977261,1,0,,,,,,,,,,,,,,,,,,,,,1,,,,,,,,,,,,,,,,,,,,,,,,,,,,,,,,,,,,,,,,,,,,,,103,157408,18,Female,1,2024/03/19_11:59:39,YZ,None,
,,,,,,calibration,0,9,2,361,9,J,0,left,0.6016668520023813,0,0,,,,,,,,,,,,,,,,,,,,,1,,,,,,,,,,,,,,,,,,,,,,,,,,,,,,,,,,,,,,,,,,,,,,103,157408,18,Female,1,2024/03/19_11:59:39,YZ,None,
,,,,,,calibration,0,9,2,361,10,F,0,right,0.6855701059976127,1,0,,,,,,,,,,,,,,,,,,,,,1,,,,,,,,,,,,,,,,,,,,,,,,,,,,,,,,,,,,,,,,,,,,,,103,157408,18,Female,1,2024/03/19_11:59:39,YZ,None,
,,,,,,calibration,0,9,2,361,11,X,0,right,0.6369020049969549,1,0,,,,,,,,,,,,,,,,,,,,,1,,,,,,,,,,,,,,,,,,,,,,,,,,,,,,,,,,,,,,,,,,,,,,103,157408,18,Female,1,2024/03/19_11:59:39,YZ,None,
,,,,,,calibration,0,9,2,361,12,F,1,left,0.8734907109974301,1,0,,,,,,,,,,,,,,,,,,,,,1,,,,,,,,,,,,,,,,,,,,,,,,,,,,,,,,,,,,,,,,,,,,,,103,157408,18,Female,1,2024/03/19_11:59:39,YZ,None,
,,,,,,calibration,0,9,2,361,13,X,1,left,nan,0,1,,,,,,,,,,,,,,,,,,,,,1,,,,,,,,,,,,,,,,,,,,,,,,,,,,,,,,,,,,,,,,,,,,,,103,157408,18,Female,1,2024/03/19_11:59:39,YZ,None,
,,,,,,calibration,0,9,2,361,14,J,0,right,0.0,1,0,,,,,,,,,,,,,,,,,,,,,1,,,,,,,,,,,,,,,,,,,,,,,,,,,,,,,,,,,,,,,,,,,,,,103,157408,18,Female,1,2024/03/19_11:59:39,YZ,None,
,,,,,,calibration,0,9,2,361,15,X,1,right,0.8479145289966254,0,0,,,,,,,,,,,,,,,,,,,,,1,,,,,,,,,,,,,,,,,,,,,,,,,,,,,,,,,,,,,,,,,,,,,,103,157408,18,Female,1,2024/03/19_11:59:39,YZ,None,
,,,,,,calibration,0,9,2,361,16,J,1,left,0.7393125989983673,1,0,,,,,,,,,,,,,,,,,,,,,1,,,,,,,,,,,,,,,,,,,,,,,,,,,,,,,,,,,,,,,,,,,,,,103,157408,18,Female,1,2024/03/19_11:59:39,YZ,None,
,,,,,,calibration,0,9,2,361,17,S,0,right,0.7081735819956521,1,0,,,,,,,,,,,,,,,,,,,,,1,,,,,,,,,,,,,,,,,,,,,,,,,,,,,,,,,,,,,,,,,,,,,,103,157408,18,Female,1,2024/03/19_11:59:39,YZ,None,
,,,,,,calibration,0,9,2,361,18,J,1,left,0.664840687000833,1,0,,,,,,,,,,,,,,,,,,,,,1,,,,,,,,,,,,,,,,,,,,,,,,,,,,,,,,,,,,,,,,,,,,,,103,157408,18,Female,1,2024/03/19_11:59:39,YZ,None,
,,,,,,calibration,0,9,2,361,,,,,,,,0.8,0.6,0.15384615384615385,0.8461538461538461,0.05555555555555555,0.7905982905982906,0.5732610544693992,3,2,1,0,1,11,14,5,13,0,,,,1,,,,,,,,,,,,,,,,,,,,,,,,,,,,,,,,,,,,,,,,,,,,,,103,157408,18,Female,1,2024/03/19_11:59:39,YZ,None,
,,,,,,Calibration,0,,2,361,,,,,,,,,,,,,,,,,,,,,,,,,7,,,1,,,,,,,,,,,,,,,,,,,,,,,,,,,,,,,,,,,,,,,,,,,,,,103,157408,18,Female,1,2024/03/19_11:59:39,YZ,None,
,,,,,,calibration,0,34,2,361,1,F,0,right,0.4617330609980854,1,0,,,,,,,,,,,,,,,,,,,,,1,,,,,,,,,,,,,,,,,,,,,,,,,,,,,,,,,,,,,,,,,,,,,,103,157408,18,Female,1,2024/03/19_11:59:39,YZ,None,
,,,,,,calibration,0,34,2,361,2,C,0,right,0.30389639899658505,1,0,,,,,,,,,,,,,,,,,,,,,1,,,,,,,,,,,,,,,,,,,,,,,,,,,,,,,,,,,,,,,,,,,,,,103,157408,18,Female,1,2024/03/19_11:59:39,YZ,None,
,,,,,,calibration,0,34,2,361,3,V,0,right,0.5321108470016043,1,0,,,,,,,,,,,,,,,,,,,,,1,,,,,,,,,,,,,,,,,,,,,,,,,,,,,,,,,,,,,,,,,,,,,,103,157408,18,Female,1,2024/03/19_11:59:39,YZ,None,
,,,,,,calibration,0,34,2,361,4,X,0,right,0.6073353890024009,1,0,,,,,,,,,,,,,,,,,,,,,1,,,,,,,,,,,,,,,,,,,,,,,,,,,,,,,,,,,,,,,,,,,,,,103,157408,18,Female,1,2024/03/19_11:59:39,YZ,None,
,,,,,,calibration,0,34,2,361,5,V,1,left,0.9411603219996323,1,0,,,,,,,,,,,,,,,,,,,,,1,,,,,,,,,,,,,,,,,,,,,,,,,,,,,,,,,,,,,,,,,,,,,,103,157408,18,Female,1,2024/03/19_11:59:39,YZ,None,
,,,,,,calibration,0,34,2,361,6,N,0,right,0.5413589800009504,1,0,,,,,,,,,,,,,,,,,,,,,1,,,,,,,,,,,,,,,,,,,,,,,,,,,,,,,,,,,,,,,,,,,,,,103,157408,18,Female,1,2024/03/19_11:59:39,YZ,None,
,,,,,,calibration,0,34,2,361,7,V,1,left,0.6315597319990047,1,0,,,,,,,,,,,,,,,,,,,,,1,,,,,,,,,,,,,,,,,,,,,,,,,,,,,,,,,,,,,,,,,,,,,,103,157408,18,Female,1,2024/03/19_11:59:39,YZ,None,
,,,,,,calibration,0,34,2,361,8,N,1,left,0.9145679619978182,1,0,,,,,,,,,,,,,,,,,,,,,1,,,,,,,,,,,,,,,,,,,,,,,,,,,,,,,,,,,,,,,,,,,,,,103,157408,18,Female,1,2024/03/19_11:59:39,YZ,None,
,,,,,,calibration,0,34,2,361,9,J,0,right,0.7919937839978957,1,0,,,,,,,,,,,,,,,,,,,,,1,,,,,,,,,,,,,,,,,,,,,,,,,,,,,,,,,,,,,,,,,,,,,,103,157408,18,Female,1,2024/03/19_11:59:39,YZ,None,
,,,,,,calibration,0,34,2,361,10,V,0,left,0.8424265810026554,0,0,,,,,,,,,,,,,,,,,,,,,1,,,,,,,,,,,,,,,,,,,,,,,,,,,,,,,,,,,,,,,,,,,,,,103,157408,18,Female,1,2024/03/19_11:59:39,YZ,None,
,,,,,,calibration,0,34,2,361,11,C,0,right,0.6982011110012536,1,0,,,,,,,,,,,,,,,,,,,,,1,,,,,,,,,,,,,,,,,,,,,,,,,,,,,,,,,,,,,,,,,,,,,,103,157408,18,Female,1,2024/03/19_11:59:39,YZ,None,
,,,,,,calibration,0,34,2,361,12,V,1,left,0.6144116290015518,1,0,,,,,,,,,,,,,,,,,,,,,1,,,,,,,,,,,,,,,,,,,,,,,,,,,,,,,,,,,,,,,,,,,,,,103,157408,18,Female,1,2024/03/19_11:59:39,YZ,None,
,,,,,,calibration,0,34,2,361,13,J,0,left,nan,0,1,,,,,,,,,,,,,,,,,,,,,1,,,,,,,,,,,,,,,,,,,,,,,,,,,,,,,,,,,,,,,,,,,,,,103,157408,18,Female,1,2024/03/19_11:59:39,YZ,None,
,,,,,,calibration,0,34,2,361,14,S,0,right,0.7740953460015589,1,0,,,,,,,,,,,,,,,,,,,,,1,,,,,,,,,,,,,,,,,,,,,,,,,,,,,,,,,,,,,,,,,,,,,,103,157408,18,Female,1,2024/03/19_11:59:39,YZ,None,
,,,,,,calibration,0,34,2,361,15,J,1,left,0.5186077289981768,1,0,,,,,,,,,,,,,,,,,,,,,1,,,,,,,,,,,,,,,,,,,,,,,,,,,,,,,,,,,,,,,,,,,,,,103,157408,18,Female,1,2024/03/19_11:59:39,YZ,None,
,,,,,,calibration,0,34,2,361,16,V,0,left,nan,0,1,,,,,,,,,,,,,,,,,,,,,1,,,,,,,,,,,,,,,,,,,,,,,,,,,,,,,,,,,,,,,,,,,,,,103,157408,18,Female,1,2024/03/19_11:59:39,YZ,None,
,,,,,,calibration,0,34,2,361,17,F,0,right,0.9253500570048345,1,0,,,,,,,,,,,,,,,,,,,,,1,,,,,,,,,,,,,,,,,,,,,,,,,,,,,,,,,,,,,,,,,,,,,,103,157408,18,Female,1,2024/03/19_11:59:39,YZ,None,
,,,,,,calibration,0,34,2,361,18,S,0,right,nan,0,1,,,,,,,,,,,,,,,,,,,,,1,,,,,,,,,,,,,,,,,,,,,,,,,,,,,,,,,,,,,,,,,,,,,,103,157408,18,Female,1,2024/03/19_11:59:39,YZ,None,
,,,,,,calibration,0,34,2,361,,,,,,,,0.9807692307692308,1.0,0.07692307692307693,0.9,0.16666666666666666,0.7564102564102565,0.6732539286002672,5,1,0,3,3,9,14,5,13,0,,,,1,,,,,,,,,,,,,,,,,,,,,,,,,,,,,,,,,,,,,,,,,,,,,,103,157408,18,Female,1,2024/03/19_11:59:39,YZ,None,
,,,,,,Calibration,0,,2,361,,,,,,,,,,,,,,,,,,,,,,,,,8,,,1,,,,,,,,,,,,,,,,,,,,,,,,,,,,,,,,,,,,,,,,,,,,,,103,157408,18,Female,1,2024/03/19_11:59:39,YZ,None,
,,,,,,calibration,0,15,2,303,1,F,0,right,0.5315650000047754,1,0,,,,,,,,,,,,,,,,,,,,,1,,,,,,,,,,,,,,,,,,,,,,,,,,,,,,,,,,,,,,,,,,,,,,103,157408,18,Female,1,2024/03/19_11:59:39,YZ,None,
,,,,,,calibration,0,15,2,303,2,J,0,right,0.5903543820022605,1,0,,,,,,,,,,,,,,,,,,,,,1,,,,,,,,,,,,,,,,,,,,,,,,,,,,,,,,,,,,,,,,,,,,,,103,157408,18,Female,1,2024/03/19_11:59:39,YZ,None,
,,,,,,calibration,0,15,2,303,3,Q,0,right,0.714141541000572,1,0,,,,,,,,,,,,,,,,,,,,,1,,,,,,,,,,,,,,,,,,,,,,,,,,,,,,,,,,,,,,,,,,,,,,103,157408,18,Female,1,2024/03/19_11:59:39,YZ,None,
,,,,,,calibration,0,15,2,303,4,C,0,right,nan,0,1,,,,,,,,,,,,,,,,,,,,,1,,,,,,,,,,,,,,,,,,,,,,,,,,,,,,,,,,,,,,,,,,,,,,103,157408,18,Female,1,2024/03/19_11:59:39,YZ,None,
,,,,,,calibration,0,15,2,303,5,J,0,right,0.1307433449983364,1,0,,,,,,,,,,,,,,,,,,,,,1,,,,,,,,,,,,,,,,,,,,,,,,,,,,,,,,,,,,,,,,,,,,,,103,157408,18,Female,1,2024/03/19_11:59:39,YZ,None,
,,,,,,calibration,0,15,2,303,6,C,1,left,0.8929199660051381,1,0,,,,,,,,,,,,,,,,,,,,,1,,,,,,,,,,,,,,,,,,,,,,,,,,,,,,,,,,,,,,,,,,,,,,103,157408,18,Female,1,2024/03/19_11:59:39,YZ,None,
,,,,,,calibration,0,15,2,303,7,V,0,right,0.9742471420031507,1,0,,,,,,,,,,,,,,,,,,,,,1,,,,,,,,,,,,,,,,,,,,,,,,,,,,,,,,,,,,,,,,,,,,,,103,157408,18,Female,1,2024/03/19_11:59:39,YZ,None,
,,,,,,calibration,0,15,2,303,8,N,0,right,0.36656910700548906,1,0,,,,,,,,,,,,,,,,,,,,,1,,,,,,,,,,,,,,,,,,,,,,,,,,,,,,,,,,,,,,,,,,,,,,103,157408,18,Female,1,2024/03/19_11:59:39,YZ,None,
,,,,,,calibration,0,15,2,303,9,F,0,right,0.7285337140056072,1,0,,,,,,,,,,,,,,,,,,,,,1,,,,,,,,,,,,,,,,,,,,,,,,,,,,,,,,,,,,,,,,,,,,,,103,157408,18,Female,1,2024/03/19_11:59:39,YZ,None,
,,,,,,calibration,0,15,2,303,10,Q,0,right,0.5351167560002068,1,0,,,,,,,,,,,,,,,,,,,,,1,,,,,,,,,,,,,,,,,,,,,,,,,,,,,,,,,,,,,,,,,,,,,,103,157408,18,Female,1,2024/03/19_11:59:39,YZ,None,
,,,,,,calibration,0,15,2,303,11,F,1,left,0.8355875550041674,1,0,,,,,,,,,,,,,,,,,,,,,1,,,,,,,,,,,,,,,,,,,,,,,,,,,,,,,,,,,,,,,,,,,,,,103,157408,18,Female,1,2024/03/19_11:59:39,YZ,None,
,,,,,,calibration,0,15,2,303,12,Q,1,left,nan,0,1,,,,,,,,,,,,,,,,,,,,,1,,,,,,,,,,,,,,,,,,,,,,,,,,,,,,,,,,,,,,,,,,,,,,103,157408,18,Female,1,2024/03/19_11:59:39,YZ,None,
,,,,,,calibration,0,15,2,303,13,C,0,right,0.6337939939985517,1,0,,,,,,,,,,,,,,,,,,,,,1,,,,,,,,,,,,,,,,,,,,,,,,,,,,,,,,,,,,,,,,,,,,,,103,157408,18,Female,1,2024/03/19_11:59:39,YZ,None,
,,,,,,calibration,0,15,2,303,14,X,0,right,0.47219425100047374,1,0,,,,,,,,,,,,,,,,,,,,,1,,,,,,,,,,,,,,,,,,,,,,,,,,,,,,,,,,,,,,,,,,,,,,103,157408,18,Female,1,2024/03/19_11:59:39,YZ,None,
,,,,,,calibration,0,15,2,303,15,J,0,left,0.9586819859978277,0,0,,,,,,,,,,,,,,,,,,,,,1,,,,,,,,,,,,,,,,,,,,,,,,,,,,,,,,,,,,,,,,,,,,,,103,157408,18,Female,1,2024/03/19_11:59:39,YZ,None,
,,,,,,calibration,0,15,2,303,16,X,1,left,0.6536225019954145,1,0,,,,,,,,,,,,,,,,,,,,,1,,,,,,,,,,,,,,,,,,,,,,,,,,,,,,,,,,,,,,,,,,,,,,103,157408,18,Female,1,2024/03/19_11:59:39,YZ,None,
,,,,,,calibration,0,15,2,303,17,N,0,right,0.5788069479967817,1,0,,,,,,,,,,,,,,,,,,,,,1,,,,,,,,,,,,,,,,,,,,,,,,,,,,,,,,,,,,,,,,,,,,,,103,157408,18,Female,1,2024/03/19_11:59:39,YZ,None,
,,,,,,calibration,0,15,2,303,18,X,1,left,0.6248939059951226,1,0,,,,,,,,,,,,,,,,,,,,,1,,,,,,,,,,,,,,,,,,,,,,,,,,,,,,,,,,,,,,,,,,,,,,103,157408,18,Female,1,2024/03/19_11:59:39,YZ,None,
,,,,,,calibration,0,15,2,303,19,J,0,right,0.48123550699529005,1,0,,,,,,,,,,,,,,,,,,,,,1,,,,,,,,,,,,,,,,,,,,,,,,,,,,,,,,,,,,,,,,,,,,,,103,157408,18,Female,1,2024/03/19_11:59:39,YZ,None,
,,,,,,calibration,0,15,2,303,,,,,,,,0.9178571428571429,0.8,0.07142857142857142,0.9230769230769231,0.10526315789473684,0.8233082706766918,0.6295886824711274,4,1,1,1,2,12,16,5,14,0,,,,1,,,,,,,,,,,,,,,,,,,,,,,,,,,,,,,,,,,,,,,,,,,,,,103,157408,18,Female,1,2024/03/19_11:59:39,YZ,None,
,,,,,,Calibration,0,,2,303,,,,,,,,,,,,,,,,,,,,,,,,,9,,,1,,,,,,,,,,,,,,,,,,,,,,,,,,,,,,,,,,,,,,,,,,,,,,103,157408,18,Female,1,2024/03/19_11:59:39,YZ,None,
,,,,,,calibration,0,21,2,250,1,X,0,right,0.533785280000302,1,0,,,,,,,,,,,,,,,,,,,,,1,,,,,,,,,,,,,,,,,,,,,,,,,,,,,,,,,,,,,,,,,,,,,,103,157408,18,Female,1,2024/03/19_11:59:39,YZ,None,
,,,,,,calibration,0,21,2,250,2,F,0,right,0.26050186199427117,1,0,,,,,,,,,,,,,,,,,,,,,1,,,,,,,,,,,,,,,,,,,,,,,,,,,,,,,,,,,,,,,,,,,,,,103,157408,18,Female,1,2024/03/19_11:59:39,YZ,None,
,,,,,,calibration,0,21,2,250,3,X,1,left,0.6796589430014137,1,0,,,,,,,,,,,,,,,,,,,,,1,,,,,,,,,,,,,,,,,,,,,,,,,,,,,,,,,,,,,,,,,,,,,,103,157408,18,Female,1,2024/03/19_11:59:39,YZ,None,
,,,,,,calibration,0,21,2,250,4,V,0,right,0.6588214160001371,1,0,,,,,,,,,,,,,,,,,,,,,1,,,,,,,,,,,,,,,,,,,,,,,,,,,,,,,,,,,,,,,,,,,,,,103,157408,18,Female,1,2024/03/19_11:59:39,YZ,None,
,,,,,,calibration,0,21,2,250,5,X,1,left,0.5413714500027709,1,0,,,,,,,,,,,,,,,,,,,,,1,,,,,,,,,,,,,,,,,,,,,,,,,,,,,,,,,,,,,,,,,,,,,,103,157408,18,Female,1,2024/03/19_11:59:39,YZ,None,
,,,,,,calibration,0,21,2,250,6,V,1,left,0.6354178670007968,1,0,,,,,,,,,,,,,,,,,,,,,1,,,,,,,,,,,,,,,,,,,,,,,,,,,,,,,,,,,,,,,,,,,,,,103,157408,18,Female,1,2024/03/19_11:59:39,YZ,None,
,,,,,,calibration,0,21,2,250,7,S,0,right,0.49649504399712896,1,0,,,,,,,,,,,,,,,,,,,,,1,,,,,,,,,,,,,,,,,,,,,,,,,,,,,,,,,,,,,,,,,,,,,,103,157408,18,Female,1,2024/03/19_11:59:39,YZ,None,
,,,,,,calibration,0,21,2,250,8,V,1,right,nan,0,1,,,,,,,,,,,,,,,,,,,,,1,,,,,,,,,,,,,,,,,,,,,,,,,,,,,,,,,,,,,,,,,,,,,,103,157408,18,Female,1,2024/03/19_11:59:39,YZ,None,
,,,,,,calibration,0,21,2,250,9,S,1,left,0.7394592509954236,1,0,,,,,,,,,,,,,,,,,,,,,1,,,,,,,,,,,,,,,,,,,,,,,,,,,,,,,,,,,,,,,,,,,,,,103,157408,18,Female,1,2024/03/19_11:59:39,YZ,None,
,,,,,,calibration,0,21,2,250,10,N,0,right,0.6348487279974506,1,0,,,,,,,,,,,,,,,,,,,,,1,,,,,,,,,,,,,,,,,,,,,,,,,,,,,,,,,,,,,,,,,,,,,,103,157408,18,Female,1,2024/03/19_11:59:39,YZ,None,
,,,,,,calibration,0,21,2,250,11,V,0,left,0.6683263320010155,0,0,,,,,,,,,,,,,,,,,,,,,1,,,,,,,,,,,,,,,,,,,,,,,,,,,,,,,,,,,,,,,,,,,,,,103,157408,18,Female,1,2024/03/19_11:59:39,YZ,None,
,,,,,,calibration,0,21,2,250,12,F,0,right,0.5606033020012546,1,0,,,,,,,,,,,,,,,,,,,,,1,,,,,,,,,,,,,,,,,,,,,,,,,,,,,,,,,,,,,,,,,,,,,,103,157408,18,Female,1,2024/03/19_11:59:39,YZ,None,
,,,,,,calibration,0,21,2,250,13,N,0,left,0.9424912920003408,0,0,,,,,,,,,,,,,,,,,,,,,1,,,,,,,,,,,,,,,,,,,,,,,,,,,,,,,,,,,,,,,,,,,,,,103,157408,18,Female,1,2024/03/19_11:59:39,YZ,None,
,,,,,,calibration,0,21,2,250,14,C,0,right,0.49013352600013604,1,0,,,,,,,,,,,,,,,,,,,,,1,,,,,,,,,,,,,,,,,,,,,,,,,,,,,,,,,,,,,,,,,,,,,,103,157408,18,Female,1,2024/03/19_11:59:39,YZ,None,
,,,,,,calibration,0,21,2,250,15,F,0,right,0.5347516969995922,1,0,,,,,,,,,,,,,,,,,,,,,1,,,,,,,,,,,,,,,,,,,,,,,,,,,,,,,,,,,,,,,,,,,,,,103,157408,18,Female,1,2024/03/19_11:59:39,YZ,None,
,,,,,,calibration,0,21,2,250,16,N,0,right,0.4737033390047145,1,0,,,,,,,,,,,,,,,,,,,,,1,,,,,,,,,,,,,,,,,,,,,,,,,,,,,,,,,,,,,,,,,,,,,,103,157408,18,Female,1,2024/03/19_11:59:39,YZ,None,
,,,,,,calibration,0,21,2,250,17,F,1,right,nan,0,1,,,,,,,,,,,,,,,,,,,,,1,,,,,,,,,,,,,,,,,,,,,,,,,,,,,,,,,,,,,,,,,,,,,,103,157408,18,Female,1,2024/03/19_11:59:39,YZ,None,
,,,,,,calibration,0,21,2,250,18,S,0,left,0.27781525899627013,0,0,,,,,,,,,,,,,,,,,,,,,1,,,,,,,,,,,,,,,,,,,,,,,,,,,,,,,,,,,,,,,,,,,,,,103,157408,18,Female,1,2024/03/19_11:59:39,YZ,None,
,,,,,,calibration,0,21,2,250,19,N,0,right,0.7905482309943181,1,0,,,,,,,,,,,,,,,,,,,,,1,,,,,,,,,,,,,,,,,,,,,,,,,,,,,,,,,,,,,,,,,,,,,,103,157408,18,Female,1,2024/03/19_11:59:39,YZ,None,
,,,,,,calibration,0,21,2,250,20,F,0,right,0.5252852730045561,1,0,,,,,,,,,,,,,,,,,,,,,1,,,,,,,,,,,,,,,,,,,,,,,,,,,,,,,,,,,,,,,,,,,,,,103,157408,18,Female,1,2024/03/19_11:59:39,YZ,None,
,,,,,,calibration,0,21,2,250,,,,,,,,0.7916666666666667,0.6666666666666666,0.21428571428571427,0.7857142857142857,0.1,0.6857142857142857,0.5802232273328829,4,3,2,0,2,11,15,6,14,0,,,,1,,,,,,,,,,,,,,,,,,,,,,,,,,,,,,,,,,,,,,,,,,,,,,103,157408,18,Female,1,2024/03/19_11:59:39,YZ,None,
,,,,,,Calibration,0,,2,250,,,,,,,,,,,,,,,,,,,,,,,,,10,,,1,,,,,,,,,,,,,,,,,,,,,,,,,,,,,,,,,,,,,,,,,,,,,,103,157408,18,Female,1,2024/03/19_11:59:39,YZ,None,
,,,,,,calibration,0,31,2,250,1,Q,0,right,0.6387157560020569,1,0,,,,,,,,,,,,,,,,,,,,,1,,,,,,,,,,,,,,,,,,,,,,,,,,,,,,,,,,,,,,,,,,,,,,103,157408,18,Female,1,2024/03/19_11:59:39,YZ,None,
,,,,,,calibration,0,31,2,250,2,V,0,right,0.2711663369991584,1,0,,,,,,,,,,,,,,,,,,,,,1,,,,,,,,,,,,,,,,,,,,,,,,,,,,,,,,,,,,,,,,,,,,,,103,157408,18,Female,1,2024/03/19_11:59:39,YZ,None,
,,,,,,calibration,0,31,2,250,3,Q,1,left,0.44405989199731266,1,0,,,,,,,,,,,,,,,,,,,,,1,,,,,,,,,,,,,,,,,,,,,,,,,,,,,,,,,,,,,,,,,,,,,,103,157408,18,Female,1,2024/03/19_11:59:39,YZ,None,
,,,,,,calibration,0,31,2,250,4,S,0,right,0.47649591600202257,1,0,,,,,,,,,,,,,,,,,,,,,1,,,,,,,,,,,,,,,,,,,,,,,,,,,,,,,,,,,,,,,,,,,,,,103,157408,18,Female,1,2024/03/19_11:59:39,YZ,None,
,,,,,,calibration,0,31,2,250,5,N,0,right,0.7978740800026571,1,0,,,,,,,,,,,,,,,,,,,,,1,,,,,,,,,,,,,,,,,,,,,,,,,,,,,,,,,,,,,,,,,,,,,,103,157408,18,Female,1,2024/03/19_11:59:39,YZ,None,
,,,,,,calibration,0,31,2,250,6,S,1,left,0.5914410600016708,1,0,,,,,,,,,,,,,,,,,,,,,1,,,,,,,,,,,,,,,,,,,,,,,,,,,,,,,,,,,,,,,,,,,,,,103,157408,18,Female,1,2024/03/19_11:59:39,YZ,None,
,,,,,,calibration,0,31,2,250,7,N,1,left,0.707953979006561,1,0,,,,,,,,,,,,,,,,,,,,,1,,,,,,,,,,,,,,,,,,,,,,,,,,,,,,,,,,,,,,,,,,,,,,103,157408,18,Female,1,2024/03/19_11:59:39,YZ,None,
,,,,,,calibration,0,31,2,250,8,F,0,right,0.6235140510034398,1,0,,,,,,,,,,,,,,,,,,,,,1,,,,,,,,,,,,,,,,,,,,,,,,,,,,,,,,,,,,,,,,,,,,,,103,157408,18,Female,1,2024/03/19_11:59:39,YZ,None,
,,,,,,calibration,0,31,2,250,9,Q,0,right,0.5726389320043381,1,0,,,,,,,,,,,,,,,,,,,,,1,,,,,,,,,,,,,,,,,,,,,,,,,,,,,,,,,,,,,,,,,,,,,,103,157408,18,Female,1,2024/03/19_11:59:39,YZ,None,
,,,,,,calibration,0,31,2,250,10,F,1,right,0.4527263359996141,0,0,,,,,,,,,,,,,,,,,,,,,1,,,,,,,,,,,,,,,,,,,,,,,,,,,,,,,,,,,,,,,,,,,,,,103,157408,18,Female,1,2024/03/19_11:59:39,YZ,None,
,,,,,,calibration,0,31,2,250,11,X,0,right,nan,0,1,,,,,,,,,,,,,,,,,,,,,1,,,,,,,,,,,,,,,,,,,,,,,,,,,,,,,,,,,,,,,,,,,,,,103,157408,18,Female,1,2024/03/19_11:59:39,YZ,None,
,,,,,,calibration,0,31,2,250,12,C,0,right,0.925991789001273,1,0,,,,,,,,,,,,,,,,,,,,,1,,,,,,,,,,,,,,,,,,,,,,,,,,,,,,,,,,,,,,,,,,,,,,103,157408,18,Female,1,2024/03/19_11:59:39,YZ,None,
,,,,,,calibration,0,31,2,250,13,X,1,right,0.29853769499459304,0,0,,,,,,,,,,,,,,,,,,,,,1,,,,,,,,,,,,,,,,,,,,,,,,,,,,,,,,,,,,,,,,,,,,,,103,157408,18,Female,1,2024/03/19_11:59:39,YZ,None,
,,,,,,calibration,0,31,2,250,14,N,0,right,0.5661878519968013,1,0,,,,,,,,,,,,,,,,,,,,,1,,,,,,,,,,,,,,,,,,,,,,,,,,,,,,,,,,,,,,,,,,,,,,103,157408,18,Female,1,2024/03/19_11:59:39,YZ,None,
,,,,,,calibration,0,31,2,250,15,S,0,right,0.9415777920003165,1,0,,,,,,,,,,,,,,,,,,,,,1,,,,,,,,,,,,,,,,,,,,,,,,,,,,,,,,,,,,,,,,,,,,,,103,157408,18,Female,1,2024/03/19_11:59:39,YZ,None,
,,,,,,calibration,0,31,2,250,16,C,0,left,0.6040369629990892,0,0,,,,,,,,,,,,,,,,,,,,,1,,,,,,,,,,,,,,,,,,,,,,,,,,,,,,,,,,,,,,,,,,,,,,103,157408,18,Female,1,2024/03/19_11:59:39,YZ,None,
,,,,,,calibration,0,31,2,250,17,V,0,left,nan,0,1,,,,,,,,,,,,,,,,,,,,,1,,,,,,,,,,,,,,,,,,,,,,,,,,,,,,,,,,,,,,,,,,,,,,103,157408,18,Female,1,2024/03/19_11:59:39,YZ,None,
,,,,,,calibration,0,31,2,250,18,X,0,right,0.8987404919971596,1,0,,,,,,,,,,,,,,,,,,,,,1,,,,,,,,,,,,,,,,,,,,,,,,,,,,,,,,,,,,,,,,,,,,,,103,157408,18,Female,1,2024/03/19_11:59:39,YZ,None,
,,,,,,calibration,0,31,2,250,19,N,0,right,nan,0,1,,,,,,,,,,,,,,,,,,,,,1,,,,,,,,,,,,,,,,,,,,,,,,,,,,,,,,,,,,,,,,,,,,,,103,157408,18,Female,1,2024/03/19_11:59:39,YZ,None,
,,,,,,calibration,0,31,2,250,20,C,0,right,0.0735924909968162,1,0,,,,,,,,,,,,,,,,,,,,,1,,,,,,,,,,,,,,,,,,,,,,,,,,,,,,,,,,,,,,,,,,,,,,103,157408,18,Female,1,2024/03/19_11:59:39,YZ,None,
,,,,,,calibration,0,31,2,250,,,,,,,,0.8566666666666667,0.6,0.06666666666666667,0.9166666666666666,0.15,0.7833333333333333,0.5814853772355812,3,1,0,3,3,11,14,5,15,0,,,,1,,,,,,,,,,,,,,,,,,,,,,,,,,,,,,,,,,,,,,,,,,,,,,103,157408,18,Female,1,2024/03/19_11:59:39,YZ,None,
,,,,,,Calibration,0,,2,250,,,,,,,,,,,,,,,,,,,,,,,,,11,,,1,,,,,,,,,,,,,,,,,,,,,,,,,,,,,,,,,,,,,,,,,,,,,,103,157408,18,Female,1,2024/03/19_11:59:39,YZ,None,
,,,,,,calibration,0,26,2,202,1,V,0,right,0.45547436700144317,1,0,,,,,,,,,,,,,,,,,,,,,1,,,,,,,,,,,,,,,,,,,,,,,,,,,,,,,,,,,,,,,,,,,,,,103,157408,18,Female,1,2024/03/19_11:59:39,YZ,None,
,,,,,,calibration,0,26,2,202,2,Q,0,right,nan,0,1,,,,,,,,,,,,,,,,,,,,,1,,,,,,,,,,,,,,,,,,,,,,,,,,,,,,,,,,,,,,,,,,,,,,103,157408,18,Female,1,2024/03/19_11:59:39,YZ,None,
,,,,,,calibration,0,26,2,202,3,S,0,right,0.7223776520040701,1,0,,,,,,,,,,,,,,,,,,,,,1,,,,,,,,,,,,,,,,,,,,,,,,,,,,,,,,,,,,,,,,,,,,,,103,157408,18,Female,1,2024/03/19_11:59:39,YZ,None,
,,,,,,calibration,0,26,2,202,4,C,0,right,0.5591658369958168,1,0,,,,,,,,,,,,,,,,,,,,,1,,,,,,,,,,,,,,,,,,,,,,,,,,,,,,,,,,,,,,,,,,,,,,103,157408,18,Female,1,2024/03/19_11:59:39,YZ,None,
,,,,,,calibration,0,26,2,202,5,S,1,left,0.6810983800023678,1,0,,,,,,,,,,,,,,,,,,,,,1,,,,,,,,,,,,,,,,,,,,,,,,,,,,,,,,,,,,,,,,,,,,,,103,157408,18,Female,1,2024/03/19_11:59:39,YZ,None,
,,,,,,calibration,0,26,2,202,6,V,0,right,0.6304328850019374,1,0,,,,,,,,,,,,,,,,,,,,,1,,,,,,,,,,,,,,,,,,,,,,,,,,,,,,,,,,,,,,,,,,,,,,103,157408,18,Female,1,2024/03/19_11:59:39,YZ,None,
,,,,,,calibration,0,26,2,202,7,S,1,left,0.7320598719961708,1,0,,,,,,,,,,,,,,,,,,,,,1,,,,,,,,,,,,,,,,,,,,,,,,,,,,,,,,,,,,,,,,,,,,,,103,157408,18,Female,1,2024/03/19_11:59:39,YZ,None,
,,,,,,calibration,0,26,2,202,8,Q,0,right,0.6418986080025206,1,0,,,,,,,,,,,,,,,,,,,,,1,,,,,,,,,,,,,,,,,,,,,,,,,,,,,,,,,,,,,,,,,,,,,,103,157408,18,Female,1,2024/03/19_11:59:39,YZ,None,
,,,,,,calibration,0,26,2,202,9,N,0,right,0.3862121109996224,1,0,,,,,,,,,,,,,,,,,,,,,1,,,,,,,,,,,,,,,,,,,,,,,,,,,,,,,,,,,,,,,,,,,,,,103,157408,18,Female,1,2024/03/19_11:59:39,YZ,None,
,,,,,,calibration,0,26,2,202,10,Q,1,left,0.725540485997044,1,0,,,,,,,,,,,,,,,,,,,,,1,,,,,,,,,,,,,,,,,,,,,,,,,,,,,,,,,,,,,,,,,,,,,,103,157408,18,Female,1,2024/03/19_11:59:39,YZ,None,
,,,,,,calibration,0,26,2,202,11,N,1,right,0.5563833029955276,0,0,,,,,,,,,,,,,,,,,,,,,1,,,,,,,,,,,,,,,,,,,,,,,,,,,,,,,,,,,,,,,,,,,,,,103,157408,18,Female,1,2024/03/19_11:59:39,YZ,None,
,,,,,,calibration,0,26,2,202,12,S,0,right,nan,0,1,,,,,,,,,,,,,,,,,,,,,1,,,,,,,,,,,,,,,,,,,,,,,,,,,,,,,,,,,,,,,,,,,,,,103,157408,18,Female,1,2024/03/19_11:59:39,YZ,None,
,,,,,,calibration,0,26,2,202,13,J,0,right,nan,0,1,,,,,,,,,,,,,,,,,,,,,1,,,,,,,,,,,,,,,,,,,,,,,,,,,,,,,,,,,,,,,,,,,,,,103,157408,18,Female,1,2024/03/19_11:59:39,YZ,None,
,,,,,,calibration,0,26,2,202,14,V,0,right,0.7904699249993428,1,0,,,,,,,,,,,,,,,,,,,,,1,,,,,,,,,,,,,,,,,,,,,,,,,,,,,,,,,,,,,,,,,,,,,,103,157408,18,Female,1,2024/03/19_11:59:39,YZ,None,
,,,,,,calibration,0,26,2,202,15,F,0,right,0.7978258059956715,1,0,,,,,,,,,,,,,,,,,,,,,1,,,,,,,,,,,,,,,,,,,,,,,,,,,,,,,,,,,,,,,,,,,,,,103,157408,18,Female,1,2024/03/19_11:59:39,YZ,None,
,,,,,,calibration,0,26,2,202,16,Q,0,right,0.9757272700007888,1,0,,,,,,,,,,,,,,,,,,,,,1,,,,,,,,,,,,,,,,,,,,,,,,,,,,,,,,,,,,,,,,,,,,,,103,157408,18,Female,1,2024/03/19_11:59:39,YZ,None,
,,,,,,calibration,0,26,2,202,17,F,1,left,0.6914816139978939,1,0,,,,,,,,,,,,,,,,,,,,,1,,,,,,,,,,,,,,,,,,,,,,,,,,,,,,,,,,,,,,,,,,,,,,103,157408,18,Female,1,2024/03/19_11:59:39,YZ,None,
,,,,,,calibration,0,26,2,202,18,S,0,right,0.6570530139943003,1,0,,,,,,,,,,,,,,,,,,,,,1,,,,,,,,,,,,,,,,,,,,,,,,,,,,,,,,,,,,,,,,,,,,,,103,157408,18,Female,1,2024/03/19_11:59:39,YZ,None,
,,,,,,calibration,0,26,2,202,19,F,1,right,0.829776407997997,0,0,,,,,,,,,,,,,,,,,,,,,1,,,,,,,,,,,,,,,,,,,,,,,,,,,,,,,,,,,,,,,,,,,,,,103,157408,18,Female,1,2024/03/19_11:59:39,YZ,None,
,,,,,,calibration,0,26,2,202,20,J,0,right,0.9646868369964068,1,0,,,,,,,,,,,,,,,,,,,,,1,,,,,,,,,,,,,,,,,,,,,,,,,,,,,,,,,,,,,,,,,,,,,,103,157408,18,Female,1,2024/03/19_11:59:39,YZ,None,
,,,,,,calibration,0,26,2,202,21,Q,0,right,0.9810061489988584,1,0,,,,,,,,,,,,,,,,,,,,,1,,,,,,,,,,,,,,,,,,,,,,,,,,,,,,,,,,,,,,,,,,,,,,103,157408,18,Female,1,2024/03/19_11:59:39,YZ,None,
,,,,,,calibration,0,26,2,202,,,,,,,,0.9166666666666666,0.6666666666666666,0.0,1.0,0.14285714285714285,0.8571428571428572,0.7099261402209878,4,0,0,3,3,12,16,6,15,0,,,,1,,,,,,,,,,,,,,,,,,,,,,,,,,,,,,,,,,,,,,,,,,,,,,103,157408,18,Female,1,2024/03/19_11:59:39,YZ,None,
,,,,,,Calibration,0,,2,202,,,,,,,,,,,,,,,,,,,,,,,,,12,,,1,,,,,,,,,,,,,,,,,,,,,,,,,,,,,,,,,,,,,,,,,,,,,,103,157408,18,Female,1,2024/03/19_11:59:39,YZ,None,
,,,,,,calibration,0,20,2,159,1,F,0,right,0.43057252500148024,1,0,,,,,,,,,,,,,,,,,,,,,1,,,,,,,,,,,,,,,,,,,,,,,,,,,,,,,,,,,,,,,,,,,,,,103,157408,18,Female,1,2024/03/19_11:59:39,YZ,None,
,,,,,,calibration,0,20,2,159,2,Q,0,right,nan,0,1,,,,,,,,,,,,,,,,,,,,,1,,,,,,,,,,,,,,,,,,,,,,,,,,,,,,,,,,,,,,,,,,,,,,103,157408,18,Female,1,2024/03/19_11:59:39,YZ,None,
,,,,,,calibration,0,20,2,159,3,J,0,right,0.38051425000594463,1,0,,,,,,,,,,,,,,,,,,,,,1,,,,,,,,,,,,,,,,,,,,,,,,,,,,,,,,,,,,,,,,,,,,,,103,157408,18,Female,1,2024/03/19_11:59:39,YZ,None,
,,,,,,calibration,0,20,2,159,4,V,0,right,0.4980992030032212,1,0,,,,,,,,,,,,,,,,,,,,,1,,,,,,,,,,,,,,,,,,,,,,,,,,,,,,,,,,,,,,,,,,,,,,103,157408,18,Female,1,2024/03/19_11:59:39,YZ,None,
,,,,,,calibration,0,20,2,159,5,J,1,left,0.8601223820005544,1,0,,,,,,,,,,,,,,,,,,,,,1,,,,,,,,,,,,,,,,,,,,,,,,,,,,,,,,,,,,,,,,,,,,,,103,157408,18,Female,1,2024/03/19_11:59:39,YZ,None,
,,,,,,calibration,0,20,2,159,6,C,0,right,0.3759716929998831,1,0,,,,,,,,,,,,,,,,,,,,,1,,,,,,,,,,,,,,,,,,,,,,,,,,,,,,,,,,,,,,,,,,,,,,103,157408,18,Female,1,2024/03/19_11:59:39,YZ,None,
,,,,,,calibration,0,20,2,159,7,S,0,right,0.3770445660047699,1,0,,,,,,,,,,,,,,,,,,,,,1,,,,,,,,,,,,,,,,,,,,,,,,,,,,,,,,,,,,,,,,,,,,,,103,157408,18,Female,1,2024/03/19_11:59:39,YZ,None,
,,,,,,calibration,0,20,2,159,8,F,0,right,0.6026723050017608,1,0,,,,,,,,,,,,,,,,,,,,,1,,,,,,,,,,,,,,,,,,,,,,,,,,,,,,,,,,,,,,,,,,,,,,103,157408,18,Female,1,2024/03/19_11:59:39,YZ,None,
,,,,,,calibration,0,20,2,159,9,S,1,right,nan,0,1,,,,,,,,,,,,,,,,,,,,,1,,,,,,,,,,,,,,,,,,,,,,,,,,,,,,,,,,,,,,,,,,,,,,103,157408,18,Female,1,2024/03/19_11:59:39,YZ,None,
,,,,,,calibration,0,20,2,159,10,V,0,right,0.47099359200365143,1,0,,,,,,,,,,,,,,,,,,,,,1,,,,,,,,,,,,,,,,,,,,,,,,,,,,,,,,,,,,,,,,,,,,,,103,157408,18,Female,1,2024/03/19_11:59:39,YZ,None,
,,,,,,calibration,0,20,2,159,11,N,0,right,0.32000243900256464,1,0,,,,,,,,,,,,,,,,,,,,,1,,,,,,,,,,,,,,,,,,,,,,,,,,,,,,,,,,,,,,,,,,,,,,103,157408,18,Female,1,2024/03/19_11:59:39,YZ,None,
,,,,,,calibration,0,20,2,159,12,F,0,right,0.8541245410015108,1,0,,,,,,,,,,,,,,,,,,,,,1,,,,,,,,,,,,,,,,,,,,,,,,,,,,,,,,,,,,,,,,,,,,,,103,157408,18,Female,1,2024/03/19_11:59:39,YZ,None,
,,,,,,calibration,0,20,2,159,13,N,1,left,0.7443524939953932,1,0,,,,,,,,,,,,,,,,,,,,,1,,,,,,,,,,,,,,,,,,,,,,,,,,,,,,,,,,,,,,,,,,,,,,103,157408,18,Female,1,2024/03/19_11:59:39,YZ,None,
,,,,,,calibration,0,20,2,159,14,F,1,left,nan,0,1,,,,,,,,,,,,,,,,,,,,,1,,,,,,,,,,,,,,,,,,,,,,,,,,,,,,,,,,,,,,,,,,,,,,103,157408,18,Female,1,2024/03/19_11:59:39,YZ,None,
,,,,,,calibration,0,20,2,159,15,C,0,right,0.524349680999876,1,0,,,,,,,,,,,,,,,,,,,,,1,,,,,,,,,,,,,,,,,,,,,,,,,,,,,,,,,,,,,,,,,,,,,,103,157408,18,Female,1,2024/03/19_11:59:39,YZ,None,
,,,,,,calibration,0,20,2,159,16,F,1,left,0.7366478769981768,1,0,,,,,,,,,,,,,,,,,,,,,1,,,,,,,,,,,,,,,,,,,,,,,,,,,,,,,,,,,,,,,,,,,,,,103,157408,18,Female,1,2024/03/19_11:59:39,YZ,None,
,,,,,,calibration,0,20,2,159,17,X,0,right,0.824645127999247,1,0,,,,,,,,,,,,,,,,,,,,,1,,,,,,,,,,,,,,,,,,,,,,,,,,,,,,,,,,,,,,,,,,,,,,103,157408,18,Female,1,2024/03/19_11:59:39,YZ,None,
,,,,,,calibration,0,20,2,159,18,F,1,right,0.3556643609990715,0,0,,,,,,,,,,,,,,,,,,,,,1,,,,,,,,,,,,,,,,,,,,,,,,,,,,,,,,,,,,,,,,,,,,,,103,157408,18,Female,1,2024/03/19_11:59:39,YZ,None,
,,,,,,calibration,0,20,2,159,19,J,0,right,0.8657293389987899,1,0,,,,,,,,,,,,,,,,,,,,,1,,,,,,,,,,,,,,,,,,,,,,,,,,,,,,,,,,,,,,,,,,,,,,103,157408,18,Female,1,2024/03/19_11:59:39,YZ,None,
,,,,,,calibration,0,20,2,159,20,V,0,right,0.6754081659964868,1,0,,,,,,,,,,,,,,,,,,,,,1,,,,,,,,,,,,,,,,,,,,,,,,,,,,,,,,,,,,,,,,,,,,,,103,157408,18,Female,1,2024/03/19_11:59:39,YZ,None,
,,,,,,calibration,0,20,2,159,21,N,0,right,0.6669582840040675,1,0,,,,,,,,,,,,,,,,,,,,,1,,,,,,,,,,,,,,,,,,,,,,,,,,,,,,,,,,,,,,,,,,,,,,103,157408,18,Female,1,2024/03/19_11:59:39,YZ,None,
,,,,,,calibration,0,20,2,159,22,X,0,right,0.9368028680037241,1,0,,,,,,,,,,,,,,,,,,,,,1,,,,,,,,,,,,,,,,,,,,,,,,,,,,,,,,,,,,,,,,,,,,,,103,157408,18,Female,1,2024/03/19_11:59:39,YZ,None,
,,,,,,calibration,0,20,2,159,,,,,,,,0.875,0.5,0.0,1.0,0.13636363636363635,0.8636363636363636,0.6052987207379039,3,0,2,1,3,15,18,6,16,0,,,,1,,,,,,,,,,,,,,,,,,,,,,,,,,,,,,,,,,,,,,,,,,,,,,103,157408,18,Female,1,2024/03/19_11:59:39,YZ,None,
,,,,,,Calibration,0,,2,159,,,,,,,,,,,,,,,,,,,,,,,,,13,,,1,,,,,,,,,,,,,,,,,,,,,,,,,,,,,,,,,,,,,,,,,,,,,,103,157408,18,Female,1,2024/03/19_11:59:39,YZ,None,
,,,,,,calibration,0,20,2,120,1,C,0,right,0.42538507700373884,1,0,,,,,,,,,,,,,,,,,,,,,1,,,,,,,,,,,,,,,,,,,,,,,,,,,,,,,,,,,,,,,,,,,,,,103,157408,18,Female,1,2024/03/19_11:59:39,YZ,None,
,,,,,,calibration,0,20,2,120,2,N,0,right,0.2601971309995861,1,0,,,,,,,,,,,,,,,,,,,,,1,,,,,,,,,,,,,,,,,,,,,,,,,,,,,,,,,,,,,,,,,,,,,,103,157408,18,Female,1,2024/03/19_11:59:39,YZ,None,
,,,,,,calibration,0,20,2,120,3,S,0,right,0.4447509279998485,1,0,,,,,,,,,,,,,,,,,,,,,1,,,,,,,,,,,,,,,,,,,,,,,,,,,,,,,,,,,,,,,,,,,,,,103,157408,18,Female,1,2024/03/19_11:59:39,YZ,None,
,,,,,,calibration,0,20,2,120,4,N,1,left,0.9912641610062565,1,0,,,,,,,,,,,,,,,,,,,,,1,,,,,,,,,,,,,,,,,,,,,,,,,,,,,,,,,,,,,,,,,,,,,,103,157408,18,Female,1,2024/03/19_11:59:39,YZ,None,
,,,,,,calibration,0,20,2,120,5,X,0,right,0.4435646310012089,1,0,,,,,,,,,,,,,,,,,,,,,1,,,,,,,,,,,,,,,,,,,,,,,,,,,,,,,,,,,,,,,,,,,,,,103,157408,18,Female,1,2024/03/19_11:59:39,YZ,None,
,,,,,,calibration,0,20,2,120,6,Q,0,right,0.5467249659996014,1,0,,,,,,,,,,,,,,,,,,,,,1,,,,,,,,,,,,,,,,,,,,,,,,,,,,,,,,,,,,,,,,,,,,,,103,157408,18,Female,1,2024/03/19_11:59:39,YZ,None,
,,,,,,calibration,0,20,2,120,7,N,0,right,0.6982224800012773,1,0,,,,,,,,,,,,,,,,,,,,,1,,,,,,,,,,,,,,,,,,,,,,,,,,,,,,,,,,,,,,,,,,,,,,103,157408,18,Female,1,2024/03/19_11:59:39,YZ,None,
,,,,,,calibration,0,20,2,120,8,Q,1,left,0.6697686309998971,1,0,,,,,,,,,,,,,,,,,,,,,1,,,,,,,,,,,,,,,,,,,,,,,,,,,,,,,,,,,,,,,,,,,,,,103,157408,18,Female,1,2024/03/19_11:59:39,YZ,None,
,,,,,,calibration,0,20,2,120,9,N,1,left,0.9230962069996167,1,0,,,,,,,,,,,,,,,,,,,,,1,,,,,,,,,,,,,,,,,,,,,,,,,,,,,,,,,,,,,,,,,,,,,,103,157408,18,Female,1,2024/03/19_11:59:39,YZ,None,
,,,,,,calibration,0,20,2,120,10,V,0,right,0.5173888979988988,1,0,,,,,,,,,,,,,,,,,,,,,1,,,,,,,,,,,,,,,,,,,,,,,,,,,,,,,,,,,,,,,,,,,,,,103,157408,18,Female,1,2024/03/19_11:59:39,YZ,None,
,,,,,,calibration,0,20,2,120,11,F,0,right,0.6689515530015342,1,0,,,,,,,,,,,,,,,,,,,,,1,,,,,,,,,,,,,,,,,,,,,,,,,,,,,,,,,,,,,,,,,,,,,,103,157408,18,Female,1,2024/03/19_11:59:39,YZ,None,
,,,,,,calibration,0,20,2,120,12,J,0,right,0.43661014099780004,1,0,,,,,,,,,,,,,,,,,,,,,1,,,,,,,,,,,,,,,,,,,,,,,,,,,,,,,,,,,,,,,,,,,,,,103,157408,18,Female,1,2024/03/19_11:59:39,YZ,None,
,,,,,,calibration,0,20,2,120,13,Q,0,right,0.5904690899988054,1,0,,,,,,,,,,,,,,,,,,,,,1,,,,,,,,,,,,,,,,,,,,,,,,,,,,,,,,,,,,,,,,,,,,,,103,157408,18,Female,1,2024/03/19_11:59:39,YZ,None,
,,,,,,calibration,0,20,2,120,14,N,0,right,0.8475475899977027,1,0,,,,,,,,,,,,,,,,,,,,,1,,,,,,,,,,,,,,,,,,,,,,,,,,,,,,,,,,,,,,,,,,,,,,103,157408,18,Female,1,2024/03/19_11:59:39,YZ,None,
,,,,,,calibration,0,20,2,120,15,Q,1,left,0.6748427130005439,1,0,,,,,,,,,,,,,,,,,,,,,1,,,,,,,,,,,,,,,,,,,,,,,,,,,,,,,,,,,,,,,,,,,,,,103,157408,18,Female,1,2024/03/19_11:59:39,YZ,None,
,,,,,,calibration,0,20,2,120,16,S,0,right,0.4043735410014051,1,0,,,,,,,,,,,,,,,,,,,,,1,,,,,,,,,,,,,,,,,,,,,,,,,,,,,,,,,,,,,,,,,,,,,,103,157408,18,Female,1,2024/03/19_11:59:39,YZ,None,
,,,,,,calibration,0,20,2,120,17,Q,1,right,nan,0,1,,,,,,,,,,,,,,,,,,,,,1,,,,,,,,,,,,,,,,,,,,,,,,,,,,,,,,,,,,,,,,,,,,,,103,157408,18,Female,1,2024/03/19_11:59:39,YZ,None,
,,,,,,calibration,0,20,2,120,18,C,0,right,0.5822079700010363,1,0,,,,,,,,,,,,,,,,,,,,,1,,,,,,,,,,,,,,,,,,,,,,,,,,,,,,,,,,,,,,,,,,,,,,103,157408,18,Female,1,2024/03/19_11:59:39,YZ,None,
,,,,,,calibration,0,20,2,120,19,J,0,right,0.5415594130026875,1,0,,,,,,,,,,,,,,,,,,,,,1,,,,,,,,,,,,,,,,,,,,,,,,,,,,,,,,,,,,,,,,,,,,,,103,157408,18,Female,1,2024/03/19_11:59:39,YZ,None,
,,,,,,calibration,0,20,2,120,20,S,0,right,nan,0,1,,,,,,,,,,,,,,,,,,,,,1,,,,,,,,,,,,,,,,,,,,,,,,,,,,,,,,,,,,,,,,,,,,,,103,157408,18,Female,1,2024/03/19_11:59:39,YZ,None,
,,,,,,calibration,0,20,2,120,21,X,0,right,0.9928271090029739,1,0,,,,,,,,,,,,,,,,,,,,,1,,,,,,,,,,,,,,,,,,,,,,,,,,,,,,,,,,,,,,,,,,,,,,103,157408,18,Female,1,2024/03/19_11:59:39,YZ,None,
,,,,,,calibration,0,20,2,120,22,Q,0,left,0.5737773420041776,0,0,,,,,,,,,,,,,,,,,,,,,1,,,,,,,,,,,,,,,,,,,,,,,,,,,,,,,,,,,,,,,,,,,,,,103,157408,18,Female,1,2024/03/19_11:59:39,YZ,None,
,,,,,,calibration,0,20,2,120,23,X,1,left,0.7487637029989855,1,0,,,,,,,,,,,,,,,,,,,,,1,,,,,,,,,,,,,,,,,,,,,,,,,,,,,,,,,,,,,,,,,,,,,,103,157408,18,Female,1,2024/03/19_11:59:39,YZ,None,
,,,,,,calibration,0,20,2,120,,,,,,,,0.9338235294117647,0.8333333333333334,0.058823529411764705,0.9375,0.08695652173913043,0.8542199488491049,0.6182044416675039,5,1,1,1,2,15,20,6,17,0,,,,1,,,,,,,,,,,,,,,,,,,,,,,,,,,,,,,,,,,,,,,,,,,,,,103,157408,18,Female,1,2024/03/19_11:59:39,YZ,None,
,,,,,,Calibration,0,,2,120,,,,,,,,,,,,,,,,,,,,,,,,,14,,,1,,,,,,,,,,,,,,,,,,,,,,,,,,,,,,,,,,,,,,,,,,,,,,103,157408,18,Female,1,2024/03/19_11:59:39,YZ,None,
,,,,,,calibration,0,22,2,83,1,S,0,None,nan,0,1,,,,,,,,,,,,,,,,,,,,,1,,,,,,,,,,,,,,,,,,,,,,,,,,,,,,,,,,,,,,,,,,,,,,103,157408,18,Female,1,2024/03/19_11:59:39,YZ,None,
,,,,,,calibration,0,22,2,83,2,X,0,right,0.6021258669934468,1,0,,,,,,,,,,,,,,,,,,,,,1,,,,,,,,,,,,,,,,,,,,,,,,,,,,,,,,,,,,,,,,,,,,,,103,157408,18,Female,1,2024/03/19_11:59:39,YZ,None,
,,,,,,calibration,0,22,2,83,3,F,0,right,0.3656010190024972,1,0,,,,,,,,,,,,,,,,,,,,,1,,,,,,,,,,,,,,,,,,,,,,,,,,,,,,,,,,,,,,,,,,,,,,103,157408,18,Female,1,2024/03/19_11:59:39,YZ,None,
,,,,,,calibration,0,22,2,83,4,C,0,right,0.5424674169989885,1,0,,,,,,,,,,,,,,,,,,,,,1,,,,,,,,,,,,,,,,,,,,,,,,,,,,,,,,,,,,,,,,,,,,,,103,157408,18,Female,1,2024/03/19_11:59:39,YZ,None,
,,,,,,calibration,0,22,2,83,5,J,0,right,0.5459556909991079,1,0,,,,,,,,,,,,,,,,,,,,,1,,,,,,,,,,,,,,,,,,,,,,,,,,,,,,,,,,,,,,,,,,,,,,103,157408,18,Female,1,2024/03/19_11:59:39,YZ,None,
,,,,,,calibration,0,22,2,83,6,C,1,left,0.665144822000002,1,0,,,,,,,,,,,,,,,,,,,,,1,,,,,,,,,,,,,,,,,,,,,,,,,,,,,,,,,,,,,,,,,,,,,,103,157408,18,Female,1,2024/03/19_11:59:39,YZ,None,
,,,,,,calibration,0,22,2,83,7,J,1,left,0.8912652650033124,1,0,,,,,,,,,,,,,,,,,,,,,1,,,,,,,,,,,,,,,,,,,,,,,,,,,,,,,,,,,,,,,,,,,,,,103,157408,18,Female,1,2024/03/19_11:59:39,YZ,None,
,,,,,,calibration,0,22,2,83,8,S,0,right,0.8702678620029474,1,0,,,,,,,,,,,,,,,,,,,,,1,,,,,,,,,,,,,,,,,,,,,,,,,,,,,,,,,,,,,,,,,,,,,,103,157408,18,Female,1,2024/03/19_11:59:39,YZ,None,
,,,,,,calibration,0,22,2,83,9,C,0,right,0.6799807440038421,1,0,,,,,,,,,,,,,,,,,,,,,1,,,,,,,,,,,,,,,,,,,,,,,,,,,,,,,,,,,,,,,,,,,,,,103,157408,18,Female,1,2024/03/19_11:59:39,YZ,None,
,,,,,,calibration,0,22,2,83,10,V,0,left,0.965235641997424,0,0,,,,,,,,,,,,,,,,,,,,,1,,,,,,,,,,,,,,,,,,,,,,,,,,,,,,,,,,,,,,,,,,,,,,103,157408,18,Female,1,2024/03/19_11:59:39,YZ,None,
,,,,,,calibration,0,22,2,83,11,C,1,left,nan,0,1,,,,,,,,,,,,,,,,,,,,,1,,,,,,,,,,,,,,,,,,,,,,,,,,,,,,,,,,,,,,,,,,,,,,103,157408,18,Female,1,2024/03/19_11:59:39,YZ,None,
,,,,,,calibration,0,22,2,83,12,V,1,right,0.02241728800436249,0,0,,,,,,,,,,,,,,,,,,,,,1,,,,,,,,,,,,,,,,,,,,,,,,,,,,,,,,,,,,,,,,,,,,,,103,157408,18,Female,1,2024/03/19_11:59:39,YZ,None,
,,,,,,calibration,0,22,2,83,13,F,0,left,0.7094267580032465,0,0,,,,,,,,,,,,,,,,,,,,,1,,,,,,,,,,,,,,,,,,,,,,,,,,,,,,,,,,,,,,,,,,,,,,103,157408,18,Female,1,2024/03/19_11:59:39,YZ,None,
,,,,,,calibration,0,22,2,83,14,Q,0,right,0.40617727400240256,1,0,,,,,,,,,,,,,,,,,,,,,1,,,,,,,,,,,,,,,,,,,,,,,,,,,,,,,,,,,,,,,,,,,,,,103,157408,18,Female,1,2024/03/19_11:59:39,YZ,None,
,,,,,,calibration,0,22,2,83,15,N,0,left,0.49396954300027573,0,0,,,,,,,,,,,,,,,,,,,,,1,,,,,,,,,,,,,,,,,,,,,,,,,,,,,,,,,,,,,,,,,,,,,,103,157408,18,Female,1,2024/03/19_11:59:39,YZ,None,
,,,,,,calibration,0,22,2,83,16,C,0,right,0.4373815469953115,1,0,,,,,,,,,,,,,,,,,,,,,1,,,,,,,,,,,,,,,,,,,,,,,,,,,,,,,,,,,,,,,,,,,,,,103,157408,18,Female,1,2024/03/19_11:59:39,YZ,None,
,,,,,,calibration,0,22,2,83,17,F,0,right,0.2400536610002746,1,0,,,,,,,,,,,,,,,,,,,,,1,,,,,,,,,,,,,,,,,,,,,,,,,,,,,,,,,,,,,,,,,,,,,,103,157408,18,Female,1,2024/03/19_11:59:39,YZ,None,
,,,,,,calibration,0,22,2,83,18,N,0,right,0.8089629300011438,1,0,,,,,,,,,,,,,,,,,,,,,1,,,,,,,,,,,,,,,,,,,,,,,,,,,,,,,,,,,,,,,,,,,,,,103,157408,18,Female,1,2024/03/19_11:59:39,YZ,None,
,,,,,,calibration,0,22,2,83,19,F,1,left,0.9178563189998385,1,0,,,,,,,,,,,,,,,,,,,,,1,,,,,,,,,,,,,,,,,,,,,,,,,,,,,,,,,,,,,,,,,,,,,,103,157408,18,Female,1,2024/03/19_11:59:39,YZ,None,
,,,,,,calibration,0,22,2,83,20,X,0,right,0.48073918400041293,1,0,,,,,,,,,,,,,,,,,,,,,1,,,,,,,,,,,,,,,,,,,,,,,,,,,,,,,,,,,,,,,,,,,,,,103,157408,18,Female,1,2024/03/19_11:59:39,YZ,None,
,,,,,,calibration,0,22,2,83,21,N,0,right,nan,0,1,,,,,,,,,,,,,,,,,,,,,1,,,,,,,,,,,,,,,,,,,,,,,,,,,,,,,,,,,,,,,,,,,,,,103,157408,18,Female,1,2024/03/19_11:59:39,YZ,None,
,,,,,,calibration,0,22,2,83,22,X,1,right,0.5397698490050971,0,0,,,,,,,,,,,,,,,,,,,,,1,,,,,,,,,,,,,,,,,,,,,,,,,,,,,,,,,,,,,,,,,,,,,,103,157408,18,Female,1,2024/03/19_11:59:39,YZ,None,
,,,,,,calibration,0,22,2,83,23,V,0,right,0.3798187849970418,1,0,,,,,,,,,,,,,,,,,,,,,1,,,,,,,,,,,,,,,,,,,,,,,,,,,,,,,,,,,,,,,,,,,,,,103,157408,18,Female,1,2024/03/19_11:59:39,YZ,None,
,,,,,,calibration,0,22,2,83,24,F,0,right,0.8423803510013386,1,0,,,,,,,,,,,,,,,,,,,,,1,,,,,,,,,,,,,,,,,,,,,,,,,,,,,,,,,,,,,,,,,,,,,,103,157408,18,Female,1,2024/03/19_11:59:39,YZ,None,
,,,,,,calibration,0,22,2,83,,,,,,,,0.75,0.5,0.16666666666666666,0.8125,0.125,0.7083333333333334,0.5908094199053483,3,3,1,2,3,13,16,6,18,0,,,,1,,,,,,,,,,,,,,,,,,,,,,,,,,,,,,,,,,,,,,,,,,,,,,103,157408,18,Female,1,2024/03/19_11:59:39,YZ,None,
,,,,,,Calibration,0,,2,83,,,,,,,,,,,,,,,,,,,,,,,,,15,,,1,,,,,,,,,,,,,,,,,,,,,,,,,,,,,,,,,,,,,,,,,,,,,,103,157408,18,Female,1,2024/03/19_11:59:39,YZ,None,
,,,,,,CALIBRATION,0,,,,,,,,,,,,,,,,,,,,,,,,,,,,15,0.75,83,1,,,,,,,,,,,,,,,,,,,,,,,,,,,,,,,,,,,,,,,,,,,,,,103,157408,18,Female,1,2024/03/19_11:59:39,YZ,None,
1,./instructions/inst_prac_1/Slide24.png,right,8.630896252994717,534.1482927190009,542.7791889719956,,,,,,,,,,,,,,,,,,,,,,,,,,,,,,,,,1,,,,,,,,,,,,,,,,,,,,,,,,,,,,,,,,,,,,,,,,,,,,,,103,157408,18,Female,1,2024/03/19_11:59:39,YZ,None,
2,./instructions/inst_prac_1/Slide25.png,right,1.4929213489958784,542.8061726410015,544.2990939899973,,,,,,,,,,,,,,,,,,,,,,,,,,,,,,,,,1,,,,,,,,,,,,,,,,,,,,,,,,,,,,,,,,,,,,,,,,,,,,,,103,157408,18,Female,1,2024/03/19_11:59:39,YZ,None,
3,./instructions/inst_prac_1/Slide26.png,right,0.5666528310030117,544.3244273419987,544.8910801730017,,,,,,,,,,,,,,,,,,,,,,,,,,,,,,,,,1,,,,,,,,,,,,,,,,,,,,,,,,,,,,,,,,,,,,,,,,,,,,,,103,157408,18,Female,1,2024/03/19_11:59:39,YZ,None,
4,./instructions/inst_prac_1/Slide27.png,right,0.5952180189997307,544.9198791939998,545.5150972129995,,,,,,,,,,,,,,,,,,,,,,,,,,,,,,,,,1,,,,,,,,,,,,,,,,,,,,,,,,,,,,,,,,,,,,,,,,,,,,,,103,157408,18,Female,1,2024/03/19_11:59:39,YZ,None,
5,./instructions/inst_prac_1/Slide28.png,right,0.5420608179992996,545.5411250789984,546.0831858969977,,,,,,,,,,,,,,,,,,,,,,,,,,,,,,,,,1,,,,,,,,,,,,,,,,,,,,,,,,,,,,,,,,,,,,,,,,,,,,,,103,157408,18,Female,1,2024/03/19_11:59:39,YZ,None,
6,./instructions/inst_prac_1/Slide29.png,right,7.694741258004797,546.1084012599968,553.8031425180016,,,,,,,,,,,,,,,,,,,,,,,,,,,,,,,,,1,,,,,,,,,,,,,,,,,,,,,,,,,,,,,,,,,,,,,,,,,,,,,,103,157408,18,Female,1,2024/03/19_11:59:39,YZ,None,
7,./instructions/inst_prac_1/Slide30.png,right,3.261223091001739,553.829996171,557.0912192620017,,,,,,,,,,,,,,,,,,,,,,,,,,,,,,,,,1,,,,,,,,,,,,,,,,,,,,,,,,,,,,,,,,,,,,,,,,,,,,,,103,157408,18,Female,1,2024/03/19_11:59:39,YZ,None,
,,,,,,practice,0,29,1,1250,1,J,0,right,4.514182416001859,1,0,,,,,,,,,,,,,,,,,,,,,1,,,,,,,,,,,,,,,,,,,,,,,,,,,,,,,,,,,,,,,,,,,,,,103,157408,18,Female,1,2024/03/19_11:59:39,YZ,None,
,,,,,,practice,0,29,1,1250,2,Q,0,right,1.565937875995587,1,0,,,,,,,,,,,,,,,,,,,,,1,,,,,,,,,,,,,,,,,,,,,,,,,,,,,,,,,,,,,,,,,,,,,,103,157408,18,Female,1,2024/03/19_11:59:39,YZ,None,
,,,,,,practice,0,29,1,1250,3,C,0,right,0.527733070004615,1,0,,,,,,,,,,,,,,,,,,,,,1,,,,,,,,,,,,,,,,,,,,,,,,,,,,,,,,,,,,,,,,,,,,,,103,157408,18,Female,1,2024/03/19_11:59:39,YZ,None,
,,,,,,practice,0,29,1,1250,4,X,0,right,0.50000436600385,1,0,,,,,,,,,,,,,,,,,,,,,1,,,,,,,,,,,,,,,,,,,,,,,,,,,,,,,,,,,,,,,,,,,,,,103,157408,18,Female,1,2024/03/19_11:59:39,YZ,None,
,,,,,,practice,0,29,1,1250,5,V,0,right,0.5400776219976251,1,0,,,,,,,,,,,,,,,,,,,,,1,,,,,,,,,,,,,,,,,,,,,,,,,,,,,,,,,,,,,,,,,,,,,,103,157408,18,Female,1,2024/03/19_11:59:39,YZ,None,
,,,,,,practice,0,29,1,1250,6,V,1,left,0.8560598190015298,1,0,,,,,,,,,,,,,,,,,,,,,1,,,,,,,,,,,,,,,,,,,,,,,,,,,,,,,,,,,,,,,,,,,,,,103,157408,18,Female,1,2024/03/19_11:59:39,YZ,None,
,,,,,,practice,0,29,1,1250,7,C,0,right,0.5661653460047091,1,0,,,,,,,,,,,,,,,,,,,,,1,,,,,,,,,,,,,,,,,,,,,,,,,,,,,,,,,,,,,,,,,,,,,,103,157408,18,Female,1,2024/03/19_11:59:39,YZ,None,
,,,,,,practice,0,29,1,1250,8,C,1,left,0.5766671790042892,1,0,,,,,,,,,,,,,,,,,,,,,1,,,,,,,,,,,,,,,,,,,,,,,,,,,,,,,,,,,,,,,,,,,,,,103,157408,18,Female,1,2024/03/19_11:59:39,YZ,None,
,,,,,,practice,0,29,1,1250,9,Q,0,right,0.692363579000812,1,0,,,,,,,,,,,,,,,,,,,,,1,,,,,,,,,,,,,,,,,,,,,,,,,,,,,,,,,,,,,,,,,,,,,,103,157408,18,Female,1,2024/03/19_11:59:39,YZ,None,
,,,,,,practice,0,29,1,1250,10,Q,1,left,0.8158269470004598,1,0,,,,,,,,,,,,,,,,,,,,,1,,,,,,,,,,,,,,,,,,,,,,,,,,,,,,,,,,,,,,,,,,,,,,103,157408,18,Female,1,2024/03/19_11:59:39,YZ,None,
,,,,,,practice,0,29,1,1250,,,,,,,,1.0,1.0,0.0,1.0,0.0,1.0,1.1155018220015336,3,0,0,0,0,7,10,3,7,0,,,,1,,,,,,,,,,,,,,,,,,,,,,,,,,,,,,,,,,,,,,,,,,,,,,103,157408,18,Female,1,2024/03/19_11:59:39,YZ,None,
1,./instructions/inst_prac_1_next/Slide35.png,right,1.0090003959994647,578.778216464998,579.7872168609974,,,,,,,,,,,,,,,,,,,,,,,,,,,,,,,,,1,,,,,,,,,,,,,,,,,,,,,,,,,,,,,,,,,,,,,,,,,,,,,,103,157408,18,Female,1,2024/03/19_11:59:39,YZ,None,
,,,,,,practice,0,7,1,83,1,X,0,right,0.7566121589989052,1,0,,,,,,,,,,,,,,,,,,,,,1,,,,,,,,,,,,,,,,,,,,,,,,,,,,,,,,,,,,,,,,,,,,,,103,157408,18,Female,1,2024/03/19_11:59:39,YZ,None,
,,,,,,practice,0,7,1,83,2,Q,0,left,0.5366116389996023,0,0,,,,,,,,,,,,,,,,,,,,,1,,,,,,,,,,,,,,,,,,,,,,,,,,,,,,,,,,,,,,,,,,,,,,103,157408,18,Female,1,2024/03/19_11:59:39,YZ,None,
,,,,,,practice,0,7,1,83,3,C,0,left,0.49572312999953283,0,0,,,,,,,,,,,,,,,,,,,,,1,,,,,,,,,,,,,,,,,,,,,,,,,,,,,,,,,,,,,,,,,,,,,,103,157408,18,Female,1,2024/03/19_11:59:39,YZ,None,
,,,,,,practice,0,7,1,83,4,C,1,right,0.5834323939998285,0,0,,,,,,,,,,,,,,,,,,,,,1,,,,,,,,,,,,,,,,,,,,,,,,,,,,,,,,,,,,,,,,,,,,,,103,157408,18,Female,1,2024/03/19_11:59:39,YZ,None,
,,,,,,practice,0,7,1,83,5,J,0,left,0.5485403540005791,0,0,,,,,,,,,,,,,,,,,,,,,1,,,,,,,,,,,,,,,,,,,,,,,,,,,,,,,,,,,,,,,,,,,,,,103,157408,18,Female,1,2024/03/19_11:59:39,YZ,None,
,,,,,,practice,0,7,1,83,6,S,0,left,0.7033368940028595,0,0,,,,,,,,,,,,,,,,,,,,,1,,,,,,,,,,,,,,,,,,,,,,,,,,,,,,,,,,,,,,,,,,,,,,103,157408,18,Female,1,2024/03/19_11:59:39,YZ,None,
,,,,,,practice,0,7,1,83,7,N,0,right,1.705716823998955,1,0,,,,,,,,,,,,,,,,,,,,,1,,,,,,,,,,,,,,,,,,,,,,,,,,,,,,,,,,,,,,,,,,,,,,103,157408,18,Female,1,2024/03/19_11:59:39,YZ,None,
,,,,,,practice,0,7,1,83,8,J,0,right,0.8761599950012169,1,0,,,,,,,,,,,,,,,,,,,,,1,,,,,,,,,,,,,,,,,,,,,,,,,,,,,,,,,,,,,,,,,,,,,,103,157408,18,Female,1,2024/03/19_11:59:39,YZ,None,
,,,,,,practice,0,7,1,83,9,Q,0,right,0.8601829709950835,1,0,,,,,,,,,,,,,,,,,,,,,1,,,,,,,,,,,,,,,,,,,,,,,,,,,,,,,,,,,,,,,,,,,,,,103,157408,18,Female,1,2024/03/19_11:59:39,YZ,None,
,,,,,,practice,0,7,1,83,10,Q,1,left,0.5483037449957919,1,0,,,,,,,,,,,,,,,,,,,,,1,,,,,,,,,,,,,,,,,,,,,,,,,,,,,,,,,,,,,,,,,,,,,,103,157408,18,Female,1,2024/03/19_11:59:39,YZ,None,
,,,,,,practice,0,7,1,83,11,C,0,right,0.5491159230004996,1,0,,,,,,,,,,,,,,,,,,,,,1,,,,,,,,,,,,,,,,,,,,,,,,,,,,,,,,,,,,,,,,,,,,,,103,157408,18,Female,1,2024/03/19_11:59:39,YZ,None,
,,,,,,practice,0,7,1,83,12,X,0,right,0.6310178650019225,1,0,,,,,,,,,,,,,,,,,,,,,1,,,,,,,,,,,,,,,,,,,,,,,,,,,,,,,,,,,,,,,,,,,,,,103,157408,18,Female,1,2024/03/19_11:59:39,YZ,None,
,,,,,,practice,0,7,1,83,13,Q,0,right,0.8607928700002958,1,0,,,,,,,,,,,,,,,,,,,,,1,,,,,,,,,,,,,,,,,,,,,,,,,,,,,,,,,,,,,,,,,,,,,,103,157408,18,Female,1,2024/03/19_11:59:39,YZ,None,
,,,,,,practice,0,7,1,83,14,S,0,right,0.6205180389952147,1,0,,,,,,,,,,,,,,,,,,,,,1,,,,,,,,,,,,,,,,,,,,,,,,,,,,,,,,,,,,,,,,,,,,,,103,157408,18,Female,1,2024/03/19_11:59:39,YZ,None,
,,,,,,practice,0,7,1,83,15,N,0,right,0.5836419800034491,1,0,,,,,,,,,,,,,,,,,,,,,1,,,,,,,,,,,,,,,,,,,,,,,,,,,,,,,,,,,,,,,,,,,,,,103,157408,18,Female,1,2024/03/19_11:59:39,YZ,None,
,,,,,,practice,0,7,1,83,16,X,0,right,0.5693952590008848,1,0,,,,,,,,,,,,,,,,,,,,,1,,,,,,,,,,,,,,,,,,,,,,,,,,,,,,,,,,,,,,,,,,,,,,103,157408,18,Female,1,2024/03/19_11:59:39,YZ,None,
,,,,,,practice,0,7,1,83,17,J,0,right,0.6044772029999876,1,0,,,,,,,,,,,,,,,,,,,,,1,,,,,,,,,,,,,,,,,,,,,,,,,,,,,,,,,,,,,,,,,,,,,,103,157408,18,Female,1,2024/03/19_11:59:39,YZ,None,
,,,,,,practice,0,7,1,83,18,J,1,left,0.8317162650055252,1,0,,,,,,,,,,,,,,,,,,,,,1,,,,,,,,,,,,,,,,,,,,,,,,,,,,,,,,,,,,,,,,,,,,,,103,157408,18,Female,1,2024/03/19_11:59:39,YZ,None,
,,,,,,practice,0,7,1,83,19,V,0,right,0.643823340004019,1,0,,,,,,,,,,,,,,,,,,,,,1,,,,,,,,,,,,,,,,,,,,,,,,,,,,,,,,,,,,,,,,,,,,,,103,157408,18,Female,1,2024/03/19_11:59:39,YZ,None,
,,,,,,practice,0,7,1,83,20,V,1,left,0.5372678769999766,1,0,,,,,,,,,,,,,,,,,,,,,1,,,,,,,,,,,,,,,,,,,,,,,,,,,,,,,,,,,,,,,,,,,,,,103,157408,18,Female,1,2024/03/19_11:59:39,YZ,None,
,,,,,,practice,0,7,1,83,21,Q,0,right,0.46026813999924343,1,0,,,,,,,,,,,,,,,,,,,,,1,,,,,,,,,,,,,,,,,,,,,,,,,,,,,,,,,,,,,,,,,,,,,,103,157408,18,Female,1,2024/03/19_11:59:39,YZ,None,
,,,,,,practice,0,7,1,83,22,Q,1,left,0.5086397550039692,1,0,,,,,,,,,,,,,,,,,,,,,1,,,,,,,,,,,,,,,,,,,,,,,,,,,,,,,,,,,,,,,,,,,,,,103,157408,18,Female,1,2024/03/19_11:59:39,YZ,None,
,,,,,,practice,0,7,1,83,23,C,0,right,0.505901113996515,1,0,,,,,,,,,,,,,,,,,,,,,1,,,,,,,,,,,,,,,,,,,,,,,,,,,,,,,,,,,,,,,,,,,,,,103,157408,18,Female,1,2024/03/19_11:59:39,YZ,None,
,,,,,,practice,0,7,1,83,24,C,1,left,0.7202348280043225,1,0,,,,,,,,,,,,,,,,,,,,,1,,,,,,,,,,,,,,,,,,,,,,,,,,,,,,,,,,,,,,,,,,,,,,103,157408,18,Female,1,2024/03/19_11:59:39,YZ,None,
,,,,,,practice,0,7,1,83,,,,,,,,0.8657407407407408,0.8333333333333334,0.2222222222222222,0.7777777777777778,0.0,0.7777777777777778,0.6767262734586742,5,4,0,0,0,14,19,6,18,0,,,,1,,,,,,,,,,,,,,,,,,,,,,,,,,,,,,,,,,,,,,,,,,,,,,103,157408,18,Female,1,2024/03/19_11:59:39,YZ,None,
,,,,,,practice,0,18,1,83,1,V,0,right,0.5230365809984505,1,0,,,,,,,,,,,,,,,,,,,,,1,,,,,,,,,,,,,,,,,,,,,,,,,,,,,,,,,,,,,,,,,,,,,,103,157408,18,Female,1,2024/03/19_11:59:39,YZ,None,
,,,,,,practice,0,18,1,83,2,V,1,left,0.6171162990067387,1,0,,,,,,,,,,,,,,,,,,,,,1,,,,,,,,,,,,,,,,,,,,,,,,,,,,,,,,,,,,,,,,,,,,,,103,157408,18,Female,1,2024/03/19_11:59:39,YZ,None,
,,,,,,practice,0,18,1,83,3,F,0,right,0.5168160330067622,1,0,,,,,,,,,,,,,,,,,,,,,1,,,,,,,,,,,,,,,,,,,,,,,,,,,,,,,,,,,,,,,,,,,,,,103,157408,18,Female,1,2024/03/19_11:59:39,YZ,None,
,,,,,,practice,0,18,1,83,4,N,0,right,1.1273704969935352,1,0,,,,,,,,,,,,,,,,,,,,,1,,,,,,,,,,,,,,,,,,,,,,,,,,,,,,,,,,,,,,,,,,,,,,103,157408,18,Female,1,2024/03/19_11:59:39,YZ,None,
,,,,,,practice,0,18,1,83,5,N,1,left,0.6738648309983546,1,0,,,,,,,,,,,,,,,,,,,,,1,,,,,,,,,,,,,,,,,,,,,,,,,,,,,,,,,,,,,,,,,,,,,,103,157408,18,Female,1,2024/03/19_11:59:39,YZ,None,
,,,,,,practice,0,18,1,83,6,J,0,right,0.9097863010028959,1,0,,,,,,,,,,,,,,,,,,,,,1,,,,,,,,,,,,,,,,,,,,,,,,,,,,,,,,,,,,,,,,,,,,,,103,157408,18,Female,1,2024/03/19_11:59:39,YZ,None,
,,,,,,practice,0,18,1,83,7,J,1,left,1.0316432550025638,1,0,,,,,,,,,,,,,,,,,,,,,1,,,,,,,,,,,,,,,,,,,,,,,,,,,,,,,,,,,,,,,,,,,,,,103,157408,18,Female,1,2024/03/19_11:59:39,YZ,None,
,,,,,,practice,0,18,1,83,8,N,0,right,0.4445183759962674,1,0,,,,,,,,,,,,,,,,,,,,,1,,,,,,,,,,,,,,,,,,,,,,,,,,,,,,,,,,,,,,,,,,,,,,103,157408,18,Female,1,2024/03/19_11:59:39,YZ,None,
,,,,,,practice,0,18,1,83,9,N,1,left,0.5090137880033581,1,0,,,,,,,,,,,,,,,,,,,,,1,,,,,,,,,,,,,,,,,,,,,,,,,,,,,,,,,,,,,,,,,,,,,,103,157408,18,Female,1,2024/03/19_11:59:39,YZ,None,
,,,,,,practice,0,18,1,83,10,F,0,right,0.5558433149999473,1,0,,,,,,,,,,,,,,,,,,,,,1,,,,,,,,,,,,,,,,,,,,,,,,,,,,,,,,,,,,,,,,,,,,,,103,157408,18,Female,1,2024/03/19_11:59:39,YZ,None,
,,,,,,practice,0,18,1,83,11,N,0,right,1.2327220880033565,1,0,,,,,,,,,,,,,,,,,,,,,1,,,,,,,,,,,,,,,,,,,,,,,,,,,,,,,,,,,,,,,,,,,,,,103,157408,18,Female,1,2024/03/19_11:59:39,YZ,None,
,,,,,,practice,0,18,1,83,12,J,0,right,1.328288070995768,1,0,,,,,,,,,,,,,,,,,,,,,1,,,,,,,,,,,,,,,,,,,,,,,,,,,,,,,,,,,,,,,,,,,,,,103,157408,18,Female,1,2024/03/19_11:59:39,YZ,None,
,,,,,,practice,0,18,1,83,13,Q,0,right,1.2953590670003905,1,0,,,,,,,,,,,,,,,,,,,,,1,,,,,,,,,,,,,,,,,,,,,,,,,,,,,,,,,,,,,,,,,,,,,,103,157408,18,Female,1,2024/03/19_11:59:39,YZ,None,
,,,,,,practice,0,18,1,83,14,Q,1,left,0.508590199999162,1,0,,,,,,,,,,,,,,,,,,,,,1,,,,,,,,,,,,,,,,,,,,,,,,,,,,,,,,,,,,,,,,,,,,,,103,157408,18,Female,1,2024/03/19_11:59:39,YZ,None,
,,,,,,practice,0,18,1,83,15,N,0,right,0.5640321449973271,1,0,,,,,,,,,,,,,,,,,,,,,1,,,,,,,,,,,,,,,,,,,,,,,,,,,,,,,,,,,,,,,,,,,,,,103,157408,18,Female,1,2024/03/19_11:59:39,YZ,None,
,,,,,,practice,0,18,1,83,16,X,0,right,0.7964838960033376,1,0,,,,,,,,,,,,,,,,,,,,,1,,,,,,,,,,,,,,,,,,,,,,,,,,,,,,,,,,,,,,,,,,,,,,103,157408,18,Female,1,2024/03/19_11:59:39,YZ,None,
,,,,,,practice,0,18,1,83,17,C,0,right,0.8910332749946974,1,0,,,,,,,,,,,,,,,,,,,,,1,,,,,,,,,,,,,,,,,,,,,,,,,,,,,,,,,,,,,,,,,,,,,,103,157408,18,Female,1,2024/03/19_11:59:39,YZ,None,
,,,,,,practice,0,18,1,83,18,J,0,right,0.6531623329938157,1,0,,,,,,,,,,,,,,,,,,,,,1,,,,,,,,,,,,,,,,,,,,,,,,,,,,,,,,,,,,,,,,,,,,,,103,157408,18,Female,1,2024/03/19_11:59:39,YZ,None,
,,,,,,practice,0,18,1,83,19,F,0,right,0.7992303580031148,1,0,,,,,,,,,,,,,,,,,,,,,1,,,,,,,,,,,,,,,,,,,,,,,,,,,,,,,,,,,,,,,,,,,,,,103,157408,18,Female,1,2024/03/19_11:59:39,YZ,None,
,,,,,,practice,0,18,1,83,20,N,0,right,0.4822105599960196,1,0,,,,,,,,,,,,,,,,,,,,,1,,,,,,,,,,,,,,,,,,,,,,,,,,,,,,,,,,,,,,,,,,,,,,103,157408,18,Female,1,2024/03/19_11:59:39,YZ,None,
,,,,,,practice,0,18,1,83,21,N,1,left,0.6163456470021629,1,0,,,,,,,,,,,,,,,,,,,,,1,,,,,,,,,,,,,,,,,,,,,,,,,,,,,,,,,,,,,,,,,,,,,,103,157408,18,Female,1,2024/03/19_11:59:39,YZ,None,
,,,,,,practice,0,18,1,83,22,Q,0,right,0.4973640960015473,1,0,,,,,,,,,,,,,,,,,,,,,1,,,,,,,,,,,,,,,,,,,,,,,,,,,,,,,,,,,,,,,,,,,,,,103,157408,18,Female,1,2024/03/19_11:59:39,YZ,None,
,,,,,,practice,0,18,1,83,23,V,0,right,0.6639874780012178,1,0,,,,,,,,,,,,,,,,,,,,,1,,,,,,,,,,,,,,,,,,,,,,,,,,,,,,,,,,,,,,,,,,,,,,103,157408,18,Female,1,2024/03/19_11:59:39,YZ,None,
,,,,,,practice,0,18,1,83,24,N,0,right,0.4121897320001153,1,0,,,,,,,,,,,,,,,,,,,,,1,,,,,,,,,,,,,,,,,,,,,,,,,,,,,,,,,,,,,,,,,,,,,,103,157408,18,Female,1,2024/03/19_11:59:39,YZ,None,
,,,,,,practice,0,18,1,83,,,,,,,,1.0,1.0,0.0,1.0,0.0,1.0,0.7354170092500377,6,0,0,0,0,18,24,6,18,0,,,,1,,,,,,,,,,,,,,,,,,,,,,,,,,,,,,,,,,,,,,,,,,,,,,103,157408,18,Female,1,2024/03/19_11:59:39,YZ,None,
1,./instructions/inst_prac_3/Slide37.png,right,3.9375008229981177,642.9857329739971,646.9232337969952,,,,,,,,,,,,,,,,,,,,,,,,,,,,,,,,,1,,,,,,,,,,,,,,,,,,,,,,,,,,,,,,,,,,,,,,,,,,,,,,103,157408,18,Female,1,2024/03/19_11:59:39,YZ,None,
2,./instructions/inst_prac_3/Slide38.png,right,1.1899516039993614,646.9492129049977,648.139164508997,,,,,,,,,,,,,,,,,,,,,,,,,,,,,,,,,1,,,,,,,,,,,,,,,,,,,,,,,,,,,,,,,,,,,,,,,,,,,,,,103,157408,18,Female,1,2024/03/19_11:59:39,YZ,None,
3,./instructions/inst_prac_3/Slide39.png,right,0.5257052489978378,648.1653906389984,648.6910958879962,,,,,,,,,,,,,,,,,,,,,,,,,,,,,,,,,1,,,,,,,,,,,,,,,,,,,,,,,,,,,,,,,,,,,,,,,,,,,,,,103,157408,18,Female,1,2024/03/19_11:59:39,YZ,None,
4,./instructions/inst_prac_3/Slide40.png,right,0.518607649995829,648.7165475549991,649.235155204995,,,,,,,,,,,,,,,,,,,,,,,,,,,,,,,,,1,,,,,,,,,,,,,,,,,,,,,,,,,,,,,,,,,,,,,,,,,,,,,,103,157408,18,Female,1,2024/03/19_11:59:39,YZ,None,
5,./instructions/inst_prac_3/Slide41.png,right,0.49919223000324564,649.263972253997,649.7631644840003,,,,,,,,,,,,,,,,,,,,,,,,,,,,,,,,,1,,,,,,,,,,,,,,,,,,,,,,,,,,,,,,,,,,,,,,,,,,,,,,103,157408,18,Female,1,2024/03/19_11:59:39,YZ,None,
6,./instructions/inst_prac_3/Slide42.png,right,0.9312826310051605,649.7919077049955,650.7231903360007,,,,,,,,,,,,,,,,,,,,,,,,,,,,,,,,,1,,,,,,,,,,,,,,,,,,,,,,,,,,,,,,,,,,,,,,,,,,,,,,103,157408,18,Female,1,2024/03/19_11:59:39,YZ,None,
7,./instructions/inst_prac_3/Slide43.png,right,1.40505013299844,650.7502487370002,652.1552988699987,,,,,,,,,,,,,,,,,,,,,,,,,,,,,,,,,1,,,,,,,,,,,,,,,,,,,,,,,,,,,,,,,,,,,,,,,,,,,,,,103,157408,18,Female,1,2024/03/19_11:59:39,YZ,None,
8,./instructions/inst_prac_3/Slide44.png,right,1.8911437200004002,652.1840172929951,654.0751610129955,,,,,,,,,,,,,,,,,,,,,,,,,,,,,,,,,1,,,,,,,,,,,,,,,,,,,,,,,,,,,,,,,,,,,,,,,,,,,,,,103,157408,18,Female,1,2024/03/19_11:59:39,YZ,None,
,,,,,,practice,0,8,3,788,1,N,0,right,1.4681476879995898,1,0,,,,,,,,,,,,,,,,,,,,,1,,,,,,,,,,,,,,,,,,,,,,,,,,,,,,,,,,,,,,,,,,,,,,103,157408,18,Female,1,2024/03/19_11:59:39,YZ,None,
,,,,,,practice,0,8,3,788,2,F,0,right,0.6625261049994151,1,0,,,,,,,,,,,,,,,,,,,,,1,,,,,,,,,,,,,,,,,,,,,,,,,,,,,,,,,,,,,,,,,,,,,,103,157408,18,Female,1,2024/03/19_11:59:39,YZ,None,
,,,,,,practice,0,8,3,788,3,C,0,right,0.2698949800033006,1,0,,,,,,,,,,,,,,,,,,,,,1,,,,,,,,,,,,,,,,,,,,,,,,,,,,,,,,,,,,,,,,,,,,,,103,157408,18,Female,1,2024/03/19_11:59:39,YZ,None,
,,,,,,practice,0,8,3,788,4,N,1,left,0.4961681389977457,1,0,,,,,,,,,,,,,,,,,,,,,1,,,,,,,,,,,,,,,,,,,,,,,,,,,,,,,,,,,,,,,,,,,,,,103,157408,18,Female,1,2024/03/19_11:59:39,YZ,None,
,,,,,,practice,0,8,3,788,5,N,0,right,2.1795679339993512,1,0,,,,,,,,,,,,,,,,,,,,,1,,,,,,,,,,,,,,,,,,,,,,,,,,,,,,,,,,,,,,,,,,,,,,103,157408,18,Female,1,2024/03/19_11:59:39,YZ,None,
,,,,,,practice,0,8,3,788,6,Q,0,right,0.7967236749973381,1,0,,,,,,,,,,,,,,,,,,,,,1,,,,,,,,,,,,,,,,,,,,,,,,,,,,,,,,,,,,,,,,,,,,,,103,157408,18,Female,1,2024/03/19_11:59:39,YZ,None,
,,,,,,practice,0,8,3,788,7,J,0,right,0.7301477729997714,1,0,,,,,,,,,,,,,,,,,,,,,1,,,,,,,,,,,,,,,,,,,,,,,,,,,,,,,,,,,,,,,,,,,,,,103,157408,18,Female,1,2024/03/19_11:59:39,YZ,None,
,,,,,,practice,0,8,3,788,8,V,0,right,0.7565263549986412,1,0,,,,,,,,,,,,,,,,,,,,,1,,,,,,,,,,,,,,,,,,,,,,,,,,,,,,,,,,,,,,,,,,,,,,103,157408,18,Female,1,2024/03/19_11:59:39,YZ,None,
,,,,,,practice,0,8,3,788,9,Q,1,left,0.47796397199999774,1,0,,,,,,,,,,,,,,,,,,,,,1,,,,,,,,,,,,,,,,,,,,,,,,,,,,,,,,,,,,,,,,,,,,,,103,157408,18,Female,1,2024/03/19_11:59:39,YZ,None,
,,,,,,practice,0,8,3,788,10,J,1,left,1.181110217999958,1,0,,,,,,,,,,,,,,,,,,,,,1,,,,,,,,,,,,,,,,,,,,,,,,,,,,,,,,,,,,,,,,,,,,,,103,157408,18,Female,1,2024/03/19_11:59:39,YZ,None,
,,,,,,practice,0,8,3,788,11,S,0,right,1.0994235839971225,1,0,,,,,,,,,,,,,,,,,,,,,1,,,,,,,,,,,,,,,,,,,,,,,,,,,,,,,,,,,,,,,,,,,,,,103,157408,18,Female,1,2024/03/19_11:59:39,YZ,None,
,,,,,,practice,0,8,3,788,12,S,0,right,1.6085675630019978,1,0,,,,,,,,,,,,,,,,,,,,,1,,,,,,,,,,,,,,,,,,,,,,,,,,,,,,,,,,,,,,,,,,,,,,103,157408,18,Female,1,2024/03/19_11:59:39,YZ,None,
,,,,,,practice,0,8,3,788,13,J,1,left,0.9007477019986254,1,0,,,,,,,,,,,,,,,,,,,,,1,,,,,,,,,,,,,,,,,,,,,,,,,,,,,,,,,,,,,,,,,,,,,,103,157408,18,Female,1,2024/03/19_11:59:39,YZ,None,
,,,,,,practice,0,8,3,788,,,,,,,,1.0,1.0,0.0,1.0,0.0,1.0,0.971347360614835,4,0,0,0,0,9,13,4,9,0,,,,1,,,,,,,,,,,,,,,,,,,,,,,,,,,,,,,,,,,,,,,,,,,,,,103,157408,18,Female,1,2024/03/19_11:59:39,YZ,None,
1,./instructions/inst_prac_3_next/Slide49.png,right,2.0881880640008603,680.3788583599962,682.4670464239971,,,,,,,,,,,,,,,,,,,,,,,,,,,,,,,,,1,,,,,,,,,,,,,,,,,,,,,,,,,,,,,,,,,,,,,,,,,,,,,,103,157408,18,Female,1,2024/03/19_11:59:39,YZ,None,
,,,,,,practice,0,11,3,83,1,N,0,right,0.9189836519944947,1,0,,,,,,,,,,,,,,,,,,,,,1,,,,,,,,,,,,,,,,,,,,,,,,,,,,,,,,,,,,,,,,,,,,,,103,157408,18,Female,1,2024/03/19_11:59:39,YZ,None,
,,,,,,practice,0,11,3,83,2,F,0,right,0.35967625699413475,1,0,,,,,,,,,,,,,,,,,,,,,1,,,,,,,,,,,,,,,,,,,,,,,,,,,,,,,,,,,,,,,,,,,,,,103,157408,18,Female,1,2024/03/19_11:59:39,YZ,None,
,,,,,,practice,0,11,3,83,3,J,0,right,0.353699630999472,1,0,,,,,,,,,,,,,,,,,,,,,1,,,,,,,,,,,,,,,,,,,,,,,,,,,,,,,,,,,,,,,,,,,,,,103,157408,18,Female,1,2024/03/19_11:59:39,YZ,None,
,,,,,,practice,0,11,3,83,4,F,0,right,0.855572784996184,1,0,,,,,,,,,,,,,,,,,,,,,1,,,,,,,,,,,,,,,,,,,,,,,,,,,,,,,,,,,,,,,,,,,,,,103,157408,18,Female,1,2024/03/19_11:59:39,YZ,None,
,,,,,,practice,0,11,3,83,5,J,0,left,0.7600165269977879,0,0,,,,,,,,,,,,,,,,,,,,,1,,,,,,,,,,,,,,,,,,,,,,,,,,,,,,,,,,,,,,,,,,,,,,103,157408,18,Female,1,2024/03/19_11:59:39,YZ,None,
,,,,,,practice,0,11,3,83,6,S,0,right,1.068061451005633,1,0,,,,,,,,,,,,,,,,,,,,,1,,,,,,,,,,,,,,,,,,,,,,,,,,,,,,,,,,,,,,,,,,,,,,103,157408,18,Female,1,2024/03/19_11:59:39,YZ,None,
,,,,,,practice,0,11,3,83,7,N,0,right,0.40213976000086404,1,0,,,,,,,,,,,,,,,,,,,,,1,,,,,,,,,,,,,,,,,,,,,,,,,,,,,,,,,,,,,,,,,,,,,,103,157408,18,Female,1,2024/03/19_11:59:39,YZ,None,
,,,,,,practice,0,11,3,83,8,S,0,right,1.284474289001082,1,0,,,,,,,,,,,,,,,,,,,,,1,,,,,,,,,,,,,,,,,,,,,,,,,,,,,,,,,,,,,,,,,,,,,,103,157408,18,Female,1,2024/03/19_11:59:39,YZ,None,
,,,,,,practice,0,11,3,83,9,F,0,right,1.2572418159979861,1,0,,,,,,,,,,,,,,,,,,,,,1,,,,,,,,,,,,,,,,,,,,,,,,,,,,,,,,,,,,,,,,,,,,,,103,157408,18,Female,1,2024/03/19_11:59:39,YZ,None,
,,,,,,practice,0,11,3,83,10,Q,0,right,0.7060891370056197,1,0,,,,,,,,,,,,,,,,,,,,,1,,,,,,,,,,,,,,,,,,,,,,,,,,,,,,,,,,,,,,,,,,,,,,103,157408,18,Female,1,2024/03/19_11:59:39,YZ,None,
,,,,,,practice,0,11,3,83,11,S,1,left,0.8763179340021452,1,0,,,,,,,,,,,,,,,,,,,,,1,,,,,,,,,,,,,,,,,,,,,,,,,,,,,,,,,,,,,,,,,,,,,,103,157408,18,Female,1,2024/03/19_11:59:39,YZ,None,
,,,,,,practice,0,11,3,83,12,X,0,right,1.1322979680044227,1,0,,,,,,,,,,,,,,,,,,,,,1,,,,,,,,,,,,,,,,,,,,,,,,,,,,,,,,,,,,,,,,,,,,,,103,157408,18,Female,1,2024/03/19_11:59:39,YZ,None,
,,,,,,practice,0,11,3,83,13,X,0,right,1.1843772960055503,1,0,,,,,,,,,,,,,,,,,,,,,1,,,,,,,,,,,,,,,,,,,,,,,,,,,,,,,,,,,,,,,,,,,,,,103,157408,18,Female,1,2024/03/19_11:59:39,YZ,None,
,,,,,,practice,0,11,3,83,14,S,1,left,1.4444272140026442,1,0,,,,,,,,,,,,,,,,,,,,,1,,,,,,,,,,,,,,,,,,,,,,,,,,,,,,,,,,,,,,,,,,,,,,103,157408,18,Female,1,2024/03/19_11:59:39,YZ,None,
,,,,,,practice,0,11,3,83,15,J,0,right,0.7964721370008192,1,0,,,,,,,,,,,,,,,,,,,,,1,,,,,,,,,,,,,,,,,,,,,,,,,,,,,,,,,,,,,,,,,,,,,,103,157408,18,Female,1,2024/03/19_11:59:39,YZ,None,
,,,,,,practice,0,11,3,83,16,X,1,left,1.1724040900007822,1,0,,,,,,,,,,,,,,,,,,,,,1,,,,,,,,,,,,,,,,,,,,,,,,,,,,,,,,,,,,,,,,,,,,,,103,157408,18,Female,1,2024/03/19_11:59:39,YZ,None,
,,,,,,practice,0,11,3,83,17,N,0,right,0.5813241010037018,1,0,,,,,,,,,,,,,,,,,,,,,1,,,,,,,,,,,,,,,,,,,,,,,,,,,,,,,,,,,,,,,,,,,,,,103,157408,18,Female,1,2024/03/19_11:59:39,YZ,None,
,,,,,,practice,0,11,3,83,18,J,1,right,1.252136953000445,0,0,,,,,,,,,,,,,,,,,,,,,1,,,,,,,,,,,,,,,,,,,,,,,,,,,,,,,,,,,,,,,,,,,,,,103,157408,18,Female,1,2024/03/19_11:59:39,YZ,None,
,,,,,,practice,0,11,3,83,19,J,0,right,1.3513547100010328,1,0,,,,,,,,,,,,,,,,,,,,,1,,,,,,,,,,,,,,,,,,,,,,,,,,,,,,,,,,,,,,,,,,,,,,103,157408,18,Female,1,2024/03/19_11:59:39,YZ,None,
,,,,,,practice,0,11,3,83,20,N,1,left,0.6523327109971433,1,0,,,,,,,,,,,,,,,,,,,,,1,,,,,,,,,,,,,,,,,,,,,,,,,,,,,,,,,,,,,,,,,,,,,,103,157408,18,Female,1,2024/03/19_11:59:39,YZ,None,
,,,,,,practice,0,11,3,83,21,C,0,right,3.780346240993822,1,0,,,,,,,,,,,,,,,,,,,,,1,,,,,,,,,,,,,,,,,,,,,,,,,,,,,,,,,,,,,,,,,,,,,,103,157408,18,Female,1,2024/03/19_11:59:39,YZ,None,
,,,,,,practice,0,11,3,83,22,J,1,right,1.224580023001181,0,0,,,,,,,,,,,,,,,,,,,,,1,,,,,,,,,,,,,,,,,,,,,,,,,,,,,,,,,,,,,,,,,,,,,,103,157408,18,Female,1,2024/03/19_11:59:39,YZ,None,
,,,,,,practice,0,11,3,83,23,Q,0,right,1.176917061995482,1,0,,,,,,,,,,,,,,,,,,,,,1,,,,,,,,,,,,,,,,,,,,,,,,,,,,,,,,,,,,,,,,,,,,,,103,157408,18,Female,1,2024/03/19_11:59:39,YZ,None,
,,,,,,practice,0,11,3,83,24,C,1,left,0.7164195889999974,1,0,,,,,,,,,,,,,,,,,,,,,1,,,,,,,,,,,,,,,,,,,,,,,,,,,,,,,,,,,,,,,,,,,,,,103,157408,18,Female,1,2024/03/19_11:59:39,YZ,None,
,,,,,,practice,0,11,3,83,,,,,,,,0.8970588235294117,0.7142857142857143,0.058823529411764705,0.9411764705882353,0.0,0.9411764705882353,1.0544859722501012,5,1,0,0,0,16,21,7,17,0,,,,1,,,,,,,,,,,,,,,,,,,,,,,,,,,,,,,,,,,,,,,,,,,,,,103,157408,18,Female,1,2024/03/19_11:59:39,YZ,None,
,,,,,,practice,0,35,3,83,1,C,0,right,0.518150785996113,1,0,,,,,,,,,,,,,,,,,,,,,1,,,,,,,,,,,,,,,,,,,,,,,,,,,,,,,,,,,,,,,,,,,,,,103,157408,18,Female,1,2024/03/19_11:59:39,YZ,None,
,,,,,,practice,0,35,3,83,2,F,0,right,0.20104265400004806,1,0,,,,,,,,,,,,,,,,,,,,,1,,,,,,,,,,,,,,,,,,,,,,,,,,,,,,,,,,,,,,,,,,,,,,103,157408,18,Female,1,2024/03/19_11:59:39,YZ,None,
,,,,,,practice,0,35,3,83,3,V,0,right,0.25525060600193683,1,0,,,,,,,,,,,,,,,,,,,,,1,,,,,,,,,,,,,,,,,,,,,,,,,,,,,,,,,,,,,,,,,,,,,,103,157408,18,Female,1,2024/03/19_11:59:39,YZ,None,
,,,,,,practice,0,35,3,83,4,C,1,left,0.343879908999952,1,0,,,,,,,,,,,,,,,,,,,,,1,,,,,,,,,,,,,,,,,,,,,,,,,,,,,,,,,,,,,,,,,,,,,,103,157408,18,Female,1,2024/03/19_11:59:39,YZ,None,
,,,,,,practice,0,35,3,83,5,Q,0,right,0.38539635399502004,1,0,,,,,,,,,,,,,,,,,,,,,1,,,,,,,,,,,,,,,,,,,,,,,,,,,,,,,,,,,,,,,,,,,,,,103,157408,18,Female,1,2024/03/19_11:59:39,YZ,None,
,,,,,,practice,0,35,3,83,6,C,0,right,0.5435794570003054,1,0,,,,,,,,,,,,,,,,,,,,,1,,,,,,,,,,,,,,,,,,,,,,,,,,,,,,,,,,,,,,,,,,,,,,103,157408,18,Female,1,2024/03/19_11:59:39,YZ,None,
,,,,,,practice,0,35,3,83,7,X,0,right,0.9676994219989865,1,0,,,,,,,,,,,,,,,,,,,,,1,,,,,,,,,,,,,,,,,,,,,,,,,,,,,,,,,,,,,,,,,,,,,,103,157408,18,Female,1,2024/03/19_11:59:39,YZ,None,
,,,,,,practice,0,35,3,83,8,V,0,left,0.785223880004196,0,0,,,,,,,,,,,,,,,,,,,,,1,,,,,,,,,,,,,,,,,,,,,,,,,,,,,,,,,,,,,,,,,,,,,,103,157408,18,Female,1,2024/03/19_11:59:39,YZ,None,
,,,,,,practice,0,35,3,83,9,C,1,right,0.8197115160000976,0,0,,,,,,,,,,,,,,,,,,,,,1,,,,,,,,,,,,,,,,,,,,,,,,,,,,,,,,,,,,,,,,,,,,,,103,157408,18,Female,1,2024/03/19_11:59:39,YZ,None,
,,,,,,practice,0,35,3,83,10,S,0,right,1.6000801459958893,1,0,,,,,,,,,,,,,,,,,,,,,1,,,,,,,,,,,,,,,,,,,,,,,,,,,,,,,,,,,,,,,,,,,,,,103,157408,18,Female,1,2024/03/19_11:59:39,YZ,None,
,,,,,,practice,0,35,3,83,11,N,0,right,0.6974982850006199,1,0,,,,,,,,,,,,,,,,,,,,,1,,,,,,,,,,,,,,,,,,,,,,,,,,,,,,,,,,,,,,,,,,,,,,103,157408,18,Female,1,2024/03/19_11:59:39,YZ,None,
,,,,,,practice,0,35,3,83,12,C,1,left,0.6639909959994839,1,0,,,,,,,,,,,,,,,,,,,,,1,,,,,,,,,,,,,,,,,,,,,,,,,,,,,,,,,,,,,,,,,,,,,,103,157408,18,Female,1,2024/03/19_11:59:39,YZ,None,
,,,,,,practice,0,35,3,83,13,J,0,right,1.4927103570007603,1,0,,,,,,,,,,,,,,,,,,,,,1,,,,,,,,,,,,,,,,,,,,,,,,,,,,,,,,,,,,,,,,,,,,,,103,157408,18,Female,1,2024/03/19_11:59:39,YZ,None,
,,,,,,practice,0,35,3,83,14,S,0,right,1.9797413679989404,1,0,,,,,,,,,,,,,,,,,,,,,1,,,,,,,,,,,,,,,,,,,,,,,,,,,,,,,,,,,,,,,,,,,,,,103,157408,18,Female,1,2024/03/19_11:59:39,YZ,None,
,,,,,,practice,0,35,3,83,15,X,0,right,1.316308855995885,1,0,,,,,,,,,,,,,,,,,,,,,1,,,,,,,,,,,,,,,,,,,,,,,,,,,,,,,,,,,,,,,,,,,,,,103,157408,18,Female,1,2024/03/19_11:59:39,YZ,None,
,,,,,,practice,0,35,3,83,16,Q,0,right,1.7038891019983566,1,0,,,,,,,,,,,,,,,,,,,,,1,,,,,,,,,,,,,,,,,,,,,,,,,,,,,,,,,,,,,,,,,,,,,,103,157408,18,Female,1,2024/03/19_11:59:39,YZ,None,
,,,,,,practice,0,35,3,83,17,V,0,right,0.8183289900043746,1,0,,,,,,,,,,,,,,,,,,,,,1,,,,,,,,,,,,,,,,,,,,,,,,,,,,,,,,,,,,,,,,,,,,,,103,157408,18,Female,1,2024/03/19_11:59:39,YZ,None,
,,,,,,practice,0,35,3,83,18,X,1,left,0.7852241580039845,1,0,,,,,,,,,,,,,,,,,,,,,1,,,,,,,,,,,,,,,,,,,,,,,,,,,,,,,,,,,,,,,,,,,,,,103,157408,18,Female,1,2024/03/19_11:59:39,YZ,None,
,,,,,,practice,0,35,3,83,19,C,0,right,2.1101874640007736,1,0,,,,,,,,,,,,,,,,,,,,,1,,,,,,,,,,,,,,,,,,,,,,,,,,,,,,,,,,,,,,,,,,,,,,103,157408,18,Female,1,2024/03/19_11:59:39,YZ,None,
,,,,,,practice,0,35,3,83,20,V,1,left,0.7448994970036438,1,0,,,,,,,,,,,,,,,,,,,,,1,,,,,,,,,,,,,,,,,,,,,,,,,,,,,,,,,,,,,,,,,,,,,,103,157408,18,Female,1,2024/03/19_11:59:39,YZ,None,
,,,,,,practice,0,35,3,83,21,J,0,right,1.376706421993731,1,0,,,,,,,,,,,,,,,,,,,,,1,,,,,,,,,,,,,,,,,,,,,,,,,,,,,,,,,,,,,,,,,,,,,,103,157408,18,Female,1,2024/03/19_11:59:39,YZ,None,
,,,,,,practice,0,35,3,83,22,V,0,left,1.1301970780041302,0,0,,,,,,,,,,,,,,,,,,,,,1,,,,,,,,,,,,,,,,,,,,,,,,,,,,,,,,,,,,,,,,,,,,,,103,157408,18,Female,1,2024/03/19_11:59:39,YZ,None,
,,,,,,practice,0,35,3,83,23,V,1,left,0.6898157029936556,1,0,,,,,,,,,,,,,,,,,,,,,1,,,,,,,,,,,,,,,,,,,,,,,,,,,,,,,,,,,,,,,,,,,,,,103,157408,18,Female,1,2024/03/19_11:59:39,YZ,None,
,,,,,,practice,0,35,3,83,24,X,0,right,1.9566474060047767,1,0,,,,,,,,,,,,,,,,,,,,,1,,,,,,,,,,,,,,,,,,,,,,,,,,,,,,,,,,,,,,,,,,,,,,103,157408,18,Female,1,2024/03/19_11:59:39,YZ,None,
,,,,,,practice,0,35,3,83,,,,,,,,0.9120370370370371,0.8333333333333334,0.1111111111111111,0.8888888888888888,0.0,0.8888888888888888,0.9952566838331526,5,2,0,0,0,16,21,6,18,0,,,,1,,,,,,,,,,,,,,,,,,,,,,,,,,,,,,,,,,,,,,,,,,,,,,103,157408,18,Female,1,2024/03/19_11:59:39,YZ,None,
1,./instructions/inst_prac_main/Slide51.png,right,1.4522993990030955,760.9588931679973,762.4111925670004,,,,,,,,,,,,,,,,,,,,,,,,,,,,,,,,,1,,,,,,,,,,,,,,,,,,,,,,,,,,,,,,,,,,,,,,,,,,,,,,103,157408,18,Female,1,2024/03/19_11:59:39,YZ,None,
2,./instructions/inst_prac_main/Slide52.png,right,6.4501637119974475,762.4408843700003,768.8910480819977,,,,,,,,,,,,,,,,,,,,,,,,,,,,,,,,,1,,,,,,,,,,,,,,,,,,,,,,,,,,,,,,,,,,,,,,,,,,,,,,103,157408,18,Female,1,2024/03/19_11:59:39,YZ,None,
1,./instructions/inst_prac_main/Slide53.png,left,4.091988303000107,768.9192374359991,773.0112257389992,,,,,,,,,,,,,,,,,,,,,,,,,,,,,,,,,1,,,,,,,,,,,,,,,,,,,,,,,,,,,,,,,,,,,,,,,,,,,,,,103,157408,18,Female,1,2024/03/19_11:59:39,YZ,None,
0,./instructions/inst_prac_main/Slide52.png,left,0.20037011800013715,773.0340195050012,773.2343896230013,,,,,,,,,,,,,,,,,,,,,,,,,,,,,,,,,1,,,,,,,,,,,,,,,,,,,,,,,,,,,,,,,,,,,,,,,,,,,,,,103,157408,18,Female,1,2024/03/19_11:59:39,YZ,None,
-1,./instructions/inst_prac_main/Slide51.png,left,0.20041335599671584,773.2535237699994,773.4539371259962,,,,,,,,,,,,,,,,,,,,,,,,,,,,,,,,,1,,,,,,,,,,,,,,,,,,,,,,,,,,,,,,,,,,,,,,,,,,,,,,103,157408,18,Female,1,2024/03/19_11:59:39,YZ,None,
-2,./instructions/inst_prac_main/Slide54.png,left,0.200337109999964,773.4767617729958,773.6770988829958,,,,,,,,,,,,,,,,,,,,,,,,,,,,,,,,,1,,,,,,,,,,,,,,,,,,,,,,,,,,,,,,,,,,,,,,,,,,,,,,103,157408,18,Female,1,2024/03/19_11:59:39,YZ,None,
-3,./instructions/inst_prac_main/Slide53.png,left,0.20042427400039742,773.6997416519953,773.9001659259957,,,,,,,,,,,,,,,,,,,,,,,,,,,,,,,,,1,,,,,,,,,,,,,,,,,,,,,,,,,,,,,,,,,,,,,,,,,,,,,,103,157408,18,Female,1,2024/03/19_11:59:39,YZ,None,
-4,./instructions/inst_prac_main/Slide52.png,left,0.20052385899907677,773.9226696699989,774.123193528998,,,,,,,,,,,,,,,,,,,,,,,,,,,,,,,,,1,,,,,,,,,,,,,,,,,,,,,,,,,,,,,,,,,,,,,,,,,,,,,,103,157408,18,Female,1,2024/03/19_11:59:39,YZ,None,
,,,,,,practice_main,0,1,1,83,1,X,0,None,nan,0,1,,,,,,,,,,,,,,,,,,,,,1,,,,,,,,,,,,,,,,,,,,,,,,,,,,,,,,,,,,,,,,,,,,,,103,157408,18,Female,1,2024/03/19_11:59:39,YZ,None,
,,,,,,practice_main,0,1,1,83,2,X,1,None,nan,0,1,,,,,,,,,,,,,,,,,,,,,1,,,,,,,,,,,,,,,,,,,,,,,,,,,,,,,,,,,,,,,,,,,,,,103,157408,18,Female,1,2024/03/19_11:59:39,YZ,None,
,,,,,,practice_main,0,1,1,83,3,V,0,right,0.620331404999888,1,0,,,,,,,,,,,,,,,,,,,,,1,,,,,,,,,,,,,,,,,,,,,,,,,,,,,,,,,,,,,,,,,,,,,,103,157408,18,Female,1,2024/03/19_11:59:39,YZ,None,
,,,,,,practice_main,0,1,1,83,4,F,0,right,0.6194167550056591,1,0,,,,,,,,,,,,,,,,,,,,,1,,,,,,,,,,,,,,,,,,,,,,,,,,,,,,,,,,,,,,,,,,,,,,103,157408,18,Female,1,2024/03/19_11:59:39,YZ,None,
,,,,,,practice_main,0,1,1,83,5,C,0,right,0.3496287009984371,1,0,,,,,,,,,,,,,,,,,,,,,1,,,,,,,,,,,,,,,,,,,,,,,,,,,,,,,,,,,,,,,,,,,,,,103,157408,18,Female,1,2024/03/19_11:59:39,YZ,None,
,,,,,,practice_main,0,1,1,83,6,Q,0,right,0.44177949000004446,1,0,,,,,,,,,,,,,,,,,,,,,1,,,,,,,,,,,,,,,,,,,,,,,,,,,,,,,,,,,,,,,,,,,,,,103,157408,18,Female,1,2024/03/19_11:59:39,YZ,None,
,,,,,,practice_main,0,1,1,83,7,Q,1,left,0.5122565170022426,1,0,,,,,,,,,,,,,,,,,,,,,1,,,,,,,,,,,,,,,,,,,,,,,,,,,,,,,,,,,,,,,,,,,,,,103,157408,18,Female,1,2024/03/19_11:59:39,YZ,None,
,,,,,,practice_main,0,1,1,83,8,N,0,right,0.5645601580035873,1,0,,,,,,,,,,,,,,,,,,,,,1,,,,,,,,,,,,,,,,,,,,,,,,,,,,,,,,,,,,,,,,,,,,,,103,157408,18,Female,1,2024/03/19_11:59:39,YZ,None,
,,,,,,practice_main,0,1,1,83,9,S,0,right,0.4673425720029627,1,0,,,,,,,,,,,,,,,,,,,,,1,,,,,,,,,,,,,,,,,,,,,,,,,,,,,,,,,,,,,,,,,,,,,,103,157408,18,Female,1,2024/03/19_11:59:39,YZ,None,
,,,,,,practice_main,0,1,1,83,10,S,1,left,0.5378913289969205,1,0,,,,,,,,,,,,,,,,,,,,,1,,,,,,,,,,,,,,,,,,,,,,,,,,,,,,,,,,,,,,,,,,,,,,103,157408,18,Female,1,2024/03/19_11:59:39,YZ,None,
,,,,,,practice_main,0,1,1,83,11,J,0,right,0.37509853399387794,1,0,,,,,,,,,,,,,,,,,,,,,1,,,,,,,,,,,,,,,,,,,,,,,,,,,,,,,,,,,,,,,,,,,,,,103,157408,18,Female,1,2024/03/19_11:59:39,YZ,None,
,,,,,,practice_main,0,1,1,83,12,F,0,right,0.4446727570029907,1,0,,,,,,,,,,,,,,,,,,,,,1,,,,,,,,,,,,,,,,,,,,,,,,,,,,,,,,,,,,,,,,,,,,,,103,157408,18,Female,1,2024/03/19_11:59:39,YZ,None,
,,,,,,practice_main,0,1,1,83,13,F,1,left,0.9921920880005928,1,0,,,,,,,,,,,,,,,,,,,,,1,,,,,,,,,,,,,,,,,,,,,,,,,,,,,,,,,,,,,,,,,,,,,,103,157408,18,Female,1,2024/03/19_11:59:39,YZ,None,
,,,,,,practice_main,0,1,1,83,14,N,0,right,0.36305101700418163,1,0,,,,,,,,,,,,,,,,,,,,,1,,,,,,,,,,,,,,,,,,,,,,,,,,,,,,,,,,,,,,,,,,,,,,103,157408,18,Female,1,2024/03/19_11:59:39,YZ,None,
,,,,,,practice_main,0,1,1,83,15,S,0,right,0.46543544300220674,1,0,,,,,,,,,,,,,,,,,,,,,1,,,,,,,,,,,,,,,,,,,,,,,,,,,,,,,,,,,,,,,,,,,,,,103,157408,18,Female,1,2024/03/19_11:59:39,YZ,None,
,,,,,,practice_main,0,1,1,83,16,Q,0,right,0.44091088600544026,1,0,,,,,,,,,,,,,,,,,,,,,1,,,,,,,,,,,,,,,,,,,,,,,,,,,,,,,,,,,,,,,,,,,,,,103,157408,18,Female,1,2024/03/19_11:59:39,YZ,None,
,,,,,,practice_main,0,1,1,83,17,S,0,right,0.6415899800049374,1,0,,,,,,,,,,,,,,,,,,,,,1,,,,,,,,,,,,,,,,,,,,,,,,,,,,,,,,,,,,,,,,,,,,,,103,157408,18,Female,1,2024/03/19_11:59:39,YZ,None,
,,,,,,practice_main,0,1,1,83,18,Q,0,right,0.8924150130042108,1,0,,,,,,,,,,,,,,,,,,,,,1,,,,,,,,,,,,,,,,,,,,,,,,,,,,,,,,,,,,,,,,,,,,,,103,157408,18,Female,1,2024/03/19_11:59:39,YZ,None,
,,,,,,practice_main,0,1,1,83,19,Q,1,left,0.5871503090020269,1,0,,,,,,,,,,,,,,,,,,,,,1,,,,,,,,,,,,,,,,,,,,,,,,,,,,,,,,,,,,,,,,,,,,,,103,157408,18,Female,1,2024/03/19_11:59:39,YZ,None,
,,,,,,practice_main,0,1,1,83,20,F,0,right,0.3159602689993335,1,0,,,,,,,,,,,,,,,,,,,,,1,,,,,,,,,,,,,,,,,,,,,,,,,,,,,,,,,,,,,,,,,,,,,,103,157408,18,Female,1,2024/03/19_11:59:39,YZ,None,
,,,,,,practice_main,0,1,1,83,21,X,0,right,0.38472656100202585,1,0,,,,,,,,,,,,,,,,,,,,,1,,,,,,,,,,,,,,,,,,,,,,,,,,,,,,,,,,,,,,,,,,,,,,103,157408,18,Female,1,2024/03/19_11:59:39,YZ,None,
,,,,,,practice_main,0,1,1,83,22,F,0,left,0.8038693319977028,0,0,,,,,,,,,,,,,,,,,,,,,1,,,,,,,,,,,,,,,,,,,,,,,,,,,,,,,,,,,,,,,,,,,,,,103,157408,18,Female,1,2024/03/19_11:59:39,YZ,None,
,,,,,,practice_main,0,1,1,83,23,V,0,right,0.5587587269983487,1,0,,,,,,,,,,,,,,,,,,,,,1,,,,,,,,,,,,,,,,,,,,,,,,,,,,,,,,,,,,,,,,,,,,,,103,157408,18,Female,1,2024/03/19_11:59:39,YZ,None,
,,,,,,practice_main,0,1,1,83,24,V,1,right,0.1684586350020254,0,0,,,,,,,,,,,,,,,,,,,,,1,,,,,,,,,,,,,,,,,,,,,,,,,,,,,,,,,,,,,,,,,,,,,,103,157408,18,Female,1,2024/03/19_11:59:39,YZ,None,
,,,,,,practice_main,0,1,1,83,,,,,,,,0.8842592592592593,0.6666666666666666,0.05555555555555555,0.9411764705882353,0.08333333333333333,0.861111111111111,0.5248862035468019,4,1,1,1,2,16,20,6,18,0,,,,1,,,,,,,,,,,,,,,,,,,,,,,,,,,,,,,,,,,,,,,,,,,,,,103,157408,18,Female,1,2024/03/19_11:59:39,YZ,None,
,,,,,240319_131407,PRACTICE,0,1,1,83,,,,,,,,,,,,,,,,,,,,,,,,,,,,1,20,2,1,cue1.png,easy,A,23,1.1887389429975883,0,785.2259635910013,786.433551604001,,,,,,,,,,,,,,,,,,,,,,,,,,,,,,,,,,,103,157408,18,Female,1,2024/03/19_11:59:39,YZ,None,
,,,,,,practice_main,0,2,1,83,1,V,0,None,nan,0,1,,,,,,,,,,,,,,,,,,,,,1,,,,,,,,,,,,,,,,,,,,,,,,,,,,,,,,,,,,,,,,,,,,,,103,157408,18,Female,1,2024/03/19_11:59:39,YZ,None,
,,,,,,practice_main,0,2,1,83,2,J,0,right,0.6236185750021832,1,0,,,,,,,,,,,,,,,,,,,,,1,,,,,,,,,,,,,,,,,,,,,,,,,,,,,,,,,,,,,,,,,,,,,,103,157408,18,Female,1,2024/03/19_11:59:39,YZ,None,
,,,,,,practice_main,0,2,1,83,3,N,0,right,0.4529462299979059,1,0,,,,,,,,,,,,,,,,,,,,,1,,,,,,,,,,,,,,,,,,,,,,,,,,,,,,,,,,,,,,,,,,,,,,103,157408,18,Female,1,2024/03/19_11:59:39,YZ,None,
,,,,,,practice_main,0,2,1,83,4,V,0,right,nan,0,1,,,,,,,,,,,,,,,,,,,,,1,,,,,,,,,,,,,,,,,,,,,,,,,,,,,,,,,,,,,,,,,,,,,,103,157408,18,Female,1,2024/03/19_11:59:39,YZ,None,
,,,,,,practice_main,0,2,1,83,5,V,1,left,0.5574113710026722,1,0,,,,,,,,,,,,,,,,,,,,,1,,,,,,,,,,,,,,,,,,,,,,,,,,,,,,,,,,,,,,,,,,,,,,103,157408,18,Female,1,2024/03/19_11:59:39,YZ,None,
,,,,,,practice_main,0,2,1,83,6,F,0,right,0.44049083000572864,1,0,,,,,,,,,,,,,,,,,,,,,1,,,,,,,,,,,,,,,,,,,,,,,,,,,,,,,,,,,,,,,,,,,,,,103,157408,18,Female,1,2024/03/19_11:59:39,YZ,None,
,,,,,,practice_main,0,2,1,83,7,N,0,right,0.3884200949978549,1,0,,,,,,,,,,,,,,,,,,,,,1,,,,,,,,,,,,,,,,,,,,,,,,,,,,,,,,,,,,,,,,,,,,,,103,157408,18,Female,1,2024/03/19_11:59:39,YZ,None,
,,,,,,practice_main,0,2,1,83,8,N,1,left,0.6488418259978062,1,0,,,,,,,,,,,,,,,,,,,,,1,,,,,,,,,,,,,,,,,,,,,,,,,,,,,,,,,,,,,,,,,,,,,,103,157408,18,Female,1,2024/03/19_11:59:39,YZ,None,
,,,,,,practice_main,0,2,1,83,9,X,0,right,0.35943457599933026,1,0,,,,,,,,,,,,,,,,,,,,,1,,,,,,,,,,,,,,,,,,,,,,,,,,,,,,,,,,,,,,,,,,,,,,103,157408,18,Female,1,2024/03/19_11:59:39,YZ,None,
,,,,,,practice_main,0,2,1,83,10,X,1,left,0.6583170250014518,1,0,,,,,,,,,,,,,,,,,,,,,1,,,,,,,,,,,,,,,,,,,,,,,,,,,,,,,,,,,,,,,,,,,,,,103,157408,18,Female,1,2024/03/19_11:59:39,YZ,None,
,,,,,,practice_main,0,2,1,83,11,N,0,right,0.24760367099952418,1,0,,,,,,,,,,,,,,,,,,,,,1,,,,,,,,,,,,,,,,,,,,,,,,,,,,,,,,,,,,,,,,,,,,,,103,157408,18,Female,1,2024/03/19_11:59:39,YZ,None,
,,,,,,practice_main,0,2,1,83,12,V,0,left,0.5466327589965658,0,0,,,,,,,,,,,,,,,,,,,,,1,,,,,,,,,,,,,,,,,,,,,,,,,,,,,,,,,,,,,,,,,,,,,,103,157408,18,Female,1,2024/03/19_11:59:39,YZ,None,
,,,,,,practice_main,0,2,1,83,13,C,0,left,nan,0,1,,,,,,,,,,,,,,,,,,,,,1,,,,,,,,,,,,,,,,,,,,,,,,,,,,,,,,,,,,,,,,,,,,,,103,157408,18,Female,1,2024/03/19_11:59:39,YZ,None,
,,,,,,practice_main,0,2,1,83,14,V,0,right,0.0,1,0,,,,,,,,,,,,,,,,,,,,,1,,,,,,,,,,,,,,,,,,,,,,,,,,,,,,,,,,,,,,,,,,,,,,103,157408,18,Female,1,2024/03/19_11:59:39,YZ,None,
,,,,,,practice_main,0,2,1,83,15,V,1,right,nan,0,1,,,,,,,,,,,,,,,,,,,,,1,,,,,,,,,,,,,,,,,,,,,,,,,,,,,,,,,,,,,,,,,,,,,,103,157408,18,Female,1,2024/03/19_11:59:39,YZ,None,
,,,,,,practice_main,0,2,1,83,16,J,0,right,0.9734474360011518,1,0,,,,,,,,,,,,,,,,,,,,,1,,,,,,,,,,,,,,,,,,,,,,,,,,,,,,,,,,,,,,,,,,,,,,103,157408,18,Female,1,2024/03/19_11:59:39,YZ,None,
