"","PID","SONA","Gender","Age","Run","Phase","Block","TrialN","NbackLevel","ISI","TrialCountCali","CaliEnd_A_measure","TrialIndex","TrialNumber_total","TrialNumber_valid","Trial_A_measure","Trial_HR","Trial_FAR","Trial_CDR","Trial_MSR","Trial_ACC","Trial_RT","Letter_Resp","Letter_RT","Letter_Accuracy","Trial_HitsCount","Trial_FAsCount","Trial_NoRespCount","Trial_SameNoRespCount","Trial_DiffNoRespCount","Trial_CDsCount","Trial_CorrectRespCount","Trial_SameLetterCount","Trial_DiffLetterCount","Trial_InvalidLetterCount","CueLearning","CueMapping","TrialDemandLearning","OnlineRating","OnlineRatingRT","OnlineRatingTimeOut","CueLeft","CueDemandLeft","CueRight","CueDemandRight","PhaseType","Choice","ChoiceRT","ChoiceDemand","TaskDemand","OfflineRatingTimePoint","CueFigure","TrialDemand","OfflineRating","OfflineRatingRT","DemandRatingQuesIndex","QuesTLX","DemandLevel","DemandRating","DemandRatingRT","CueCheck","CueDemandCheck","CorrectAnswer","Answer","AnswerDemand","AnswerRT","AnswerACC","END","TrialDemandLearning_pre","TrialTransition","TrialTransition_pre","Trial_RT_pre","Trial_ACC_pre","Trial_A_measure_pre","TaskDemand_pre"
"1",90,140914,"Female",21,1,"TEST",1,1,1,120,,,1,2,1,0.916666666666667,0.666666666666667,0,1,0,1,0.446226247045991,"",,,4,0,0,0,0,17,21,6,17,0,"cue2.png","B","easy",51,1.99010784502025,0,"","","","","","",,"","","","","",,,,"",,,,"","","","","",,,"240314_143843",,,,,,,
"2",90,140914,"Female",21,1,"TEST",1,2,3,120,,,2,3,2,0.786764705882353,0.5,0.117647058823529,0.882352941176471,0,0.882352941176471,0.518353965386505,"",,,3,2,0,0,0,15,18,6,17,0,"cue1.png","B","hard",52,1.75278734200401,0,"","","","","","",,"","","","","",,,,"",,,,"","","","","",,,"240314_143918","easy","switch",,0.446226247045991,1,0.916666666666667,
"3",90,140914,"Female",21,1,"TEST",1,3,3,120,,,3,4,3,0.875,0.5,0,1,0.130434782608696,0.869565217391304,0.497081704248558,"",,,3,0,3,1,2,15,18,6,17,0,"cue1.png","B","hard",48,1.9057777459966,0,"","","","","","",,"","","","","",,,,"",,,,"","","","","",,,"240314_143954","hard","repetition","switch",0.518353965386505,0.882352941176471,0.786764705882353,
"4",90,140914,"Female",21,1,"TEST",1,4,3,120,,,4,5,4,0.830882352941177,0.5,0.0588235294117647,0.941176470588235,0,0.941176470588235,0.610244616916727,"",,,3,1,0,0,0,16,19,6,17,0,"cue1.png","B","hard",33,1.26889569300693,0,"","","","","","",,"","","","","",,,,"",,,,"","","","","",,,"240314_144031","hard","repetition","repetition",0.497081704248558,0.869565217391304,0.875,
"5",90,140914,"Female",21,1,"TEST",1,5,1,120,,,5,6,5,1,1,0,1,0,1,0.445804710087427,"",,,7,0,0,0,0,16,23,7,16,0,"cue2.png","B","easy",47,1.45377810997888,0,"","","","","","",,"","","","","",,,,"",,,,"","","","","",,,"240314_144104","hard","switch","repetition",0.610244616916727,0.941176470588235,0.830882352941177,
"6",90,140914,"Female",21,1,"TEST",1,6,3,120,,,6,7,6,0.0483630952380952,0.142857142857143,0.1875,0.785714285714286,0.0869565217391304,0.72554347826087,0.580348724428664,"",,,1,3,2,0,2,11,12,7,16,0,"cue1.png","B","hard",55,1.2284847489791,0,"","","","","","",,"","","","","",,,,"",,,,"","","","","",,,"240314_144141","easy","switch","switch",0.445804710087427,1,1,
"7",90,140914,"Female",21,1,"TEST",1,7,3,120,,,7,8,7,0.0114379084967321,0.166666666666667,0.176470588235294,0.823529411764706,0,0.823529411764706,0.432629973347977,"",,,1,3,0,0,0,14,15,6,17,0,"cue1.png","B","hard",46,1.28049288000329,0,"","","","","","",,"","","","","",,,,"",,,,"","","","","",,,"240314_144213","hard","repetition","switch",0.580348724428664,0.72554347826087,0.0483630952380952,
"8",90,140914,"Female",21,1,"TEST",1,8,1,120,,,8,9,8,1,1,0,1,0.0434782608695652,0.956521739130435,0.402341860183779,"",,,6,0,1,0,1,16,22,6,17,0,"cue2.png","B","easy",38,1.4113017799973,0,"","","","","","",,"","","","","",,,,"",,,,"","","","","",,,"240314_144245","hard","switch","repetition",0.432629973347977,0.823529411764706,0.0114379084967321,
"9",90,140914,"Female",21,1,"TEST",1,9,1,120,,,9,10,9,1,1,0,1,0,1,0.434378271258143,"",,,6,0,0,0,0,17,23,6,17,0,"cue2.png","B","easy",54,1.41368921400863,0,"","","","","","",,"","","","","",,,,"",,,,"","","","","",,,"240314_144318","easy","repetition","switch",0.402341860183779,0.956521739130435,1,
"10",90,140914,"Female",21,1,"TEST",1,10,3,120,,,10,11,10,0.909313725490196,0.833333333333333,0.117647058823529,0.882352941176471,0,0.882352941176471,0.529579836347535,"",,,5,2,0,0,0,15,20,6,17,0,"cue1.png","B","hard",55,1.60411325798486,0,"","","","","","",,"","","","","",,,,"",,,,"","","","","",,,"240314_144353","easy","switch","repetition",0.434378271258143,1,1,
"11",90,140914,"Female",21,1,"TEST",1,11,1,120,,,11,12,11,0.958333333333333,0.833333333333333,0,1,0,1,0.495200375086152,"",,,5,0,0,0,0,17,22,6,17,0,"cue2.png","B","easy",31,1.16090817199438,0,"","","","","","",,"","","","","",,,,"",,,,"","","","","",,,"240314_144427","hard","switch","switch",0.529579836347535,0.882352941176471,0.909313725490196,
"12",90,140914,"Female",21,1,"TEST",1,12,3,120,,,12,13,12,0.774509803921569,0.333333333333333,0.0588235294117647,0.941176470588235,0,0.941176470588235,0.5198513011729,"",,,2,1,0,0,0,16,18,6,17,0,"cue1.png","B","hard",54,0.817806323000696,0,"","","","","","",,"","","","","",,,,"",,,,"","","","","",,,"240314_144501","easy","switch","switch",0.495200375086152,1,0.958333333333333,
"13",90,140914,"Female",21,1,"TEST",1,13,1,120,,,13,14,13,0.916666666666667,0.666666666666667,0,1,0,1,0.447708547049526,"",,,4,0,0,0,0,17,21,6,17,0,"cue2.png","B","easy",26,1.3127898130042,0,"","","","","","",,"","","","","",,,,"",,,,"","","","","",,,"240314_144534","hard","switch","switch",0.5198513011729,0.941176470588235,0.774509803921569,
"14",90,140914,"Female",21,1,"TEST",1,14,3,120,,,14,15,14,0.0557598039215687,0.166666666666667,0.235294117647059,0.75,0.0869565217391304,0.677749360613811,0.516639114475332,"",,,1,4,2,1,1,12,13,6,17,0,"cue1.png","B","hard",54,1.36859678998007,0,"","","","","","",,"","","","","",,,,"",,,,"","","","","",,,"240314_144609","easy","switch","switch",0.447708547049526,1,0.916666666666667,
"15",90,140914,"Female",21,1,"TEST",1,15,1,120,,,15,16,15,0.916666666666667,0.666666666666667,0,1,0,1,0.453341353215206,"",,,4,0,0,0,0,17,21,6,17,0,"cue2.png","B","easy",19,0.769224070012569,0,"","","","","","",,"","","","","",,,,"",,,,"","","","","",,,"240314_144642","hard","switch","switch",0.516639114475332,0.677749360613811,0.0557598039215687,
"16",90,140914,"Female",21,1,"TEST",1,16,1,120,,,16,17,16,0.958333333333333,0.833333333333333,0,1,0,1,0.43457855569305,"",,,5,0,0,0,0,17,22,6,17,0,"cue2.png","B","easy",55,0.905412749998504,0,"","","","","","",,"","","","","",,,,"",,,,"","","","","",,,"240314_144714","easy","repetition","switch",0.453341353215206,1,0.916666666666667,
"17",90,140914,"Female",21,1,"TEST",1,17,3,120,,,17,18,17,0.808035714285714,0.571428571428571,0.125,0.866666666666667,0.0434782608695652,0.831521739130435,0.501025823132791,"",,,4,2,1,0,1,13,17,7,16,0,"cue1.png","B","hard",62,1.20449906797148,0,"","","","","","",,"","","","","",,,,"",,,,"","","","","",,,"240314_144748","easy","switch","repetition",0.43457855569305,1,0.958333333333333,
"18",90,140914,"Female",21,1,"TEST",1,18,3,120,,,18,19,18,0.751116071428571,0.285714285714286,0.0625,0.9375,0,0.9375,0.327844022699814,"",,,2,1,0,0,0,15,17,7,16,0,"cue1.png","B","hard",18,0.778400608018273,0,"","","","","","",,"","","","","",,,,"",,,,"","","","","",,,"240314_144818","hard","repetition","switch",0.501025823132791,0.831521739130435,0.808035714285714,
"19",90,140914,"Female",21,1,"TEST",1,19,1,120,,,19,20,19,0.958333333333333,0.833333333333333,0,1,0,1,0.378672043827069,"",,,5,0,0,0,0,17,22,6,17,0,"cue2.png","B","easy",5,0.748433594999369,0,"","","","","","",,"","","","","",,,,"",,,,"","","","","",,,"240314_144849","hard","switch","repetition",0.327844022699814,0.9375,0.751116071428571,
"20",90,140914,"Female",21,1,"TEST",1,20,1,120,,,20,21,20,0.985294117647059,1,0.0588235294117647,0.928571428571429,0.130434782608696,0.81074168797954,0.454614784751902,"",,,6,1,3,0,3,13,19,6,17,0,"cue2.png","B","easy",57,1.42995196100674,0,"","","","","","",,"","","","","",,,,"",,,,"","","","","",,,"240314_144923","easy","repetition","switch",0.378672043827069,1,0.958333333333333,
"21",90,140914,"Female",21,1,"TEST",1,21,1,120,,,21,22,21,0.958333333333333,0.833333333333333,0,1,0,1,0.384423826824945,"",,,5,0,0,0,0,17,22,6,17,0,"cue2.png","B","easy",62,1.2211275039881,0,"","","","","","",,"","","","","",,,,"",,,,"","","","","",,,"240314_144955","easy","repetition","repetition",0.454614784751902,0.81074168797954,0.985294117647059,
"22",90,140914,"Female",21,1,"TEST",1,22,3,120,,,22,23,22,0.882352941176471,0.666666666666667,0.0588235294117647,0.941176470588235,0,0.941176470588235,0.438830290608483,"",,,4,1,0,0,0,16,20,6,17,0,"cue1.png","B","hard",59,1.02879641600884,0,"","","","","","",,"","","","","",,,,"",,,,"","","","","",,,"240314_145027","easy","switch","repetition",0.384423826824945,1,0.958333333333333,
"23",90,140914,"Female",21,1,"TEST",1,23,1,120,,,23,24,23,0.715686274509804,0.333333333333333,0.117647058823529,0.875,0.0434782608695652,0.838874680306905,0.347897895728238,"",,,2,2,1,0,1,14,16,6,17,0,"cue2.png","B","easy",24,0.6044556540146,0,"","","","","","",,"","","","","",,,,"",,,,"","","","","",,,"240314_145058","hard","switch","switch",0.438830290608483,0.941176470588235,0.882352941176471,
"24",90,140914,"Female",21,1,"TEST",1,24,3,120,,,24,25,24,0.75297619047619,0.428571428571429,0.125,0.866666666666667,0.0434782608695652,0.831521739130435,0.341733200906839,"",,,3,2,1,0,1,13,16,7,16,0,"cue1.png","B","hard",50,1.02995172899682,0,"","","","","","",,"","","","","",,,,"",,,,"","","","","",,,"240314_145128","easy","switch","switch",0.347897895728238,0.838874680306905,0.715686274509804,
"25",90,140914,"Female",21,1,"TEST",1,25,3,120,,,25,26,25,0.0764705882352941,0.166666666666667,0.294117647058824,0.705882352941177,0,0.705882352941176,0.346722123785066,"",,,1,5,0,0,0,12,13,6,17,0,"cue1.png","B","hard",21,0.52095635200385,0,"","","","","","",,"","","","","",,,,"",,,,"","","","","",,,"240314_145158","hard","repetition","switch",0.341733200906839,0.831521739130435,0.75297619047619,
"26",90,140914,"Female",21,1,"TEST",1,26,1,120,,,26,27,26,0.928571428571429,0.714285714285714,0,1,0,1,0.395292945264373,"",,,5,0,0,0,0,16,21,7,16,0,"cue2.png","B","easy",5,0.738193585973931,0,"","","","","","",,"","","","","",,,,"",,,,"","","","","",,,"240314_145229","hard","switch","repetition",0.346722123785066,0.705882352941176,0.0764705882352941,
"27",90,140914,"Female",21,1,"TEST",1,27,1,120,,,27,28,27,0.939732142857143,0.857142857142857,0.0625,0.9375,0,0.9375,0.398777828912463,"",,,6,1,0,0,0,15,21,7,16,0,"cue2.png","B","easy",53,0.471260649996111,0,"","","","","","",,"","","","","",,,,"",,,,"","","","","",,,"240314_145300","easy","repetition","switch",0.395292945264373,1,0.928571428571429,
"28",90,140914,"Female",21,1,"TEST",1,28,3,120,,,28,29,28,0.205882352941176,0,0.176470588235294,0.8125,0.0434782608695652,0.780051150895141,0.309804688363908,"",,,0,3,1,0,1,13,13,6,17,0,"cue1.png","B","hard",51,1.36148890398908,0,"","","","","","",,"","","","","",,,,"",,,,"","","","","",,,"240314_145330","easy","switch","repetition",0.398777828912463,0.9375,0.939732142857143,
"29",90,140914,"Female",21,1,"TEST",1,29,1,120,,,29,30,29,0.875,0.5,0,1,0.0869565217391304,0.91304347826087,0.397207921524698,"",,,3,0,2,0,2,15,18,6,17,0,"cue2.png","B","easy",26,1.23375541801215,0,"","","","","","",,"","","","","",,,,"",,,,"","","","","",,,"240314_145403","hard","switch","switch",0.309804688363908,0.780051150895141,0.205882352941176,
"30",90,140914,"Female",21,1,"TEST",1,30,1,120,,,30,31,30,0.985294117647059,1,0.0588235294117647,0.941176470588235,0,0.941176470588235,0.425214054390697,"",,,6,1,0,0,0,16,22,6,17,0,"cue2.png","B","easy",62,1.73930583000765,0,"","","","","","",,"","","","","",,,,"",,,,"","","","","",,,"240314_145436","easy","repetition","switch",0.397207921524698,0.91304347826087,0.875,
"31",90,140914,"Female",21,1,"TEST",1,31,3,120,,,31,32,31,0.656862745098039,0.333333333333333,0.176470588235294,0.823529411764706,0,0.823529411764706,0.35231164643546,"",,,2,3,0,0,0,14,16,6,17,0,"cue1.png","B","hard",49,0.810847783985082,0,"","","","","","",,"","","","","",,,,"",,,,"","","","","",,,"240314_145506","easy","switch","repetition",0.425214054390697,0.941176470588235,0.985294117647059,
"32",90,140914,"Female",21,1,"TEST",1,32,1,120,,,32,33,32,0.882352941176471,0.666666666666667,0.0588235294117647,0.941176470588235,0,0.941176470588235,0.37768627373937,"",,,4,1,0,0,0,16,20,6,17,0,"cue2.png","B","easy",22,0.413844619004522,0,"","","","","","",,"","","","","",,,,"",,,,"","","","","",,,"240314_145536","hard","switch","switch",0.35231164643546,0.823529411764706,0.656862745098039,
"33",90,140914,"Female",21,1,"TEST",1,33,3,120,,,33,34,33,0.742647058823529,0.5,0.176470588235294,0.823529411764706,0,0.823529411764706,0.285298787607842,"",,,3,3,0,0,0,14,17,6,17,0,"cue1.png","B","hard",60,0.762888211000245,0,"","","","","","",,"","","","","",,,,"",,,,"","","","","",,,"240314_145605","easy","switch","switch",0.37768627373937,0.941176470588235,0.882352941176471,
"34",90,140914,"Female",21,1,"TEST",1,34,3,120,,,34,35,34,0.0557598039215687,0.166666666666667,0.235294117647059,0.764705882352941,0,0.764705882352941,0.25867687847526,"",,,1,4,0,0,0,13,14,6,17,0,"cue1.png","B","hard",23,1.2711212959839,0,"","","","","","",,"","","","","",,,,"",,,,"","","","","",,,"240314_145633","hard","repetition","switch",0.285298787607842,0.823529411764706,0.742647058823529,
"35",90,140914,"Female",21,1,"TEST",1,35,3,120,,,35,36,35,0.75297619047619,0.428571428571429,0.125,0.866666666666667,0.0434782608695652,0.831521739130435,0.339805761226506,"",,,3,2,1,0,1,13,16,7,16,0,"cue1.png","B","hard",6,0.485664640000323,0,"","","","","","",,"","","","","",,,,"",,,,"","","","","",,,"240314_145704","hard","repetition","repetition",0.25867687847526,0.764705882352941,0.0557598039215687,
"36",90,140914,"Female",21,1,"TEST",1,36,1,120,,,36,37,36,0.875,0.5,0,1,0,1,0.388436501302868,"",,,3,0,0,0,0,17,20,6,17,0,"cue2.png","B","easy",12,0.461333240993554,0,"","","","","","",,"","","","","",,,,"",,,,"","","","","",,,"240314_145734","hard","switch","repetition",0.339805761226506,0.831521739130435,0.75297619047619,
"37",90,140914,"Female",21,1,"TEST",1,37,3,120,,,37,38,37,0.715686274509804,0.333333333333333,0.117647058823529,0.882352941176471,0,0.882352941176471,0.252795864431866,"",,,2,2,0,0,0,15,17,6,17,0,"cue1.png","B","hard",66,0.728611754981102,0,"","","","","","",,"","","","","",,,,"",,,,"","","","","",,,"240314_145802","easy","switch","switch",0.388436501302868,1,0.875,
"38",90,140914,"Female",21,1,"TEST",1,38,1,120,,,38,39,38,1,1,0,1,0,1,0.437104725953364,"",,,6,0,0,0,0,17,23,6,17,0,"cue2.png","B","easy",40,1.06178419297794,0,"","","","","","",,"","","","","",,,,"",,,,"","","","","",,,"240314_145834","hard","switch","switch",0.252795864431866,0.882352941176471,0.715686274509804,
"39",90,140914,"Female",21,1,"TEST",1,39,1,120,,,39,40,39,0.928571428571429,0.714285714285714,0,1,0.0434782608695652,0.956521739130435,0.370048023094899,"",,,5,0,1,0,1,15,20,7,16,0,"cue2.png","B","easy",64,0.820698425988667,0,"","","","","","",,"","","","","",,,,"",,,,"","","","","",,,"240314_145905","easy","repetition","switch",0.437104725953364,1,1,
"40",90,140914,"Female",21,1,"TEST",1,40,3,120,,,40,41,40,0.191176470588235,0,0.235294117647059,0.75,0.0434782608695652,0.721227621483376,0.346765599138135,"",,,0,4,1,0,1,12,12,6,17,0,"cue1.png","B","hard",65,0.647890166001162,0,"","","","","","",,"","","","","",,,,"",,,,"","","","","",,,"240314_145936","easy","switch","repetition",0.370048023094899,0.956521739130435,0.928571428571429,
"41",90,140914,"Female",21,1,"TEST",1,41,3,120,,,41,42,41,0.656862745098039,0.333333333333333,0.176470588235294,0.823529411764706,0,0.823529411764706,0.283009259694549,"",,,2,3,0,0,0,14,16,6,17,0,"cue1.png","B","hard",20,0.84514038998168,0,"","","","","","",,"","","","","",,,,"",,,,"","","","","",,,"240314_150005","hard","repetition","switch",0.346765599138135,0.721227621483376,0.191176470588235,
"42",90,140914,"Female",21,1,"TEST",1,42,1,120,,,42,43,42,0.916666666666667,0.666666666666667,0,1,0,1,0.357263369784367,"",,,4,0,0,0,0,17,21,6,17,0,"cue2.png","B","easy",26,1.00373239198234,0,"","","","","","",,"","","","","",,,,"",,,,"","","","","",,,"240314_150035","hard","switch","repetition",0.283009259694549,0.823529411764706,0.656862745098039,
"43",90,140914,"Female",21,1,"TEST",1,43,3,120,,,43,44,43,0.0114379084967321,0.166666666666667,0.176470588235294,0.8125,0.0434782608695652,0.780051150895141,0.248520293500571,"",,,1,3,1,0,1,13,14,6,17,0,"cue1.png","B","hard",62,1.194275759015,0,"","","","","","",,"","","","","",,,,"",,,,"","","","","",,,"240314_150104","easy","switch","switch",0.357263369784367,1,0.916666666666667,
"44",90,140914,"Female",21,1,"TEST",1,44,1,120,,,44,45,44,0.892857142857143,0.571428571428571,0,1,0,1,0.365404653392034,"",,,4,0,0,0,0,16,20,7,16,0,"cue2.png","B","easy",15,0.935062203003326,0,"","","","","","",,"","","","","",,,,"",,,,"","","","","",,,"240314_150134","hard","switch","switch",0.248520293500571,0.780051150895141,0.0114379084967321,
"45",90,140914,"Female",21,1,"TEST",1,45,3,120,,,45,46,45,0.75297619047619,0.428571428571429,0.125,0.866666666666667,0.0434782608695652,0.831521739130435,0.395923433726156,"",,,3,2,1,0,1,13,16,7,16,0,"cue1.png","B","hard",65,0.755025558988564,0,"","","","","","",,"","","","","",,,,"",,,,"","","","","",,,"240314_150206","easy","switch","switch",0.365404653392034,1,0.892857142857143,
"46",90,140914,"Female",21,1,"TEST",1,46,3,120,,,46,47,46,0.688725490196078,0.166666666666667,0.0588235294117647,0.933333333333333,0.130434782608696,0.81074168797954,0.34993658500025,"",,,1,1,3,1,2,14,15,6,17,0,"cue1.png","B","hard",11,1.18911231702077,0,"","","","","","",,"","","","","",,,,"",,,,"","","","","",,,"240314_150239","hard","repetition","switch",0.395923433726156,0.831521739130435,0.75297619047619,
"47",90,140914,"Female",21,1,"TEST",1,47,1,120,,,47,48,47,0.882352941176471,0.666666666666667,0.0588235294117647,0.941176470588235,0,0.941176470588235,0.380877166476516,"",,,4,1,0,0,0,16,20,6,17,0,"cue2.png","B","easy",28,1.46016991999932,0,"","","","","","",,"","","","","",,,,"",,,,"","","","","",,,"240314_150310","hard","switch","repetition",0.34993658500025,0.81074168797954,0.688725490196078,
"48",90,140914,"Female",21,1,"TEST",1,48,1,120,,,48,49,48,0.916666666666667,0.666666666666667,0,1,0,1,0.372298215737354,"",,,4,0,0,0,0,17,21,6,17,0,"cue2.png","B","easy",62,1.05182630001218,0,"","","","","","",,"","","","","",,,,"",,,,"","","","","",,,"240314_150341","easy","repetition","switch",0.380877166476516,0.941176470588235,0.882352941176471,
"49",90,140914,"Female",21,1,"TEST",1,49,3,120,,,49,50,49,0.656862745098039,0.333333333333333,0.176470588235294,0.823529411764706,0,0.823529411764706,0.326062985130272,"",,,2,3,0,0,0,14,16,6,17,0,"cue1.png","B","hard",60,0.761818254977698,0,"","","","","","",,"","","","","",,,,"",,,,"","","","","",,,"240314_150410","easy","switch","repetition",0.372298215737354,1,0.916666666666667,
"50",90,140914,"Female",21,1,"TEST",1,50,1,120,,,50,51,50,0.928571428571429,0.714285714285714,0,1,0,1,0.383559231305971,"",,,5,0,0,0,0,16,21,7,16,0,"cue2.png","B","easy",23,1.12808433600003,0,"","","","","","",,"","","","","",,,,"",,,,"","","","","",,,"240314_150441","hard","switch","switch",0.326062985130272,0.823529411764706,0.656862745098039,
"51",108,141802,"Female",21,1,"TEST",1,1,1,1250,,,1,1,1,1,1,0,1,0,1,0.464299288899929,"",,,3,0,0,0,0,7,10,3,7,0,"cue2.png","B","easy",22,0.785722811997402,0,"","","","","","",,"","","","","",,,,"",,,,"","","","","",,,"240320_162027",,,,,,,
"52",108,141802,"Female",21,1,"TEST",1,2,3,1250,,,2,2,2,0.916666666666667,0.666666666666667,0,1,0,1,0.506391803700535,"",,,2,0,0,0,0,7,9,3,7,0,"cue1.png","B","hard",54,0.952883011996164,0,"","","","","","",,"","","","","",,,,"",,,,"","","","","",,,"240320_162047","easy","switch",,0.464299288899929,1,1,
"53",108,141802,"Female",21,1,"TEST",1,3,3,1250,,,3,3,3,0.547619047619048,0.333333333333333,0.285714285714286,0.714285714285714,0,0.714285714285714,0.484167806201731,"",,,1,2,0,0,0,5,6,3,7,0,"cue1.png","B","hard",39,1.34673274800298,0,"","","","","","",,"","","","","",,,,"",,,,"","","","","",,,"240320_162108","hard","repetition","switch",0.506391803700535,1,0.916666666666667,
"54",108,141802,"Female",21,1,"TEST",1,4,3,1250,,,4,5,4,0.690476190476191,0.333333333333333,0.142857142857143,0.857142857142857,0,0.857142857142857,0.442538935302582,"",,,1,1,0,0,0,6,7,3,7,0,"cue1.png","B","hard",60,0.554903354000999,0,"","","","","","",,"","","","","",,,,"",,,,"","","","","",,,"240320_162135","hard","repetition","repetition",0.484167806201731,0.714285714285714,0.547619047619048,
"55",108,141802,"Female",21,1,"TEST",1,5,1,1250,,,5,6,5,0.916666666666667,0.666666666666667,0,1,0,1,0.42361790540017,"",,,2,0,0,0,0,7,9,3,7,0,"cue2.png","B","easy",19,1.38766905300145,0,"","","","","","",,"","","","","",,,,"",,,,"","","","","",,,"240320_162155","hard","switch","repetition",0.442538935302582,0.857142857142857,0.690476190476191,
"56",108,141802,"Female",21,1,"TEST",1,6,3,1250,,,6,7,6,0.833333333333333,0.666666666666667,0.142857142857143,0.857142857142857,0,0.857142857142857,0.475736150296871,"",,,2,1,0,0,0,6,8,3,7,0,"cue1.png","B","hard",56,1.5856798820023,0,"","","","","","",,"","","","","",,,,"",,,,"","","","","",,,"240320_162216","easy","switch","switch",0.42361790540017,1,0.916666666666667,
"57",108,141802,"Female",21,1,"TEST",1,7,3,1250,,,7,8,7,0.75,0.666666666666667,0.285714285714286,0.714285714285714,0,0.714285714285714,0.477610254801402,"",,,2,2,0,0,0,5,7,3,7,0,"cue1.png","B","hard",36,1.28058189600415,0,"","","","","","",,"","","","","",,,,"",,,,"","","","","",,,"240320_162236","hard","repetition","switch",0.475736150296871,0.857142857142857,0.833333333333333,
"58",108,141802,"Female",21,1,"TEST",1,8,1,1250,,,8,9,8,1,1,0,1,0,1,0.570623317301215,"",,,3,0,0,0,0,7,10,3,7,0,"cue2.png","B","easy",57,0.953977570999996,0,"","","","","","",,"","","","","",,,,"",,,,"","","","","",,,"240320_162257","hard","switch","repetition",0.477610254801402,0.714285714285714,0.75,
"59",108,141802,"Female",21,1,"TEST",1,9,1,1250,,,9,10,9,0.75,0.666666666666667,0.285714285714286,0.714285714285714,0,0.714285714285714,0.500241062100395,"",,,2,2,0,0,0,5,7,3,7,0,"cue2.png","B","easy",33,0.79817827999068,0,"","","","","","",,"","","","","",,,,"",,,,"","","","","",,,"240320_162317","easy","repetition","switch",0.570623317301215,1,1,
"60",108,141802,"Female",21,1,"TEST",1,10,3,1250,,,10,12,10,1,1,0,1,0,1,0.471640872697753,"",,,3,0,0,0,0,7,10,3,7,0,"cue1.png","B","hard",56,0.570792655998957,0,"","","","","","",,"","","","","",,,,"",,,,"","","","","",,,"240320_162345","easy","switch","repetition",0.500241062100395,0.714285714285714,0.75,
"61",108,141802,"Female",21,1,"TEST",1,11,1,1250,,,11,13,11,1,1,0,1,0,1,0.498558846200467,"",,,3,0,0,0,0,7,10,3,7,0,"cue2.png","B","easy",39,0.636240763007663,0,"","","","","","",,"","","","","",,,,"",,,,"","","","","",,,"240320_162405","hard","switch","switch",0.471640872697753,1,1,
"62",108,141802,"Female",21,1,"TEST",1,12,3,1250,,,12,14,12,0.547619047619048,0.333333333333333,0.285714285714286,0.714285714285714,0,0.714285714285714,0.494574922598258,"",,,1,2,0,0,0,5,6,3,7,0,"cue1.png","B","hard",75,1.8140570250107,0,"","","","","","",,"","","","","",,,,"",,,,"","","","","",,,"240320_162426","easy","switch","switch",0.498558846200467,1,1,
"63",108,141802,"Female",21,1,"TEST",1,13,1,1250,,,13,15,13,1,1,0,1,0,1,0.576735044401721,"",,,3,0,0,0,0,7,10,3,7,0,"cue2.png","B","easy",27,1.26909709000029,0,"","","","","","",,"","","","","",,,,"",,,,"","","","","",,,"240320_162448","hard","switch","switch",0.494574922598258,0.714285714285714,0.547619047619048,
"64",108,141802,"Female",21,1,"TEST",1,14,3,1250,,,14,16,14,0.690476190476191,0.333333333333333,0.142857142857143,0.857142857142857,0,0.857142857142857,0.53230978139909,"",,,1,1,0,0,0,6,7,3,7,0,"cue1.png","B","hard",63,2.38404503300262,0,"","","","","","",,"","","","","",,,,"",,,,"","","","","",,,"240320_162510","easy","switch","switch",0.576735044401721,1,1,
"65",108,141802,"Female",21,1,"TEST",1,15,1,1250,,,15,18,15,1,1,0,1,0,1,0.483504377400095,"",,,3,0,0,0,0,7,10,3,7,0,"cue2.png","B","easy",32,0.652752383990446,0,"","","","","","",,"","","","","",,,,"",,,,"","","","","",,,"240320_162538","hard","switch","switch",0.53230978139909,0.857142857142857,0.690476190476191,
"66",108,141802,"Female",21,1,"TEST",1,16,1,1250,,,16,19,16,1,1,0,1,0,1,0.447340148301737,"",,,3,0,0,0,0,7,10,3,7,0,"cue2.png","B","easy",19,1.15491777499847,0,"","","","","","",,"","","","","",,,,"",,,,"","","","","",,,"240320_162558","easy","repetition","switch",0.483504377400095,1,1,
"67",108,141802,"Female",21,1,"TEST",1,17,3,1250,,,17,20,17,0.964285714285714,1,0.142857142857143,0.857142857142857,0,0.857142857142857,0.437847971600422,"",,,3,1,0,0,0,6,9,3,7,0,"cue1.png","B","hard",59,1.3992851160001,0,"","","","","","",,"","","","","",,,,"",,,,"","","","","",,,"240320_162618","easy","switch","repetition",0.447340148301737,1,1,
"68",108,141802,"Female",21,1,"TEST",1,18,3,1250,,,18,21,18,0.833333333333333,0.666666666666667,0.142857142857143,0.833333333333333,0.1,0.757142857142857,0.558069048113086,"",,,2,1,1,0,1,5,7,3,7,0,"cue1.png","B","hard",60,1.16951362699911,0,"","","","","","",,"","","","","",,,,"",,,,"","","","","",,,"240320_162640","hard","repetition","switch",0.437847971600422,0.857142857142857,0.964285714285714,
"69",108,141802,"Female",21,1,"TEST",1,19,1,1250,,,19,22,19,1,1,0,1,0,1,0.516497321896895,"",,,3,0,0,0,0,7,10,3,7,0,"cue2.png","B","easy",36,1.5187718780071,0,"","","","","","",,"","","","","",,,,"",,,,"","","","","",,,"240320_162701","hard","switch","repetition",0.558069048113086,0.757142857142857,0.833333333333333,
"70",108,141802,"Female",21,1,"TEST",1,20,1,1250,,,20,23,20,0.75,0.666666666666667,0.285714285714286,0.714285714285714,0,0.714285714285714,0.50946387219883,"",,,2,2,0,0,0,5,7,3,7,0,"cue2.png","B","easy",29,1.36482021500706,0,"","","","","","",,"","","","","",,,,"",,,,"","","","","",,,"240320_162722","easy","repetition","switch",0.516497321896895,1,1,
"71",108,141802,"Female",21,1,"TEST",1,21,1,1250,,,21,24,21,0.916666666666667,0.666666666666667,0,1,0,1,0.559863763199246,"",,,2,0,0,0,0,7,9,3,7,0,"cue2.png","B","easy",25,1.5474912179925,0,"","","","","","",,"","","","","",,,,"",,,,"","","","","",,,"240320_162744","easy","repetition","repetition",0.50946387219883,0.714285714285714,0.75,
"72",108,141802,"Female",21,1,"TEST",1,22,3,1250,,,22,25,22,0.75,0.666666666666667,0.285714285714286,0.714285714285714,0,0.714285714285714,0.479427252199093,"",,,2,2,0,0,0,5,7,3,7,0,"cue1.png","B","hard",57,1.55628989299294,0,"","","","","","",,"","","","","",,,,"",,,,"","","","","",,,"240320_162805","easy","switch","repetition",0.559863763199246,1,0.916666666666667,
"73",108,141802,"Female",21,1,"TEST",1,23,1,1250,,,23,26,23,1,1,0,1,0,1,0.495825699200213,"",,,3,0,0,0,0,7,10,3,7,0,"cue2.png","B","easy",38,1.84924719200353,0,"","","","","","",,"","","","","",,,,"",,,,"","","","","",,,"240320_162826","hard","switch","switch",0.479427252199093,0.714285714285714,0.75,
"74",108,141802,"Female",21,1,"TEST",1,24,3,1250,,,24,27,24,0.833333333333333,0.666666666666667,0.142857142857143,0.857142857142857,0,0.857142857142857,0.643366956998943,"",,,2,1,0,0,0,6,8,3,7,0,"cue1.png","B","hard",54,1.06549473600171,0,"","","","","","",,"","","","","",,,,"",,,,"","","","","",,,"240320_162848","easy","switch","switch",0.495825699200213,1,1,
"75",108,141802,"Female",21,1,"TEST",1,25,3,1250,,,25,28,25,0.75,0.666666666666667,0.285714285714286,0.714285714285714,0,0.714285714285714,0.532446802599588,"",,,2,2,0,0,0,5,7,3,7,0,"cue1.png","B","hard",36,2.98387602699222,0,"","","","","","",,"","","","","",,,,"",,,,"","","","","",,,"240320_162910","hard","repetition","switch",0.643366956998943,0.857142857142857,0.833333333333333,
"76",108,141802,"Female",21,1,"TEST",1,26,1,1250,,,26,29,26,0.916666666666667,0.666666666666667,0,1,0,1,0.471961632801685,"",,,2,0,0,0,0,7,9,3,7,0,"cue2.png","B","easy",57,2.20387937499618,0,"","","","","","",,"","","","","",,,,"",,,,"","","","","",,,"240320_162932","hard","switch","repetition",0.532446802599588,0.714285714285714,0.75,
"77",108,141802,"Female",21,1,"TEST",1,27,1,1250,,,27,30,27,1,1,0,1,0,1,0.49844901579927,"",,,3,0,0,0,0,7,10,3,7,0,"cue2.png","B","easy",40,1.25369018300262,0,"","","","","","",,"","","","","",,,,"",,,,"","","","","",,,"240320_162952","easy","repetition","switch",0.471961632801685,1,0.916666666666667,
"78",108,141802,"Female",21,1,"TEST",1,28,3,1250,,,28,31,28,0.75,0.666666666666667,0.285714285714286,0.714285714285714,0,0.714285714285714,0.474586718199134,"",,,2,2,0,0,0,5,7,3,7,0,"cue1.png","B","hard",56,1.66351200100326,0,"","","","","","",,"","","","","",,,,"",,,,"","","","","",,,"240320_163013","easy","switch","repetition",0.49844901579927,1,1,
"79",108,141802,"Female",21,1,"TEST",1,29,1,1250,,,29,32,29,1,1,0,1,0,1,0.476216157601448,"",,,3,0,0,0,0,7,10,3,7,0,"cue2.png","B","easy",38,1.3777596539876,0,"","","","","","",,"","","","","",,,,"",,,,"","","","","",,,"240320_163034","hard","switch","switch",0.474586718199134,0.714285714285714,0.75,
"80",108,141802,"Female",21,1,"TEST",1,30,1,1250,,,30,33,30,0.833333333333333,0.666666666666667,0.142857142857143,0.857142857142857,0,0.857142857142857,0.524050655595784,"",,,2,1,0,0,0,6,8,3,7,0,"cue2.png","B","easy",39,0.919378799997503,0,"","","","","","",,"","","","","",,,,"",,,,"","","","","",,,"240320_163054","easy","repetition","switch",0.476216157601448,1,1,
"81",108,141802,"Female",21,1,"TEST",1,31,3,1250,,,31,34,31,0.547619047619048,0.333333333333333,0.285714285714286,0.714285714285714,0,0.714285714285714,0.554853647401615,"",,,1,2,0,0,0,5,6,3,7,0,"cue1.png","B","hard",38,0.898721664998448,0,"","","","","","",,"","","","","",,,,"",,,,"","","","","",,,"240320_163115","easy","switch","repetition",0.524050655595784,0.857142857142857,0.833333333333333,
"82",108,141802,"Female",21,1,"TEST",1,32,1,1250,,,32,35,32,1,1,0,1,0,1,0.470904589198472,"",,,3,0,0,0,0,7,10,3,7,0,"cue2.png","B","easy",60,1.10529186500935,0,"","","","","","",,"","","","","",,,,"",,,,"","","","","",,,"240320_163135","hard","switch","switch",0.554853647401615,0.714285714285714,0.547619047619048,
"83",108,141802,"Female",21,1,"TEST",1,33,3,1250,,,33,36,33,0.547619047619048,0.333333333333333,0.285714285714286,0.714285714285714,0,0.714285714285714,0.456807207598467,"",,,1,2,0,0,0,5,6,3,7,0,"cue1.png","B","hard",56,1.03950063799857,0,"","","","","","",,"","","","","",,,,"",,,,"","","","","",,,"240320_163155","easy","switch","switch",0.470904589198472,1,1,
"84",108,141802,"Female",21,1,"TEST",1,34,3,1250,,,34,37,34,0.214285714285714,0,0.142857142857143,0.857142857142857,0,0.857142857142857,0.556851742396248,"",,,0,1,0,0,0,6,6,3,7,0,"cue1.png","B","hard",36,0.931554893002613,0,"","","","","","",,"","","","","",,,,"",,,,"","","","","",,,"240320_163216","hard","repetition","switch",0.456807207598467,0.714285714285714,0.547619047619048,
"85",108,141802,"Female",21,1,"TEST",1,35,3,1250,,,35,38,35,1,1,0,1,0,1,0.441210329701425,"",,,3,0,0,0,0,7,10,3,7,0,"cue1.png","B","hard",57,1.38764872700267,0,"","","","","","",,"","","","","",,,,"",,,,"","","","","",,,"240320_163236","hard","repetition","repetition",0.556851742396248,0.857142857142857,0.214285714285714,
"86",108,141802,"Female",21,1,"TEST",1,36,1,1250,,,36,39,36,0.833333333333333,0.666666666666667,0.142857142857143,0.857142857142857,0,0.857142857142857,0.539724516699789,"",,,2,1,0,0,0,6,8,3,7,0,"cue2.png","B","easy",39,0.735149291998823,0,"","","","","","",,"","","","","",,,,"",,,,"","","","","",,,"240320_163257","hard","switch","repetition",0.441210329701425,1,1,
"87",108,141802,"Female",21,1,"TEST",1,37,3,1250,,,37,40,37,0.75,0.666666666666667,0.285714285714286,0.666666666666667,0.1,0.614285714285714,0.391342094001528,"",,,2,2,1,0,1,4,6,3,7,0,"cue1.png","B","hard",36,1.59020941201015,0,"","","","","","",,"","","","","",,,,"",,,,"","","","","",,,"240320_163318","easy","switch","switch",0.539724516699789,0.857142857142857,0.833333333333333,
"88",108,141802,"Female",21,1,"TEST",1,38,1,1250,,,38,41,38,0.142857142857143,0,0.428571428571429,0.571428571428571,0,0.571428571428571,0.472004240400565,"",,,0,3,0,0,0,4,4,3,7,0,"cue2.png","B","easy",36,0.872339759007446,0,"","","","","","",,"","","","","",,,,"",,,,"","","","","",,,"240320_163338","hard","switch","switch",0.391342094001528,0.614285714285714,0.75,
"89",108,141802,"Female",21,1,"TEST",1,39,1,1250,,,39,42,39,0.964285714285714,1,0.142857142857143,0.857142857142857,0,0.857142857142857,0.537385840102797,"",,,3,1,0,0,0,6,9,3,7,0,"cue2.png","B","easy",36,0.863568910004687,0,"","","","","","",,"","","","","",,,,"",,,,"","","","","",,,"240320_163359","easy","repetition","switch",0.472004240400565,0.571428571428571,0.142857142857143,
"90",108,141802,"Female",21,1,"TEST",1,40,3,1250,,,40,43,40,0.916666666666667,0.666666666666667,0,1,0,1,0.611620528403728,"",,,2,0,0,0,0,7,9,3,7,0,"cue1.png","B","hard",59,2.44908937500441,0,"","","","","","",,"","","","","",,,,"",,,,"","","","","",,,"240320_163422","easy","switch","repetition",0.537385840102797,0.857142857142857,0.964285714285714,
"91",108,141802,"Female",21,1,"TEST",1,41,3,1250,,,41,44,41,0.964285714285714,1,0.142857142857143,0.857142857142857,0,0.857142857142857,0.519997746801528,"",,,3,1,0,0,0,6,9,3,7,0,"cue1.png","B","hard",31,0.919881224996061,0,"","","","","","",,"","","","","",,,,"",,,,"","","","","",,,"240320_163442","hard","repetition","switch",0.611620528403728,1,0.916666666666667,
"92",108,141802,"Female",21,1,"TEST",1,42,1,1250,,,42,45,42,0.690476190476191,0.333333333333333,0.142857142857143,0.857142857142857,0,0.857142857142857,0.508065453101881,"",,,1,1,0,0,0,6,7,3,7,0,"cue2.png","B","easy",40,1.8786031500058,0,"","","","","","",,"","","","","",,,,"",,,,"","","","","",,,"240320_163503","hard","switch","repetition",0.519997746801528,0.857142857142857,0.964285714285714,
"93",108,141802,"Female",21,1,"TEST",1,43,3,1250,,,43,47,43,1,1,0,1,0,1,0.524776391399791,"",,,3,0,0,0,0,7,10,3,7,0,"cue1.png","B","hard",62,1.65336077401298,0,"","","","","","",,"","","","","",,,,"",,,,"","","","","",,,"240320_163533","easy","switch","switch",0.508065453101881,0.857142857142857,0.690476190476191,
"94",108,141802,"Female",21,1,"TEST",1,44,1,1250,,,44,48,44,0.833333333333333,0.666666666666667,0.142857142857143,0.857142857142857,0,0.857142857142857,0.626978339397465,"",,,2,1,0,0,0,6,8,3,7,0,"cue2.png","B","easy",30,1.35429744700377,0,"","","","","","",,"","","","","",,,,"",,,,"","","","","",,,"240320_163555","hard","switch","switch",0.524776391399791,1,1,
"95",108,141802,"Female",21,1,"TEST",1,45,3,1250,,,45,49,45,0.916666666666667,0.666666666666667,0,1,0,1,0.459149505702953,"",,,2,0,0,0,0,7,9,3,7,0,"cue1.png","B","hard",63,2.80518455899437,0,"","","","","","",,"","","","","",,,,"",,,,"","","","","",,,"240320_163616","easy","switch","switch",0.626978339397465,0.857142857142857,0.833333333333333,
"96",108,141802,"Female",21,1,"TEST",1,46,3,1250,,,46,50,46,0.178571428571429,0,0.285714285714286,0.714285714285714,0,0.714285714285714,0.466041186498478,"",,,0,2,0,0,0,5,5,3,7,0,"cue1.png","B","hard",56,1.41848284199659,0,"","","","","","",,"","","","","",,,,"",,,,"","","","","",,,"240320_163637","hard","repetition","switch",0.459149505702953,1,0.916666666666667,
"97",108,141802,"Female",21,1,"TEST",1,47,1,1250,,,47,51,47,1,1,0,1,0,1,0.498739882801601,"",,,3,0,0,0,0,7,10,3,7,0,"cue2.png","B","easy",34,1.23003575101029,0,"","","","","","",,"","","","","",,,,"",,,,"","","","","",,,"240320_163657","hard","switch","repetition",0.466041186498478,0.714285714285714,0.178571428571429,
"98",108,141802,"Female",21,1,"TEST",1,48,1,1250,,,48,52,48,0.964285714285714,1,0.142857142857143,0.857142857142857,0,0.857142857142857,0.512042093797936,"",,,3,1,0,0,0,6,9,3,7,0,"cue2.png","B","easy",12,2.18042697200144,0,"","","","","","",,"","","","","",,,,"",,,,"","","","","",,,"240320_163719","easy","repetition","switch",0.498739882801601,1,1,
"99",108,141802,"Female",21,1,"TEST",1,49,3,1250,,,49,53,49,0.5,0,0,1,0,1,0.524059557498549,"",,,0,0,0,0,0,7,7,3,7,0,"cue1.png","B","hard",59,1.03910503498628,0,"","","","","","",,"","","","","",,,,"",,,,"","","","","",,,"240320_163740","easy","switch","repetition",0.512042093797936,0.857142857142857,0.964285714285714,
"100",108,141802,"Female",21,1,"TEST",1,50,1,1250,,,50,54,50,1,1,0,1,0,1,0.394666801503627,"",,,3,0,0,0,0,7,10,3,7,0,"cue2.png","B","easy",39,1.80839540300076,0,"","","","","","",,"","","","","",,,,"",,,,"","","","","",,,"240320_163800","hard","switch","switch",0.524059557498549,1,0.5,
"101",70,143035,"Female",23,1,"TEST",1,1,1,361,,,1,1,1,0.958333333333333,0.833333333333333,0,1,0.0555555555555556,0.944444444444444,0.510319373295608,"",,,5,0,1,0,1,11,16,6,12,0,"cue2.png","B","easy",31,1.63482105200819,0,"","","","","","",,"","","","","",,,,"",,,,"","","","","",,,"240220_132140",,,,,,,
"102",70,143035,"Female",23,1,"TEST",1,2,3,361,,,2,2,2,0.833333333333333,0.333333333333333,0,1,0.222222222222222,0.777777777777778,0.41782008521633,"",,,2,0,4,1,3,9,11,6,12,0,"cue1.png","B","hard",54,1.00451887400413,0,"","","","","","",,"","","","","",,,,"",,,,"","","","","",,,"240220_132209","easy","switch",,0.510319373295608,0.944444444444444,0.958333333333333,
"103",70,143035,"Female",23,1,"TEST",1,3,3,361,,,3,3,3,0.791666666666667,0.166666666666667,0,1,0.611111111111111,0.388888888888889,0.420176052143298,"",,,1,0,11,3,8,4,5,6,12,0,"cue1.png","B","hard",54,1.72884437500034,0,"","","","","","",,"","","","","",,,,"",,,,"","","","","",,,"240220_132244","hard","repetition","switch",0.41782008521633,0.777777777777778,0.833333333333333,
"104",70,143035,"Female",23,1,"TEST",1,4,3,361,,,4,4,4,0.868055555555555,0.666666666666667,0.0833333333333333,0.9,0.111111111111111,0.805555555555556,0.424194370438272,"",,,4,1,2,0,2,9,13,6,12,0,"cue1.png","B","hard",33,1.96476746599365,0,"","","","","","",,"","","","","",,,,"",,,,"","","","","",,,"240220_132313","hard","repetition","repetition",0.420176052143298,0.388888888888889,0.791666666666667,
"105",70,143035,"Female",23,1,"TEST",1,5,1,361,,,5,5,5,0.95,0.8,0,1,0,1,0.482431147278274,"",,,4,0,0,0,0,13,17,5,13,0,"cue2.png","B","easy",34,2.38914066099096,0,"","","","","","",,"","","","","",,,,"",,,,"","","","","",,,"240220_132343","hard","switch","repetition",0.424194370438272,0.805555555555556,0.868055555555555,
"106",70,143035,"Female",23,1,"TEST",1,6,3,361,,,6,6,6,0.569230769230769,0.2,0.153846153846154,0.818181818181818,0.166666666666667,0.67948717948718,0.521738609667712,"",,,1,2,3,1,2,9,10,5,13,0,"cue1.png","B","hard",26,1.32856158800132,0,"","","","","","",,"","","","","",,,,"",,,,"","","","","",,,"240220_132413","easy","switch","switch",0.482431147278274,1,0.95,
"107",70,143035,"Female",23,1,"TEST",1,7,3,361,,,7,7,7,0.75,0.333333333333333,0.0833333333333333,0.888888888888889,0.333333333333333,0.583333333333333,0.479749085751488,"",,,2,1,6,3,3,8,10,6,12,0,"cue1.png","B","hard",9,1.28005515199038,0,"","","","","","",,"","","","","",,,,"",,,,"","","","","",,,"240220_132445","hard","repetition","switch",0.521738609667712,0.67948717948718,0.569230769230769,
"108",70,143035,"Female",23,1,"TEST",1,8,1,361,,,8,8,8,1,1,0,1,0,1,0.513963570498163,"",,,5,0,0,0,0,13,18,5,13,0,"cue2.png","B","easy",2,0.954062418997637,0,"","","","","","",,"","","","","",,,,"",,,,"","","","","",,,"240220_132514","hard","switch","repetition",0.479749085751488,0.583333333333333,0.75,
"109",70,143035,"Female",23,1,"TEST",1,9,1,361,,,9,9,9,1,1,0,1,0,1,0.528182915108725,"",,,6,0,0,0,0,12,18,6,12,0,"cue2.png","B","easy",18,1.24810993499705,0,"","","","","","",,"","","","","",,,,"",,,,"","","","","",,,"240220_132543","easy","repetition","switch",0.513963570498163,1,1,
"110",70,143035,"Female",23,1,"TEST",1,10,3,361,,,10,10,10,0.229166666666667,0,0.0833333333333333,0.857142857142857,0.555555555555556,0.361111111111111,0.526073300372445,"",,,0,1,10,5,5,6,6,6,12,0,"cue1.png","B","hard",1,1.32802540400007,0,"","","","","","",,"","","","","",,,,"",,,,"","","","","",,,"240220_132618","easy","switch","repetition",0.528182915108725,1,1,
"111",70,143035,"Female",23,1,"TEST",1,11,1,361,,,11,11,11,0.95,0.8,0,1,0,1,0.602777008333457,"",,,4,0,0,0,0,13,17,5,13,0,"cue2.png","B","easy",51,1.68038478298695,0,"","","","","","",,"","","","","",,,,"",,,,"","","","","",,,"240220_132649","hard","switch","switch",0.526073300372445,0.361111111111111,0.229166666666667,
"112",70,143035,"Female",23,1,"TEST",1,12,3,361,,,12,12,12,0.5,0.166666666666667,0.166666666666667,0.8,0.166666666666667,0.666666666666667,0.398851882067781,"",,,1,2,3,1,2,8,9,6,12,0,"cue1.png","B","hard",0,1.8976780219964,0,"","","","","","",,"","","","","",,,,"",,,,"","","","","",,,"240220_132718","easy","switch","switch",0.602777008333457,1,0.95,
"113",70,143035,"Female",23,1,"TEST",1,13,1,361,,,13,13,13,0.85,0.4,0,1,0.111111111111111,0.888888888888889,0.467686564625183,"",,,2,0,2,0,2,11,13,5,13,0,"cue2.png","B","easy",51,1.19857451600546,0,"","","","","","",,"","","","","",,,,"",,,,"","","","","",,,"240220_132748","hard","switch","switch",0.398851882067781,0.666666666666667,0.5,
"114",70,143035,"Female",23,1,"TEST",1,14,3,361,,,14,14,14,0.75,0.333333333333333,0.0833333333333333,0.9,0.111111111111111,0.805555555555556,0.609709402561748,"",,,2,1,2,0,2,9,11,6,12,0,"cue1.png","B","hard",0,1.52947797399247,0,"","","","","","",,"","","","","",,,,"",,,,"","","","","",,,"240220_132819","easy","switch","switch",0.467686564625183,0.888888888888889,0.85,
"115",70,143035,"Female",23,1,"TEST",1,15,1,361,,,15,15,15,0.9,0.6,0,1,0.111111111111111,0.888888888888889,0.500931418562686,"",,,3,0,2,0,2,11,14,5,13,0,"cue2.png","B","easy",55,1.78828052499739,0,"","","","","","",,"","","","","",,,,"",,,,"","","","","",,,"240220_132850","hard","switch","switch",0.609709402561748,0.805555555555556,0.75,
"116",70,143035,"Female",23,1,"TEST",1,16,1,361,,,16,16,16,0.916666666666667,0.666666666666667,0,1,0,1,0.498727737001092,"",,,4,0,0,0,0,12,16,6,12,0,"cue2.png","B","easy",56,2.74680719399475,0,"","","","","","",,"","","","","",,,,"",,,,"","","","","",,,"240220_132920","easy","repetition","switch",0.500931418562686,0.888888888888889,0.9,
"117",70,143035,"Female",23,1,"TEST",1,17,3,361,,,17,17,17,0.230769230769231,0,0.0769230769230769,0.875,0.444444444444444,0.478632478632479,0.380779871901905,"",,,0,1,8,3,5,7,7,5,13,0,"cue1.png","B","hard",0,1.89518168500217,0,"","","","","","",,"","","","","",,,,"",,,,"","","","","",,,"240220_132953","easy","switch","repetition",0.498727737001092,1,0.916666666666667,
"118",70,143035,"Female",23,1,"TEST",1,18,3,361,,,18,19,18,0.85,0.6,0.0769230769230769,0.916666666666667,0.0555555555555556,0.867521367521368,0.630774955414167,"",,,3,1,1,0,1,11,14,5,13,0,"cue1.png","B","hard",0,1.06187331900583,0,"","","","","","",,"","","","","",,,,"",,,,"","","","","",,,"240220_133032","hard","repetition","switch",0.380779871901905,0.478632478632479,0.230769230769231,
"119",70,143035,"Female",23,1,"TEST",1,19,1,361,,,19,20,19,0.95,0.8,0,1,0.0555555555555556,0.944444444444444,0.484020703412277,"",,,4,0,1,0,1,12,16,5,13,0,"cue2.png","B","easy",59,2.18719783899724,0,"","","","","","",,"","","","","",,,,"",,,,"","","","","",,,"240220_133102","hard","switch","repetition",0.630774955414167,0.867521367521368,0.85,
"120",70,143035,"Female",23,1,"TEST",1,20,1,361,,,20,21,20,0.85,0.6,0.0769230769230769,0.916666666666667,0.111111111111111,0.811965811965812,0.384189592687108,"",,,3,1,2,1,1,11,14,5,13,0,"cue2.png","B","easy",54,2.89799865300301,0,"","","","","","",,"","","","","",,,,"",,,,"","","","","",,,"240220_133132","easy","repetition","switch",0.484020703412277,0.944444444444444,0.95,
"121",70,143035,"Female",23,1,"TEST",1,21,1,361,,,21,22,21,0.875,0.5,0,1,0.111111111111111,0.888888888888889,0.430446097002459,"",,,3,0,2,1,1,11,14,6,12,0,"cue2.png","B","easy",63,0.911263677000534,0,"","","","","","",,"","","","","",,,,"",,,,"","","","","",,,"240220_133200","easy","repetition","repetition",0.384189592687108,0.811965811965812,0.85,
"122",70,143035,"Female",23,1,"TEST",1,22,3,361,,,22,23,22,0.961538461538462,1,0.153846153846154,0.833333333333333,0.0555555555555556,0.790598290598291,0.545949210410232,"",,,5,2,1,0,1,10,15,5,13,0,"cue1.png","B","hard",0,1.12762298400048,0,"","","","","","",,"","","","","",,,,"",,,,"","","","","",,,"240220_133230","easy","switch","repetition",0.430446097002459,0.888888888888889,0.875,
"123",70,143035,"Female",23,1,"TEST",1,23,1,361,,,23,24,23,0.915384615384615,0.8,0.0769230769230769,0.923076923076923,0,0.923076923076923,0.504553377608115,"",,,4,1,0,0,0,12,16,5,13,0,"cue2.png","B","easy",53,0.778475554005126,0,"","","","","","",,"","","","","",,,,"",,,,"","","","","",,,"240220_133259","hard","switch","switch",0.545949210410232,0.790598290598291,0.961538461538462,
"124",70,143035,"Female",23,1,"TEST",1,24,3,361,,,24,26,24,0.8125,0.5,0.0833333333333333,0.909090909090909,0.0555555555555556,0.861111111111111,0.583820933706353,"",,,3,1,1,0,1,10,13,6,12,0,"cue1.png","B","hard",0,0.904908140000771,0,"","","","","","",,"","","","","",,,,"",,,,"","","","","",,,"240220_133337","easy","switch","switch",0.504553377608115,0.923076923076923,0.915384615384615,
"125",70,143035,"Female",23,1,"TEST",1,25,3,361,,,25,27,25,0.0256410256410256,0.2,0.230769230769231,0.75,0.0555555555555556,0.713675213675214,0.417336075998987,"",,,1,3,1,0,1,9,10,5,13,0,"cue1.png","B","hard",1,0.963058895998984,0,"","","","","","",,"","","","","",,,,"",,,,"","","","","",,,"240220_133405","hard","repetition","switch",0.583820933706353,0.861111111111111,0.8125,
"126",70,143035,"Female",23,1,"TEST",1,26,1,361,,,26,28,26,1,1,0,1,0,1,0.548785551390514,"",,,6,0,0,0,0,12,18,6,12,0,"cue2.png","B","easy",52,0.770054014996276,0,"","","","","","",,"","","","","",,,,"",,,,"","","","","",,,"240220_133434","hard","switch","repetition",0.417336075998987,0.713675213675214,0.0256410256410256,
"127",70,143035,"Female",23,1,"TEST",1,27,1,361,,,27,29,27,0.95,0.8,0,1,0,1,0.505117869610129,"",,,4,0,0,0,0,13,17,5,13,0,"cue2.png","B","easy",52,0.963096182007575,0,"","","","","","",,"","","","","",,,,"",,,,"","","","","",,,"240220_133503","easy","repetition","switch",0.548785551390514,1,1,
"128",70,143035,"Female",23,1,"TEST",1,28,3,361,,,28,30,28,0.8,0.2,0,1,0.277777777777778,0.722222222222222,0.465198215002042,"",,,1,0,5,1,4,9,10,5,13,0,"cue1.png","B","hard",0,0.861721570996451,0,"","","","","","",,"","","","","",,,,"",,,,"","","","","",,,"240220_133534","easy","switch","repetition",0.505117869610129,1,0.95,
"129",70,143035,"Female",23,1,"TEST",1,29,1,361,,,29,31,29,0.9,0.6,0,1,0,1,0.466839074390009,"",,,3,0,0,0,0,13,16,5,13,0,"cue2.png","B","easy",63,0.811044299989589,0,"","","","","","",,"","","","","",,,,"",,,,"","","","","",,,"240220_133601","hard","switch","switch",0.465198215002042,0.722222222222222,0.8,
"130",70,143035,"Female",23,1,"TEST",1,30,1,361,,,30,32,30,0.95,0.8,0,1,0,1,0.478042883721678,"",,,4,0,0,0,0,13,17,5,13,0,"cue2.png","B","easy",53,1.00092843800667,0,"","","","","","",,"","","","","",,,,"",,,,"","","","","",,,"240220_133630","easy","repetition","switch",0.466839074390009,1,0.9,
"131",70,143035,"Female",23,1,"TEST",1,31,3,361,,,31,33,31,0.75,0.333333333333333,0.0833333333333333,0.9,0.111111111111111,0.805555555555556,0.524513284874956,"",,,2,1,2,0,2,9,11,6,12,0,"cue1.png","B","hard",0,0.621511075994931,0,"","","","","","",,"","","","","",,,,"",,,,"","","","","",,,"240220_133659","easy","switch","repetition",0.478042883721678,1,0.95,
"132",70,143035,"Female",23,1,"TEST",1,32,1,361,,,32,34,32,1,1,0,1,0,1,0.539677887610904,"",,,5,0,0,0,0,13,18,5,13,0,"cue2.png","B","easy",51,1.94466373599425,0,"","","","","","",,"","","","","",,,,"",,,,"","","","","",,,"240220_133729","hard","switch","switch",0.524513284874956,0.805555555555556,0.75,
"133",70,143035,"Female",23,1,"TEST",1,33,3,361,,,33,35,33,0.645833333333333,0.166666666666667,0.0833333333333333,0.909090909090909,0.0555555555555556,0.861111111111111,0.450777876294417,"",,,1,1,1,0,1,10,11,6,12,0,"cue1.png","B","hard",0,1.19514311099192,0,"","","","","","",,"","","","","",,,,"",,,,"","","","","",,,"240220_133758","easy","switch","switch",0.539677887610904,1,1,
"134",70,143035,"Female",23,1,"TEST",1,34,3,361,,,34,36,34,0.8,0.2,0,1,0.388888888888889,0.611111111111111,0.536955230727802,"",,,1,0,7,2,5,8,9,5,13,0,"cue1.png","B","hard",1,1.02287062100368,0,"","","","","","",,"","","","","",,,,"",,,,"","","","","",,,"240220_133831","hard","repetition","switch",0.450777876294417,0.861111111111111,0.645833333333333,
"135",70,143035,"Female",23,1,"TEST",1,35,3,361,,,35,37,35,0.875,0.5,0,1,0.277777777777778,0.722222222222222,0.396045262617498,"",,,3,0,5,1,4,8,11,6,12,0,"cue1.png","B","hard",0,1.04519999699551,0,"","","","","","",,"","","","","",,,,"",,,,"","","","","",,,"240220_133900","hard","repetition","repetition",0.536955230727802,0.611111111111111,0.8,
"136",70,143035,"Female",23,1,"TEST",1,36,1,361,,,36,38,36,0.9,0.6,0,1,0,1,0.530463861999225,"",,,3,0,0,0,0,13,16,5,13,0,"cue2.png","B","easy",53,1.28158502100268,0,"","","","","","",,"","","","","",,,,"",,,,"","","","","",,,"240220_133930","hard","switch","repetition",0.396045262617498,0.722222222222222,0.875,
"137",70,143035,"Female",23,1,"TEST",1,37,3,361,,,37,39,37,0.211538461538462,0,0.153846153846154,0.777777777777778,0.333333333333333,0.512820512820513,0.601567536748917,"",,,0,2,6,2,4,7,7,5,13,0,"cue1.png","B","hard",0,0.955072846001713,0,"","","","","","",,"","","","","",,,,"",,,,"","","","","",,,"240220_134003","easy","switch","switch",0.530463861999225,1,0.9,
"138",70,143035,"Female",23,1,"TEST",1,38,1,361,,,38,40,38,0.95,0.8,0,1,0.0555555555555556,0.944444444444444,0.46482661588251,"",,,4,0,1,0,1,12,16,5,13,0,"cue2.png","B","easy",51,1.57012336500338,0,"","","","","","",,"","","","","",,,,"",,,,"","","","","",,,"240220_134032","hard","switch","switch",0.601567536748917,0.512820512820513,0.211538461538462,
"139",70,143035,"Female",23,1,"TEST",1,39,1,361,,,39,41,39,1,1,0,1,0,1,0.508753899834119,"",,,5,0,0,0,0,13,18,5,13,0,"cue2.png","B","easy",56,0.969604454992805,0,"","","","","","",,"","","","","",,,,"",,,,"","","","","",,,"240220_134100","easy","repetition","switch",0.46482661588251,0.944444444444444,0.95,
"140",70,143035,"Female",23,1,"TEST",1,40,3,361,,,40,42,40,0.684615384615385,0.2,0.0769230769230769,0.833333333333333,0.5,0.423076923076923,0.626900278888772,"",,,1,1,9,2,7,5,6,5,13,0,"cue1.png","B","hard",0,1.05465528600325,0,"","","","","","",,"","","","","",,,,"",,,,"","","","","",,,"240220_134135","easy","switch","repetition",0.508753899834119,1,1,
"141",70,143035,"Female",23,1,"TEST",1,41,3,361,,,41,43,41,0.85,0.6,0.0769230769230769,0.923076923076923,0,0.923076923076923,0.494551396552803,"",,,3,1,0,0,0,12,15,5,13,0,"cue1.png","B","hard",0,1.90637245100515,0,"","","","","","",,"","","","","",,,,"",,,,"","","","","",,,"240220_134204","hard","repetition","switch",0.626900278888772,0.423076923076923,0.684615384615385,
"142",70,143035,"Female",23,1,"TEST",1,42,1,361,,,42,44,42,1,1,0,1,0,1,0.522707059609982,"",,,5,0,0,0,0,13,18,5,13,0,"cue2.png","B","easy",58,0.782111881999299,0,"","","","","","",,"","","","","",,,,"",,,,"","","","","",,,"240220_134233","hard","switch","repetition",0.494551396552803,0.923076923076923,0.85,
"143",70,143035,"Female",23,1,"TEST",1,43,3,361,,,43,45,43,0.211538461538462,0,0.153846153846154,0.846153846153846,0.111111111111111,0.735042735042735,0.434792662062137,"",,,0,2,2,2,0,11,11,5,13,0,"cue1.png","B","hard",0,0.954169673001161,0,"","","","","","",,"","","","","",,,,"",,,,"","","","","",,,"240220_134302","easy","switch","switch",0.522707059609982,1,1,
"144",70,143035,"Female",23,1,"TEST",1,44,1,361,,,44,46,44,0.95,0.8,0,1,0,1,0.478004958997998,"",,,4,0,0,0,0,13,17,5,13,0,"cue2.png","B","easy",55,1.36208366599749,0,"","","","","","",,"","","","","",,,,"",,,,"","","","","",,,"240220_134330","hard","switch","switch",0.434792662062137,0.735042735042735,0.211538461538462,
"145",70,143035,"Female",23,1,"TEST",1,45,3,361,,,45,47,45,0.684615384615385,0.2,0.0769230769230769,0.875,0.388888888888889,0.534188034188034,0.615055706726377,"",,,1,1,7,2,5,7,8,5,13,0,"cue1.png","B","hard",0,0.588489524001488,0,"","","","","","",,"","","","","",,,,"",,,,"","","","","",,,"240220_134403","easy","switch","switch",0.478004958997998,1,0.95,
"146",70,143035,"Female",23,1,"TEST",1,46,3,361,,,46,48,46,0.9,0.6,0,1,0.0555555555555556,0.944444444444444,0.494308970117024,"",,,3,0,1,0,1,12,15,5,13,0,"cue1.png","B","hard",2,2.39019826099684,0,"","","","","","",,"","","","","",,,,"",,,,"","","","","",,,"240220_134434","hard","repetition","switch",0.615055706726377,0.534188034188034,0.684615384615385,
"147",70,143035,"Female",23,1,"TEST",1,47,1,361,,,47,49,47,0.95,0.8,0,1,0,1,0.4877761998901,"",,,4,0,0,0,0,13,17,5,13,0,"cue2.png","B","easy",61,0.638932076006313,0,"","","","","","",,"","","","","",,,,"",,,,"","","","","",,,"240220_134502","hard","switch","repetition",0.494308970117024,0.944444444444444,0.9,
"148",70,143035,"Female",23,1,"TEST",1,48,1,361,,,48,50,48,0.85,0.4,0,1,0.0555555555555556,0.944444444444444,0.459167578118093,"",,,2,0,1,1,0,13,15,5,13,0,"cue2.png","B","easy",62,1.31256837600085,0,"","","","","","",,"","","","","",,,,"",,,,"","","","","",,,"240220_134530","easy","repetition","switch",0.4877761998901,1,0.95,
"149",70,143035,"Female",23,1,"TEST",1,49,3,361,,,49,52,49,0.85,0.4,0,1,0.111111111111111,0.888888888888889,0.509009821125801,"",,,2,0,2,2,0,13,15,5,13,0,"cue1.png","B","hard",0,0.90366574699874,0,"","","","","","",,"","","","","",,,,"",,,,"","","","","",,,"240220_134608","easy","switch","repetition",0.459167578118093,0.944444444444444,0.85,
"150",70,143035,"Female",23,1,"TEST",1,50,1,361,,,50,53,50,1,1,0,1,0,1,0.514713653054463,"",,,6,0,0,0,0,12,18,6,12,0,"cue2.png","B","easy",62,0.399170572985895,0,"","","","","","",,"","","","","",,,,"",,,,"","","","","",,,"240220_134636","hard","switch","switch",0.509009821125801,0.888888888888889,0.85,
"151",115,143101,"Female",22,1,"TEST",1,1,1,583,,,1,1,1,0.806818181818182,0.5,0.0909090909090909,0.909090909090909,0,0.909090909090909,0.465438232465143,"",,,2,1,0,0,0,10,12,4,11,0,"cue1.png","A","easy",37,1.26152959700266,0,"","","","","","",,"","","","","",,,,"",,,,"","","","","",,,"240322_131545",,,,,,,
"152",115,143101,"Female",22,1,"TEST",1,2,3,583,,,2,2,2,0.875,0.5,0,1,0,1,0.469098169470089,"",,,2,0,0,0,0,11,13,4,11,0,"cue2.png","A","hard",32,1.09720691600523,0,"","","","","","",,"","","","","",,,,"",,,,"","","","","",,,"240322_131610","easy","switch",,0.465438232465143,0.909090909090909,0.806818181818182,
"153",115,143101,"Female",22,1,"TEST",1,3,1,583,,,3,3,3,1,1,0,1,0,1,0.420172418266884,"",,,5,0,0,0,0,10,15,5,10,0,"cue1.png","A","easy",33,1.01117288500245,0,"","","","","","",,"","","","","",,,,"",,,,"","","","","",,,"240322_131635","hard","switch","switch",0.469098169470089,1,0.875,
"154",115,143101,"Female",22,1,"TEST",1,4,3,583,,,4,4,4,0.5,0,0,1,0,1,0.449265224267341,"",,,0,0,0,0,0,11,11,4,11,0,"cue2.png","A","hard",14,1.14565330700134,0,"","","","","","",,"","","","","",,,,"",,,,"","","","","",,,"240322_131659","easy","switch","switch",0.420172418266884,1,1,
"155",115,143101,"Female",22,1,"TEST",1,5,3,583,,,5,5,5,0.8,0.2,0,1,0,1,0.454761674735346,"",,,1,0,0,0,0,10,11,5,10,0,"cue2.png","A","hard",22,1.48954915600189,0,"","","","","","",,"","","","","",,,,"",,,,"","","","","",,,"240322_131725","hard","repetition","switch",0.449265224267341,1,0.5,
"156",115,143101,"Female",22,1,"TEST",1,6,1,583,,,6,6,6,1,1,0,1,0,1,0.472414431800523,"",,,5,0,0,0,0,10,15,5,10,0,"cue1.png","A","easy",28,1.51187667099293,0,"","","","","","",,"","","","","",,,,"",,,,"","","","","",,,"240322_131750","hard","switch","repetition",0.454761674735346,1,0.8,
"157",115,143101,"Female",22,1,"TEST",1,7,3,583,,,7,7,7,0.77,0.6,0.2,0.8,0,0.8,0.526751263999419,"",,,3,2,0,0,0,8,11,5,10,0,"cue2.png","A","hard",24,2.24846180900931,0,"","","","","","",,"","","","","",,,,"",,,,"","","","","",,,"240322_131818","easy","switch","switch",0.472414431800523,1,1,
"158",115,143101,"Female",22,1,"TEST",1,8,3,583,,,8,8,8,0.7625,0.4,0.1,0.9,0,0.9,0.5365083201313,"",,,2,1,0,0,0,9,11,5,10,0,"cue2.png","A","hard",18,1.77755702899594,0,"","","","","","",,"","","","","",,,,"",,,,"","","","","",,,"240322_131844","hard","repetition","switch",0.526751263999419,0.8,0.77,
"159",115,143101,"Female",22,1,"TEST",1,9,1,583,,,9,9,9,1,1,0,1,0,1,0.426857272868316,"",,,4,0,0,0,0,11,15,4,11,0,"cue1.png","A","easy",16,1.49724312999751,0,"","","","","","",,"","","","","",,,,"",,,,"","","","","",,,"240322_131909","hard","switch","repetition",0.5365083201313,0.9,0.7625,
"160",115,143101,"Female",22,1,"TEST",1,10,1,583,,,10,10,10,1,1,0,1,0,1,0.418619296798715,"",,,4,0,0,0,0,11,15,4,11,0,"cue1.png","A","easy",25,1.29022072300722,0,"","","","","","",,"","","","","",,,,"",,,,"","","","","",,,"240322_131934","easy","repetition","switch",0.426857272868316,1,1,
"161",115,143101,"Female",22,1,"TEST",1,11,3,583,,,11,11,11,0.65,0.2,0.1,0.9,0,0.9,0.557051365534426,"",,,1,1,0,0,0,9,10,5,10,0,"cue2.png","A","hard",25,1.01467971201055,0,"","","","","","",,"","","","","",,,,"",,,,"","","","","",,,"240322_132000","easy","switch","repetition",0.418619296798715,1,1,
"162",115,143101,"Female",22,1,"TEST",1,12,1,583,,,12,12,12,1,1,0,1,0,1,0.435462977398614,"",,,5,0,0,0,0,10,15,5,10,0,"cue1.png","A","easy",19,0.854212709004059,0,"","","","","","",,"","","","","",,,,"",,,,"","","","","",,,"240322_132025","hard","switch","switch",0.557051365534426,0.9,0.65,
"163",115,143101,"Female",22,1,"TEST",1,13,1,583,,,13,13,13,1,1,0,1,0,1,0.419447412068257,"",,,4,0,0,0,0,11,15,4,11,0,"cue1.png","A","easy",28,1.17946611301159,0,"","","","","","",,"","","","","",,,,"",,,,"","","","","",,,"240322_132049","easy","repetition","switch",0.435462977398614,1,1,
"164",115,143101,"Female",22,1,"TEST",1,14,1,583,,,14,14,14,1,1,0,1,0,1,0.405624047399033,"",,,4,0,0,0,0,11,15,4,11,0,"cue1.png","A","easy",18,1.49655422200158,0,"","","","","","",,"","","","","",,,,"",,,,"","","","","",,,"240322_132114","easy","repetition","repetition",0.419447412068257,1,1,
"165",115,143101,"Female",22,1,"TEST",1,15,3,583,,,15,15,15,0.806818181818182,0.5,0.0909090909090909,0.909090909090909,0,0.909090909090909,0.541029842265804,"",,,2,1,0,0,0,10,12,4,11,0,"cue2.png","A","hard",15,1.20419283999945,0,"","","","","","",,"","","","","",,,,"",,,,"","","","","",,,"240322_132140","easy","switch","repetition",0.405624047399033,1,1,
"166",115,143101,"Female",22,1,"TEST",1,16,1,583,,,16,16,16,0.977272727272727,1,0.0909090909090909,0.909090909090909,0,0.909090909090909,0.438023436932902,"",,,4,1,0,0,0,10,14,4,11,0,"cue1.png","A","easy",18,1.93068518099608,0,"","","","","","",,"","","","","",,,,"",,,,"","","","","",,,"240322_132206","hard","switch","switch",0.541029842265804,0.909090909090909,0.806818181818182,
"167",115,143101,"Female",22,1,"TEST",1,17,1,583,,,17,17,17,0.9375,0.75,0,1,0,1,0.430416010666522,"",,,3,0,0,0,0,11,14,4,11,0,"cue1.png","A","easy",16,0.89507896899886,0,"","","","","","",,"","","","","",,,,"",,,,"","","","","",,,"240322_132230","easy","repetition","switch",0.438023436932902,0.909090909090909,0.977272727272727,
"168",115,143101,"Female",22,1,"TEST",1,18,3,583,,,18,18,18,0.698863636363636,0.25,0.0909090909090909,0.909090909090909,0,0.909090909090909,0.482854736935891,"",,,1,1,0,0,0,10,11,4,11,0,"cue2.png","A","hard",21,1.92167623600108,0,"","","","","","",,"","","","","",,,,"",,,,"","","","","",,,"240322_132256","easy","switch","repetition",0.430416010666522,1,0.9375,
"169",115,143101,"Female",22,1,"TEST",1,19,3,583,,,19,19,19,0.204545454545455,0,0.181818181818182,0.818181818181818,0,0.818181818181818,0.531642455397135,"",,,0,2,0,0,0,9,9,4,11,0,"cue2.png","A","hard",17,1.6617739249923,0,"","","","","","",,"","","","","",,,,"",,,,"","","","","",,,"240322_132323","hard","repetition","switch",0.482854736935891,0.909090909090909,0.698863636363636,
"170",115,143101,"Female",22,1,"TEST",1,20,3,583,,,20,20,20,0.225,0,0.1,0.9,0,0.9,0.472207312065681,"",,,0,1,0,0,0,9,9,5,10,0,"cue2.png","A","hard",16,1.42792330199154,0,"","","","","","",,"","","","","",,,,"",,,,"","","","","",,,"240322_132348","hard","repetition","repetition",0.531642455397135,0.818181818181818,0.204545454545455,
"171",115,143101,"Female",22,1,"TEST",1,21,1,583,,,21,21,21,1,1,0,1,0,1,0.429813512332233,"",,,4,0,0,0,0,11,15,4,11,0,"cue1.png","A","easy",23,1.26280880700506,0,"","","","","","",,"","","","","",,,,"",,,,"","","","","",,,"240322_132413","hard","switch","repetition",0.472207312065681,0.9,0.225,
"172",115,143101,"Female",22,1,"TEST",1,22,3,583,,,22,22,22,0.85,0.4,0,1,0,1,0.501247644800848,"",,,2,0,0,0,0,10,12,5,10,0,"cue2.png","A","hard",7,0.930484637996415,0,"","","","","","",,"","","","","",,,,"",,,,"","","","","",,,"240322_132438","easy","switch","switch",0.429813512332233,1,1,
"173",115,143101,"Female",22,1,"TEST",1,23,3,583,,,23,23,23,0.227272727272727,0,0.0909090909090909,0.909090909090909,0,0.909090909090909,0.536991696932819,"",,,0,1,0,0,0,10,10,4,11,0,"cue2.png","A","hard",22,1.05233408100321,0,"","","","","","",,"","","","","",,,,"",,,,"","","","","",,,"240322_132505","hard","repetition","switch",0.501247644800848,1,0.85,
"174",115,143101,"Female",22,1,"TEST",1,24,3,583,,,24,24,24,0.227272727272727,0,0.0909090909090909,0.909090909090909,0,0.909090909090909,0.452767641399987,"",,,0,1,0,0,0,10,10,4,11,0,"cue2.png","A","hard",16,1.04688038099266,0,"","","","","","",,"","","","","",,,,"",,,,"","","","","",,,"240322_132530","hard","repetition","repetition",0.536991696932819,0.909090909090909,0.227272727272727,
"175",115,143101,"Female",22,1,"TEST",1,25,1,583,,,25,25,25,1,1,0,1,0,1,0.424412417865824,"",,,4,0,0,0,0,11,15,4,11,0,"cue1.png","A","easy",16,1.27363169399905,0,"","","","","","",,"","","","","",,,,"",,,,"","","","","",,,"240322_132554","hard","switch","repetition",0.452767641399987,0.909090909090909,0.227272727272727,
"176",115,143101,"Female",22,1,"TEST",1,26,1,583,,,26,26,26,1,1,0,1,0,1,0.385779612133047,"",,,4,0,0,0,0,11,15,4,11,0,"cue1.png","A","easy",21,1.10425216400472,0,"","","","","","",,"","","","","",,,,"",,,,"","","","","",,,"240322_132618","easy","repetition","switch",0.424412417865824,1,1,
"177",115,143101,"Female",22,1,"TEST",1,27,3,583,,,27,27,27,1,1,0,1,0,1,0.517747888733478,"",,,4,0,0,0,0,11,15,4,11,0,"cue2.png","A","hard",17,1.50535890199535,0,"","","","","","",,"","","","","",,,,"",,,,"","","","","",,,"240322_132644","easy","switch","repetition",0.385779612133047,1,1,
"178",115,143101,"Female",22,1,"TEST",1,28,1,583,,,28,28,28,1,1,0,1,0,1,0.443626170932354,"",,,4,0,0,0,0,11,15,4,11,0,"cue1.png","A","easy",11,0.830466319996049,0,"","","","","","",,"","","","","",,,,"",,,,"","","","","",,,"240322_132709","hard","switch","switch",0.517747888733478,1,1,
"179",115,143101,"Female",22,1,"TEST",1,29,1,583,,,29,29,29,0.95,0.8,0,1,0,1,0.426823505469171,"",,,4,0,0,0,0,10,14,5,10,0,"cue1.png","A","easy",22,1.95432035200065,0,"","","","","","",,"","","","","",,,,"",,,,"","","","","",,,"240322_132734","easy","repetition","switch",0.443626170932354,1,1,
"180",115,143101,"Female",22,1,"TEST",1,30,3,583,,,30,30,30,0.7625,0.4,0.1,0.9,0,0.9,0.554590539599303,"",,,2,1,0,0,0,9,11,5,10,0,"cue2.png","A","hard",7,1.05374715600919,0,"","","","","","",,"","","","","",,,,"",,,,"","","","","",,,"240322_132801","easy","switch","repetition",0.426823505469171,1,0.95,
"181",115,143101,"Female",22,1,"TEST",1,31,3,583,,,31,31,31,0.5,0.2,0.2,0.8,0,0.8,0.440227182800299,"",,,1,2,0,0,0,8,9,5,10,0,"cue2.png","A","hard",14,0.747560438001528,0,"","","","","","",,"","","","","",,,,"",,,,"","","","","",,,"240322_132825","hard","repetition","switch",0.554590539599303,0.9,0.7625,
"182",115,143101,"Female",22,1,"TEST",1,32,1,583,,,32,32,32,1,1,0,1,0,1,0.471776940534861,"",,,4,0,0,0,0,11,15,4,11,0,"cue1.png","A","easy",19,1.00421772499976,0,"","","","","","",,"","","","","",,,,"",,,,"","","","","",,,"240322_132850","hard","switch","repetition",0.440227182800299,0.8,0.5,
"183",115,143101,"Female",22,1,"TEST",1,33,1,583,,,33,33,33,1,1,0,1,0,1,0.410161328933706,"",,,5,0,0,0,0,10,15,5,10,0,"cue1.png","A","easy",16,0.770530531997792,0,"","","","","","",,"","","","","",,,,"",,,,"","","","","",,,"240322_132914","easy","repetition","switch",0.471776940534861,1,1,
"184",115,143101,"Female",22,1,"TEST",1,34,1,583,,,34,34,34,0.95,0.8,0,1,0,1,0.450395132934985,"",,,4,0,0,0,0,10,14,5,10,0,"cue1.png","A","easy",16,0.961186465996434,0,"","","","","","",,"","","","","",,,,"",,,,"","","","","",,,"240322_132939","easy","repetition","repetition",0.410161328933706,1,1,
"185",115,143101,"Female",22,1,"TEST",1,35,3,583,,,35,35,35,0.698863636363636,0.25,0.0909090909090909,0.909090909090909,0,0.909090909090909,0.454445358130033,"",,,1,1,0,0,0,10,11,4,11,0,"cue2.png","A","hard",14,0.86015025000961,0,"","","","","","",,"","","","","",,,,"",,,,"","","","","",,,"240322_133003","easy","switch","repetition",0.450395132934985,1,0.95,
"186",115,143101,"Female",22,1,"TEST",1,36,3,583,,,36,36,36,0.698863636363636,0.25,0.0909090909090909,0.909090909090909,0,0.909090909090909,0.447818918135211,"",,,1,1,0,0,0,10,11,4,11,0,"cue2.png","A","hard",0,0.74893012100074,0,"","","","","","",,"","","","","",,,,"",,,,"","","","","",,,"240322_133028","hard","repetition","switch",0.454445358130033,0.909090909090909,0.698863636363636,
"187",115,143101,"Female",22,1,"TEST",1,37,1,583,,,37,37,37,1,1,0,1,0,1,0.447548958466117,"",,,5,0,0,0,0,10,15,5,10,0,"cue1.png","A","easy",0,1.42135165800573,0,"","","","","","",,"","","","","",,,,"",,,,"","","","","",,,"240322_133053","hard","switch","repetition",0.447818918135211,0.909090909090909,0.698863636363636,
"188",115,143101,"Female",22,1,"TEST",1,38,3,583,,,38,38,38,0.0583333333333333,0.2,0.3,0.7,0,0.7,0.392014673132993,"",,,1,3,0,0,0,7,8,5,10,0,"cue2.png","A","hard",0,1.58703181799501,0,"","","","","","",,"","","","","",,,,"",,,,"","","","","",,,"240322_133117","easy","switch","switch",0.447548958466117,1,1,
"189",115,143101,"Female",22,1,"TEST",1,39,3,583,,,39,39,39,0.85,0.4,0,1,0,1,0.4668063047342,"",,,2,0,0,0,0,10,12,5,10,0,"cue2.png","A","hard",0,1.36897539900383,0,"","","","","","",,"","","","","",,,,"",,,,"","","","","",,,"240322_133143","hard","repetition","switch",0.392014673132993,0.7,0.0583333333333333,
"190",115,143101,"Female",22,1,"TEST",1,40,3,583,,,40,40,40,0.698863636363636,0.25,0.0909090909090909,0.909090909090909,0,0.909090909090909,0.411780238799596,"",,,1,1,0,0,0,10,11,4,11,0,"cue2.png","A","hard",0,1.9447304510104,0,"","","","","","",,"","","","","",,,,"",,,,"","","","","",,,"240322_133208","hard","repetition","repetition",0.4668063047342,1,0.85,
"191",115,143101,"Female",22,1,"TEST",1,41,1,583,,,41,41,41,1,1,0,1,0,1,0.358224342133811,"",,,4,0,0,0,0,11,15,4,11,0,"cue1.png","A","easy",0,1.5623539119988,0,"","","","","","",,"","","","","",,,,"",,,,"","","","","",,,"240322_133232","hard","switch","repetition",0.411780238799596,0.909090909090909,0.698863636363636,
"192",115,143101,"Female",22,1,"TEST",1,42,3,583,,,42,42,42,0.5,0.2,0.2,0.8,0,0.8,0.464757282664262,"",,,1,2,0,0,0,8,9,5,10,0,"cue2.png","A","hard",0,2.56276242200693,0,"","","","","","",,"","","","","",,,,"",,,,"","","","","",,,"240322_133259","easy","switch","switch",0.358224342133811,1,1,
"193",115,143101,"Female",22,1,"TEST",1,43,3,583,,,43,44,43,0.875,0.5,0,1,0,1,0.408446024732742,"",,,2,0,0,0,0,11,13,4,11,0,"cue2.png","A","hard",0,0.760557490997599,0,"","","","","","",,"","","","","",,,,"",,,,"","","","","",,,"240322_133330","hard","repetition","switch",0.464757282664262,0.8,0.5,
"194",115,143101,"Female",22,1,"TEST",1,44,1,583,,,44,45,44,1,1,0,1,0,1,0.407617906398567,"",,,4,0,0,0,0,11,15,4,11,0,"cue1.png","A","easy",0,0.995303235002211,0,"","","","","","",,"","","","","",,,,"",,,,"","","","","",,,"240322_133355","hard","switch","repetition",0.408446024732742,1,0.875,
"195",115,143101,"Female",22,1,"TEST",1,45,1,583,,,45,46,45,0.905,0.8,0.1,0.9,0,0.9,0.396437543598586,"",,,4,1,0,0,0,9,13,5,10,0,"cue1.png","A","easy",0,1.19012169999769,0,"","","","","","",,"","","","","",,,,"",,,,"","","","","",,,"240322_133419","easy","repetition","switch",0.407617906398567,1,1,
"196",115,143101,"Female",22,1,"TEST",1,46,1,583,,,46,47,46,0.9375,0.75,0,1,0,1,0.369458953801465,"",,,3,0,0,0,0,11,14,4,11,0,"cue1.png","A","easy",0,1.08720629000163,0,"","","","","","",,"","","","","",,,,"",,,,"","","","","",,,"240322_133442","easy","repetition","repetition",0.396437543598586,0.9,0.905,
"197",115,143101,"Female",22,1,"TEST",1,47,3,583,,,47,48,47,0.698863636363636,0.25,0.0909090909090909,0.909090909090909,0,0.909090909090909,0.475493654202243,"",,,1,1,0,0,0,10,11,4,11,0,"cue2.png","A","hard",0,1.09792327799369,0,"","","","","","",,"","","","","",,,,"",,,,"","","","","",,,"240322_133508","easy","switch","repetition",0.369458953801465,1,0.9375,
"198",115,143101,"Female",22,1,"TEST",1,48,3,583,,,48,49,48,0.892045454545455,0.75,0.0909090909090909,0.909090909090909,0,0.909090909090909,0.37108481300141,"",,,3,1,0,0,0,10,13,4,11,0,"cue2.png","A","hard",0,1.04381536500296,0,"","","","","","",,"","","","","",,,,"",,,,"","","","","",,,"240322_133531","hard","repetition","switch",0.475493654202243,0.909090909090909,0.698863636363636,
"199",115,143101,"Female",22,1,"TEST",1,49,1,583,,,49,50,49,1,1,0,1,0,1,0.396279672866027,"",,,4,0,0,0,0,11,15,4,11,0,"cue1.png","A","easy",0,1.12128783100343,0,"","","","","","",,"","","","","",,,,"",,,,"","","","","",,,"240322_133555","hard","switch","repetition",0.37108481300141,0.909090909090909,0.892045454545455,
"200",115,143101,"Female",22,1,"TEST",1,50,1,583,,,50,51,50,1,1,0,1,0,1,0.389004496734318,"",,,5,0,0,0,0,10,15,5,10,0,"cue1.png","A","easy",0,0.855485701002181,0,"","","","","","",,"","","","","",,,,"",,,,"","","","","",,,"240322_133619","easy","repetition","switch",0.396279672866027,1,1,
"201",42,143515,"Female",22,1,"TEST",1,1,1,788,,,1,1,1,0.9375,0.75,0,1,0,1,0.376937351,"",,,3,0,0,0,0,9,12,4,9,0,"cue2.png","B","easy",73,1.252211482,0,"","","","",,"",,"","","","","",,,,"",,,,"","","","","",,,"240209_113154",,,,,,,
"202",42,143515,"Female",22,1,"TEST",1,2,3,788,,,2,2,2,0.791666667,0.5,0.111111111,0.888888889,0,0.888888889,0.343667598,"",,,2,1,0,0,0,8,10,4,9,0,"cue1.png","B","hard",38,0.467804235,0,"","","","",,"",,"","","","","",,,,"",,,,"","","","","",,,"240209_113216","easy","switch",,0.376937351,1,0.9375,
"203",42,143515,"Female",22,1,"TEST",1,3,3,788,,,3,3,3,0.194444444,0,0.222222222,0.777777778,0,0.777777778,0.43423599,"",,,0,2,0,0,0,7,7,4,9,0,"cue1.png","B","hard",46,1.369069684,0,"","","","",,"",,"","","","","",,,,"",,,,"","","","","",,,"240209_113239","hard","repetition","switch",0.343667598,0.888888889,0.791666667,
"204",42,143515,"Female",22,1,"TEST",1,4,3,788,,,4,4,4,0.875,0.5,0,1,0,1,0.397029434,"",,,2,0,0,0,0,9,11,4,9,0,"cue1.png","B","hard",41,0.883846305,0,"","","","",,"",,"","","","","",,,,"",,,,"","","","","",,,"240209_113301","hard","repetition","repetition",0.43423599,0.777777778,0.194444444,
"205",42,143515,"Female",22,1,"TEST",1,5,1,788,,,5,5,5,0.9375,0.75,0,1,0,1,0.39981635,"",,,3,0,0,0,0,9,12,4,9,0,"cue2.png","B","easy",67,0.819990829,0,"","","","",,"",,"","","","","",,,,"",,,,"","","","","",,,"240209_113323","hard","switch","repetition",0.397029434,1,0.875,
"206",42,143515,"Female",22,1,"TEST",1,6,3,788,,,6,6,6,0.791666667,0.5,0.111111111,0.888888889,0,0.888888889,0.370150421,"",,,2,1,0,0,0,8,10,4,9,0,"cue1.png","B","hard",38,1.167642908,0,"","","","",,"",,"","","","","",,,,"",,,,"","","","","",,,"240209_113345","easy","switch","switch",0.39981635,1,0.9375,
"207",42,143515,"Female",22,1,"TEST",1,7,3,788,,,7,7,7,0.791666667,0.5,0.111111111,0.888888889,0,0.888888889,0.370065112,"",,,2,1,0,0,0,8,10,4,9,0,"cue1.png","B","hard",41,0.734018597,0,"","","","",,"",,"","","","","",,,,"",,,,"","","","","",,,"240209_113407","hard","repetition","switch",0.370150421,0.888888889,0.791666667,
"208",42,143515,"Female",22,1,"TEST",1,8,1,788,,,8,8,8,1,1,0,1,0,1,0.398217759,"",,,4,0,0,0,0,9,13,4,9,0,"cue2.png","B","easy",59,1.382553555,0,"","","","",,"",,"","","","","",,,,"",,,,"","","","","",,,"240209_113429","hard","switch","repetition",0.370065112,0.888888889,0.791666667,
"209",42,143515,"Female",22,1,"TEST",1,9,1,788,,,9,9,9,0.972222222,1,0.111111111,0.888888889,0,0.888888889,0.405040422,"",,,4,1,0,0,0,8,12,4,9,0,"cue2.png","B","easy",60,0.550609308,0,"","","","",,"",,"","","","","",,,,"",,,,"","","","","",,,"240209_113451","easy","repetition","switch",0.398217759,1,1,
"210",42,143515,"Female",22,1,"TEST",1,10,3,788,,,10,10,10,0.791666667,0.5,0.111111111,0.888888889,0,0.888888889,0.331728102,"",,,2,1,0,0,0,8,10,4,9,0,"cue1.png","B","hard",31,0.367632284,0,"","","","",,"",,"","","","","",,,,"",,,,"","","","","",,,"240209_113512","easy","switch","repetition",0.405040422,0.888888889,0.972222222,
"211",42,143515,"Female",22,1,"TEST",1,11,1,788,,,11,11,11,1,1,0,1,0,1,0.356435238,"",,,4,0,0,0,0,9,13,4,9,0,"cue2.png","B","easy",60,0.650707928,0,"","","","",,"",,"","","","","",,,,"",,,,"","","","","",,,"240209_113534","hard","switch","switch",0.331728102,0.888888889,0.791666667,
"212",42,143515,"Female",22,1,"TEST",1,12,3,788,,,12,12,12,0.875,0.5,0,1,0,1,0.364201557,"",,,2,0,0,0,0,9,11,4,9,0,"cue1.png","B","hard",36,0.350849967,0,"","","","",,"",,"","","","","",,,,"",,,,"","","","","",,,"240209_113555","easy","switch","switch",0.356435238,1,1,
"213",42,143515,"Female",22,1,"TEST",1,13,1,788,,,13,13,13,0.9375,0.75,0,1,0,1,0.341368298,"",,,3,0,0,0,0,9,12,4,9,0,"cue2.png","B","easy",53,0.384912635,0,"","","","",,"",,"","","","","",,,,"",,,,"","","","","",,,"240209_113616","hard","switch","switch",0.364201557,1,0.875,
"214",42,143515,"Female",22,1,"TEST",1,14,3,788,,,14,14,14,0.673611111,0.25,0.111111111,0.888888889,0,0.888888889,0.326670064,"",,,1,1,0,0,0,8,9,4,9,0,"cue1.png","B","hard",41,0.301894738,0,"","","","",,"",,"","","","","",,,,"",,,,"","","","","",,,"240209_113636","easy","switch","switch",0.341368298,1,0.9375,
"215",42,143515,"Female",22,1,"TEST",1,15,1,788,,,15,15,15,0.791666667,0.5,0.111111111,0.888888889,0,0.888888889,0.406965959,"",,,2,1,0,0,0,8,10,4,9,0,"cue2.png","B","easy",63,1.052497083,0,"","","","",,"",,"","","","","",,,,"",,,,"","","","","",,,"240209_113659","hard","switch","switch",0.326670064,0.888888889,0.673611111,
"216",42,143515,"Female",22,1,"TEST",1,16,1,788,,,16,16,16,0.875,0.5,0,1,0,1,0.447548788,"",,,2,0,0,0,0,9,11,4,9,0,"cue2.png","B","easy",47,1.199347685,0,"","","","",,"",,"","","","","",,,,"",,,,"","","","","",,,"240209_113722","easy","repetition","switch",0.406965959,0.888888889,0.791666667,
"217",42,143515,"Female",22,1,"TEST",1,17,3,788,,,17,17,17,0.9375,0.75,0,1,0,1,0.352369169,"",,,3,0,0,0,0,9,12,4,9,0,"cue1.png","B","hard",46,1.768438072,0,"","","","",,"",,"","","","","",,,,"",,,,"","","","","",,,"240209_113744","easy","switch","repetition",0.447548788,1,0.875,
"218",42,143515,"Female",22,1,"TEST",1,18,3,788,,,18,18,18,0.534722222,0.25,0.222222222,0.777777778,0,0.777777778,0.27518635,"",,,1,2,0,0,0,7,8,4,9,0,"cue1.png","B","hard",59,0.636981588,0,"","","","",,"",,"","","","","",,,,"",,,,"","","","","",,,"240209_113804","hard","repetition","switch",0.352369169,1,0.9375,
"219",42,143515,"Female",22,1,"TEST",1,19,1,788,,,19,19,19,1,1,0,1,0,1,0.377651257,"",,,4,0,0,0,0,9,13,4,9,0,"cue2.png","B","easy",52,0.651110318,0,"","","","",,"",,"","","","","",,,,"",,,,"","","","","",,,"240209_113826","hard","switch","repetition",0.27518635,0.777777778,0.534722222,
"220",42,143515,"Female",22,1,"TEST",1,20,1,788,,,20,20,20,1,1,0,1,0,1,0.348920982,"",,,4,0,0,0,0,9,13,4,9,0,"cue2.png","B","easy",54,0.785819688,0,"","","","",,"",,"","","","","",,,,"",,,,"","","","","",,,"240209_113847","easy","repetition","switch",0.377651257,1,1,
"221",42,143515,"Female",22,1,"TEST",1,21,1,788,,,21,21,21,0.9375,0.75,0,1,0,1,0.371040378,"",,,3,0,0,0,0,9,12,4,9,0,"cue2.png","B","easy",54,1.451552155,0,"","","","",,"",,"","","","","",,,,"",,,,"","","","","",,,"240209_113910","easy","repetition","repetition",0.348920982,1,1,
"222",42,143515,"Female",22,1,"TEST",1,22,3,788,,,22,22,22,0.791666667,0.5,0.111111111,0.888888889,0,0.888888889,0.340430559,"",,,2,1,0,0,0,8,10,4,9,0,"cue1.png","B","hard",40,1.704462926,0,"","","","",,"",,"","","","","",,,,"",,,,"","","","","",,,"240209_113932","easy","switch","repetition",0.371040378,1,0.9375,
"223",42,143515,"Female",22,1,"TEST",1,23,1,788,,,23,23,23,1,1,0,1,0,1,0.34288059,"",,,4,0,0,0,0,9,13,4,9,0,"cue2.png","B","easy",57,1.272705042,0,"","","","",,"",,"","","","","",,,,"",,,,"","","","","",,,"240209_113954","hard","switch","switch",0.340430559,0.888888889,0.791666667,
"224",42,143515,"Female",22,1,"TEST",1,24,3,788,,,24,24,24,0.166666667,0,0.333333333,0.666666667,0,0.666666667,0.367215387,"",,,0,3,0,0,0,6,6,4,9,0,"cue1.png","B","hard",42,0.750446775,0,"","","","",,"",,"","","","","",,,,"",,,,"","","","","",,,"240209_114016","easy","switch","switch",0.34288059,1,1,
"225",42,143515,"Female",22,1,"TEST",1,25,3,788,,,25,25,25,0.875,0.5,0,1,0,1,0.443726713,"",,,2,0,0,0,0,9,11,4,9,0,"cue1.png","B","hard",58,1.021277994,0,"","","","",,"",,"","","","","",,,,"",,,,"","","","","",,,"240209_114038","hard","repetition","switch",0.367215387,0.666666667,0.166666667,
"226",42,143515,"Female",22,1,"TEST",1,26,1,788,,,26,26,26,1,1,0,1,0,1,0.368633189,"",,,4,0,0,0,0,9,13,4,9,0,"cue2.png","B","easy",47,2.136755235,0,"","","","",,"",,"","","","","",,,,"",,,,"","","","","",,,"240209_114101","hard","switch","repetition",0.443726713,1,0.875,
"227",42,143515,"Female",22,1,"TEST",1,27,1,788,,,27,27,27,0.9375,0.75,0,1,0.076923077,0.923076923,0.333297531,"",,,3,0,1,0,1,8,11,4,9,0,"cue2.png","B","easy",59,1.718419003,0,"","","","",,"",,"","","","","",,,,"",,,,"","","","","",,,"240209_114125","easy","repetition","switch",0.368633189,1,1,
"228",42,143515,"Female",22,1,"TEST",1,28,3,788,,,28,28,28,0.791666667,0.5,0.111111111,0.888888889,0,0.888888889,0.270472565,"",,,2,1,0,0,0,8,10,4,9,0,"cue1.png","B","hard",37,1.102401618,0,"","","","",,"",,"","","","","",,,,"",,,,"","","","","",,,"240209_114146","easy","switch","repetition",0.333297531,0.923076923,0.9375,
"229",42,143515,"Female",22,1,"TEST",1,29,1,788,,,29,29,29,0.9375,0.75,0,1,0,1,0.435230665,"",,,3,0,0,0,0,9,12,4,9,0,"cue2.png","B","easy",61,2.286690854,0,"","","","",,"",,"","","","","",,,,"",,,,"","","","","",,,"240209_114210","hard","switch","switch",0.270472565,0.888888889,0.791666667,
"230",42,143515,"Female",22,1,"TEST",1,30,1,788,,,30,30,30,0.9375,0.75,0,1,0,1,0.406320098,"",,,3,0,0,0,0,9,12,4,9,0,"cue2.png","B","easy",61,1.969869212,0,"","","","",,"",,"","","","","",,,,"",,,,"","","","","",,,"240209_114234","easy","repetition","switch",0.435230665,1,0.9375,
"231",42,143515,"Female",22,1,"TEST",1,31,3,788,,,31,31,31,0.673611111,0.25,0.111111111,0.888888889,0,0.888888889,0.297224438,"",,,1,1,0,0,0,8,9,4,9,0,"cue1.png","B","hard",24,0.917777855,0,"","","","",,"",,"","","","","",,,,"",,,,"","","","","",,,"240209_114254","easy","switch","repetition",0.406320098,1,0.9375,
"232",42,143515,"Female",22,1,"TEST",1,32,1,788,,,32,32,32,1,1,0,1,0,1,0.382759477,"",,,4,0,0,0,0,9,13,4,9,0,"cue2.png","B","easy",57,1.467134364,0,"","","","",,"",,"","","","","",,,,"",,,,"","","","","",,,"240209_114317","hard","switch","switch",0.297224438,0.888888889,0.673611111,
"233",42,143515,"Female",22,1,"TEST",1,33,3,788,,,33,33,33,0.875,0.5,0,1,0,1,0.309071945,"",,,2,0,0,0,0,9,11,4,9,0,"cue1.png","B","hard",22,1.083740442,0,"","","","",,"",,"","","","","",,,,"",,,,"","","","","",,,"240209_114338","easy","switch","switch",0.382759477,1,1,
"234",42,143515,"Female",22,1,"TEST",1,34,3,788,,,34,34,34,0.194444444,0,0.222222222,0.777777778,0,0.777777778,0.283396871,"",,,0,2,0,0,0,7,7,4,9,0,"cue1.png","B","hard",24,1.832759716,0,"","","","",,"",,"","","","","",,,,"",,,,"","","","","",,,"240209_114400","hard","repetition","switch",0.309071945,1,0.875,
"235",42,143515,"Female",22,1,"TEST",1,35,3,788,,,35,35,35,0.875,0.5,0,1,0,1,0.240408699,"",,,2,0,0,0,0,9,11,4,9,0,"cue1.png","B","hard",20,1.150475381,0,"","","","",,"",,"","","","","",,,,"",,,,"","","","","",,,"240209_114420","hard","repetition","repetition",0.283396871,0.777777778,0.194444444,
"236",42,143515,"Female",22,1,"TEST",1,36,1,788,,,36,36,36,0.9375,0.75,0,1,0,1,0.304351287,"",,,3,0,0,0,0,9,12,4,9,0,"cue2.png","B","easy",62,0.933979225,0,"","","","",,"",,"","","","","",,,,"",,,,"","","","","",,,"240209_114441","hard","switch","repetition",0.240408699,1,0.875,
"237",42,143515,"Female",22,1,"TEST",1,37,3,788,,,37,37,37,0.194444444,0,0.222222222,0.777777778,0,0.777777778,0.250681569,"",,,0,2,0,0,0,7,7,4,9,0,"cue1.png","B","hard",16,0.385881469,0,"","","","",,"",,"","","","","",,,,"",,,,"","","","","",,,"240209_114500","easy","switch","switch",0.304351287,1,0.9375,
"238",42,143515,"Female",22,1,"TEST",1,38,1,788,,,38,38,38,1,1,0,1,0,1,0.332682078,"",,,4,0,0,0,0,9,13,4,9,0,"cue2.png","B","easy",60,0.536348987,0,"","","","",,"",,"","","","","",,,,"",,,,"","","","","",,,"240209_114521","hard","switch","switch",0.250681569,0.777777778,0.194444444,
"239",42,143515,"Female",22,1,"TEST",1,39,1,788,,,39,39,39,0.972222222,1,0.111111111,0.888888889,0,0.888888889,0.344333219,"",,,4,1,0,0,0,8,12,4,9,0,"cue2.png","B","easy",74,0.920867179,0,"","","","",,"",,"","","","","",,,,"",,,,"","","","","",,,"240209_114543","easy","repetition","switch",0.332682078,1,1,
"240",42,143515,"Female",22,1,"TEST",1,40,3,788,,,40,40,40,0.9375,0.75,0,1,0,1,0.320346996,"",,,3,0,0,0,0,9,12,4,9,0,"cue1.png","B","hard",4,1.01844201,0,"","","","",,"",,"","","","","",,,,"",,,,"","","","","",,,"240209_114604","easy","switch","repetition",0.344333219,0.888888889,0.972222222,
"241",42,143515,"Female",22,1,"TEST",1,41,3,788,,,41,41,41,0.534722222,0.25,0.222222222,0.777777778,0,0.777777778,0.341262816,"",,,1,2,0,0,0,7,8,4,9,0,"cue1.png","B","hard",21,2.047680616,0,"","","","",,"",,"","","","","",,,,"",,,,"","","","","",,,"240209_114627","hard","repetition","switch",0.320346996,1,0.9375,
"242",42,143515,"Female",22,1,"TEST",1,42,1,788,,,42,42,42,0.041666667,0.25,0.333333333,0.666666667,0,0.666666667,0.411628394,"",,,1,3,0,0,0,6,7,4,9,0,"cue2.png","B","easy",77,0.786248073,0,"","","","",,"",,"","","","","",,,,"",,,,"","","","","",,,"240209_114649","hard","switch","repetition",0.341262816,0.777777778,0.534722222,
"243",42,143515,"Female",22,1,"TEST",1,43,3,788,,,43,43,43,0.534722222,0.25,0.222222222,0.777777778,0,0.777777778,0.364151121,"",,,1,2,0,0,0,7,8,4,9,0,"cue1.png","B","hard",12,1.08454827,0,"","","","",,"",,"","","","","",,,,"",,,,"","","","","",,,"240209_114711","easy","switch","switch",0.411628394,0.666666667,0.041666667,
"244",42,143515,"Female",22,1,"TEST",1,44,1,788,,,44,45,44,1,1,0,1,0,1,0.371195028,"",,,4,0,0,0,0,9,13,4,9,0,"cue2.png","B","easy",70,0.383640604,0,"","","","",,"",,"","","","","",,,,"",,,,"","","","","",,,"240209_114740","hard","switch","switch",0.364151121,0.777777778,0.534722222,
"245",42,143515,"Female",22,1,"TEST",1,45,3,788,,,45,46,45,0.791666667,0.5,0.111111111,0.888888889,0,0.888888889,0.263389833,"",,,2,1,0,0,0,8,10,4,9,0,"cue1.png","B","hard",15,1.134037681,0,"","","","",,"",,"","","","","",,,,"",,,,"","","","","",,,"240209_114801","easy","switch","switch",0.371195028,1,1,
"246",42,143515,"Female",22,1,"TEST",1,46,3,788,,,46,47,46,0.166666667,0,0.333333333,0.666666667,0,0.666666667,0.366902995,"",,,0,3,0,0,0,6,6,4,9,0,"cue1.png","B","hard",11,2.037320045,0,"","","","",,"",,"","","","","",,,,"",,,,"","","","","",,,"240209_114824","hard","repetition","switch",0.263389833,0.888888889,0.791666667,
"247",42,143515,"Female",22,1,"TEST",1,47,1,788,,,47,48,47,0.875,0.5,0,1,0,1,0.419408391,"",,,2,0,0,0,0,9,11,4,9,0,"cue2.png","B","easy",62,1.101448049,0,"","","","",,"",,"","","","","",,,,"",,,,"","","","","",,,"240209_114846","hard","switch","repetition",0.366902995,0.666666667,0.166666667,
"248",42,143515,"Female",22,1,"TEST",1,48,1,788,,,48,49,48,0.9375,0.75,0,1,0,1,0.371556025,"",,,3,0,0,0,0,9,12,4,9,0,"cue2.png","B","easy",72,1.535337911,0,"","","","",,"",,"","","","","",,,,"",,,,"","","","","",,,"240209_114909","easy","repetition","switch",0.419408391,1,0.875,
"249",42,143515,"Female",22,1,"TEST",1,49,3,788,,,49,50,49,0.791666667,0.5,0.111111111,0.888888889,0,0.888888889,0.456020398,"",,,2,1,0,0,0,8,10,4,9,0,"cue1.png","B","hard",11,1.217690576,0,"","","","",,"",,"","","","","",,,,"",,,,"","","","","",,,"240209_114932","easy","switch","repetition",0.371556025,1,0.9375,
"250",42,143515,"Female",22,1,"TEST",1,50,1,788,,,50,51,50,0.9375,0.75,0,1,0,1,0.491123917,"",,,3,0,0,0,0,9,12,4,9,0,"cue2.png","B","easy",72,0.919124948,0,"","","","",,"",,"","","","","",,,,"",,,,"","","","","",,,"240209_114955","hard","switch","switch",0.456020398,0.888888889,0.791666667,
"251",99,145813,"Female",22,1,"TEST",1,1,1,250,,,1,1,1,1,1,0,1,0,1,0.586038943102176,"",,,5,0,0,0,0,15,20,5,15,0,"cue1.png","A","easy",0,1.36038922599982,0,"","","","","","",,"","","","","",,,,"",,,,"","","","","",,,"240318_151707",,,,,,,
"252",99,145813,"Female",22,1,"TEST",1,2,3,250,,,2,2,2,0.541666666666667,0.166666666666667,0.142857142857143,0.833333333333333,0.15,0.707142857142857,0.665357461639146,"",,,1,2,3,1,2,10,11,6,14,0,"cue2.png","A","hard",0,2.03127801499795,0,"","","","","","",,"","","","","",,,,"",,,,"","","","","",,,"240318_151743","easy","switch",,0.586038943102176,1,1,
"253",99,145813,"Female",22,1,"TEST",1,3,1,250,,,3,4,3,0.95,0.8,0,1,0.05,0.95,0.448637506469631,"",,,4,0,1,0,1,14,18,5,15,0,"cue1.png","A","easy",0,0.830887623975286,0,"","","","","","",,"","","","","",,,,"",,,,"","","","","",,,"240318_151821","hard","switch","switch",0.665357461639146,0.707142857142857,0.541666666666667,
"254",99,145813,"Female",22,1,"TEST",1,4,3,250,,,4,7,4,0.675,0.4,0.2,0.769230769230769,0.15,0.65,0.542990850827397,"",,,2,3,3,1,2,10,12,5,15,0,"cue2.png","A","hard",20,1.91408306898666,0,"","","","","","",,"","","","","",,,,"",,,,"","","","","",,,"240318_151911","easy","switch","switch",0.448637506469631,0.95,0.95,
"255",99,145813,"Female",22,1,"TEST",1,5,3,250,,,5,8,5,0.733333333333333,0.4,0.133333333333333,0.818181818181818,0.2,0.666666666666667,0.605438053682519,"",,,2,2,4,0,4,9,11,5,15,0,"cue2.png","A","hard",13,1.99579735100269,0,"","","","","","",,"","","","","",,,,"",,,,"","","","","",,,"240318_151947","hard","repetition","switch",0.542990850827397,0.65,0.675,
"256",99,145813,"Female",22,1,"TEST",1,6,1,250,,,6,9,6,1,1,0,1,0,1,0.550517634449352,"",,,5,0,0,0,0,15,20,5,15,0,"cue1.png","A","easy",0,1.77860071501345,0,"","","","","","",,"","","","","",,,,"",,,,"","","","","",,,"240318_152019","hard","switch","repetition",0.605438053682519,0.666666666666667,0.733333333333333,
"257",99,145813,"Female",22,1,"TEST",1,7,3,250,,,7,10,7,0.196428571428571,0,0.214285714285714,0.75,0.15,0.635714285714286,0.556378028352115,"",,,0,3,3,1,2,9,9,6,14,0,"cue2.png","A","hard",18,2.78356760600582,0,"","","","","","",,"","","","","",,,,"",,,,"","","","","",,,"240318_152054","easy","switch","switch",0.550517634449352,1,1,
"258",99,145813,"Female",22,1,"TEST",1,8,3,250,,,8,11,8,0.7,0.2,0.0666666666666667,0.928571428571429,0.15,0.783333333333333,0.655978024707806,"",,,1,1,3,2,1,13,14,5,15,0,"cue2.png","A","hard",20,2.25653260698891,0,"","","","","","",,"","","","","",,,,"",,,,"","","","","",,,"240318_152130","hard","repetition","switch",0.556378028352115,0.635714285714286,0.196428571428571,
"259",99,145813,"Female",22,1,"TEST",1,9,1,250,,,9,12,9,1,1,0,1,0,1,0.434455735549273,"",,,5,0,0,0,0,15,20,5,15,0,"cue1.png","A","easy",0,1.34659836400533,0,"","","","","","",,"","","","","",,,,"",,,,"","","","","",,,"240318_152200","hard","switch","repetition",0.655978024707806,0.783333333333333,0.7,
"260",99,145813,"Female",22,1,"TEST",1,10,1,250,,,10,13,10,0.9,0.6,0,1,0,1,0.446850121302123,"",,,3,0,0,0,0,15,18,5,15,0,"cue1.png","A","easy",0,1.07196675799787,0,"","","","","","",,"","","","","",,,,"",,,,"","","","","",,,"240318_152229","easy","repetition","switch",0.434455735549273,1,1,
"261",99,145813,"Female",22,1,"TEST",1,11,3,250,,,11,15,11,0.875,0.5,0,1,0.1,0.9,0.557158017445343,"",,,3,0,2,1,1,13,16,6,14,0,"cue2.png","A","hard",12,2.68773151398636,0,"","","","","","",,"","","","","",,,,"",,,,"","","","","",,,"240318_152312","easy","switch","repetition",0.446850121302123,1,0.9,
"262",99,145813,"Female",22,1,"TEST",1,12,1,250,,,12,16,12,0.9,0.6,0,1,0.2,0.8,0.608744992368884,"",,,3,0,4,2,2,13,16,5,15,0,"cue1.png","A","easy",0,2.01301678598975,0,"","","","","","",,"","","","","",,,,"",,,,"","","","","",,,"240318_152347","hard","switch","switch",0.557158017445343,0.9,0.875,
"263",99,145813,"Female",22,1,"TEST",1,13,1,250,,,13,17,13,0.958333333333333,0.833333333333333,0,1,0.1,0.9,0.495252078334387,"",,,5,0,2,1,1,13,18,6,14,0,"cue1.png","A","easy",0,2.08866074300022,0,"","","","","","",,"","","","","",,,,"",,,,"","","","","",,,"240318_152420","easy","repetition","switch",0.608744992368884,0.8,0.9,
"264",99,145813,"Female",22,1,"TEST",1,14,1,250,,,14,19,14,1,1,0,1,0,1,0.529204008499801,"",,,5,0,0,0,0,15,20,5,15,0,"cue1.png","A","easy",35,1.91499895599554,0,"","","","","","",,"","","","","",,,,"",,,,"","","","","",,,"240318_152500","easy","repetition","repetition",0.495252078334387,0.9,0.958333333333333,
"265",99,145813,"Female",22,1,"TEST",1,15,3,250,,,15,20,15,0.714285714285714,0.5,0.214285714285714,0.727272727272727,0.2,0.585714285714286,0.750891361118192,"",,,3,3,4,1,3,8,11,6,14,0,"cue2.png","A","hard",37,2.54685360498843,0,"","","","","","",,"","","","","",,,,"",,,,"","","","","",,,"240318_152539","easy","switch","repetition",0.529204008499801,1,1,
"266",99,145813,"Female",22,1,"TEST",1,16,1,250,,,16,21,16,0.9,0.6,0,1,0,1,0.441916410402337,"",,,3,0,0,0,0,15,18,5,15,0,"cue1.png","A","easy",0,2.26242328999797,0,"","","","","","",,"","","","","",,,,"",,,,"","","","","",,,"240318_152609","hard","switch","switch",0.750891361118192,0.585714285714286,0.714285714285714,
"267",99,145813,"Female",22,1,"TEST",1,17,1,250,,,17,22,17,0.92,0.8,0.0666666666666667,0.933333333333333,0,0.933333333333333,0.504714224250347,"",,,4,1,0,0,0,14,18,5,15,0,"cue1.png","A","easy",0,2.43072594999103,0,"","","","","","",,"","","","","",,,,"",,,,"","","","","",,,"240318_152642","easy","repetition","switch",0.441916410402337,1,0.9,
"268",99,145813,"Female",22,1,"TEST",1,18,3,250,,,18,24,18,0.875,0.666666666666667,0.0714285714285714,0.909090909090909,0.15,0.778571428571429,0.602866384705789,"",,,4,1,3,0,3,10,14,6,14,0,"cue2.png","A","hard",19,1.52342290899833,0,"","","","","","",,"","","","","",,,,"",,,,"","","","","",,,"240318_152724","easy","switch","repetition",0.504714224250347,0.933333333333333,0.92,
"269",99,145813,"Female",22,1,"TEST",1,19,3,250,,,19,25,19,0.6,0.2,0.133333333333333,0.818181818181818,0.2,0.666666666666667,0.502199841064794,"",,,1,2,4,0,4,9,10,5,15,0,"cue2.png","A","hard",36,2.51349290998769,0,"","","","","","",,"","","","","",,,,"",,,,"","","","","",,,"240318_152758","hard","repetition","switch",0.602866384705789,0.778571428571429,0.875,
"270",99,145813,"Female",22,1,"TEST",1,20,3,250,,,20,26,20,0.875,0.5,0,1,0.15,0.85,0.588698832532185,"",,,3,0,3,0,3,11,14,6,14,0,"cue2.png","A","hard",0,2.94739696400939,0,"","","","","","",,"","","","","",,,,"",,,,"","","","","",,,"240318_152834","hard","repetition","repetition",0.502199841064794,0.666666666666667,0.6,
"271",99,145813,"Female",22,1,"TEST",1,21,1,250,,,21,28,21,0.92,0.8,0.0666666666666667,0.933333333333333,0,0.933333333333333,0.497169792749628,"",,,4,1,0,0,0,14,18,5,15,0,"cue1.png","A","easy",0,1.88345201002085,0,"","","","","","",,"","","","","",,,,"",,,,"","","","","",,,"240318_152914","hard","switch","repetition",0.588698832532185,0.85,0.875,
"272",99,145813,"Female",22,1,"TEST",1,22,3,250,,,22,30,22,0.875,0.5,0,1,0.15,0.85,0.562000862060813,"",,,3,0,3,1,2,12,15,6,14,0,"cue2.png","A","hard",22,2.50248454700341,0,"","","","","","",,"","","","","",,,,"",,,,"","","","","",,,"240318_152956","easy","switch","switch",0.497169792749628,0.933333333333333,0.92,
"273",99,145813,"Female",22,1,"TEST",1,23,3,250,,,23,32,23,0.660714285714286,0.5,0.285714285714286,0.692307692307692,0.15,0.564285714285714,0.586483592590358,"",,,3,4,3,2,1,9,12,6,14,0,"cue2.png","A","hard",6,2.98093884499394,0,"","","","","","",,"","","","","",,,,"",,,,"","","","","",,,"240318_153040","hard","repetition","switch",0.562000862060813,0.85,0.875,
"274",99,145813,"Female",22,1,"TEST",1,24,3,250,,,24,34,24,0.833333333333333,0.666666666666667,0.142857142857143,0.846153846153846,0.1,0.757142857142857,0.589281510330491,"",,,4,2,2,1,1,11,15,6,14,0,"cue2.png","A","hard",3,2.38796293499763,0,"","","","","","",,"","","","","",,,,"",,,,"","","","","",,,"240318_153123","hard","repetition","repetition",0.586483592590358,0.564285714285714,0.660714285714286,
"275",99,145813,"Female",22,1,"TEST",1,25,1,250,,,25,35,25,0.92,0.8,0.0666666666666667,0.928571428571429,0.05,0.883333333333333,0.479090913528221,"",,,4,1,1,0,1,13,17,5,15,0,"cue1.png","A","easy",0,2.84674546300084,0,"","","","","","",,"","","","","",,,,"",,,,"","","","","",,,"240318_153156","hard","switch","repetition",0.589281510330491,0.757142857142857,0.833333333333333,
"276",99,145813,"Female",22,1,"TEST",1,26,1,250,,,26,36,26,0.958333333333333,0.833333333333333,0,1,0.05,0.95,0.550987885312153,"",,,5,0,1,1,0,14,19,6,14,0,"cue1.png","A","easy",2,2.3409062110004,0,"","","","","","",,"","","","","",,,,"",,,,"","","","","",,,"240318_153229","easy","repetition","switch",0.479090913528221,0.883333333333333,0.92,
"277",99,145813,"Female",22,1,"TEST",1,27,3,250,,,27,37,27,0.7,0.2,0.0666666666666667,0.933333333333333,0.05,0.883333333333333,0.537013350108234,"",,,1,1,1,1,0,14,15,5,15,0,"cue2.png","A","hard",60,2.19708136600093,0,"","","","","","",,"","","","","",,,,"",,,,"","","","","",,,"240318_153302","easy","switch","repetition",0.550987885312153,0.95,0.958333333333333,
"278",99,145813,"Female",22,1,"TEST",1,28,1,250,,,28,38,28,0.958333333333333,0.833333333333333,0,1,0,1,0.415997081148089,"",,,5,0,0,0,0,14,19,6,14,0,"cue1.png","A","easy",0,1.89478404697729,0,"","","","","","",,"","","","","",,,,"",,,,"","","","","",,,"240318_153332","hard","switch","switch",0.537013350108234,0.883333333333333,0.7,
"279",99,145813,"Female",22,1,"TEST",1,29,1,250,,,29,39,29,0.92,0.8,0.0666666666666667,0.933333333333333,0,0.933333333333333,0.369136921800964,"",,,4,1,0,0,0,14,18,5,15,0,"cue1.png","A","easy",5,2.53600214599282,0,"","","","","","",,"","","","","",,,,"",,,,"","","","","",,,"240318_153402","easy","repetition","switch",0.415997081148089,1,0.958333333333333,
"280",99,145813,"Female",22,1,"TEST",1,30,3,250,,,30,40,30,0.541666666666667,0.166666666666667,0.142857142857143,0.833333333333333,0.15,0.707142857142857,0.520651306294466,"",,,1,2,3,1,2,10,11,6,14,0,"cue2.png","A","hard",5,2.12866626901086,0,"","","","","","",,"","","","","",,,,"",,,,"","","","","",,,"240318_153435","easy","switch","repetition",0.369136921800964,0.933333333333333,0.92,
"281",99,145813,"Female",22,1,"TEST",1,31,3,250,,,31,42,31,0.619047619047619,0.333333333333333,0.214285714285714,0.769230769230769,0.15,0.635714285714286,0.680133653943331,"",,,2,3,3,2,1,10,12,6,14,0,"cue2.png","A","hard",7,0.8691537459963,0,"","","","","","",,"","","","","",,,,"",,,,"","","","","",,,"240318_153519","hard","repetition","switch",0.520651306294466,0.707142857142857,0.541666666666667,
"282",99,145813,"Female",22,1,"TEST",1,32,1,250,,,32,45,32,0.9,0.6,0,1,0,1,0.388830139904167,"",,,3,0,0,0,0,15,18,5,15,0,"cue1.png","A","easy",2,1.23120585401193,0,"","","","","","",,"","","","","",,,,"",,,,"","","","","",,,"240318_153603","hard","switch","repetition",0.680133653943331,0.635714285714286,0.619047619047619,
"283",99,145813,"Female",22,1,"TEST",1,33,1,250,,,33,46,33,0.875,0.5,0,1,0,1,0.453134638952906,"",,,3,0,0,0,0,14,17,6,14,0,"cue1.png","A","easy",0,1.91932195200934,0,"","","","","","",,"","","","","",,,,"",,,,"","","","","",,,"240318_153634","easy","repetition","switch",0.388830139904167,1,0.9,
"284",99,145813,"Female",22,1,"TEST",1,34,1,250,,,34,47,34,0.95,0.8,0,1,0,1,0.40067230884888,"",,,4,0,0,0,0,15,19,5,15,0,"cue1.png","A","easy",1,2.61413010000251,0,"","","","","","",,"","","","","",,,,"",,,,"","","","","",,,"240318_153704","easy","repetition","repetition",0.453134638952906,1,0.875,
"285",99,145813,"Female",22,1,"TEST",1,35,3,250,,,35,49,35,0.9,0.6,0,1,0.05,0.95,0.574452552526246,"",,,3,0,1,1,0,15,18,5,15,0,"cue2.png","A","hard",36,0.594877736992203,0,"","","","","","",,"","","","","",,,,"",,,,"","","","","",,,"240318_153744","easy","switch","repetition",0.40067230884888,1,0.95,
"286",99,145813,"Female",22,1,"TEST",1,36,3,250,,,36,50,36,0.5,0.2,0.2,0.8,0,0.8,0.631412223402003,"",,,1,3,0,0,0,12,13,5,15,0,"cue2.png","A","hard",50,1.48886956999195,0,"","","","","","",,"","","","","",,,,"",,,,"","","","","",,,"240318_153818","hard","repetition","switch",0.574452552526246,0.95,0.9,
"287",99,145813,"Female",22,1,"TEST",1,37,1,250,,,37,51,37,0.9,0.6,0,1,0.05,0.95,0.39359428784136,"",,,3,0,1,0,1,14,17,5,15,0,"cue1.png","A","easy",33,2.62207621801645,0,"","","","","","",,"","","","","",,,,"",,,,"","","","","",,,"240318_153849","hard","switch","repetition",0.631412223402003,0.8,0.5,
"288",99,145813,"Female",22,1,"TEST",1,38,3,250,,,38,53,38,0.856666666666667,0.6,0.0666666666666667,0.923076923076923,0.1,0.833333333333333,0.616488483891266,"",,,3,1,2,0,2,12,15,5,15,0,"cue2.png","A","hard",7,2.27906555202208,0,"","","","","","",,"","","","","",,,,"",,,,"","","","","",,,"240318_153932","easy","switch","switch",0.39359428784136,0.95,0.9,
"289",99,145813,"Female",22,1,"TEST",1,39,3,250,,,39,55,39,0.821428571428572,0.5,0.0714285714285714,0.928571428571429,0,0.928571428571429,0.6387664089998,"",,,3,1,0,0,0,13,16,6,14,0,"cue2.png","A","hard",37,1.3891072239785,0,"","","","","","",,"","","","","",,,,"",,,,"","","","","",,,"240318_154014","hard","repetition","switch",0.616488483891266,0.833333333333333,0.856666666666667,
"290",99,145813,"Female",22,1,"TEST",1,40,3,250,,,40,57,40,0.813333333333333,0.6,0.133333333333333,0.846153846153846,0.1,0.766666666666667,0.592191008336764,"",,,3,2,2,0,2,11,14,5,15,0,"cue2.png","A","hard",37,2.1691782429989,0,"","","","","","",,"","","","","",,,,"",,,,"","","","","",,,"240318_154057","hard","repetition","repetition",0.6387664089998,0.928571428571429,0.821428571428572,
"291",99,145813,"Female",22,1,"TEST",1,41,1,250,,,41,59,41,0.928571428571429,0.833333333333333,0.0714285714285714,0.916666666666667,0.1,0.828571428571429,0.501220016057939,"",,,5,1,2,0,2,11,16,6,14,0,"cue1.png","A","easy",50,1.4684499349969,0,"","","","","","",,"","","","","",,,,"",,,,"","","","","",,,"240318_154137","hard","switch","repetition",0.592191008336764,0.766666666666667,0.813333333333333,
"292",99,145813,"Female",22,1,"TEST",1,42,3,250,,,42,61,42,0.216666666666667,0,0.133333333333333,0.857142857142857,0.2,0.666666666666667,0.539761285750501,"",,,0,2,4,3,1,12,12,5,15,0,"cue2.png","A","hard",47,2.95404533899273,0,"","","","","","",,"","","","","",,,,"",,,,"","","","","",,,"240318_154220","easy","switch","switch",0.501220016057939,0.828571428571429,0.928571428571429,
"293",99,145813,"Female",22,1,"TEST",1,43,3,250,,,43,63,43,0.9,0.6,0,1,0.05,0.95,0.66910373584496,"",,,3,0,1,0,1,14,17,5,15,0,"cue2.png","A","hard",57,2.39575873001013,0,"","","","","","",,"","","","","",,,,"",,,,"","","","","",,,"240318_154304","hard","repetition","switch",0.539761285750501,0.666666666666667,0.216666666666667,
"294",99,145813,"Female",22,1,"TEST",1,44,1,250,,,44,64,44,0.958333333333333,0.833333333333333,0,1,0,1,0.445965250801237,"",,,5,0,0,0,0,14,19,6,14,0,"cue1.png","A","easy",24,2.71475899999496,0,"","","","","","",,"","","","","",,,,"",,,,"","","","","",,,"240318_154336","hard","switch","repetition",0.66910373584496,0.95,0.9,
"295",99,145813,"Female",22,1,"TEST",1,45,1,250,,,45,66,45,0.833333333333333,0.333333333333333,0,1,0.1,0.9,0.454028543778501,"",,,2,0,2,0,2,12,14,6,14,0,"cue1.png","A","easy",2,1.5942502990074,0,"","","","","","",,"","","","","",,,,"",,,,"","","","","",,,"240318_154415","easy","repetition","switch",0.445965250801237,1,0.958333333333333,
