Instruction,Stimulus,Key,RT,START,END,Phase,Block,TrialN,NbackLevel,ISI,LetterN,Letter,Letter_isSame,Letter_Resp,Letter_RT,Letter_Accuracy,Letter_Timeout,Trial_A_measure,Trial_HR,Trial_FAR,Trial_CDR,Trial_MSR,Trial_ACC,Trial_RT,Trial_HitsCount,Trial_FAsCount,Trial_SameNoRespCount,Trial_DiffNoRespCount,Trial_NoRespCount,Trial_CDsCount,Trial_CorrectRespCount,Trial_SameLetterCount,Trial_DiffLetterCount,Trial_InvalidLetterCount,TrialCountCali,CaliEnd_A_measure,ISI_calibrated,Run,TrialIndex,TrialNumber_total,TrialNumber_valid,CueLearning,TrialDemandLearning,CueMapping,OnlineRating,OnlineRatingRT,OnlineRatingTimeOut,CueSTART,RatingSTART,OfflineRatingTimePoint,OfflineRatingQuesIndex,CueFigure,TrialDemand,OfflineRating,OfflineRatingRT,CueStart,OfflineRatingStart,PhaseType,CueLeft,CueDemandLeft,CueRight,CueDemandRight,Choice,ChoiceDemand,TaskDemand,ChoiceRT,ChoiceTimeOut,ChoiceSTART,CueCheck,CueDemandCheck,CorrectAnswer,Answer,AnswerDemand,AnswerRT,AnswerACC,AnswerTimeOut,CheckSTART,DemandRatingQuesIndex,QuesTLX,DemandLevel,DemandRating,DemandRatingRT,QuesStart,PID,SONA,Age,Gender,Run,TIME,EXPERIMENTER,frameRate,
1,./instructions/inst_begin/Slide2.png,right,16.11763657499978,0.19157504999930097,16.30921162499908,,,,,,,,,,,,,,,,,,,,,,,,,,,,,,,,,1,,,,,,,,,,,,,,,,,,,,,,,,,,,,,,,,,,,,,,,,,,,,,,47,152161,19,Female,1,2024/02/12_10:15:55,SD,60.15309612595908,
2,./instructions/inst_begin/Slide3.png,right,19.705120731001443,16.356099815999187,36.06122054700063,,,,,,,,,,,,,,,,,,,,,,,,,,,,,,,,,1,,,,,,,,,,,,,,,,,,,,,,,,,,,,,,,,,,,,,,,,,,,,,,47,152161,19,Female,1,2024/02/12_10:15:55,SD,60.15309612595908,
3,./instructions/inst_begin/Slide4.png,right,19.661035491000803,36.096376507999594,55.7574119990004,,,,,,,,,,,,,,,,,,,,,,,,,,,,,,,,,1,,,,,,,,,,,,,,,,,,,,,,,,,,,,,,,,,,,,,,,,,,,,,,47,152161,19,Female,1,2024/02/12_10:15:55,SD,60.15309612595908,
1,./instructions/inst_prac_2/Slide6.png,right,15.372355153000171,55.80897118400026,71.18132633700043,,,,,,,,,,,,,,,,,,,,,,,,,,,,,,,,,1,,,,,,,,,,,,,,,,,,,,,,,,,,,,,,,,,,,,,,,,,,,,,,47,152161,19,Female,1,2024/02/12_10:15:55,SD,60.15309612595908,
2,./instructions/inst_prac_2/Slide7.png,right,10.985015285001282,71.22826750999957,82.21328279500085,,,,,,,,,,,,,,,,,,,,,,,,,,,,,,,,,1,,,,,,,,,,,,,,,,,,,,,,,,,,,,,,,,,,,,,,,,,,,,,,47,152161,19,Female,1,2024/02/12_10:15:55,SD,60.15309612595908,
1,./instructions/inst_prac_2/Slide8.png,left,8.452807762998418,82.26462593600081,90.71743369899923,,,,,,,,,,,,,,,,,,,,,,,,,,,,,,,,,1,,,,,,,,,,,,,,,,,,,,,,,,,,,,,,,,,,,,,,,,,,,,,,47,152161,19,Female,1,2024/02/12_10:15:55,SD,60.15309612595908,
0,./instructions/inst_prac_2/Slide7.png,left,2.0525537459998304,90.75269851499979,92.80525226099962,,,,,,,,,,,,,,,,,,,,,,,,,,,,,,,,,1,,,,,,,,,,,,,,,,,,,,,,,,,,,,,,,,,,,,,,,,,,,,,,47,152161,19,Female,1,2024/02/12_10:15:55,SD,60.15309612595908,
1,./instructions/inst_prac_2/Slide6.png,right,1.0198175229998014,92.84115196499988,93.86096948799968,,,,,,,,,,,,,,,,,,,,,,,,,,,,,,,,,1,,,,,,,,,,,,,,,,,,,,,,,,,,,,,,,,,,,,,,,,,,,,,,47,152161,19,Female,1,2024/02/12_10:15:55,SD,60.15309612595908,
2,./instructions/inst_prac_2/Slide7.png,right,1.0212267619990598,93.88798903600036,94.90921579799942,,,,,,,,,,,,,,,,,,,,,,,,,,,,,,,,,1,,,,,,,,,,,,,,,,,,,,,,,,,,,,,,,,,,,,,,,,,,,,,,47,152161,19,Female,1,2024/02/12_10:15:55,SD,60.15309612595908,
3,./instructions/inst_prac_2/Slide8.png,right,0.5729663689999143,94.94416196900056,95.51712833800048,,,,,,,,,,,,,,,,,,,,,,,,,,,,,,,,,1,,,,,,,,,,,,,,,,,,,,,,,,,,,,,,,,,,,,,,,,,,,,,,47,152161,19,Female,1,2024/02/12_10:15:55,SD,60.15309612595908,
4,./instructions/inst_prac_2/Slide9.png,right,6.0531921530000545,95.57617770899924,101.6293698619993,,,,,,,,,,,,,,,,,,,,,,,,,,,,,,,,,1,,,,,,,,,,,,,,,,,,,,,,,,,,,,,,,,,,,,,,,,,,,,,,47,152161,19,Female,1,2024/02/12_10:15:55,SD,60.15309612595908,
5,./instructions/inst_prac_2/Slide10.png,right,2.3212925719999475,101.66787641100018,103.98916898300013,,,,,,,,,,,,,,,,,,,,,,,,,,,,,,,,,1,,,,,,,,,,,,,,,,,,,,,,,,,,,,,,,,,,,,,,,,,,,,,,47,152161,19,Female,1,2024/02/12_10:15:55,SD,60.15309612595908,
6,./instructions/inst_prac_2/Slide11.png,right,1.955238519998602,104.02570820800065,105.98094672799925,,,,,,,,,,,,,,,,,,,,,,,,,,,,,,,,,1,,,,,,,,,,,,,,,,,,,,,,,,,,,,,,,,,,,,,,,,,,,,,,47,152161,19,Female,1,2024/02/12_10:15:55,SD,60.15309612595908,
7,./instructions/inst_prac_2/Slide12.png,right,1.3003148030002194,106.01693879999948,107.3172536029997,,,,,,,,,,,,,,,,,,,,,,,,,,,,,,,,,1,,,,,,,,,,,,,,,,,,,,,,,,,,,,,,,,,,,,,,,,,,,,,,47,152161,19,Female,1,2024/02/12_10:15:55,SD,60.15309612595908,
8,./instructions/inst_prac_2/Slide13.png,right,0.6278928689989698,107.35319869200066,107.98109156099963,,,,,,,,,,,,,,,,,,,,,,,,,,,,,,,,,1,,,,,,,,,,,,,,,,,,,,,,,,,,,,,,,,,,,,,,,,,,,,,,47,152161,19,Female,1,2024/02/12_10:15:55,SD,60.15309612595908,
9,./instructions/inst_prac_2/Slide14.png,right,19.32387401899905,108.01708743400013,127.34096145299918,,,,,,,,,,,,,,,,,,,,,,,,,,,,,,,,,1,,,,,,,,,,,,,,,,,,,,,,,,,,,,,,,,,,,,,,,,,,,,,,47,152161,19,Female,1,2024/02/12_10:15:55,SD,60.15309612595908,
10,./instructions/inst_prac_2/Slide15.png,right,13.880842780999956,127.4043234969995,141.28516627799945,,,,,,,,,,,,,,,,,,,,,,,,,,,,,,,,,1,,,,,,,,,,,,,,,,,,,,,,,,,,,,,,,,,,,,,,,,,,,,,,47,152161,19,Female,1,2024/02/12_10:15:55,SD,60.15309612595908,
,,,,,,practice,0,36,2,2583,1,X,0,right,3.981647876000352,1,0,,,,,,,,,,,,,,,,,,,,,1,,,,,,,,,,,,,,,,,,,,,,,,,,,,,,,,,,,,,,,,,,,,,,47,152161,19,Female,1,2024/02/12_10:15:55,SD,60.15309612595908,
,,,,,,practice,0,36,2,2583,2,V,0,right,5.644673131000673,1,0,,,,,,,,,,,,,,,,,,,,,1,,,,,,,,,,,,,,,,,,,,,,,,,,,,,,,,,,,,,,,,,,,,,,47,152161,19,Female,1,2024/02/12_10:15:55,SD,60.15309612595908,
,,,,,,practice,0,36,2,2583,3,X,1,left,1.2464508459997887,1,0,,,,,,,,,,,,,,,,,,,,,1,,,,,,,,,,,,,,,,,,,,,,,,,,,,,,,,,,,,,,,,,,,,,,47,152161,19,Female,1,2024/02/12_10:15:55,SD,60.15309612595908,
,,,,,,practice,0,36,2,2583,4,V,1,left,3.4784662910005864,1,0,,,,,,,,,,,,,,,,,,,,,1,,,,,,,,,,,,,,,,,,,,,,,,,,,,,,,,,,,,,,,,,,,,,,47,152161,19,Female,1,2024/02/12_10:15:55,SD,60.15309612595908,
,,,,,,practice,0,36,2,2583,5,N,0,right,1.5418151349986147,1,0,,,,,,,,,,,,,,,,,,,,,1,,,,,,,,,,,,,,,,,,,,,,,,,,,,,,,,,,,,,,,,,,,,,,47,152161,19,Female,1,2024/02/12_10:15:55,SD,60.15309612595908,
,,,,,,practice,0,36,2,2583,6,F,0,right,0.8280679489998874,1,0,,,,,,,,,,,,,,,,,,,,,1,,,,,,,,,,,,,,,,,,,,,,,,,,,,,,,,,,,,,,,,,,,,,,47,152161,19,Female,1,2024/02/12_10:15:55,SD,60.15309612595908,
,,,,,,practice,0,36,2,2583,,,,,,,,1.0,1.0,0.0,1.0,0.0,1.0,2.7868535379999835,2,0,0,0,0,4,6,2,4,0,,,,1,,,,,,,,,,,,,,,,,,,,,,,,,,,,,,,,,,,,,,,,,,,,,,47,152161,19,Female,1,2024/02/12_10:15:55,SD,60.15309612595908,
1,./instructions/inst_to_cali/Slide20.png,right,8.270731503000206,164.42260526499922,172.69333676799943,,,,,,,,,,,,,,,,,,,,,,,,,,,,,,,,,1,,,,,,,,,,,,,,,,,,,,,,,,,,,,,,,,,,,,,,,,,,,,,,47,152161,19,Female,1,2024/02/12_10:15:55,SD,60.15309612595908,
1,./instructions/inst_cali/Slide22.png,right,8.62920544699955,172.74398258600013,181.37318803299968,,,,,,,,,,,,,,,,,,,,,,,,,,,,,,,,,1,,,,,,,,,,,,,,,,,,,,,,,,,,,,,,,,,,,,,,,,,,,,,,47,152161,19,Female,1,2024/02/12_10:15:55,SD,60.15309612595908,
,,,,,,calibration,0,6,2,583,1,J,0,right,0.47488856999916607,1,0,,,,,,,,,,,,,,,,,,,,,1,,,,,,,,,,,,,,,,,,,,,,,,,,,,,,,,,,,,,,,,,,,,,,47,152161,19,Female,1,2024/02/12_10:15:55,SD,60.15309612595908,
,,,,,,calibration,0,6,2,583,2,S,0,right,0.5605082149995724,1,0,,,,,,,,,,,,,,,,,,,,,1,,,,,,,,,,,,,,,,,,,,,,,,,,,,,,,,,,,,,,,,,,,,,,47,152161,19,Female,1,2024/02/12_10:15:55,SD,60.15309612595908,
,,,,,,calibration,0,6,2,583,3,C,0,right,0.7927572450007574,1,0,,,,,,,,,,,,,,,,,,,,,1,,,,,,,,,,,,,,,,,,,,,,,,,,,,,,,,,,,,,,,,,,,,,,47,152161,19,Female,1,2024/02/12_10:15:55,SD,60.15309612595908,
,,,,,,calibration,0,6,2,583,4,J,0,left,0.643484267000531,0,0,,,,,,,,,,,,,,,,,,,,,1,,,,,,,,,,,,,,,,,,,,,,,,,,,,,,,,,,,,,,,,,,,,,,47,152161,19,Female,1,2024/02/12_10:15:55,SD,60.15309612595908,
,,,,,,calibration,0,6,2,583,5,N,0,right,0.5776713900013419,1,0,,,,,,,,,,,,,,,,,,,,,1,,,,,,,,,,,,,,,,,,,,,,,,,,,,,,,,,,,,,,,,,,,,,,47,152161,19,Female,1,2024/02/12_10:15:55,SD,60.15309612595908,
,,,,,,calibration,0,6,2,583,6,J,1,right,0.7264934630002244,0,0,,,,,,,,,,,,,,,,,,,,,1,,,,,,,,,,,,,,,,,,,,,,,,,,,,,,,,,,,,,,,,,,,,,,47,152161,19,Female,1,2024/02/12_10:15:55,SD,60.15309612595908,
,,,,,,calibration,0,6,2,583,7,N,1,right,0.6451916959995287,0,0,,,,,,,,,,,,,,,,,,,,,1,,,,,,,,,,,,,,,,,,,,,,,,,,,,,,,,,,,,,,,,,,,,,,47,152161,19,Female,1,2024/02/12_10:15:55,SD,60.15309612595908,
,,,,,,calibration,0,6,2,583,8,V,0,left,0.4923009970007115,0,0,,,,,,,,,,,,,,,,,,,,,1,,,,,,,,,,,,,,,,,,,,,,,,,,,,,,,,,,,,,,,,,,,,,,47,152161,19,Female,1,2024/02/12_10:15:55,SD,60.15309612595908,
,,,,,,calibration,0,6,2,583,9,N,1,left,0.9093624529996305,1,0,,,,,,,,,,,,,,,,,,,,,1,,,,,,,,,,,,,,,,,,,,,,,,,,,,,,,,,,,,,,,,,,,,,,47,152161,19,Female,1,2024/02/12_10:15:55,SD,60.15309612595908,
,,,,,,calibration,0,6,2,583,10,F,0,right,0.37736091400074656,1,0,,,,,,,,,,,,,,,,,,,,,1,,,,,,,,,,,,,,,,,,,,,,,,,,,,,,,,,,,,,,,,,,,,,,47,152161,19,Female,1,2024/02/12_10:15:55,SD,60.15309612595908,
,,,,,,calibration,0,6,2,583,11,X,0,right,0.5611618370003271,1,0,,,,,,,,,,,,,,,,,,,,,1,,,,,,,,,,,,,,,,,,,,,,,,,,,,,,,,,,,,,,,,,,,,,,47,152161,19,Female,1,2024/02/12_10:15:55,SD,60.15309612595908,
,,,,,,calibration,0,6,2,583,12,J,0,right,0.6937610669992864,1,0,,,,,,,,,,,,,,,,,,,,,1,,,,,,,,,,,,,,,,,,,,,,,,,,,,,,,,,,,,,,,,,,,,,,47,152161,19,Female,1,2024/02/12_10:15:55,SD,60.15309612595908,
,,,,,,calibration,0,6,2,583,13,X,1,right,0.5428860770007304,0,0,,,,,,,,,,,,,,,,,,,,,1,,,,,,,,,,,,,,,,,,,,,,,,,,,,,,,,,,,,,,,,,,,,,,47,152161,19,Female,1,2024/02/12_10:15:55,SD,60.15309612595908,
,,,,,,calibration,0,6,2,583,14,J,1,left,0.7762760160003381,1,0,,,,,,,,,,,,,,,,,,,,,1,,,,,,,,,,,,,,,,,,,,,,,,,,,,,,,,,,,,,,,,,,,,,,47,152161,19,Female,1,2024/02/12_10:15:55,SD,60.15309612595908,
,,,,,,calibration,0,6,2,583,15,Q,0,right,0.5132720959991275,1,0,,,,,,,,,,,,,,,,,,,,,1,,,,,,,,,,,,,,,,,,,,,,,,,,,,,,,,,,,,,,,,,,,,,,47,152161,19,Female,1,2024/02/12_10:15:55,SD,60.15309612595908,
,,,,,,calibration,0,6,2,583,,,,,,,,0.675,0.4,0.2,0.8,0.0,0.8,0.6191584202001347,2,2,0,0,0,8,10,5,10,0,,,,1,,,,,,,,,,,,,,,,,,,,,,,,,,,,,,,,,,,,,,,,,,,,,,47,152161,19,Female,1,2024/02/12_10:15:55,SD,60.15309612595908,
,,,,,,Calibration,0,,2,583,,,,,,,,,,,,,,,,,,,,,,,,,1,,,1,,,,,,,,,,,,,,,,,,,,,,,,,,,,,,,,,,,,,,,,,,,,,,47,152161,19,Female,1,2024/02/12_10:15:55,SD,60.15309612595908,
,,,,,,calibration,0,16,2,679,1,X,0,right,1.3115225620003912,1,0,,,,,,,,,,,,,,,,,,,,,1,,,,,,,,,,,,,,,,,,,,,,,,,,,,,,,,,,,,,,,,,,,,,,47,152161,19,Female,1,2024/02/12_10:15:55,SD,60.15309612595908,
,,,,,,calibration,0,16,2,679,2,N,0,right,0.5809059799994429,1,0,,,,,,,,,,,,,,,,,,,,,1,,,,,,,,,,,,,,,,,,,,,,,,,,,,,,,,,,,,,,,,,,,,,,47,152161,19,Female,1,2024/02/12_10:15:55,SD,60.15309612595908,
,,,,,,calibration,0,16,2,679,3,X,1,left,0.7746261869997397,1,0,,,,,,,,,,,,,,,,,,,,,1,,,,,,,,,,,,,,,,,,,,,,,,,,,,,,,,,,,,,,,,,,,,,,47,152161,19,Female,1,2024/02/12_10:15:55,SD,60.15309612595908,
,,,,,,calibration,0,16,2,679,4,F,0,right,1.1239339990006556,1,0,,,,,,,,,,,,,,,,,,,,,1,,,,,,,,,,,,,,,,,,,,,,,,,,,,,,,,,,,,,,,,,,,,,,47,152161,19,Female,1,2024/02/12_10:15:55,SD,60.15309612595908,
,,,,,,calibration,0,16,2,679,5,Q,0,left,0.8267177910001919,0,0,,,,,,,,,,,,,,,,,,,,,1,,,,,,,,,,,,,,,,,,,,,,,,,,,,,,,,,,,,,,,,,,,,,,47,152161,19,Female,1,2024/02/12_10:15:55,SD,60.15309612595908,
,,,,,,calibration,0,16,2,679,6,X,0,right,0.8125961130008363,1,0,,,,,,,,,,,,,,,,,,,,,1,,,,,,,,,,,,,,,,,,,,,,,,,,,,,,,,,,,,,,,,,,,,,,47,152161,19,Female,1,2024/02/12_10:15:55,SD,60.15309612595908,
,,,,,,calibration,0,16,2,679,7,Q,1,right,1.1750329569986206,0,0,,,,,,,,,,,,,,,,,,,,,1,,,,,,,,,,,,,,,,,,,,,,,,,,,,,,,,,,,,,,,,,,,,,,47,152161,19,Female,1,2024/02/12_10:15:55,SD,60.15309612595908,
,,,,,,calibration,0,16,2,679,8,J,0,right,0.8268736239988357,1,0,,,,,,,,,,,,,,,,,,,,,1,,,,,,,,,,,,,,,,,,,,,,,,,,,,,,,,,,,,,,,,,,,,,,47,152161,19,Female,1,2024/02/12_10:15:55,SD,60.15309612595908,
,,,,,,calibration,0,16,2,679,9,V,0,right,1.027769016000093,1,0,,,,,,,,,,,,,,,,,,,,,1,,,,,,,,,,,,,,,,,,,,,,,,,,,,,,,,,,,,,,,,,,,,,,47,152161,19,Female,1,2024/02/12_10:15:55,SD,60.15309612595908,
,,,,,,calibration,0,16,2,679,10,N,0,left,1.1757823459993233,0,0,,,,,,,,,,,,,,,,,,,,,1,,,,,,,,,,,,,,,,,,,,,,,,,,,,,,,,,,,,,,,,,,,,,,47,152161,19,Female,1,2024/02/12_10:15:55,SD,60.15309612595908,
,,,,,,calibration,0,16,2,679,11,X,0,right,1.614985178999632,1,0,,,,,,,,,,,,,,,,,,,,,1,,,,,,,,,,,,,,,,,,,,,,,,,,,,,,,,,,,,,,,,,,,,,,47,152161,19,Female,1,2024/02/12_10:15:55,SD,60.15309612595908,
,,,,,,calibration,0,16,2,679,12,N,1,left,1.858677763999367,1,0,,,,,,,,,,,,,,,,,,,,,1,,,,,,,,,,,,,,,,,,,,,,,,,,,,,,,,,,,,,,,,,,,,,,47,152161,19,Female,1,2024/02/12_10:15:55,SD,60.15309612595908,
,,,,,,calibration,0,16,2,679,13,X,1,left,0.8152680909988703,1,0,,,,,,,,,,,,,,,,,,,,,1,,,,,,,,,,,,,,,,,,,,,,,,,,,,,,,,,,,,,,,,,,,,,,47,152161,19,Female,1,2024/02/12_10:15:55,SD,60.15309612595908,
,,,,,,calibration,0,16,2,679,14,J,0,right,1.0283053479997761,1,0,,,,,,,,,,,,,,,,,,,,,1,,,,,,,,,,,,,,,,,,,,,,,,,,,,,,,,,,,,,,,,,,,,,,47,152161,19,Female,1,2024/02/12_10:15:55,SD,60.15309612595908,
,,,,,,calibration,0,16,2,679,,,,,,,,0.8374999999999999,0.75,0.2,0.8,0.0,0.8,1.068071211213984,3,2,0,0,0,8,11,4,10,0,,,,1,,,,,,,,,,,,,,,,,,,,,,,,,,,,,,,,,,,,,,,,,,,,,,47,152161,19,Female,1,2024/02/12_10:15:55,SD,60.15309612595908,
,,,,,,Calibration,0,,2,679,,,,,,,,,,,,,,,,,,,,,,,,,2,,,1,,,,,,,,,,,,,,,,,,,,,,,,,,,,,,,,,,,,,,,,,,,,,,47,152161,19,Female,1,2024/02/12_10:15:55,SD,60.15309612595908,
,,,,,,calibration,0,18,2,679,1,C,0,right,0.746155840000938,1,0,,,,,,,,,,,,,,,,,,,,,1,,,,,,,,,,,,,,,,,,,,,,,,,,,,,,,,,,,,,,,,,,,,,,47,152161,19,Female,1,2024/02/12_10:15:55,SD,60.15309612595908,
,,,,,,calibration,0,18,2,679,2,S,0,right,0.7430920629994944,1,0,,,,,,,,,,,,,,,,,,,,,1,,,,,,,,,,,,,,,,,,,,,,,,,,,,,,,,,,,,,,,,,,,,,,47,152161,19,Female,1,2024/02/12_10:15:55,SD,60.15309612595908,
,,,,,,calibration,0,18,2,679,3,C,1,left,0.7962148349997733,1,0,,,,,,,,,,,,,,,,,,,,,1,,,,,,,,,,,,,,,,,,,,,,,,,,,,,,,,,,,,,,,,,,,,,,47,152161,19,Female,1,2024/02/12_10:15:55,SD,60.15309612595908,
,,,,,,calibration,0,18,2,679,4,J,0,right,0.9757863830000133,1,0,,,,,,,,,,,,,,,,,,,,,1,,,,,,,,,,,,,,,,,,,,,,,,,,,,,,,,,,,,,,,,,,,,,,47,152161,19,Female,1,2024/02/12_10:15:55,SD,60.15309612595908,
,,,,,,calibration,0,18,2,679,5,N,0,right,1.0317520699991292,1,0,,,,,,,,,,,,,,,,,,,,,1,,,,,,,,,,,,,,,,,,,,,,,,,,,,,,,,,,,,,,,,,,,,,,47,152161,19,Female,1,2024/02/12_10:15:55,SD,60.15309612595908,
,,,,,,calibration,0,18,2,679,6,J,1,left,0.810609131000092,1,0,,,,,,,,,,,,,,,,,,,,,1,,,,,,,,,,,,,,,,,,,,,,,,,,,,,,,,,,,,,,,,,,,,,,47,152161,19,Female,1,2024/02/12_10:15:55,SD,60.15309612595908,
,,,,,,calibration,0,18,2,679,7,X,0,right,1.9314651749991754,1,0,,,,,,,,,,,,,,,,,,,,,1,,,,,,,,,,,,,,,,,,,,,,,,,,,,,,,,,,,,,,,,,,,,,,47,152161,19,Female,1,2024/02/12_10:15:55,SD,60.15309612595908,
,,,,,,calibration,0,18,2,679,8,F,0,right,1.0268408089996228,1,0,,,,,,,,,,,,,,,,,,,,,1,,,,,,,,,,,,,,,,,,,,,,,,,,,,,,,,,,,,,,,,,,,,,,47,152161,19,Female,1,2024/02/12_10:15:55,SD,60.15309612595908,
,,,,,,calibration,0,18,2,679,9,V,0,right,0.8280830900002911,1,0,,,,,,,,,,,,,,,,,,,,,1,,,,,,,,,,,,,,,,,,,,,,,,,,,,,,,,,,,,,,,,,,,,,,47,152161,19,Female,1,2024/02/12_10:15:55,SD,60.15309612595908,
,,,,,,calibration,0,18,2,679,10,Q,0,right,0.6905802670007688,1,0,,,,,,,,,,,,,,,,,,,,,1,,,,,,,,,,,,,,,,,,,,,,,,,,,,,,,,,,,,,,,,,,,,,,47,152161,19,Female,1,2024/02/12_10:15:55,SD,60.15309612595908,
,,,,,,calibration,0,18,2,679,11,V,1,right,0.7768801639995218,0,0,,,,,,,,,,,,,,,,,,,,,1,,,,,,,,,,,,,,,,,,,,,,,,,,,,,,,,,,,,,,,,,,,,,,47,152161,19,Female,1,2024/02/12_10:15:55,SD,60.15309612595908,
,,,,,,calibration,0,18,2,679,12,F,0,right,1.0778139699996245,1,0,,,,,,,,,,,,,,,,,,,,,1,,,,,,,,,,,,,,,,,,,,,,,,,,,,,,,,,,,,,,,,,,,,,,47,152161,19,Female,1,2024/02/12_10:15:55,SD,60.15309612595908,
,,,,,,calibration,0,18,2,679,13,J,0,right,0.7766671530007443,1,0,,,,,,,,,,,,,,,,,,,,,1,,,,,,,,,,,,,,,,,,,,,,,,,,,,,,,,,,,,,,,,,,,,,,47,152161,19,Female,1,2024/02/12_10:15:55,SD,60.15309612595908,
,,,,,,calibration,0,18,2,679,14,F,1,left,0.7593574229995284,1,0,,,,,,,,,,,,,,,,,,,,,1,,,,,,,,,,,,,,,,,,,,,,,,,,,,,,,,,,,,,,,,,,,,,,47,152161,19,Female,1,2024/02/12_10:15:55,SD,60.15309612595908,
,,,,,,calibration,0,18,2,679,,,,,,,,0.9375,0.75,0.0,1.0,0.0,1.0,0.9265213123570513,3,0,0,0,0,10,13,4,10,0,,,,1,,,,,,,,,,,,,,,,,,,,,,,,,,,,,,,,,,,,,,,,,,,,,,47,152161,19,Female,1,2024/02/12_10:15:55,SD,60.15309612595908,
,,,,,,Calibration,0,,2,679,,,,,,,,,,,,,,,,,,,,,,,,,3,,,1,,,,,,,,,,,,,,,,,,,,,,,,,,,,,,,,,,,,,,,,,,,,,,47,152161,19,Female,1,2024/02/12_10:15:55,SD,60.15309612595908,
,,,,,,calibration,0,19,2,583,1,C,0,right,0.8304814160001115,1,0,,,,,,,,,,,,,,,,,,,,,1,,,,,,,,,,,,,,,,,,,,,,,,,,,,,,,,,,,,,,,,,,,,,,47,152161,19,Female,1,2024/02/12_10:15:55,SD,60.15309612595908,
,,,,,,calibration,0,19,2,583,2,F,0,right,0.8937942659995315,1,0,,,,,,,,,,,,,,,,,,,,,1,,,,,,,,,,,,,,,,,,,,,,,,,,,,,,,,,,,,,,,,,,,,,,47,152161,19,Female,1,2024/02/12_10:15:55,SD,60.15309612595908,
,,,,,,calibration,0,19,2,583,3,V,0,right,0.7116003089995502,1,0,,,,,,,,,,,,,,,,,,,,,1,,,,,,,,,,,,,,,,,,,,,,,,,,,,,,,,,,,,,,,,,,,,,,47,152161,19,Female,1,2024/02/12_10:15:55,SD,60.15309612595908,
,,,,,,calibration,0,19,2,583,4,N,0,right,0.7298325060000934,1,0,,,,,,,,,,,,,,,,,,,,,1,,,,,,,,,,,,,,,,,,,,,,,,,,,,,,,,,,,,,,,,,,,,,,47,152161,19,Female,1,2024/02/12_10:15:55,SD,60.15309612595908,
,,,,,,calibration,0,19,2,583,5,Q,0,right,0.5770283680012653,1,0,,,,,,,,,,,,,,,,,,,,,1,,,,,,,,,,,,,,,,,,,,,,,,,,,,,,,,,,,,,,,,,,,,,,47,152161,19,Female,1,2024/02/12_10:15:55,SD,60.15309612595908,
,,,,,,calibration,0,19,2,583,6,N,1,left,0.7937183560006815,1,0,,,,,,,,,,,,,,,,,,,,,1,,,,,,,,,,,,,,,,,,,,,,,,,,,,,,,,,,,,,,,,,,,,,,47,152161,19,Female,1,2024/02/12_10:15:55,SD,60.15309612595908,
,,,,,,calibration,0,19,2,583,7,Q,1,left,1.3153411309995136,1,0,,,,,,,,,,,,,,,,,,,,,1,,,,,,,,,,,,,,,,,,,,,,,,,,,,,,,,,,,,,,,,,,,,,,47,152161,19,Female,1,2024/02/12_10:15:55,SD,60.15309612595908,
,,,,,,calibration,0,19,2,583,8,S,0,right,0.7441015410004184,1,0,,,,,,,,,,,,,,,,,,,,,1,,,,,,,,,,,,,,,,,,,,,,,,,,,,,,,,,,,,,,,,,,,,,,47,152161,19,Female,1,2024/02/12_10:15:55,SD,60.15309612595908,
,,,,,,calibration,0,19,2,583,9,X,0,right,0.6225832540003466,1,0,,,,,,,,,,,,,,,,,,,,,1,,,,,,,,,,,,,,,,,,,,,,,,,,,,,,,,,,,,,,,,,,,,,,47,152161,19,Female,1,2024/02/12_10:15:55,SD,60.15309612595908,
,,,,,,calibration,0,19,2,583,10,V,0,right,0.5434974019990477,1,0,,,,,,,,,,,,,,,,,,,,,1,,,,,,,,,,,,,,,,,,,,,,,,,,,,,,,,,,,,,,,,,,,,,,47,152161,19,Female,1,2024/02/12_10:15:55,SD,60.15309612595908,
,,,,,,calibration,0,19,2,583,11,F,0,right,0.7116583450006146,1,0,,,,,,,,,,,,,,,,,,,,,1,,,,,,,,,,,,,,,,,,,,,,,,,,,,,,,,,,,,,,,,,,,,,,47,152161,19,Female,1,2024/02/12_10:15:55,SD,60.15309612595908,
,,,,,,calibration,0,19,2,583,12,V,1,left,0.7299552719996427,1,0,,,,,,,,,,,,,,,,,,,,,1,,,,,,,,,,,,,,,,,,,,,,,,,,,,,,,,,,,,,,,,,,,,,,47,152161,19,Female,1,2024/02/12_10:15:55,SD,60.15309612595908,
,,,,,,calibration,0,19,2,583,13,C,0,left,0.759734142000525,0,0,,,,,,,,,,,,,,,,,,,,,1,,,,,,,,,,,,,,,,,,,,,,,,,,,,,,,,,,,,,,,,,,,,,,47,152161,19,Female,1,2024/02/12_10:15:55,SD,60.15309612595908,
,,,,,,calibration,0,19,2,583,14,V,1,left,0.6937708730001759,1,0,,,,,,,,,,,,,,,,,,,,,1,,,,,,,,,,,,,,,,,,,,,,,,,,,,,,,,,,,,,,,,,,,,,,47,152161,19,Female,1,2024/02/12_10:15:55,SD,60.15309612595908,
,,,,,,calibration,0,19,2,583,15,N,0,right,0.9298780400004034,1,0,,,,,,,,,,,,,,,,,,,,,1,,,,,,,,,,,,,,,,,,,,,,,,,,,,,,,,,,,,,,,,,,,,,,47,152161,19,Female,1,2024/02/12_10:15:55,SD,60.15309612595908,
,,,,,,calibration,0,19,2,583,,,,,,,,0.9772727272727273,1.0,0.09090909090909091,0.9090909090909091,0.0,0.9090909090909091,0.7724650147334614,4,1,0,0,0,10,14,4,11,0,,,,1,,,,,,,,,,,,,,,,,,,,,,,,,,,,,,,,,,,,,,,,,,,,,,47,152161,19,Female,1,2024/02/12_10:15:55,SD,60.15309612595908,
,,,,,,Calibration,0,,2,583,,,,,,,,,,,,,,,,,,,,,,,,,4,,,1,,,,,,,,,,,,,,,,,,,,,,,,,,,,,,,,,,,,,,,,,,,,,,47,152161,19,Female,1,2024/02/12_10:15:55,SD,60.15309612595908,
,,,,,,calibration,0,33,2,500,1,X,0,right,0.6615563880004629,1,0,,,,,,,,,,,,,,,,,,,,,1,,,,,,,,,,,,,,,,,,,,,,,,,,,,,,,,,,,,,,,,,,,,,,47,152161,19,Female,1,2024/02/12_10:15:55,SD,60.15309612595908,
,,,,,,calibration,0,33,2,500,2,F,0,right,0.5222206369999185,1,0,,,,,,,,,,,,,,,,,,,,,1,,,,,,,,,,,,,,,,,,,,,,,,,,,,,,,,,,,,,,,,,,,,,,47,152161,19,Female,1,2024/02/12_10:15:55,SD,60.15309612595908,
,,,,,,calibration,0,33,2,500,3,X,1,left,0.690354299998944,1,0,,,,,,,,,,,,,,,,,,,,,1,,,,,,,,,,,,,,,,,,,,,,,,,,,,,,,,,,,,,,,,,,,,,,47,152161,19,Female,1,2024/02/12_10:15:55,SD,60.15309612595908,
,,,,,,calibration,0,33,2,500,4,F,1,left,nan,0,1,,,,,,,,,,,,,,,,,,,,,1,,,,,,,,,,,,,,,,,,,,,,,,,,,,,,,,,,,,,,,,,,,,,,47,152161,19,Female,1,2024/02/12_10:15:55,SD,60.15309612595908,
,,,,,,calibration,0,33,2,500,5,N,0,left,nan,0,1,,,,,,,,,,,,,,,,,,,,,1,,,,,,,,,,,,,,,,,,,,,,,,,,,,,,,,,,,,,,,,,,,,,,47,152161,19,Female,1,2024/02/12_10:15:55,SD,60.15309612595908,
,,,,,,calibration,0,33,2,500,6,Q,0,left,0.7778465709998272,0,0,,,,,,,,,,,,,,,,,,,,,1,,,,,,,,,,,,,,,,,,,,,,,,,,,,,,,,,,,,,,,,,,,,,,47,152161,19,Female,1,2024/02/12_10:15:55,SD,60.15309612595908,
,,,,,,calibration,0,33,2,500,7,S,0,right,0.0,1,0,,,,,,,,,,,,,,,,,,,,,1,,,,,,,,,,,,,,,,,,,,,,,,,,,,,,,,,,,,,,,,,,,,,,47,152161,19,Female,1,2024/02/12_10:15:55,SD,60.15309612595908,
,,,,,,calibration,0,33,2,500,8,Q,1,left,0.8367109159989923,1,0,,,,,,,,,,,,,,,,,,,,,1,,,,,,,,,,,,,,,,,,,,,,,,,,,,,,,,,,,,,,,,,,,,,,47,152161,19,Female,1,2024/02/12_10:15:55,SD,60.15309612595908,
,,,,,,calibration,0,33,2,500,9,N,0,right,0.39576441600002,1,0,,,,,,,,,,,,,,,,,,,,,1,,,,,,,,,,,,,,,,,,,,,,,,,,,,,,,,,,,,,,,,,,,,,,47,152161,19,Female,1,2024/02/12_10:15:55,SD,60.15309612595908,
,,,,,,calibration,0,33,2,500,10,V,0,right,0.7502529969988245,1,0,,,,,,,,,,,,,,,,,,,,,1,,,,,,,,,,,,,,,,,,,,,,,,,,,,,,,,,,,,,,,,,,,,,,47,152161,19,Female,1,2024/02/12_10:15:55,SD,60.15309612595908,
,,,,,,calibration,0,33,2,500,11,F,0,right,0.46686894800041046,1,0,,,,,,,,,,,,,,,,,,,,,1,,,,,,,,,,,,,,,,,,,,,,,,,,,,,,,,,,,,,,,,,,,,,,47,152161,19,Female,1,2024/02/12_10:15:55,SD,60.15309612595908,
,,,,,,calibration,0,33,2,500,12,N,0,left,0.5269642279999971,0,0,,,,,,,,,,,,,,,,,,,,,1,,,,,,,,,,,,,,,,,,,,,,,,,,,,,,,,,,,,,,,,,,,,,,47,152161,19,Female,1,2024/02/12_10:15:55,SD,60.15309612595908,
,,,,,,calibration,0,33,2,500,13,S,0,right,0.7849056300001394,1,0,,,,,,,,,,,,,,,,,,,,,1,,,,,,,,,,,,,,,,,,,,,,,,,,,,,,,,,,,,,,,,,,,,,,47,152161,19,Female,1,2024/02/12_10:15:55,SD,60.15309612595908,
,,,,,,calibration,0,33,2,500,14,J,0,right,0.8131469640011346,1,0,,,,,,,,,,,,,,,,,,,,,1,,,,,,,,,,,,,,,,,,,,,,,,,,,,,,,,,,,,,,,,,,,,,,47,152161,19,Female,1,2024/02/12_10:15:55,SD,60.15309612595908,
,,,,,,calibration,0,33,2,500,15,S,1,left,0.7457466380001279,1,0,,,,,,,,,,,,,,,,,,,,,1,,,,,,,,,,,,,,,,,,,,,,,,,,,,,,,,,,,,,,,,,,,,,,47,152161,19,Female,1,2024/02/12_10:15:55,SD,60.15309612595908,
,,,,,,calibration,0,33,2,500,16,J,1,left,0.9933179789986752,1,0,,,,,,,,,,,,,,,,,,,,,1,,,,,,,,,,,,,,,,,,,,,,,,,,,,,,,,,,,,,,,,,,,,,,47,152161,19,Female,1,2024/02/12_10:15:55,SD,60.15309612595908,
,,,,,,calibration,0,33,2,500,,,,,,,,0.8681818181818182,0.8,0.18181818181818182,0.8,0.125,0.6931818181818181,0.6404040437141053,4,2,1,1,2,8,12,5,11,0,,,,1,,,,,,,,,,,,,,,,,,,,,,,,,,,,,,,,,,,,,,,,,,,,,,47,152161,19,Female,1,2024/02/12_10:15:55,SD,60.15309612595908,
,,,,,,Calibration,0,,2,500,,,,,,,,,,,,,,,,,,,,,,,,,5,,,1,,,,,,,,,,,,,,,,,,,,,,,,,,,,,,,,,,,,,,,,,,,,,,47,152161,19,Female,1,2024/02/12_10:15:55,SD,60.15309612595908,
,,,,,,calibration,0,10,2,426,1,N,0,right,0.7278716939999867,1,0,,,,,,,,,,,,,,,,,,,,,1,,,,,,,,,,,,,,,,,,,,,,,,,,,,,,,,,,,,,,,,,,,,,,47,152161,19,Female,1,2024/02/12_10:15:55,SD,60.15309612595908,
,,,,,,calibration,0,10,2,426,2,J,0,right,0.48828750400025456,1,0,,,,,,,,,,,,,,,,,,,,,1,,,,,,,,,,,,,,,,,,,,,,,,,,,,,,,,,,,,,,,,,,,,,,47,152161,19,Female,1,2024/02/12_10:15:55,SD,60.15309612595908,
,,,,,,calibration,0,10,2,426,3,X,0,right,0.5810427890010033,1,0,,,,,,,,,,,,,,,,,,,,,1,,,,,,,,,,,,,,,,,,,,,,,,,,,,,,,,,,,,,,,,,,,,,,47,152161,19,Female,1,2024/02/12_10:15:55,SD,60.15309612595908,
,,,,,,calibration,0,10,2,426,4,N,0,right,0.5405622119997133,1,0,,,,,,,,,,,,,,,,,,,,,1,,,,,,,,,,,,,,,,,,,,,,,,,,,,,,,,,,,,,,,,,,,,,,47,152161,19,Female,1,2024/02/12_10:15:55,SD,60.15309612595908,
,,,,,,calibration,0,10,2,426,5,X,1,right,0.6855239679989609,0,0,,,,,,,,,,,,,,,,,,,,,1,,,,,,,,,,,,,,,,,,,,,,,,,,,,,,,,,,,,,,,,,,,,,,47,152161,19,Female,1,2024/02/12_10:15:55,SD,60.15309612595908,
,,,,,,calibration,0,10,2,426,6,S,0,right,0.5925317660003202,1,0,,,,,,,,,,,,,,,,,,,,,1,,,,,,,,,,,,,,,,,,,,,,,,,,,,,,,,,,,,,,,,,,,,,,47,152161,19,Female,1,2024/02/12_10:15:55,SD,60.15309612595908,
,,,,,,calibration,0,10,2,426,7,X,1,left,0.6981039980000787,1,0,,,,,,,,,,,,,,,,,,,,,1,,,,,,,,,,,,,,,,,,,,,,,,,,,,,,,,,,,,,,,,,,,,,,47,152161,19,Female,1,2024/02/12_10:15:55,SD,60.15309612595908,
,,,,,,calibration,0,10,2,426,8,S,1,left,0.6651694400006818,1,0,,,,,,,,,,,,,,,,,,,,,1,,,,,,,,,,,,,,,,,,,,,,,,,,,,,,,,,,,,,,,,,,,,,,47,152161,19,Female,1,2024/02/12_10:15:55,SD,60.15309612595908,
,,,,,,calibration,0,10,2,426,9,F,0,left,0.8466985190007108,0,0,,,,,,,,,,,,,,,,,,,,,1,,,,,,,,,,,,,,,,,,,,,,,,,,,,,,,,,,,,,,,,,,,,,,47,152161,19,Female,1,2024/02/12_10:15:55,SD,60.15309612595908,
,,,,,,calibration,0,10,2,426,10,V,0,right,0.4015814290014532,1,0,,,,,,,,,,,,,,,,,,,,,1,,,,,,,,,,,,,,,,,,,,,,,,,,,,,,,,,,,,,,,,,,,,,,47,152161,19,Female,1,2024/02/12_10:15:55,SD,60.15309612595908,
,,,,,,calibration,0,10,2,426,11,N,0,right,0.47917339699961303,1,0,,,,,,,,,,,,,,,,,,,,,1,,,,,,,,,,,,,,,,,,,,,,,,,,,,,,,,,,,,,,,,,,,,,,47,152161,19,Female,1,2024/02/12_10:15:55,SD,60.15309612595908,
,,,,,,calibration,0,10,2,426,12,V,1,right,0.8678437200014741,0,0,,,,,,,,,,,,,,,,,,,,,1,,,,,,,,,,,,,,,,,,,,,,,,,,,,,,,,,,,,,,,,,,,,,,47,152161,19,Female,1,2024/02/12_10:15:55,SD,60.15309612595908,
,,,,,,calibration,0,10,2,426,13,N,1,right,0.47089742600110185,0,0,,,,,,,,,,,,,,,,,,,,,1,,,,,,,,,,,,,,,,,,,,,,,,,,,,,,,,,,,,,,,,,,,,,,47,152161,19,Female,1,2024/02/12_10:15:55,SD,60.15309612595908,
,,,,,,calibration,0,10,2,426,14,X,0,left,0.9627509800011467,0,0,,,,,,,,,,,,,,,,,,,,,1,,,,,,,,,,,,,,,,,,,,,,,,,,,,,,,,,,,,,,,,,,,,,,47,152161,19,Female,1,2024/02/12_10:15:55,SD,60.15309612595908,
,,,,,,calibration,0,10,2,426,15,C,0,right,0.6491014200000791,1,0,,,,,,,,,,,,,,,,,,,,,1,,,,,,,,,,,,,,,,,,,,,,,,,,,,,,,,,,,,,,,,,,,,,,47,152161,19,Female,1,2024/02/12_10:15:55,SD,60.15309612595908,
,,,,,,calibration,0,10,2,426,16,N,0,right,0.6289863920010248,1,0,,,,,,,,,,,,,,,,,,,,,1,,,,,,,,,,,,,,,,,,,,,,,,,,,,,,,,,,,,,,,,,,,,,,47,152161,19,Female,1,2024/02/12_10:15:55,SD,60.15309612595908,
,,,,,,calibration,0,10,2,426,17,X,0,right,0.8098797789989476,1,0,,,,,,,,,,,,,,,,,,,,,1,,,,,,,,,,,,,,,,,,,,,,,,,,,,,,,,,,,,,,,,,,,,,,47,152161,19,Female,1,2024/02/12_10:15:55,SD,60.15309612595908,
,,,,,,calibration,0,10,2,426,,,,,,,,0.7041666666666667,0.4,0.16666666666666666,0.8333333333333334,0.0,0.8333333333333334,0.6527062607650912,2,2,0,0,0,10,12,5,12,0,,,,1,,,,,,,,,,,,,,,,,,,,,,,,,,,,,,,,,,,,,,,,,,,,,,47,152161,19,Female,1,2024/02/12_10:15:55,SD,60.15309612595908,
,,,,,,Calibration,0,,2,426,,,,,,,,,,,,,,,,,,,,,,,,,6,,,1,,,,,,,,,,,,,,,,,,,,,,,,,,,,,,,,,,,,,,,,,,,,,,47,152161,19,Female,1,2024/02/12_10:15:55,SD,60.15309612595908,
,,,,,,calibration,0,29,2,500,1,S,0,right,0.3958509249987401,1,0,,,,,,,,,,,,,,,,,,,,,1,,,,,,,,,,,,,,,,,,,,,,,,,,,,,,,,,,,,,,,,,,,,,,47,152161,19,Female,1,2024/02/12_10:15:55,SD,60.15309612595908,
,,,,,,calibration,0,29,2,500,2,F,0,right,0.47194200299963995,1,0,,,,,,,,,,,,,,,,,,,,,1,,,,,,,,,,,,,,,,,,,,,,,,,,,,,,,,,,,,,,,,,,,,,,47,152161,19,Female,1,2024/02/12_10:15:55,SD,60.15309612595908,
,,,,,,calibration,0,29,2,500,3,V,0,right,0.49918795300072816,1,0,,,,,,,,,,,,,,,,,,,,,1,,,,,,,,,,,,,,,,,,,,,,,,,,,,,,,,,,,,,,,,,,,,,,47,152161,19,Female,1,2024/02/12_10:15:55,SD,60.15309612595908,
,,,,,,calibration,0,29,2,500,4,F,1,left,0.5281584360000124,1,0,,,,,,,,,,,,,,,,,,,,,1,,,,,,,,,,,,,,,,,,,,,,,,,,,,,,,,,,,,,,,,,,,,,,47,152161,19,Female,1,2024/02/12_10:15:55,SD,60.15309612595908,
,,,,,,calibration,0,29,2,500,5,V,1,left,0.7436397569999826,1,0,,,,,,,,,,,,,,,,,,,,,1,,,,,,,,,,,,,,,,,,,,,,,,,,,,,,,,,,,,,,,,,,,,,,47,152161,19,Female,1,2024/02/12_10:15:55,SD,60.15309612595908,
,,,,,,calibration,0,29,2,500,6,N,0,right,0.8982038089998241,1,0,,,,,,,,,,,,,,,,,,,,,1,,,,,,,,,,,,,,,,,,,,,,,,,,,,,,,,,,,,,,,,,,,,,,47,152161,19,Female,1,2024/02/12_10:15:55,SD,60.15309612595908,
,,,,,,calibration,0,29,2,500,7,V,1,right,nan,0,1,,,,,,,,,,,,,,,,,,,,,1,,,,,,,,,,,,,,,,,,,,,,,,,,,,,,,,,,,,,,,,,,,,,,47,152161,19,Female,1,2024/02/12_10:15:55,SD,60.15309612595908,
,,,,,,calibration,0,29,2,500,8,J,0,right,0.7666632430009486,1,0,,,,,,,,,,,,,,,,,,,,,1,,,,,,,,,,,,,,,,,,,,,,,,,,,,,,,,,,,,,,,,,,,,,,47,152161,19,Female,1,2024/02/12_10:15:55,SD,60.15309612595908,
,,,,,,calibration,0,29,2,500,9,V,1,left,0.42956286200023897,1,0,,,,,,,,,,,,,,,,,,,,,1,,,,,,,,,,,,,,,,,,,,,,,,,,,,,,,,,,,,,,,,,,,,,,47,152161,19,Female,1,2024/02/12_10:15:55,SD,60.15309612595908,
,,,,,,calibration,0,29,2,500,10,S,0,right,0.5388359089993173,1,0,,,,,,,,,,,,,,,,,,,,,1,,,,,,,,,,,,,,,,,,,,,,,,,,,,,,,,,,,,,,,,,,,,,,47,152161,19,Female,1,2024/02/12_10:15:55,SD,60.15309612595908,
,,,,,,calibration,0,29,2,500,11,C,0,left,0.8463981699987926,0,0,,,,,,,,,,,,,,,,,,,,,1,,,,,,,,,,,,,,,,,,,,,,,,,,,,,,,,,,,,,,,,,,,,,,47,152161,19,Female,1,2024/02/12_10:15:55,SD,60.15309612595908,
,,,,,,calibration,0,29,2,500,12,S,1,left,0.4774463339999784,1,0,,,,,,,,,,,,,,,,,,,,,1,,,,,,,,,,,,,,,,,,,,,,,,,,,,,,,,,,,,,,,,,,,,,,47,152161,19,Female,1,2024/02/12_10:15:55,SD,60.15309612595908,
,,,,,,calibration,0,29,2,500,13,V,0,right,0.528264651000427,1,0,,,,,,,,,,,,,,,,,,,,,1,,,,,,,,,,,,,,,,,,,,,,,,,,,,,,,,,,,,,,,,,,,,,,47,152161,19,Female,1,2024/02/12_10:15:55,SD,60.15309612595908,
,,,,,,calibration,0,29,2,500,14,Q,0,right,0.5197460519993911,1,0,,,,,,,,,,,,,,,,,,,,,1,,,,,,,,,,,,,,,,,,,,,,,,,,,,,,,,,,,,,,,,,,,,,,47,152161,19,Female,1,2024/02/12_10:15:55,SD,60.15309612595908,
,,,,,,calibration,0,29,2,500,15,F,0,right,0.8798379359996034,1,0,,,,,,,,,,,,,,,,,,,,,1,,,,,,,,,,,,,,,,,,,,,,,,,,,,,,,,,,,,,,,,,,,,,,47,152161,19,Female,1,2024/02/12_10:15:55,SD,60.15309612595908,
,,,,,,calibration,0,29,2,500,16,J,0,right,0.9279550289993495,1,0,,,,,,,,,,,,,,,,,,,,,1,,,,,,,,,,,,,,,,,,,,,,,,,,,,,,,,,,,,,,,,,,,,,,47,152161,19,Female,1,2024/02/12_10:15:55,SD,60.15309612595908,
,,,,,,calibration,0,29,2,500,,,,,,,,0.9090909090909091,0.8,0.09090909090909091,0.9090909090909091,0.0625,0.8465909090909091,0.630112871266465,4,1,1,0,1,10,14,5,11,0,,,,1,,,,,,,,,,,,,,,,,,,,,,,,,,,,,,,,,,,,,,,,,,,,,,47,152161,19,Female,1,2024/02/12_10:15:55,SD,60.15309612595908,
,,,,,,Calibration,0,,2,500,,,,,,,,,,,,,,,,,,,,,,,,,7,,,1,,,,,,,,,,,,,,,,,,,,,,,,,,,,,,,,,,,,,,,,,,,,,,47,152161,19,Female,1,2024/02/12_10:15:55,SD,60.15309612595908,
,,,,,,calibration,0,11,2,426,1,J,0,right,0.3978660700013279,1,0,,,,,,,,,,,,,,,,,,,,,1,,,,,,,,,,,,,,,,,,,,,,,,,,,,,,,,,,,,,,,,,,,,,,47,152161,19,Female,1,2024/02/12_10:15:55,SD,60.15309612595908,
,,,,,,calibration,0,11,2,426,2,Q,0,right,0.2934043559998827,1,0,,,,,,,,,,,,,,,,,,,,,1,,,,,,,,,,,,,,,,,,,,,,,,,,,,,,,,,,,,,,,,,,,,,,47,152161,19,Female,1,2024/02/12_10:15:55,SD,60.15309612595908,
,,,,,,calibration,0,11,2,426,3,J,1,left,0.46994558299957134,1,0,,,,,,,,,,,,,,,,,,,,,1,,,,,,,,,,,,,,,,,,,,,,,,,,,,,,,,,,,,,,,,,,,,,,47,152161,19,Female,1,2024/02/12_10:15:55,SD,60.15309612595908,
,,,,,,calibration,0,11,2,426,4,F,0,right,0.4769133369991323,1,0,,,,,,,,,,,,,,,,,,,,,1,,,,,,,,,,,,,,,,,,,,,,,,,,,,,,,,,,,,,,,,,,,,,,47,152161,19,Female,1,2024/02/12_10:15:55,SD,60.15309612595908,
,,,,,,calibration,0,11,2,426,5,X,0,right,0.6889424689998123,1,0,,,,,,,,,,,,,,,,,,,,,1,,,,,,,,,,,,,,,,,,,,,,,,,,,,,,,,,,,,,,,,,,,,,,47,152161,19,Female,1,2024/02/12_10:15:55,SD,60.15309612595908,
,,,,,,calibration,0,11,2,426,6,F,1,left,0.3874210989997664,1,0,,,,,,,,,,,,,,,,,,,,,1,,,,,,,,,,,,,,,,,,,,,,,,,,,,,,,,,,,,,,,,,,,,,,47,152161,19,Female,1,2024/02/12_10:15:55,SD,60.15309612595908,
,,,,,,calibration,0,11,2,426,7,V,0,right,0.4688282139995863,1,0,,,,,,,,,,,,,,,,,,,,,1,,,,,,,,,,,,,,,,,,,,,,,,,,,,,,,,,,,,,,,,,,,,,,47,152161,19,Female,1,2024/02/12_10:15:55,SD,60.15309612595908,
,,,,,,calibration,0,11,2,426,8,F,1,right,0.6458244039986312,0,0,,,,,,,,,,,,,,,,,,,,,1,,,,,,,,,,,,,,,,,,,,,,,,,,,,,,,,,,,,,,,,,,,,,,47,152161,19,Female,1,2024/02/12_10:15:55,SD,60.15309612595908,
,,,,,,calibration,0,11,2,426,9,J,0,right,0.7455994350002584,1,0,,,,,,,,,,,,,,,,,,,,,1,,,,,,,,,,,,,,,,,,,,,,,,,,,,,,,,,,,,,,,,,,,,,,47,152161,19,Female,1,2024/02/12_10:15:55,SD,60.15309612595908,
,,,,,,calibration,0,11,2,426,10,X,0,right,0.514082388001043,1,0,,,,,,,,,,,,,,,,,,,,,1,,,,,,,,,,,,,,,,,,,,,,,,,,,,,,,,,,,,,,,,,,,,,,47,152161,19,Female,1,2024/02/12_10:15:55,SD,60.15309612595908,
,,,,,,calibration,0,11,2,426,11,C,0,right,0.5446249930009799,1,0,,,,,,,,,,,,,,,,,,,,,1,,,,,,,,,,,,,,,,,,,,,,,,,,,,,,,,,,,,,,,,,,,,,,47,152161,19,Female,1,2024/02/12_10:15:55,SD,60.15309612595908,
,,,,,,calibration,0,11,2,426,12,S,0,right,0.5570606500004942,1,0,,,,,,,,,,,,,,,,,,,,,1,,,,,,,,,,,,,,,,,,,,,,,,,,,,,,,,,,,,,,,,,,,,,,47,152161,19,Female,1,2024/02/12_10:15:55,SD,60.15309612595908,
,,,,,,calibration,0,11,2,426,13,X,0,right,0.4739994100000331,1,0,,,,,,,,,,,,,,,,,,,,,1,,,,,,,,,,,,,,,,,,,,,,,,,,,,,,,,,,,,,,,,,,,,,,47,152161,19,Female,1,2024/02/12_10:15:55,SD,60.15309612595908,
,,,,,,calibration,0,11,2,426,14,S,1,right,0.5963138780007284,0,0,,,,,,,,,,,,,,,,,,,,,1,,,,,,,,,,,,,,,,,,,,,,,,,,,,,,,,,,,,,,,,,,,,,,47,152161,19,Female,1,2024/02/12_10:15:55,SD,60.15309612595908,
,,,,,,calibration,0,11,2,426,15,J,0,right,0.4058810229998926,1,0,,,,,,,,,,,,,,,,,,,,,1,,,,,,,,,,,,,,,,,,,,,,,,,,,,,,,,,,,,,,,,,,,,,,47,152161,19,Female,1,2024/02/12_10:15:55,SD,60.15309612595908,
,,,,,,calibration,0,11,2,426,16,V,0,right,0.4868827579994104,1,0,,,,,,,,,,,,,,,,,,,,,1,,,,,,,,,,,,,,,,,,,,,,,,,,,,,,,,,,,,,,,,,,,,,,47,152161,19,Female,1,2024/02/12_10:15:55,SD,60.15309612595908,
,,,,,,calibration,0,11,2,426,17,J,1,left,0.4214214379990153,1,0,,,,,,,,,,,,,,,,,,,,,1,,,,,,,,,,,,,,,,,,,,,,,,,,,,,,,,,,,,,,,,,,,,,,47,152161,19,Female,1,2024/02/12_10:15:55,SD,60.15309612595908,
,,,,,,calibration,0,11,2,426,,,,,,,,0.9,0.6,0.0,1.0,0.0,1.0,0.5044124414705626,3,0,0,0,0,12,15,5,12,0,,,,1,,,,,,,,,,,,,,,,,,,,,,,,,,,,,,,,,,,,,,,,,,,,,,47,152161,19,Female,1,2024/02/12_10:15:55,SD,60.15309612595908,
,,,,,,Calibration,0,,2,426,,,,,,,,,,,,,,,,,,,,,,,,,8,,,1,,,,,,,,,,,,,,,,,,,,,,,,,,,,,,,,,,,,,,,,,,,,,,47,152161,19,Female,1,2024/02/12_10:15:55,SD,60.15309612595908,
,,,,,,calibration,0,34,2,361,1,F,0,right,0.401952103999065,1,0,,,,,,,,,,,,,,,,,,,,,1,,,,,,,,,,,,,,,,,,,,,,,,,,,,,,,,,,,,,,,,,,,,,,47,152161,19,Female,1,2024/02/12_10:15:55,SD,60.15309612595908,
,,,,,,calibration,0,34,2,361,2,C,0,right,0.8774054759996943,1,0,,,,,,,,,,,,,,,,,,,,,1,,,,,,,,,,,,,,,,,,,,,,,,,,,,,,,,,,,,,,,,,,,,,,47,152161,19,Female,1,2024/02/12_10:15:55,SD,60.15309612595908,
,,,,,,calibration,0,34,2,361,3,V,0,right,0.47255827499975567,1,0,,,,,,,,,,,,,,,,,,,,,1,,,,,,,,,,,,,,,,,,,,,,,,,,,,,,,,,,,,,,,,,,,,,,47,152161,19,Female,1,2024/02/12_10:15:55,SD,60.15309612595908,
,,,,,,calibration,0,34,2,361,4,X,0,right,0.543394250998972,1,0,,,,,,,,,,,,,,,,,,,,,1,,,,,,,,,,,,,,,,,,,,,,,,,,,,,,,,,,,,,,,,,,,,,,47,152161,19,Female,1,2024/02/12_10:15:55,SD,60.15309612595908,
,,,,,,calibration,0,34,2,361,5,V,1,right,0.6436580590016092,0,0,,,,,,,,,,,,,,,,,,,,,1,,,,,,,,,,,,,,,,,,,,,,,,,,,,,,,,,,,,,,,,,,,,,,47,152161,19,Female,1,2024/02/12_10:15:55,SD,60.15309612595908,
,,,,,,calibration,0,34,2,361,6,N,0,right,0.5461501919999137,1,0,,,,,,,,,,,,,,,,,,,,,1,,,,,,,,,,,,,,,,,,,,,,,,,,,,,,,,,,,,,,,,,,,,,,47,152161,19,Female,1,2024/02/12_10:15:55,SD,60.15309612595908,
,,,,,,calibration,0,34,2,361,7,V,1,right,0.9598722900009307,0,0,,,,,,,,,,,,,,,,,,,,,1,,,,,,,,,,,,,,,,,,,,,,,,,,,,,,,,,,,,,,,,,,,,,,47,152161,19,Female,1,2024/02/12_10:15:55,SD,60.15309612595908,
,,,,,,calibration,0,34,2,361,8,N,1,right,0.5907723290001741,0,0,,,,,,,,,,,,,,,,,,,,,1,,,,,,,,,,,,,,,,,,,,,,,,,,,,,,,,,,,,,,,,,,,,,,47,152161,19,Female,1,2024/02/12_10:15:55,SD,60.15309612595908,
,,,,,,calibration,0,34,2,361,9,J,0,right,0.6340399640012038,1,0,,,,,,,,,,,,,,,,,,,,,1,,,,,,,,,,,,,,,,,,,,,,,,,,,,,,,,,,,,,,,,,,,,,,47,152161,19,Female,1,2024/02/12_10:15:55,SD,60.15309612595908,
,,,,,,calibration,0,34,2,361,10,V,0,left,0.4938822000003711,0,0,,,,,,,,,,,,,,,,,,,,,1,,,,,,,,,,,,,,,,,,,,,,,,,,,,,,,,,,,,,,,,,,,,,,47,152161,19,Female,1,2024/02/12_10:15:55,SD,60.15309612595908,
,,,,,,calibration,0,34,2,361,11,C,0,right,0.5432597350009019,1,0,,,,,,,,,,,,,,,,,,,,,1,,,,,,,,,,,,,,,,,,,,,,,,,,,,,,,,,,,,,,,,,,,,,,47,152161,19,Female,1,2024/02/12_10:15:55,SD,60.15309612595908,
,,,,,,calibration,0,34,2,361,12,V,1,right,0.5592576290000579,0,0,,,,,,,,,,,,,,,,,,,,,1,,,,,,,,,,,,,,,,,,,,,,,,,,,,,,,,,,,,,,,,,,,,,,47,152161,19,Female,1,2024/02/12_10:15:55,SD,60.15309612595908,
,,,,,,calibration,0,34,2,361,13,J,0,right,0.6822909229995275,1,0,,,,,,,,,,,,,,,,,,,,,1,,,,,,,,,,,,,,,,,,,,,,,,,,,,,,,,,,,,,,,,,,,,,,47,152161,19,Female,1,2024/02/12_10:15:55,SD,60.15309612595908,
,,,,,,calibration,0,34,2,361,14,S,0,right,0.6779138560013962,1,0,,,,,,,,,,,,,,,,,,,,,1,,,,,,,,,,,,,,,,,,,,,,,,,,,,,,,,,,,,,,,,,,,,,,47,152161,19,Female,1,2024/02/12_10:15:55,SD,60.15309612595908,
,,,,,,calibration,0,34,2,361,15,J,1,left,0.40612847600095847,1,0,,,,,,,,,,,,,,,,,,,,,1,,,,,,,,,,,,,,,,,,,,,,,,,,,,,,,,,,,,,,,,,,,,,,47,152161,19,Female,1,2024/02/12_10:15:55,SD,60.15309612595908,
,,,,,,calibration,0,34,2,361,16,V,0,right,0.4339590559993667,1,0,,,,,,,,,,,,,,,,,,,,,1,,,,,,,,,,,,,,,,,,,,,,,,,,,,,,,,,,,,,,,,,,,,,,47,152161,19,Female,1,2024/02/12_10:15:55,SD,60.15309612595908,
,,,,,,calibration,0,34,2,361,17,F,0,right,0.51337747999969,1,0,,,,,,,,,,,,,,,,,,,,,1,,,,,,,,,,,,,,,,,,,,,,,,,,,,,,,,,,,,,,,,,,,,,,47,152161,19,Female,1,2024/02/12_10:15:55,SD,60.15309612595908,
,,,,,,calibration,0,34,2,361,18,S,0,right,0.47028448300079617,1,0,,,,,,,,,,,,,,,,,,,,,1,,,,,,,,,,,,,,,,,,,,,,,,,,,,,,,,,,,,,,,,,,,,,,47,152161,19,Female,1,2024/02/12_10:15:55,SD,60.15309612595908,
,,,,,,calibration,0,34,2,361,,,,,,,,0.6846153846153846,0.2,0.07692307692307693,0.9230769230769231,0.0,0.9230769230769231,0.580564265444688,1,1,0,0,0,12,13,5,13,0,,,,1,,,,,,,,,,,,,,,,,,,,,,,,,,,,,,,,,,,,,,,,,,,,,,47,152161,19,Female,1,2024/02/12_10:15:55,SD,60.15309612595908,
,,,,,,Calibration,0,,2,361,,,,,,,,,,,,,,,,,,,,,,,,,9,,,1,,,,,,,,,,,,,,,,,,,,,,,,,,,,,,,,,,,,,,,,,,,,,,47,152161,19,Female,1,2024/02/12_10:15:55,SD,60.15309612595908,
,,,,,,calibration,0,31,2,426,1,V,0,right,0.5627966550000565,1,0,,,,,,,,,,,,,,,,,,,,,1,,,,,,,,,,,,,,,,,,,,,,,,,,,,,,,,,,,,,,,,,,,,,,47,152161,19,Female,1,2024/02/12_10:15:55,SD,60.15309612595908,
,,,,,,calibration,0,31,2,426,2,J,0,right,0.5248382010013302,1,0,,,,,,,,,,,,,,,,,,,,,1,,,,,,,,,,,,,,,,,,,,,,,,,,,,,,,,,,,,,,,,,,,,,,47,152161,19,Female,1,2024/02/12_10:15:55,SD,60.15309612595908,
,,,,,,calibration,0,31,2,426,3,V,1,left,0.4528449810004531,1,0,,,,,,,,,,,,,,,,,,,,,1,,,,,,,,,,,,,,,,,,,,,,,,,,,,,,,,,,,,,,,,,,,,,,47,152161,19,Female,1,2024/02/12_10:15:55,SD,60.15309612595908,
,,,,,,calibration,0,31,2,426,4,J,1,right,0.6011139449983602,0,0,,,,,,,,,,,,,,,,,,,,,1,,,,,,,,,,,,,,,,,,,,,,,,,,,,,,,,,,,,,,,,,,,,,,47,152161,19,Female,1,2024/02/12_10:15:55,SD,60.15309612595908,
,,,,,,calibration,0,31,2,426,5,C,0,right,nan,0,1,,,,,,,,,,,,,,,,,,,,,1,,,,,,,,,,,,,,,,,,,,,,,,,,,,,,,,,,,,,,,,,,,,,,47,152161,19,Female,1,2024/02/12_10:15:55,SD,60.15309612595908,
,,,,,,calibration,0,31,2,426,6,S,0,right,0.450725089000116,1,0,,,,,,,,,,,,,,,,,,,,,1,,,,,,,,,,,,,,,,,,,,,,,,,,,,,,,,,,,,,,,,,,,,,,47,152161,19,Female,1,2024/02/12_10:15:55,SD,60.15309612595908,
,,,,,,calibration,0,31,2,426,7,Q,0,right,0.5264948760013795,1,0,,,,,,,,,,,,,,,,,,,,,1,,,,,,,,,,,,,,,,,,,,,,,,,,,,,,,,,,,,,,,,,,,,,,47,152161,19,Female,1,2024/02/12_10:15:55,SD,60.15309612595908,
,,,,,,calibration,0,31,2,426,8,F,0,right,0.4861206010009482,1,0,,,,,,,,,,,,,,,,,,,,,1,,,,,,,,,,,,,,,,,,,,,,,,,,,,,,,,,,,,,,,,,,,,,,47,152161,19,Female,1,2024/02/12_10:15:55,SD,60.15309612595908,
,,,,,,calibration,0,31,2,426,9,Q,1,left,0.5542272170005162,1,0,,,,,,,,,,,,,,,,,,,,,1,,,,,,,,,,,,,,,,,,,,,,,,,,,,,,,,,,,,,,,,,,,,,,47,152161,19,Female,1,2024/02/12_10:15:55,SD,60.15309612595908,
,,,,,,calibration,0,31,2,426,10,V,0,right,0.42542966899964085,1,0,,,,,,,,,,,,,,,,,,,,,1,,,,,,,,,,,,,,,,,,,,,,,,,,,,,,,,,,,,,,,,,,,,,,47,152161,19,Female,1,2024/02/12_10:15:55,SD,60.15309612595908,
,,,,,,calibration,0,31,2,426,11,C,0,right,0.3943925629992009,1,0,,,,,,,,,,,,,,,,,,,,,1,,,,,,,,,,,,,,,,,,,,,,,,,,,,,,,,,,,,,,,,,,,,,,47,152161,19,Female,1,2024/02/12_10:15:55,SD,60.15309612595908,
,,,,,,calibration,0,31,2,426,12,S,0,right,nan,0,1,,,,,,,,,,,,,,,,,,,,,1,,,,,,,,,,,,,,,,,,,,,,,,,,,,,,,,,,,,,,,,,,,,,,47,152161,19,Female,1,2024/02/12_10:15:55,SD,60.15309612595908,
,,,,,,calibration,0,31,2,426,13,J,0,right,0.6087718660000974,1,0,,,,,,,,,,,,,,,,,,,,,1,,,,,,,,,,,,,,,,,,,,,,,,,,,,,,,,,,,,,,,,,,,,,,47,152161,19,Female,1,2024/02/12_10:15:55,SD,60.15309612595908,
,,,,,,calibration,0,31,2,426,14,S,1,right,0.367173904000083,0,0,,,,,,,,,,,,,,,,,,,,,1,,,,,,,,,,,,,,,,,,,,,,,,,,,,,,,,,,,,,,,,,,,,,,47,152161,19,Female,1,2024/02/12_10:15:55,SD,60.15309612595908,
,,,,,,calibration,0,31,2,426,15,X,0,right,0.5954122889997961,1,0,,,,,,,,,,,,,,,,,,,,,1,,,,,,,,,,,,,,,,,,,,,,,,,,,,,,,,,,,,,,,,,,,,,,47,152161,19,Female,1,2024/02/12_10:15:55,SD,60.15309612595908,
,,,,,,calibration,0,31,2,426,16,V,0,right,0.478296422999847,1,0,,,,,,,,,,,,,,,,,,,,,1,,,,,,,,,,,,,,,,,,,,,,,,,,,,,,,,,,,,,,,,,,,,,,47,152161,19,Female,1,2024/02/12_10:15:55,SD,60.15309612595908,
,,,,,,calibration,0,31,2,426,17,X,1,right,0.5574015969996253,0,0,,,,,,,,,,,,,,,,,,,,,1,,,,,,,,,,,,,,,,,,,,,,,,,,,,,,,,,,,,,,,,,,,,,,47,152161,19,Female,1,2024/02/12_10:15:55,SD,60.15309612595908,
,,,,,,calibration,0,31,2,426,,,,,,,,0.85,0.4,0.0,1.0,0.11764705882352941,0.8823529411764706,0.50573599173343,2,0,0,2,2,10,12,5,12,0,,,,1,,,,,,,,,,,,,,,,,,,,,,,,,,,,,,,,,,,,,,,,,,,,,,47,152161,19,Female,1,2024/02/12_10:15:55,SD,60.15309612595908,
,,,,,,Calibration,0,,2,426,,,,,,,,,,,,,,,,,,,,,,,,,10,,,1,,,,,,,,,,,,,,,,,,,,,,,,,,,,,,,,,,,,,,,,,,,,,,47,152161,19,Female,1,2024/02/12_10:15:55,SD,60.15309612595908,
,,,,,,calibration,0,6,2,426,1,J,0,right,0.3378357910005434,1,0,,,,,,,,,,,,,,,,,,,,,1,,,,,,,,,,,,,,,,,,,,,,,,,,,,,,,,,,,,,,,,,,,,,,47,152161,19,Female,1,2024/02/12_10:15:55,SD,60.15309612595908,
,,,,,,calibration,0,6,2,426,2,C,0,right,0.3814246869987983,1,0,,,,,,,,,,,,,,,,,,,,,1,,,,,,,,,,,,,,,,,,,,,,,,,,,,,,,,,,,,,,,,,,,,,,47,152161,19,Female,1,2024/02/12_10:15:55,SD,60.15309612595908,
,,,,,,calibration,0,6,2,426,3,J,1,left,0.6175219280012243,1,0,,,,,,,,,,,,,,,,,,,,,1,,,,,,,,,,,,,,,,,,,,,,,,,,,,,,,,,,,,,,,,,,,,,,47,152161,19,Female,1,2024/02/12_10:15:55,SD,60.15309612595908,
,,,,,,calibration,0,6,2,426,4,Q,0,right,0.49347274799947627,1,0,,,,,,,,,,,,,,,,,,,,,1,,,,,,,,,,,,,,,,,,,,,,,,,,,,,,,,,,,,,,,,,,,,,,47,152161,19,Female,1,2024/02/12_10:15:55,SD,60.15309612595908,
,,,,,,calibration,0,6,2,426,5,S,0,right,0.6510453099999722,1,0,,,,,,,,,,,,,,,,,,,,,1,,,,,,,,,,,,,,,,,,,,,,,,,,,,,,,,,,,,,,,,,,,,,,47,152161,19,Female,1,2024/02/12_10:15:55,SD,60.15309612595908,
,,,,,,calibration,0,6,2,426,6,Q,1,left,0.48585993999950006,1,0,,,,,,,,,,,,,,,,,,,,,1,,,,,,,,,,,,,,,,,,,,,,,,,,,,,,,,,,,,,,,,,,,,,,47,152161,19,Female,1,2024/02/12_10:15:55,SD,60.15309612595908,
,,,,,,calibration,0,6,2,426,7,F,0,right,0.3332063689995266,1,0,,,,,,,,,,,,,,,,,,,,,1,,,,,,,,,,,,,,,,,,,,,,,,,,,,,,,,,,,,,,,,,,,,,,47,152161,19,Female,1,2024/02/12_10:15:55,SD,60.15309612595908,
,,,,,,calibration,0,6,2,426,8,Q,1,left,0.8474056929990184,1,0,,,,,,,,,,,,,,,,,,,,,1,,,,,,,,,,,,,,,,,,,,,,,,,,,,,,,,,,,,,,,,,,,,,,47,152161,19,Female,1,2024/02/12_10:15:55,SD,60.15309612595908,
,,,,,,calibration,0,6,2,426,9,X,0,right,0.7595388150002691,1,0,,,,,,,,,,,,,,,,,,,,,1,,,,,,,,,,,,,,,,,,,,,,,,,,,,,,,,,,,,,,,,,,,,,,47,152161,19,Female,1,2024/02/12_10:15:55,SD,60.15309612595908,
,,,,,,calibration,0,6,2,426,10,Q,1,right,0.9652817879996292,0,0,,,,,,,,,,,,,,,,,,,,,1,,,,,,,,,,,,,,,,,,,,,,,,,,,,,,,,,,,,,,,,,,,,,,47,152161,19,Female,1,2024/02/12_10:15:55,SD,60.15309612595908,
,,,,,,calibration,0,6,2,426,11,C,0,right,0.8448458809998556,1,0,,,,,,,,,,,,,,,,,,,,,1,,,,,,,,,,,,,,,,,,,,,,,,,,,,,,,,,,,,,,,,,,,,,,47,152161,19,Female,1,2024/02/12_10:15:55,SD,60.15309612595908,
,,,,,,calibration,0,6,2,426,12,N,0,right,0.45424329600064084,1,0,,,,,,,,,,,,,,,,,,,,,1,,,,,,,,,,,,,,,,,,,,,,,,,,,,,,,,,,,,,,,,,,,,,,47,152161,19,Female,1,2024/02/12_10:15:55,SD,60.15309612595908,
,,,,,,calibration,0,6,2,426,13,J,0,right,0.5404947769984574,1,0,,,,,,,,,,,,,,,,,,,,,1,,,,,,,,,,,,,,,,,,,,,,,,,,,,,,,,,,,,,,,,,,,,,,47,152161,19,Female,1,2024/02/12_10:15:55,SD,60.15309612595908,
,,,,,,calibration,0,6,2,426,14,N,1,left,0.4087762039998779,1,0,,,,,,,,,,,,,,,,,,,,,1,,,,,,,,,,,,,,,,,,,,,,,,,,,,,,,,,,,,,,,,,,,,,,47,152161,19,Female,1,2024/02/12_10:15:55,SD,60.15309612595908,
,,,,,,calibration,0,6,2,426,15,X,0,right,0.32547532900025544,1,0,,,,,,,,,,,,,,,,,,,,,1,,,,,,,,,,,,,,,,,,,,,,,,,,,,,,,,,,,,,,,,,,,,,,47,152161,19,Female,1,2024/02/12_10:15:55,SD,60.15309612595908,
,,,,,,calibration,0,6,2,426,16,C,0,right,0.47405229399919335,1,0,,,,,,,,,,,,,,,,,,,,,1,,,,,,,,,,,,,,,,,,,,,,,,,,,,,,,,,,,,,,,,,,,,,,47,152161,19,Female,1,2024/02/12_10:15:55,SD,60.15309612595908,
,,,,,,calibration,0,6,2,426,17,Q,0,right,0.5320304719989508,1,0,,,,,,,,,,,,,,,,,,,,,1,,,,,,,,,,,,,,,,,,,,,,,,,,,,,,,,,,,,,,,,,,,,,,47,152161,19,Female,1,2024/02/12_10:15:55,SD,60.15309612595908,
,,,,,,calibration,0,6,2,426,,,,,,,,0.95,0.8,0.0,1.0,0.0,1.0,0.5560300777644229,4,0,0,0,0,12,16,5,12,0,,,,1,,,,,,,,,,,,,,,,,,,,,,,,,,,,,,,,,,,,,,,,,,,,,,47,152161,19,Female,1,2024/02/12_10:15:55,SD,60.15309612595908,
,,,,,,Calibration,0,,2,426,,,,,,,,,,,,,,,,,,,,,,,,,11,,,1,,,,,,,,,,,,,,,,,,,,,,,,,,,,,,,,,,,,,,,,,,,,,,47,152161,19,Female,1,2024/02/12_10:15:55,SD,60.15309612595908,
,,,,,,calibration,0,1,2,361,1,V,0,right,0.3212301679996017,1,0,,,,,,,,,,,,,,,,,,,,,1,,,,,,,,,,,,,,,,,,,,,,,,,,,,,,,,,,,,,,,,,,,,,,47,152161,19,Female,1,2024/02/12_10:15:55,SD,60.15309612595908,
,,,,,,calibration,0,1,2,361,2,J,0,right,0.4941475069990702,1,0,,,,,,,,,,,,,,,,,,,,,1,,,,,,,,,,,,,,,,,,,,,,,,,,,,,,,,,,,,,,,,,,,,,,47,152161,19,Female,1,2024/02/12_10:15:55,SD,60.15309612595908,
,,,,,,calibration,0,1,2,361,3,N,0,right,0.5958418450009049,1,0,,,,,,,,,,,,,,,,,,,,,1,,,,,,,,,,,,,,,,,,,,,,,,,,,,,,,,,,,,,,,,,,,,,,47,152161,19,Female,1,2024/02/12_10:15:55,SD,60.15309612595908,
,,,,,,calibration,0,1,2,361,4,J,1,right,nan,0,1,,,,,,,,,,,,,,,,,,,,,1,,,,,,,,,,,,,,,,,,,,,,,,,,,,,,,,,,,,,,,,,,,,,,47,152161,19,Female,1,2024/02/12_10:15:55,SD,60.15309612595908,
,,,,,,calibration,0,1,2,361,5,N,1,right,0.2153147329991043,0,0,,,,,,,,,,,,,,,,,,,,,1,,,,,,,,,,,,,,,,,,,,,,,,,,,,,,,,,,,,,,,,,,,,,,47,152161,19,Female,1,2024/02/12_10:15:55,SD,60.15309612595908,
,,,,,,calibration,0,1,2,361,6,X,0,right,0.7499396820003312,1,0,,,,,,,,,,,,,,,,,,,,,1,,,,,,,,,,,,,,,,,,,,,,,,,,,,,,,,,,,,,,,,,,,,,,47,152161,19,Female,1,2024/02/12_10:15:55,SD,60.15309612595908,
,,,,,,calibration,0,1,2,361,7,S,0,right,0.5740624130012293,1,0,,,,,,,,,,,,,,,,,,,,,1,,,,,,,,,,,,,,,,,,,,,,,,,,,,,,,,,,,,,,,,,,,,,,47,152161,19,Female,1,2024/02/12_10:15:55,SD,60.15309612595908,
,,,,,,calibration,0,1,2,361,8,N,0,left,0.548322073998861,0,0,,,,,,,,,,,,,,,,,,,,,1,,,,,,,,,,,,,,,,,,,,,,,,,,,,,,,,,,,,,,,,,,,,,,47,152161,19,Female,1,2024/02/12_10:15:55,SD,60.15309612595908,
,,,,,,calibration,0,1,2,361,9,V,0,right,0.3069271149997803,1,0,,,,,,,,,,,,,,,,,,,,,1,,,,,,,,,,,,,,,,,,,,,,,,,,,,,,,,,,,,,,,,,,,,,,47,152161,19,Female,1,2024/02/12_10:15:55,SD,60.15309612595908,
,,,,,,calibration,0,1,2,361,10,N,1,left,0.3999648039989552,1,0,,,,,,,,,,,,,,,,,,,,,1,,,,,,,,,,,,,,,,,,,,,,,,,,,,,,,,,,,,,,,,,,,,,,47,152161,19,Female,1,2024/02/12_10:15:55,SD,60.15309612595908,
,,,,,,calibration,0,1,2,361,11,V,1,right,0.24483986699851812,0,0,,,,,,,,,,,,,,,,,,,,,1,,,,,,,,,,,,,,,,,,,,,,,,,,,,,,,,,,,,,,,,,,,,,,47,152161,19,Female,1,2024/02/12_10:15:55,SD,60.15309612595908,
,,,,,,calibration,0,1,2,361,12,F,0,right,0.875475214999824,1,0,,,,,,,,,,,,,,,,,,,,,1,,,,,,,,,,,,,,,,,,,,,,,,,,,,,,,,,,,,,,,,,,,,,,47,152161,19,Female,1,2024/02/12_10:15:55,SD,60.15309612595908,
,,,,,,calibration,0,1,2,361,13,V,1,left,0.8650342250002723,1,0,,,,,,,,,,,,,,,,,,,,,1,,,,,,,,,,,,,,,,,,,,,,,,,,,,,,,,,,,,,,,,,,,,,,47,152161,19,Female,1,2024/02/12_10:15:55,SD,60.15309612595908,
,,,,,,calibration,0,1,2,361,14,C,0,right,0.2953835850003088,1,0,,,,,,,,,,,,,,,,,,,,,1,,,,,,,,,,,,,,,,,,,,,,,,,,,,,,,,,,,,,,,,,,,,,,47,152161,19,Female,1,2024/02/12_10:15:55,SD,60.15309612595908,
,,,,,,calibration,0,1,2,361,15,V,1,right,0.9036191280010826,0,0,,,,,,,,,,,,,,,,,,,,,1,,,,,,,,,,,,,,,,,,,,,,,,,,,,,,,,,,,,,,,,,,,,,,47,152161,19,Female,1,2024/02/12_10:15:55,SD,60.15309612595908,
,,,,,,calibration,0,1,2,361,16,S,0,right,0.6433787710011529,1,0,,,,,,,,,,,,,,,,,,,,,1,,,,,,,,,,,,,,,,,,,,,,,,,,,,,,,,,,,,,,,,,,,,,,47,152161,19,Female,1,2024/02/12_10:15:55,SD,60.15309612595908,
,,,,,,calibration,0,1,2,361,17,N,0,left,0.6072247689990036,0,0,,,,,,,,,,,,,,,,,,,,,1,,,,,,,,,,,,,,,,,,,,,,,,,,,,,,,,,,,,,,,,,,,,,,47,152161,19,Female,1,2024/02/12_10:15:55,SD,60.15309612595908,
,,,,,,calibration,0,1,2,361,18,J,0,right,0.27452537899989693,1,0,,,,,,,,,,,,,,,,,,,,,1,,,,,,,,,,,,,,,,,,,,,,,,,,,,,,,,,,,,,,,,,,,,,,47,152161,19,Female,1,2024/02/12_10:15:55,SD,60.15309612595908,
,,,,,,calibration,0,1,2,361,,,,,,,,0.6666666666666666,0.3333333333333333,0.16666666666666666,0.8333333333333334,0.05555555555555555,0.7777777777777778,0.524425369411641,2,2,1,0,1,10,12,6,12,0,,,,1,,,,,,,,,,,,,,,,,,,,,,,,,,,,,,,,,,,,,,,,,,,,,,47,152161,19,Female,1,2024/02/12_10:15:55,SD,60.15309612595908,
,,,,,,Calibration,0,,2,361,,,,,,,,,,,,,,,,,,,,,,,,,12,,,1,,,,,,,,,,,,,,,,,,,,,,,,,,,,,,,,,,,,,,,,,,,,,,47,152161,19,Female,1,2024/02/12_10:15:55,SD,60.15309612595908,
,,,,,,calibration,0,30,2,426,1,Q,0,right,0.24669031799930963,1,0,,,,,,,,,,,,,,,,,,,,,1,,,,,,,,,,,,,,,,,,,,,,,,,,,,,,,,,,,,,,,,,,,,,,47,152161,19,Female,1,2024/02/12_10:15:55,SD,60.15309612595908,
,,,,,,calibration,0,30,2,426,2,Q,0,right,nan,0,1,,,,,,,,,,,,,,,,,,,,,1,,,,,,,,,,,,,,,,,,,,,,,,,,,,,,,,,,,,,,,,,,,,,,47,152161,19,Female,1,2024/02/12_10:15:55,SD,60.15309612595908,
,,,,,,calibration,0,30,2,426,3,Q,1,left,0.7596032639994519,1,0,,,,,,,,,,,,,,,,,,,,,1,,,,,,,,,,,,,,,,,,,,,,,,,,,,,,,,,,,,,,,,,,,,,,47,152161,19,Female,1,2024/02/12_10:15:55,SD,60.15309612595908,
,,,,,,calibration,0,30,2,426,4,N,0,right,0.5447026439996989,1,0,,,,,,,,,,,,,,,,,,,,,1,,,,,,,,,,,,,,,,,,,,,,,,,,,,,,,,,,,,,,,,,,,,,,47,152161,19,Female,1,2024/02/12_10:15:55,SD,60.15309612595908,
,,,,,,calibration,0,30,2,426,5,J,0,right,0.4609638599995378,1,0,,,,,,,,,,,,,,,,,,,,,1,,,,,,,,,,,,,,,,,,,,,,,,,,,,,,,,,,,,,,,,,,,,,,47,152161,19,Female,1,2024/02/12_10:15:55,SD,60.15309612595908,
,,,,,,calibration,0,30,2,426,6,X,0,right,0.5856119070012937,1,0,,,,,,,,,,,,,,,,,,,,,1,,,,,,,,,,,,,,,,,,,,,,,,,,,,,,,,,,,,,,,,,,,,,,47,152161,19,Female,1,2024/02/12_10:15:55,SD,60.15309612595908,
,,,,,,calibration,0,30,2,426,7,N,0,left,0.4650018389984325,0,0,,,,,,,,,,,,,,,,,,,,,1,,,,,,,,,,,,,,,,,,,,,,,,,,,,,,,,,,,,,,,,,,,,,,47,152161,19,Female,1,2024/02/12_10:15:55,SD,60.15309612595908,
,,,,,,calibration,0,30,2,426,8,Q,0,right,0.3796535390010831,1,0,,,,,,,,,,,,,,,,,,,,,1,,,,,,,,,,,,,,,,,,,,,,,,,,,,,,,,,,,,,,,,,,,,,,47,152161,19,Female,1,2024/02/12_10:15:55,SD,60.15309612595908,
,,,,,,calibration,0,30,2,426,9,F,0,right,0.5239844310017361,1,0,,,,,,,,,,,,,,,,,,,,,1,,,,,,,,,,,,,,,,,,,,,,,,,,,,,,,,,,,,,,,,,,,,,,47,152161,19,Female,1,2024/02/12_10:15:55,SD,60.15309612595908,
,,,,,,calibration,0,30,2,426,10,X,0,right,0.5270126359991991,1,0,,,,,,,,,,,,,,,,,,,,,1,,,,,,,,,,,,,,,,,,,,,,,,,,,,,,,,,,,,,,,,,,,,,,47,152161,19,Female,1,2024/02/12_10:15:55,SD,60.15309612595908,
,,,,,,calibration,0,30,2,426,11,S,0,right,0.6695119400010299,1,0,,,,,,,,,,,,,,,,,,,,,1,,,,,,,,,,,,,,,,,,,,,,,,,,,,,,,,,,,,,,,,,,,,,,47,152161,19,Female,1,2024/02/12_10:15:55,SD,60.15309612595908,
,,,,,,calibration,0,30,2,426,12,X,1,right,0.4105332359995373,0,0,,,,,,,,,,,,,,,,,,,,,1,,,,,,,,,,,,,,,,,,,,,,,,,,,,,,,,,,,,,,,,,,,,,,47,152161,19,Female,1,2024/02/12_10:15:55,SD,60.15309612595908,
,,,,,,calibration,0,30,2,426,13,S,1,right,0.5132595279992529,0,0,,,,,,,,,,,,,,,,,,,,,1,,,,,,,,,,,,,,,,,,,,,,,,,,,,,,,,,,,,,,,,,,,,,,47,152161,19,Female,1,2024/02/12_10:15:55,SD,60.15309612595908,
,,,,,,calibration,0,30,2,426,14,V,0,right,0.4993583609993948,1,0,,,,,,,,,,,,,,,,,,,,,1,,,,,,,,,,,,,,,,,,,,,,,,,,,,,,,,,,,,,,,,,,,,,,47,152161,19,Female,1,2024/02/12_10:15:55,SD,60.15309612595908,
,,,,,,calibration,0,30,2,426,15,J,0,right,0.5648524949992861,1,0,,,,,,,,,,,,,,,,,,,,,1,,,,,,,,,,,,,,,,,,,,,,,,,,,,,,,,,,,,,,,,,,,,,,47,152161,19,Female,1,2024/02/12_10:15:55,SD,60.15309612595908,
,,,,,,calibration,0,30,2,426,16,V,1,right,0.4344664259988349,0,0,,,,,,,,,,,,,,,,,,,,,1,,,,,,,,,,,,,,,,,,,,,,,,,,,,,,,,,,,,,,,,,,,,,,47,152161,19,Female,1,2024/02/12_10:15:55,SD,60.15309612595908,
,,,,,,calibration,0,30,2,426,17,J,1,left,0.9791873349986417,1,0,,,,,,,,,,,,,,,,,,,,,1,,,,,,,,,,,,,,,,,,,,,,,,,,,,,,,,,,,,,,,,,,,,,,47,152161,19,Female,1,2024/02/12_10:15:55,SD,60.15309612595908,
,,,,,,calibration,0,30,2,426,,,,,,,,0.7770833333333333,0.4,0.08333333333333333,0.9090909090909091,0.058823529411764705,0.8578431372549019,0.5352746099372325,2,1,0,1,1,10,12,5,12,0,,,,1,,,,,,,,,,,,,,,,,,,,,,,,,,,,,,,,,,,,,,,,,,,,,,47,152161,19,Female,1,2024/02/12_10:15:55,SD,60.15309612595908,
,,,,,,Calibration,0,,2,426,,,,,,,,,,,,,,,,,,,,,,,,,13,,,1,,,,,,,,,,,,,,,,,,,,,,,,,,,,,,,,,,,,,,,,,,,,,,47,152161,19,Female,1,2024/02/12_10:15:55,SD,60.15309612595908,
,,,,,,calibration,0,36,2,426,1,J,0,right,0.34470384499945794,1,0,,,,,,,,,,,,,,,,,,,,,1,,,,,,,,,,,,,,,,,,,,,,,,,,,,,,,,,,,,,,,,,,,,,,47,152161,19,Female,1,2024/02/12_10:15:55,SD,60.15309612595908,
,,,,,,calibration,0,36,2,426,2,F,0,right,0.513769446999504,1,0,,,,,,,,,,,,,,,,,,,,,1,,,,,,,,,,,,,,,,,,,,,,,,,,,,,,,,,,,,,,,,,,,,,,47,152161,19,Female,1,2024/02/12_10:15:55,SD,60.15309612595908,
,,,,,,calibration,0,36,2,426,3,S,0,right,0.6370820219999587,1,0,,,,,,,,,,,,,,,,,,,,,1,,,,,,,,,,,,,,,,,,,,,,,,,,,,,,,,,,,,,,,,,,,,,,47,152161,19,Female,1,2024/02/12_10:15:55,SD,60.15309612595908,
,,,,,,calibration,0,36,2,426,4,F,1,left,0.3670074680012476,1,0,,,,,,,,,,,,,,,,,,,,,1,,,,,,,,,,,,,,,,,,,,,,,,,,,,,,,,,,,,,,,,,,,,,,47,152161,19,Female,1,2024/02/12_10:15:55,SD,60.15309612595908,
,,,,,,calibration,0,36,2,426,5,V,0,right,0.38141811700006656,1,0,,,,,,,,,,,,,,,,,,,,,1,,,,,,,,,,,,,,,,,,,,,,,,,,,,,,,,,,,,,,,,,,,,,,47,152161,19,Female,1,2024/02/12_10:15:55,SD,60.15309612595908,
,,,,,,calibration,0,36,2,426,6,C,0,right,0.583265051998751,1,0,,,,,,,,,,,,,,,,,,,,,1,,,,,,,,,,,,,,,,,,,,,,,,,,,,,,,,,,,,,,,,,,,,,,47,152161,19,Female,1,2024/02/12_10:15:55,SD,60.15309612595908,
,,,,,,calibration,0,36,2,426,7,J,0,right,0.4730678939995414,1,0,,,,,,,,,,,,,,,,,,,,,1,,,,,,,,,,,,,,,,,,,,,,,,,,,,,,,,,,,,,,,,,,,,,,47,152161,19,Female,1,2024/02/12_10:15:55,SD,60.15309612595908,
,,,,,,calibration,0,36,2,426,8,Q,0,right,0.5459130780000123,1,0,,,,,,,,,,,,,,,,,,,,,1,,,,,,,,,,,,,,,,,,,,,,,,,,,,,,,,,,,,,,,,,,,,,,47,152161,19,Female,1,2024/02/12_10:15:55,SD,60.15309612595908,
,,,,,,calibration,0,36,2,426,9,V,0,right,0.7420694819993514,1,0,,,,,,,,,,,,,,,,,,,,,1,,,,,,,,,,,,,,,,,,,,,,,,,,,,,,,,,,,,,,,,,,,,,,47,152161,19,Female,1,2024/02/12_10:15:55,SD,60.15309612595908,
,,,,,,calibration,0,36,2,426,10,X,0,right,nan,0,1,,,,,,,,,,,,,,,,,,,,,1,,,,,,,,,,,,,,,,,,,,,,,,,,,,,,,,,,,,,,,,,,,,,,47,152161,19,Female,1,2024/02/12_10:15:55,SD,60.15309612595908,
,,,,,,calibration,0,36,2,426,11,V,1,left,0.758503382001436,1,0,,,,,,,,,,,,,,,,,,,,,1,,,,,,,,,,,,,,,,,,,,,,,,,,,,,,,,,,,,,,,,,,,,,,47,152161,19,Female,1,2024/02/12_10:15:55,SD,60.15309612595908,
,,,,,,calibration,0,36,2,426,12,S,0,right,0.7179308719987603,1,0,,,,,,,,,,,,,,,,,,,,,1,,,,,,,,,,,,,,,,,,,,,,,,,,,,,,,,,,,,,,,,,,,,,,47,152161,19,Female,1,2024/02/12_10:15:55,SD,60.15309612595908,
,,,,,,calibration,0,36,2,426,13,V,1,left,0.5763026419990638,1,0,,,,,,,,,,,,,,,,,,,,,1,,,,,,,,,,,,,,,,,,,,,,,,,,,,,,,,,,,,,,,,,,,,,,47,152161,19,Female,1,2024/02/12_10:15:55,SD,60.15309612595908,
,,,,,,calibration,0,36,2,426,14,N,0,right,0.7754155950005952,1,0,,,,,,,,,,,,,,,,,,,,,1,,,,,,,,,,,,,,,,,,,,,,,,,,,,,,,,,,,,,,,,,,,,,,47,152161,19,Female,1,2024/02/12_10:15:55,SD,60.15309612595908,
,,,,,,calibration,0,36,2,426,15,V,1,right,nan,0,1,,,,,,,,,,,,,,,,,,,,,1,,,,,,,,,,,,,,,,,,,,,,,,,,,,,,,,,,,,,,,,,,,,,,47,152161,19,Female,1,2024/02/12_10:15:55,SD,60.15309612595908,
,,,,,,calibration,0,36,2,426,16,N,1,right,0.761647195000478,0,0,,,,,,,,,,,,,,,,,,,,,1,,,,,,,,,,,,,,,,,,,,,,,,,,,,,,,,,,,,,,,,,,,,,,47,152161,19,Female,1,2024/02/12_10:15:55,SD,60.15309612595908,
,,,,,,calibration,0,36,2,426,17,C,0,right,0.6765066680000018,1,0,,,,,,,,,,,,,,,,,,,,,1,,,,,,,,,,,,,,,,,,,,,,,,,,,,,,,,,,,,,,,,,,,,,,47,152161,19,Female,1,2024/02/12_10:15:55,SD,60.15309612595908,
,,,,,,calibration,0,36,2,426,,,,,,,,0.9,0.6,0.0,1.0,0.11764705882352941,0.8823529411764706,0.5903068505998817,3,0,1,1,2,11,14,5,12,0,,,,1,,,,,,,,,,,,,,,,,,,,,,,,,,,,,,,,,,,,,,,,,,,,,,47,152161,19,Female,1,2024/02/12_10:15:55,SD,60.15309612595908,
,,,,,,Calibration,0,,2,426,,,,,,,,,,,,,,,,,,,,,,,,,14,,,1,,,,,,,,,,,,,,,,,,,,,,,,,,,,,,,,,,,,,,,,,,,,,,47,152161,19,Female,1,2024/02/12_10:15:55,SD,60.15309612595908,
,,,,,,calibration,0,31,2,361,1,Q,0,right,0.5254451410000911,1,0,,,,,,,,,,,,,,,,,,,,,1,,,,,,,,,,,,,,,,,,,,,,,,,,,,,,,,,,,,,,,,,,,,,,47,152161,19,Female,1,2024/02/12_10:15:55,SD,60.15309612595908,
,,,,,,calibration,0,31,2,361,2,J,0,right,0.6662573339999653,1,0,,,,,,,,,,,,,,,,,,,,,1,,,,,,,,,,,,,,,,,,,,,,,,,,,,,,,,,,,,,,,,,,,,,,47,152161,19,Female,1,2024/02/12_10:15:55,SD,60.15309612595908,
,,,,,,calibration,0,31,2,361,3,X,0,right,0.4780913510003302,1,0,,,,,,,,,,,,,,,,,,,,,1,,,,,,,,,,,,,,,,,,,,,,,,,,,,,,,,,,,,,,,,,,,,,,47,152161,19,Female,1,2024/02/12_10:15:55,SD,60.15309612595908,
,,,,,,calibration,0,31,2,361,4,N,0,right,0.5716294320009183,1,0,,,,,,,,,,,,,,,,,,,,,1,,,,,,,,,,,,,,,,,,,,,,,,,,,,,,,,,,,,,,,,,,,,,,47,152161,19,Female,1,2024/02/12_10:15:55,SD,60.15309612595908,
,,,,,,calibration,0,31,2,361,5,X,1,left,0.7963575509984366,1,0,,,,,,,,,,,,,,,,,,,,,1,,,,,,,,,,,,,,,,,,,,,,,,,,,,,,,,,,,,,,,,,,,,,,47,152161,19,Female,1,2024/02/12_10:15:55,SD,60.15309612595908,
,,,,,,calibration,0,31,2,361,6,C,0,right,0.5135994140000548,1,0,,,,,,,,,,,,,,,,,,,,,1,,,,,,,,,,,,,,,,,,,,,,,,,,,,,,,,,,,,,,,,,,,,,,47,152161,19,Female,1,2024/02/12_10:15:55,SD,60.15309612595908,
,,,,,,calibration,0,31,2,361,7,V,0,right,0.5418440220000775,1,0,,,,,,,,,,,,,,,,,,,,,1,,,,,,,,,,,,,,,,,,,,,,,,,,,,,,,,,,,,,,,,,,,,,,47,152161,19,Female,1,2024/02/12_10:15:55,SD,60.15309612595908,
,,,,,,calibration,0,31,2,361,8,S,0,right,0.5488324969992391,1,0,,,,,,,,,,,,,,,,,,,,,1,,,,,,,,,,,,,,,,,,,,,,,,,,,,,,,,,,,,,,,,,,,,,,47,152161,19,Female,1,2024/02/12_10:15:55,SD,60.15309612595908,
,,,,,,calibration,0,31,2,361,9,N,0,left,0.4873541090000799,0,0,,,,,,,,,,,,,,,,,,,,,1,,,,,,,,,,,,,,,,,,,,,,,,,,,,,,,,,,,,,,,,,,,,,,47,152161,19,Female,1,2024/02/12_10:15:55,SD,60.15309612595908,
,,,,,,calibration,0,31,2,361,10,S,1,right,0.4936716339998384,0,0,,,,,,,,,,,,,,,,,,,,,1,,,,,,,,,,,,,,,,,,,,,,,,,,,,,,,,,,,,,,,,,,,,,,47,152161,19,Female,1,2024/02/12_10:15:55,SD,60.15309612595908,
,,,,,,calibration,0,31,2,361,11,F,0,right,0.6073313399992912,1,0,,,,,,,,,,,,,,,,,,,,,1,,,,,,,,,,,,,,,,,,,,,,,,,,,,,,,,,,,,,,,,,,,,,,47,152161,19,Female,1,2024/02/12_10:15:55,SD,60.15309612595908,
,,,,,,calibration,0,31,2,361,12,S,1,left,0.9941507359999378,1,0,,,,,,,,,,,,,,,,,,,,,1,,,,,,,,,,,,,,,,,,,,,,,,,,,,,,,,,,,,,,,,,,,,,,47,152161,19,Female,1,2024/02/12_10:15:55,SD,60.15309612595908,
,,,,,,calibration,0,31,2,361,13,F,1,left,0.9439156119988183,1,0,,,,,,,,,,,,,,,,,,,,,1,,,,,,,,,,,,,,,,,,,,,,,,,,,,,,,,,,,,,,,,,,,,,,47,152161,19,Female,1,2024/02/12_10:15:55,SD,60.15309612595908,
,,,,,,calibration,0,31,2,361,14,C,0,right,0.6123763250016054,1,0,,,,,,,,,,,,,,,,,,,,,1,,,,,,,,,,,,,,,,,,,,,,,,,,,,,,,,,,,,,,,,,,,,,,47,152161,19,Female,1,2024/02/12_10:15:55,SD,60.15309612595908,
,,,,,,calibration,0,31,2,361,15,X,0,right,0.7156932249999954,1,0,,,,,,,,,,,,,,,,,,,,,1,,,,,,,,,,,,,,,,,,,,,,,,,,,,,,,,,,,,,,,,,,,,,,47,152161,19,Female,1,2024/02/12_10:15:55,SD,60.15309612595908,
,,,,,,calibration,0,31,2,361,16,Q,0,right,0.38981309400151076,1,0,,,,,,,,,,,,,,,,,,,,,1,,,,,,,,,,,,,,,,,,,,,,,,,,,,,,,,,,,,,,,,,,,,,,47,152161,19,Female,1,2024/02/12_10:15:55,SD,60.15309612595908,
,,,,,,calibration,0,31,2,361,17,X,1,left,0.5003453070003161,1,0,,,,,,,,,,,,,,,,,,,,,1,,,,,,,,,,,,,,,,,,,,,,,,,,,,,,,,,,,,,,,,,,,,,,47,152161,19,Female,1,2024/02/12_10:15:55,SD,60.15309612595908,
,,,,,,calibration,0,31,2,361,18,F,0,right,0.3345880560009391,1,0,,,,,,,,,,,,,,,,,,,,,1,,,,,,,,,,,,,,,,,,,,,,,,,,,,,,,,,,,,,,,,,,,,,,47,152161,19,Female,1,2024/02/12_10:15:55,SD,60.15309612595908,
,,,,,,calibration,0,31,2,361,,,,,,,,0.9153846153846155,0.8,0.07692307692307693,0.9230769230769231,0.0,0.9230769230769231,0.5956275655556359,4,1,0,0,0,12,16,5,13,0,,,,1,,,,,,,,,,,,,,,,,,,,,,,,,,,,,,,,,,,,,,,,,,,,,,47,152161,19,Female,1,2024/02/12_10:15:55,SD,60.15309612595908,
,,,,,,Calibration,0,,2,361,,,,,,,,,,,,,,,,,,,,,,,,,15,,,1,,,,,,,,,,,,,,,,,,,,,,,,,,,,,,,,,,,,,,,,,,,,,,47,152161,19,Female,1,2024/02/12_10:15:55,SD,60.15309612595908,
,,,,,,CALIBRATION,0,,,,,,,,,,,,,,,,,,,,,,,,,,,,15,0.9153846153846155,361,1,,,,,,,,,,,,,,,,,,,,,,,,,,,,,,,,,,,,,,,,,,,,,,47,152161,19,Female,1,2024/02/12_10:15:55,SD,60.15309612595908,
1,./instructions/inst_prac_1/Slide24.png,right,18.062137644999893,514.0149271980008,532.0770648430007,,,,,,,,,,,,,,,,,,,,,,,,,,,,,,,,,1,,,,,,,,,,,,,,,,,,,,,,,,,,,,,,,,,,,,,,,,,,,,,,47,152161,19,Female,1,2024/02/12_10:15:55,SD,60.15309612595908,
2,./instructions/inst_prac_1/Slide25.png,right,1.284474335001505,532.1207515829992,533.4052259180007,,,,,,,,,,,,,,,,,,,,,,,,,,,,,,,,,1,,,,,,,,,,,,,,,,,,,,,,,,,,,,,,,,,,,,,,,,,,,,,,47,152161,19,Female,1,2024/02/12_10:15:55,SD,60.15309612595908,
3,./instructions/inst_prac_1/Slide26.png,right,0.8280454070009,533.4411082339993,534.2691536410002,,,,,,,,,,,,,,,,,,,,,,,,,,,,,,,,,1,,,,,,,,,,,,,,,,,,,,,,,,,,,,,,,,,,,,,,,,,,,,,,47,152161,19,Female,1,2024/02/12_10:15:55,SD,60.15309612595908,
4,./instructions/inst_prac_1/Slide27.png,right,2.3160106579998683,534.3051983990008,536.6212090570007,,,,,,,,,,,,,,,,,,,,,,,,,,,,,,,,,1,,,,,,,,,,,,,,,,,,,,,,,,,,,,,,,,,,,,,,,,,,,,,,47,152161,19,Female,1,2024/02/12_10:15:55,SD,60.15309612595908,
5,./instructions/inst_prac_1/Slide28.png,right,0.8603540610001801,536.6569565059999,537.5173105670001,,,,,,,,,,,,,,,,,,,,,,,,,,,,,,,,,1,,,,,,,,,,,,,,,,,,,,,,,,,,,,,,,,,,,,,,,,,,,,,,47,152161,19,Female,1,2024/02/12_10:15:55,SD,60.15309612595908,
6,./instructions/inst_prac_1/Slide29.png,right,3.3189659569998184,537.5502712689995,540.8692372259993,,,,,,,,,,,,,,,,,,,,,,,,,,,,,,,,,1,,,,,,,,,,,,,,,,,,,,,,,,,,,,,,,,,,,,,,,,,,,,,,47,152161,19,Female,1,2024/02/12_10:15:55,SD,60.15309612595908,
7,./instructions/inst_prac_1/Slide30.png,right,1.630377491001127,540.9024861069993,542.5328635980004,,,,,,,,,,,,,,,,,,,,,,,,,,,,,,,,,1,,,,,,,,,,,,,,,,,,,,,,,,,,,,,,,,,,,,,,,,,,,,,,47,152161,19,Female,1,2024/02/12_10:15:55,SD,60.15309612595908,
,,,,,,practice,0,3,1,1250,1,N,0,right,4.128344080001625,1,0,,,,,,,,,,,,,,,,,,,,,1,,,,,,,,,,,,,,,,,,,,,,,,,,,,,,,,,,,,,,,,,,,,,,47,152161,19,Female,1,2024/02/12_10:15:55,SD,60.15309612595908,
,,,,,,practice,0,3,1,1250,2,N,1,left,1.590584466999644,1,0,,,,,,,,,,,,,,,,,,,,,1,,,,,,,,,,,,,,,,,,,,,,,,,,,,,,,,,,,,,,,,,,,,,,47,152161,19,Female,1,2024/02/12_10:15:55,SD,60.15309612595908,
,,,,,,practice,0,3,1,1250,3,X,0,right,1.646938088000752,1,0,,,,,,,,,,,,,,,,,,,,,1,,,,,,,,,,,,,,,,,,,,,,,,,,,,,,,,,,,,,,,,,,,,,,47,152161,19,Female,1,2024/02/12_10:15:55,SD,60.15309612595908,
,,,,,,practice,0,3,1,1250,4,J,0,right,0.7137901990008686,1,0,,,,,,,,,,,,,,,,,,,,,1,,,,,,,,,,,,,,,,,,,,,,,,,,,,,,,,,,,,,,,,,,,,,,47,152161,19,Female,1,2024/02/12_10:15:55,SD,60.15309612595908,
,,,,,,practice,0,3,1,1250,5,J,1,left,0.9332692609987134,1,0,,,,,,,,,,,,,,,,,,,,,1,,,,,,,,,,,,,,,,,,,,,,,,,,,,,,,,,,,,,,,,,,,,,,47,152161,19,Female,1,2024/02/12_10:15:55,SD,60.15309612595908,
,,,,,,practice,0,3,1,1250,6,S,0,right,0.7254114459992707,1,0,,,,,,,,,,,,,,,,,,,,,1,,,,,,,,,,,,,,,,,,,,,,,,,,,,,,,,,,,,,,,,,,,,,,47,152161,19,Female,1,2024/02/12_10:15:55,SD,60.15309612595908,
,,,,,,practice,0,3,1,1250,7,S,1,left,0.989325264999934,1,0,,,,,,,,,,,,,,,,,,,,,1,,,,,,,,,,,,,,,,,,,,,,,,,,,,,,,,,,,,,,,,,,,,,,47,152161,19,Female,1,2024/02/12_10:15:55,SD,60.15309612595908,
,,,,,,practice,0,3,1,1250,8,V,0,right,1.0917487229999097,1,0,,,,,,,,,,,,,,,,,,,,,1,,,,,,,,,,,,,,,,,,,,,,,,,,,,,,,,,,,,,,,,,,,,,,47,152161,19,Female,1,2024/02/12_10:15:55,SD,60.15309612595908,
,,,,,,practice,0,3,1,1250,9,F,0,right,0.8327179619991512,1,0,,,,,,,,,,,,,,,,,,,,,1,,,,,,,,,,,,,,,,,,,,,,,,,,,,,,,,,,,,,,,,,,,,,,47,152161,19,Female,1,2024/02/12_10:15:55,SD,60.15309612595908,
,,,,,,practice,0,3,1,1250,10,X,0,right,1.0837183999992703,1,0,,,,,,,,,,,,,,,,,,,,,1,,,,,,,,,,,,,,,,,,,,,,,,,,,,,,,,,,,,,,,,,,,,,,47,152161,19,Female,1,2024/02/12_10:15:55,SD,60.15309612595908,
,,,,,,practice,0,3,1,1250,,,,,,,,1.0,1.0,0.0,1.0,0.0,1.0,1.373584789099914,3,0,0,0,0,7,10,3,7,0,,,,1,,,,,,,,,,,,,,,,,,,,,,,,,,,,,,,,,,,,,,,,,,,,,,47,152161,19,Female,1,2024/02/12_10:15:55,SD,60.15309612595908,
1,./instructions/inst_prac_1_next/Slide35.png,right,2.267649887000516,566.8814835829999,569.1491334700004,,,,,,,,,,,,,,,,,,,,,,,,,,,,,,,,,1,,,,,,,,,,,,,,,,,,,,,,,,,,,,,,,,,,,,,,,,,,,,,,47,152161,19,Female,1,2024/02/12_10:15:55,SD,60.15309612595908,
,,,,,,practice,0,8,1,361,1,N,0,right,1.366988654999659,1,0,,,,,,,,,,,,,,,,,,,,,1,,,,,,,,,,,,,,,,,,,,,,,,,,,,,,,,,,,,,,,,,,,,,,47,152161,19,Female,1,2024/02/12_10:15:55,SD,60.15309612595908,
,,,,,,practice,0,8,1,361,2,N,1,left,0.9941753920011251,1,0,,,,,,,,,,,,,,,,,,,,,1,,,,,,,,,,,,,,,,,,,,,,,,,,,,,,,,,,,,,,,,,,,,,,47,152161,19,Female,1,2024/02/12_10:15:55,SD,60.15309612595908,
,,,,,,practice,0,8,1,361,3,V,0,right,0.80371978400035,1,0,,,,,,,,,,,,,,,,,,,,,1,,,,,,,,,,,,,,,,,,,,,,,,,,,,,,,,,,,,,,,,,,,,,,47,152161,19,Female,1,2024/02/12_10:15:55,SD,60.15309612595908,
,,,,,,practice,0,8,1,361,4,J,0,right,0.8748977960003685,1,0,,,,,,,,,,,,,,,,,,,,,1,,,,,,,,,,,,,,,,,,,,,,,,,,,,,,,,,,,,,,,,,,,,,,47,152161,19,Female,1,2024/02/12_10:15:55,SD,60.15309612595908,
,,,,,,practice,0,8,1,361,5,C,0,right,0.8282479310000781,1,0,,,,,,,,,,,,,,,,,,,,,1,,,,,,,,,,,,,,,,,,,,,,,,,,,,,,,,,,,,,,,,,,,,,,47,152161,19,Female,1,2024/02/12_10:15:55,SD,60.15309612595908,
,,,,,,practice,0,8,1,361,6,S,0,right,0.7225061469998764,1,0,,,,,,,,,,,,,,,,,,,,,1,,,,,,,,,,,,,,,,,,,,,,,,,,,,,,,,,,,,,,,,,,,,,,47,152161,19,Female,1,2024/02/12_10:15:55,SD,60.15309612595908,
,,,,,,practice,0,8,1,361,7,S,1,left,0.6102966269991157,1,0,,,,,,,,,,,,,,,,,,,,,1,,,,,,,,,,,,,,,,,,,,,,,,,,,,,,,,,,,,,,,,,,,,,,47,152161,19,Female,1,2024/02/12_10:15:55,SD,60.15309612595908,
,,,,,,practice,0,8,1,361,8,F,0,right,0.5781463509993046,1,0,,,,,,,,,,,,,,,,,,,,,1,,,,,,,,,,,,,,,,,,,,,,,,,,,,,,,,,,,,,,,,,,,,,,47,152161,19,Female,1,2024/02/12_10:15:55,SD,60.15309612595908,
,,,,,,practice,0,8,1,361,9,C,0,right,1.1910739590002777,1,0,,,,,,,,,,,,,,,,,,,,,1,,,,,,,,,,,,,,,,,,,,,,,,,,,,,,,,,,,,,,,,,,,,,,47,152161,19,Female,1,2024/02/12_10:15:55,SD,60.15309612595908,
,,,,,,practice,0,8,1,361,10,J,0,right,0.6432835329997033,1,0,,,,,,,,,,,,,,,,,,,,,1,,,,,,,,,,,,,,,,,,,,,,,,,,,,,,,,,,,,,,,,,,,,,,47,152161,19,Female,1,2024/02/12_10:15:55,SD,60.15309612595908,
,,,,,,practice,0,8,1,361,11,J,1,left,0.5697233169994433,1,0,,,,,,,,,,,,,,,,,,,,,1,,,,,,,,,,,,,,,,,,,,,,,,,,,,,,,,,,,,,,,,,,,,,,47,152161,19,Female,1,2024/02/12_10:15:55,SD,60.15309612595908,
,,,,,,practice,0,8,1,361,12,N,0,right,0.637758639999447,1,0,,,,,,,,,,,,,,,,,,,,,1,,,,,,,,,,,,,,,,,,,,,,,,,,,,,,,,,,,,,,,,,,,,,,47,152161,19,Female,1,2024/02/12_10:15:55,SD,60.15309612595908,
,,,,,,practice,0,8,1,361,13,N,1,left,0.77953521299969,1,0,,,,,,,,,,,,,,,,,,,,,1,,,,,,,,,,,,,,,,,,,,,,,,,,,,,,,,,,,,,,,,,,,,,,47,152161,19,Female,1,2024/02/12_10:15:55,SD,60.15309612595908,
,,,,,,practice,0,8,1,361,14,V,0,right,0.7127048279999144,1,0,,,,,,,,,,,,,,,,,,,,,1,,,,,,,,,,,,,,,,,,,,,,,,,,,,,,,,,,,,,,,,,,,,,,47,152161,19,Female,1,2024/02/12_10:15:55,SD,60.15309612595908,
,,,,,,practice,0,8,1,361,15,C,0,right,0.6100828560010996,1,0,,,,,,,,,,,,,,,,,,,,,1,,,,,,,,,,,,,,,,,,,,,,,,,,,,,,,,,,,,,,,,,,,,,,47,152161,19,Female,1,2024/02/12_10:15:55,SD,60.15309612595908,
,,,,,,practice,0,8,1,361,16,V,0,right,0.5891234139999142,1,0,,,,,,,,,,,,,,,,,,,,,1,,,,,,,,,,,,,,,,,,,,,,,,,,,,,,,,,,,,,,,,,,,,,,47,152161,19,Female,1,2024/02/12_10:15:55,SD,60.15309612595908,
,,,,,,practice,0,8,1,361,17,C,0,right,0.46856691900029546,1,0,,,,,,,,,,,,,,,,,,,,,1,,,,,,,,,,,,,,,,,,,,,,,,,,,,,,,,,,,,,,,,,,,,,,47,152161,19,Female,1,2024/02/12_10:15:55,SD,60.15309612595908,
,,,,,,practice,0,8,1,361,18,C,1,left,0.5643898709986388,1,0,,,,,,,,,,,,,,,,,,,,,1,,,,,,,,,,,,,,,,,,,,,,,,,,,,,,,,,,,,,,,,,,,,,,47,152161,19,Female,1,2024/02/12_10:15:55,SD,60.15309612595908,
,,,,,,practice,0,8,1,361,,,,,,,,1.0,1.0,0.0,1.0,0.0,1.0,0.7525122907221279,5,0,0,0,0,13,18,5,13,0,,,,1,,,,,,,,,,,,,,,,,,,,,,,,,,,,,,,,,,,,,,,,,,,,,,47,152161,19,Female,1,2024/02/12_10:15:55,SD,60.15309612595908,
,,,,,,practice,0,30,1,361,1,V,0,right,0.5720021869983611,1,0,,,,,,,,,,,,,,,,,,,,,1,,,,,,,,,,,,,,,,,,,,,,,,,,,,,,,,,,,,,,,,,,,,,,47,152161,19,Female,1,2024/02/12_10:15:55,SD,60.15309612595908,
,,,,,,practice,0,30,1,361,2,N,0,left,0.5702167519993964,0,0,,,,,,,,,,,,,,,,,,,,,1,,,,,,,,,,,,,,,,,,,,,,,,,,,,,,,,,,,,,,,,,,,,,,47,152161,19,Female,1,2024/02/12_10:15:55,SD,60.15309612595908,
,,,,,,practice,0,30,1,361,3,N,1,left,1.1242065490005189,1,0,,,,,,,,,,,,,,,,,,,,,1,,,,,,,,,,,,,,,,,,,,,,,,,,,,,,,,,,,,,,,,,,,,,,47,152161,19,Female,1,2024/02/12_10:15:55,SD,60.15309612595908,
,,,,,,practice,0,30,1,361,4,Q,0,right,1.0292786509999132,1,0,,,,,,,,,,,,,,,,,,,,,1,,,,,,,,,,,,,,,,,,,,,,,,,,,,,,,,,,,,,,,,,,,,,,47,152161,19,Female,1,2024/02/12_10:15:55,SD,60.15309612595908,
,,,,,,practice,0,30,1,361,5,X,0,right,0.5802318650003144,1,0,,,,,,,,,,,,,,,,,,,,,1,,,,,,,,,,,,,,,,,,,,,,,,,,,,,,,,,,,,,,,,,,,,,,47,152161,19,Female,1,2024/02/12_10:15:55,SD,60.15309612595908,
,,,,,,practice,0,30,1,361,6,X,1,left,0.653722220000418,1,0,,,,,,,,,,,,,,,,,,,,,1,,,,,,,,,,,,,,,,,,,,,,,,,,,,,,,,,,,,,,,,,,,,,,47,152161,19,Female,1,2024/02/12_10:15:55,SD,60.15309612595908,
,,,,,,practice,0,30,1,361,7,N,0,right,0.5575156270006119,1,0,,,,,,,,,,,,,,,,,,,,,1,,,,,,,,,,,,,,,,,,,,,,,,,,,,,,,,,,,,,,,,,,,,,,47,152161,19,Female,1,2024/02/12_10:15:55,SD,60.15309612595908,
,,,,,,practice,0,30,1,361,8,V,0,right,0.7245815909991506,1,0,,,,,,,,,,,,,,,,,,,,,1,,,,,,,,,,,,,,,,,,,,,,,,,,,,,,,,,,,,,,,,,,,,,,47,152161,19,Female,1,2024/02/12_10:15:55,SD,60.15309612595908,
,,,,,,practice,0,30,1,361,9,V,1,left,0.4679260079992673,1,0,,,,,,,,,,,,,,,,,,,,,1,,,,,,,,,,,,,,,,,,,,,,,,,,,,,,,,,,,,,,,,,,,,,,47,152161,19,Female,1,2024/02/12_10:15:55,SD,60.15309612595908,
,,,,,,practice,0,30,1,361,10,F,0,right,0.3983599539988063,1,0,,,,,,,,,,,,,,,,,,,,,1,,,,,,,,,,,,,,,,,,,,,,,,,,,,,,,,,,,,,,,,,,,,,,47,152161,19,Female,1,2024/02/12_10:15:55,SD,60.15309612595908,
,,,,,,practice,0,30,1,361,11,S,0,right,0.6589653920000274,1,0,,,,,,,,,,,,,,,,,,,,,1,,,,,,,,,,,,,,,,,,,,,,,,,,,,,,,,,,,,,,,,,,,,,,47,152161,19,Female,1,2024/02/12_10:15:55,SD,60.15309612595908,
,,,,,,practice,0,30,1,361,12,F,0,right,0.621655948998523,1,0,,,,,,,,,,,,,,,,,,,,,1,,,,,,,,,,,,,,,,,,,,,,,,,,,,,,,,,,,,,,,,,,,,,,47,152161,19,Female,1,2024/02/12_10:15:55,SD,60.15309612595908,
,,,,,,practice,0,30,1,361,13,J,0,right,0.5384418039993761,1,0,,,,,,,,,,,,,,,,,,,,,1,,,,,,,,,,,,,,,,,,,,,,,,,,,,,,,,,,,,,,,,,,,,,,47,152161,19,Female,1,2024/02/12_10:15:55,SD,60.15309612595908,
,,,,,,practice,0,30,1,361,14,J,1,left,0.5057006339993677,1,0,,,,,,,,,,,,,,,,,,,,,1,,,,,,,,,,,,,,,,,,,,,,,,,,,,,,,,,,,,,,,,,,,,,,47,152161,19,Female,1,2024/02/12_10:15:55,SD,60.15309612595908,
,,,,,,practice,0,30,1,361,15,X,0,right,0.4642345850006677,1,0,,,,,,,,,,,,,,,,,,,,,1,,,,,,,,,,,,,,,,,,,,,,,,,,,,,,,,,,,,,,,,,,,,,,47,152161,19,Female,1,2024/02/12_10:15:55,SD,60.15309612595908,
,,,,,,practice,0,30,1,361,16,X,1,left,1.869068393998532,1,0,,,,,,,,,,,,,,,,,,,,,1,,,,,,,,,,,,,,,,,,,,,,,,,,,,,,,,,,,,,,,,,,,,,,47,152161,19,Female,1,2024/02/12_10:15:55,SD,60.15309612595908,
,,,,,,practice,0,30,1,361,17,S,0,right,0.4210390839998581,1,0,,,,,,,,,,,,,,,,,,,,,1,,,,,,,,,,,,,,,,,,,,,,,,,,,,,,,,,,,,,,,,,,,,,,47,152161,19,Female,1,2024/02/12_10:15:55,SD,60.15309612595908,
,,,,,,practice,0,30,1,361,18,S,1,left,0.6206314249993738,1,0,,,,,,,,,,,,,,,,,,,,,1,,,,,,,,,,,,,,,,,,,,,,,,,,,,,,,,,,,,,,,,,,,,,,47,152161,19,Female,1,2024/02/12_10:15:55,SD,60.15309612595908,
,,,,,,practice,0,30,1,361,,,,,,,,0.9791666666666666,1.0,0.08333333333333333,0.9166666666666666,0.0,0.9166666666666666,0.6876543706106936,6,1,0,0,0,11,17,6,12,0,,,,1,,,,,,,,,,,,,,,,,,,,,,,,,,,,,,,,,,,,,,,,,,,,,,47,152161,19,Female,1,2024/02/12_10:15:55,SD,60.15309612595908,
1,./instructions/inst_prac_3/Slide37.png,right,11.857048087998919,618.1484571540004,630.0055052419993,,,,,,,,,,,,,,,,,,,,,,,,,,,,,,,,,1,,,,,,,,,,,,,,,,,,,,,,,,,,,,,,,,,,,,,,,,,,,,,,47,152161,19,Female,1,2024/02/12_10:15:55,SD,60.15309612595908,
2,./instructions/inst_prac_3/Slide38.png,right,1.7954863759987347,630.0416437410004,631.8371301169991,,,,,,,,,,,,,,,,,,,,,,,,,,,,,,,,,1,,,,,,,,,,,,,,,,,,,,,,,,,,,,,,,,,,,,,,,,,,,,,,47,152161,19,Female,1,2024/02/12_10:15:55,SD,60.15309612595908,
3,./instructions/inst_prac_3/Slide39.png,right,2.6476043250004295,631.8696917950001,634.5172961200005,,,,,,,,,,,,,,,,,,,,,,,,,,,,,,,,,1,,,,,,,,,,,,,,,,,,,,,,,,,,,,,,,,,,,,,,,,,,,,,,47,152161,19,Female,1,2024/02/12_10:15:55,SD,60.15309612595908,
4,./instructions/inst_prac_3/Slide40.png,right,1.5028004439991491,634.5664339560008,636.0692343999999,,,,,,,,,,,,,,,,,,,,,,,,,,,,,,,,,1,,,,,,,,,,,,,,,,,,,,,,,,,,,,,,,,,,,,,,,,,,,,,,47,152161,19,Female,1,2024/02/12_10:15:55,SD,60.15309612595908,
5,./instructions/inst_prac_3/Slide41.png,right,1.7963541909994092,636.1206801650005,637.9170343559999,,,,,,,,,,,,,,,,,,,,,,,,,,,,,,,,,1,,,,,,,,,,,,,,,,,,,,,,,,,,,,,,,,,,,,,,,,,,,,,,47,152161,19,Female,1,2024/02/12_10:15:55,SD,60.15309612595908,
6,./instructions/inst_prac_3/Slide42.png,right,3.6043838690002303,637.9529624480001,641.5573463170003,,,,,,,,,,,,,,,,,,,,,,,,,,,,,,,,,1,,,,,,,,,,,,,,,,,,,,,,,,,,,,,,,,,,,,,,,,,,,,,,47,152161,19,Female,1,2024/02/12_10:15:55,SD,60.15309612595908,
7,./instructions/inst_prac_3/Slide43.png,right,2.939882109998507,641.6091446980008,644.5490268079993,,,,,,,,,,,,,,,,,,,,,,,,,,,,,,,,,1,,,,,,,,,,,,,,,,,,,,,,,,,,,,,,,,,,,,,,,,,,,,,,47,152161,19,Female,1,2024/02/12_10:15:55,SD,60.15309612595908,
8,./instructions/inst_prac_3/Slide44.png,right,1.39742824500172,644.5917285929991,645.9891568380008,,,,,,,,,,,,,,,,,,,,,,,,,,,,,,,,,1,,,,,,,,,,,,,,,,,,,,,,,,,,,,,,,,,,,,,,,,,,,,,,47,152161,19,Female,1,2024/02/12_10:15:55,SD,60.15309612595908,
,,,,,,practice,0,1,3,788,1,F,0,right,1.2628242949995183,1,0,,,,,,,,,,,,,,,,,,,,,1,,,,,,,,,,,,,,,,,,,,,,,,,,,,,,,,,,,,,,,,,,,,,,47,152161,19,Female,1,2024/02/12_10:15:55,SD,60.15309612595908,
,,,,,,practice,0,1,3,788,2,Q,0,right,1.896279037999193,1,0,,,,,,,,,,,,,,,,,,,,,1,,,,,,,,,,,,,,,,,,,,,,,,,,,,,,,,,,,,,,,,,,,,,,47,152161,19,Female,1,2024/02/12_10:15:55,SD,60.15309612595908,
,,,,,,practice,0,1,3,788,3,S,0,right,2.9441981990003114,1,0,,,,,,,,,,,,,,,,,,,,,1,,,,,,,,,,,,,,,,,,,,,,,,,,,,,,,,,,,,,,,,,,,,,,47,152161,19,Female,1,2024/02/12_10:15:55,SD,60.15309612595908,
,,,,,,practice,0,1,3,788,4,J,0,right,1.157666892000634,1,0,,,,,,,,,,,,,,,,,,,,,1,,,,,,,,,,,,,,,,,,,,,,,,,,,,,,,,,,,,,,,,,,,,,,47,152161,19,Female,1,2024/02/12_10:15:55,SD,60.15309612595908,
,,,,,,practice,0,1,3,788,5,J,0,right,1.3072789300003933,1,0,,,,,,,,,,,,,,,,,,,,,1,,,,,,,,,,,,,,,,,,,,,,,,,,,,,,,,,,,,,,,,,,,,,,47,152161,19,Female,1,2024/02/12_10:15:55,SD,60.15309612595908,
,,,,,,practice,0,1,3,788,6,F,0,right,5.599011805999908,1,0,,,,,,,,,,,,,,,,,,,,,1,,,,,,,,,,,,,,,,,,,,,,,,,,,,,,,,,,,,,,,,,,,,,,47,152161,19,Female,1,2024/02/12_10:15:55,SD,60.15309612595908,
,,,,,,practice,0,1,3,788,7,J,1,left,0.8609468819995527,1,0,,,,,,,,,,,,,,,,,,,,,1,,,,,,,,,,,,,,,,,,,,,,,,,,,,,,,,,,,,,,,,,,,,,,47,152161,19,Female,1,2024/02/12_10:15:55,SD,60.15309612595908,
,,,,,,practice,0,1,3,788,8,Q,0,right,2.0220536810011254,1,0,,,,,,,,,,,,,,,,,,,,,1,,,,,,,,,,,,,,,,,,,,,,,,,,,,,,,,,,,,,,,,,,,,,,47,152161,19,Female,1,2024/02/12_10:15:55,SD,60.15309612595908,
,,,,,,practice,0,1,3,788,9,F,1,left,1.3376710209995508,1,0,,,,,,,,,,,,,,,,,,,,,1,,,,,,,,,,,,,,,,,,,,,,,,,,,,,,,,,,,,,,,,,,,,,,47,152161,19,Female,1,2024/02/12_10:15:55,SD,60.15309612595908,
,,,,,,practice,0,1,3,788,10,C,0,right,1.0266172320007172,1,0,,,,,,,,,,,,,,,,,,,,,1,,,,,,,,,,,,,,,,,,,,,,,,,,,,,,,,,,,,,,,,,,,,,,47,152161,19,Female,1,2024/02/12_10:15:55,SD,60.15309612595908,
,,,,,,practice,0,1,3,788,11,Q,1,left,0.7585180519999994,1,0,,,,,,,,,,,,,,,,,,,,,1,,,,,,,,,,,,,,,,,,,,,,,,,,,,,,,,,,,,,,,,,,,,,,47,152161,19,Female,1,2024/02/12_10:15:55,SD,60.15309612595908,
,,,,,,practice,0,1,3,788,12,F,1,left,0.6358739879997302,1,0,,,,,,,,,,,,,,,,,,,,,1,,,,,,,,,,,,,,,,,,,,,,,,,,,,,,,,,,,,,,,,,,,,,,47,152161,19,Female,1,2024/02/12_10:15:55,SD,60.15309612595908,
,,,,,,practice,0,1,3,788,13,S,0,right,0.7747866079989763,1,0,,,,,,,,,,,,,,,,,,,,,1,,,,,,,,,,,,,,,,,,,,,,,,,,,,,,,,,,,,,,,,,,,,,,47,152161,19,Female,1,2024/02/12_10:15:55,SD,60.15309612595908,
,,,,,,practice,0,1,3,788,,,,,,,,1.0,1.0,0.0,1.0,0.0,1.0,1.6602866633845854,4,0,0,0,0,9,13,4,9,0,,,,1,,,,,,,,,,,,,,,,,,,,,,,,,,,,,,,,,,,,,,,,,,,,,,47,152161,19,Female,1,2024/02/12_10:15:55,SD,60.15309612595908,
1,./instructions/inst_prac_3_next/Slide49.png,right,2.7947318659989833,681.3704460650006,684.1651779309996,,,,,,,,,,,,,,,,,,,,,,,,,,,,,,,,,1,,,,,,,,,,,,,,,,,,,,,,,,,,,,,,,,,,,,,,,,,,,,,,47,152161,19,Female,1,2024/02/12_10:15:55,SD,60.15309612595908,
,,,,,,practice,0,23,3,361,1,F,0,right,1.9711847329999728,1,0,,,,,,,,,,,,,,,,,,,,,1,,,,,,,,,,,,,,,,,,,,,,,,,,,,,,,,,,,,,,,,,,,,,,47,152161,19,Female,1,2024/02/12_10:15:55,SD,60.15309612595908,
,,,,,,practice,0,23,3,361,2,J,0,right,2.1596409550002136,1,0,,,,,,,,,,,,,,,,,,,,,1,,,,,,,,,,,,,,,,,,,,,,,,,,,,,,,,,,,,,,,,,,,,,,47,152161,19,Female,1,2024/02/12_10:15:55,SD,60.15309612595908,
,,,,,,practice,0,23,3,361,3,N,0,right,2.130350362000172,1,0,,,,,,,,,,,,,,,,,,,,,1,,,,,,,,,,,,,,,,,,,,,,,,,,,,,,,,,,,,,,,,,,,,,,47,152161,19,Female,1,2024/02/12_10:15:55,SD,60.15309612595908,
,,,,,,practice,0,23,3,361,4,F,1,left,0.5496209740013001,1,0,,,,,,,,,,,,,,,,,,,,,1,,,,,,,,,,,,,,,,,,,,,,,,,,,,,,,,,,,,,,,,,,,,,,47,152161,19,Female,1,2024/02/12_10:15:55,SD,60.15309612595908,
,,,,,,practice,0,23,3,361,5,F,0,right,1.5310951039991778,1,0,,,,,,,,,,,,,,,,,,,,,1,,,,,,,,,,,,,,,,,,,,,,,,,,,,,,,,,,,,,,,,,,,,,,47,152161,19,Female,1,2024/02/12_10:15:55,SD,60.15309612595908,
,,,,,,practice,0,23,3,361,6,X,0,right,2.9810840980007924,1,0,,,,,,,,,,,,,,,,,,,,,1,,,,,,,,,,,,,,,,,,,,,,,,,,,,,,,,,,,,,,,,,,,,,,47,152161,19,Female,1,2024/02/12_10:15:55,SD,60.15309612595908,
,,,,,,practice,0,23,3,361,7,N,0,right,2.639500051998766,1,0,,,,,,,,,,,,,,,,,,,,,1,,,,,,,,,,,,,,,,,,,,,,,,,,,,,,,,,,,,,,,,,,,,,,47,152161,19,Female,1,2024/02/12_10:15:55,SD,60.15309612595908,
,,,,,,practice,0,23,3,361,8,J,0,right,1.519252227000834,1,0,,,,,,,,,,,,,,,,,,,,,1,,,,,,,,,,,,,,,,,,,,,,,,,,,,,,,,,,,,,,,,,,,,,,47,152161,19,Female,1,2024/02/12_10:15:55,SD,60.15309612595908,
,,,,,,practice,0,23,3,361,9,C,0,right,0.9812852180002665,1,0,,,,,,,,,,,,,,,,,,,,,1,,,,,,,,,,,,,,,,,,,,,,,,,,,,,,,,,,,,,,,,,,,,,,47,152161,19,Female,1,2024/02/12_10:15:55,SD,60.15309612595908,
,,,,,,practice,0,23,3,361,10,J,0,left,1.8604089960008423,0,0,,,,,,,,,,,,,,,,,,,,,1,,,,,,,,,,,,,,,,,,,,,,,,,,,,,,,,,,,,,,,,,,,,,,47,152161,19,Female,1,2024/02/12_10:15:55,SD,60.15309612595908,
,,,,,,practice,0,23,3,361,11,J,1,right,0.973795081001299,0,0,,,,,,,,,,,,,,,,,,,,,1,,,,,,,,,,,,,,,,,,,,,,,,,,,,,,,,,,,,,,,,,,,,,,47,152161,19,Female,1,2024/02/12_10:15:55,SD,60.15309612595908,
,,,,,,practice,0,23,3,361,12,X,0,left,1.0560893670008227,0,0,,,,,,,,,,,,,,,,,,,,,1,,,,,,,,,,,,,,,,,,,,,,,,,,,,,,,,,,,,,,,,,,,,,,47,152161,19,Female,1,2024/02/12_10:15:55,SD,60.15309612595908,
,,,,,,practice,0,23,3,361,13,J,1,left,3.4244838670001627,1,0,,,,,,,,,,,,,,,,,,,,,1,,,,,,,,,,,,,,,,,,,,,,,,,,,,,,,,,,,,,,,,,,,,,,47,152161,19,Female,1,2024/02/12_10:15:55,SD,60.15309612595908,
,,,,,,practice,0,23,3,361,14,S,0,right,1.2052406090006116,1,0,,,,,,,,,,,,,,,,,,,,,1,,,,,,,,,,,,,,,,,,,,,,,,,,,,,,,,,,,,,,,,,,,,,,47,152161,19,Female,1,2024/02/12_10:15:55,SD,60.15309612595908,
,,,,,,practice,0,23,3,361,15,X,1,left,3.068053389999477,1,0,,,,,,,,,,,,,,,,,,,,,1,,,,,,,,,,,,,,,,,,,,,,,,,,,,,,,,,,,,,,,,,,,,,,47,152161,19,Female,1,2024/02/12_10:15:55,SD,60.15309612595908,
,,,,,,practice,0,23,3,361,16,J,1,left,0.7102088680003362,1,0,,,,,,,,,,,,,,,,,,,,,1,,,,,,,,,,,,,,,,,,,,,,,,,,,,,,,,,,,,,,,,,,,,,,47,152161,19,Female,1,2024/02/12_10:15:55,SD,60.15309612595908,
,,,,,,practice,0,23,3,361,17,V,0,right,2.0669725959996867,1,0,,,,,,,,,,,,,,,,,,,,,1,,,,,,,,,,,,,,,,,,,,,,,,,,,,,,,,,,,,,,,,,,,,,,47,152161,19,Female,1,2024/02/12_10:15:55,SD,60.15309612595908,
,,,,,,practice,0,23,3,361,18,X,1,right,0.8899428309996438,0,0,,,,,,,,,,,,,,,,,,,,,1,,,,,,,,,,,,,,,,,,,,,,,,,,,,,,,,,,,,,,,,,,,,,,47,152161,19,Female,1,2024/02/12_10:15:55,SD,60.15309612595908,
,,,,,,practice,0,23,3,361,,,,,,,,0.8194444444444444,0.6666666666666666,0.16666666666666666,0.8333333333333334,0.0,0.8333333333333334,1.7621227404446875,4,2,0,0,0,10,14,6,12,0,,,,1,,,,,,,,,,,,,,,,,,,,,,,,,,,,,,,,,,,,,,,,,,,,,,47,152161,19,Female,1,2024/02/12_10:15:55,SD,60.15309612595908,
,,,,,,practice,0,19,3,361,1,X,0,right,1.1955263130003004,1,0,,,,,,,,,,,,,,,,,,,,,1,,,,,,,,,,,,,,,,,,,,,,,,,,,,,,,,,,,,,,,,,,,,,,47,152161,19,Female,1,2024/02/12_10:15:55,SD,60.15309612595908,
,,,,,,practice,0,19,3,361,2,N,0,right,4.126959623999937,1,0,,,,,,,,,,,,,,,,,,,,,1,,,,,,,,,,,,,,,,,,,,,,,,,,,,,,,,,,,,,,,,,,,,,,47,152161,19,Female,1,2024/02/12_10:15:55,SD,60.15309612595908,
,,,,,,practice,0,19,3,361,3,Q,0,right,1.1007447550000506,1,0,,,,,,,,,,,,,,,,,,,,,1,,,,,,,,,,,,,,,,,,,,,,,,,,,,,,,,,,,,,,,,,,,,,,47,152161,19,Female,1,2024/02/12_10:15:55,SD,60.15309612595908,
,,,,,,practice,0,19,3,361,4,X,1,left,0.6871549929983303,1,0,,,,,,,,,,,,,,,,,,,,,1,,,,,,,,,,,,,,,,,,,,,,,,,,,,,,,,,,,,,,,,,,,,,,47,152161,19,Female,1,2024/02/12_10:15:55,SD,60.15309612595908,
,,,,,,practice,0,19,3,361,5,J,0,right,1.7697076940003171,1,0,,,,,,,,,,,,,,,,,,,,,1,,,,,,,,,,,,,,,,,,,,,,,,,,,,,,,,,,,,,,,,,,,,,,47,152161,19,Female,1,2024/02/12_10:15:55,SD,60.15309612595908,
,,,,,,practice,0,19,3,361,6,S,0,left,0.9263155610005924,0,0,,,,,,,,,,,,,,,,,,,,,1,,,,,,,,,,,,,,,,,,,,,,,,,,,,,,,,,,,,,,,,,,,,,,47,152161,19,Female,1,2024/02/12_10:15:55,SD,60.15309612595908,
,,,,,,practice,0,19,3,361,7,F,0,right,0.8105671690009331,1,0,,,,,,,,,,,,,,,,,,,,,1,,,,,,,,,,,,,,,,,,,,,,,,,,,,,,,,,,,,,,,,,,,,,,47,152161,19,Female,1,2024/02/12_10:15:55,SD,60.15309612595908,
,,,,,,practice,0,19,3,361,8,J,1,right,1.2635720639991632,0,0,,,,,,,,,,,,,,,,,,,,,1,,,,,,,,,,,,,,,,,,,,,,,,,,,,,,,,,,,,,,,,,,,,,,47,152161,19,Female,1,2024/02/12_10:15:55,SD,60.15309612595908,
,,,,,,practice,0,19,3,361,9,S,1,right,0.9493956559999788,0,0,,,,,,,,,,,,,,,,,,,,,1,,,,,,,,,,,,,,,,,,,,,,,,,,,,,,,,,,,,,,,,,,,,,,47,152161,19,Female,1,2024/02/12_10:15:55,SD,60.15309612595908,
,,,,,,practice,0,19,3,361,10,X,0,right,0.7113132779995794,1,0,,,,,,,,,,,,,,,,,,,,,1,,,,,,,,,,,,,,,,,,,,,,,,,,,,,,,,,,,,,,,,,,,,,,47,152161,19,Female,1,2024/02/12_10:15:55,SD,60.15309612595908,
,,,,,,practice,0,19,3,361,11,J,1,right,0.7942092410012265,0,0,,,,,,,,,,,,,,,,,,,,,1,,,,,,,,,,,,,,,,,,,,,,,,,,,,,,,,,,,,,,,,,,,,,,47,152161,19,Female,1,2024/02/12_10:15:55,SD,60.15309612595908,
,,,,,,practice,0,19,3,361,12,C,0,right,0.8074400390014489,1,0,,,,,,,,,,,,,,,,,,,,,1,,,,,,,,,,,,,,,,,,,,,,,,,,,,,,,,,,,,,,,,,,,,,,47,152161,19,Female,1,2024/02/12_10:15:55,SD,60.15309612595908,
,,,,,,practice,0,19,3,361,13,N,0,right,0.5952841929993156,1,0,,,,,,,,,,,,,,,,,,,,,1,,,,,,,,,,,,,,,,,,,,,,,,,,,,,,,,,,,,,,,,,,,,,,47,152161,19,Female,1,2024/02/12_10:15:55,SD,60.15309612595908,
,,,,,,practice,0,19,3,361,14,C,0,right,0.8554640450001898,1,0,,,,,,,,,,,,,,,,,,,,,1,,,,,,,,,,,,,,,,,,,,,,,,,,,,,,,,,,,,,,,,,,,,,,47,152161,19,Female,1,2024/02/12_10:15:55,SD,60.15309612595908,
,,,,,,practice,0,19,3,361,15,C,1,right,0.7784635219995835,0,0,,,,,,,,,,,,,,,,,,,,,1,,,,,,,,,,,,,,,,,,,,,,,,,,,,,,,,,,,,,,,,,,,,,,47,152161,19,Female,1,2024/02/12_10:15:55,SD,60.15309612595908,
,,,,,,practice,0,19,3,361,16,Q,0,right,1.0206892940004764,1,0,,,,,,,,,,,,,,,,,,,,,1,,,,,,,,,,,,,,,,,,,,,,,,,,,,,,,,,,,,,,,,,,,,,,47,152161,19,Female,1,2024/02/12_10:15:55,SD,60.15309612595908,
,,,,,,practice,0,19,3,361,17,S,0,left,0.6317046290005237,0,0,,,,,,,,,,,,,,,,,,,,,1,,,,,,,,,,,,,,,,,,,,,,,,,,,,,,,,,,,,,,,,,,,,,,47,152161,19,Female,1,2024/02/12_10:15:55,SD,60.15309612595908,
,,,,,,practice,0,19,3,361,18,S,0,right,0.928040789998704,1,0,,,,,,,,,,,,,,,,,,,,,1,,,,,,,,,,,,,,,,,,,,,,,,,,,,,,,,,,,,,,,,,,,,,,47,152161,19,Female,1,2024/02/12_10:15:55,SD,60.15309612595908,
,,,,,,practice,0,19,3,361,,,,,,,,0.5692307692307692,0.2,0.15384615384615385,0.8461538461538461,0.0,0.8461538461538461,1.108475158888925,1,2,0,0,0,11,12,5,13,0,,,,1,,,,,,,,,,,,,,,,,,,,,,,,,,,,,,,,,,,,,,,,,,,,,,47,152161,19,Female,1,2024/02/12_10:15:55,SD,60.15309612595908,
1,./instructions/inst_redo_3/Slide47.png,right,16.202831354999944,757.3945080600006,773.5973394150005,,,,,,,,,,,,,,,,,,,,,,,,,,,,,,,,,1,,,,,,,,,,,,,,,,,,,,,,,,,,,,,,,,,,,,,,,,,,,,,,47,152161,19,Female,1,2024/02/12_10:15:55,SD,60.15309612595908,
,,,,,,practice,0,12,3,361,1,V,0,right,1.7875209459998587,1,0,,,,,,,,,,,,,,,,,,,,,1,,,,,,,,,,,,,,,,,,,,,,,,,,,,,,,,,,,,,,,,,,,,,,47,152161,19,Female,1,2024/02/12_10:15:55,SD,60.15309612595908,
,,,,,,practice,0,12,3,361,2,F,0,right,1.2102861500006838,1,0,,,,,,,,,,,,,,,,,,,,,1,,,,,,,,,,,,,,,,,,,,,,,,,,,,,,,,,,,,,,,,,,,,,,47,152161,19,Female,1,2024/02/12_10:15:55,SD,60.15309612595908,
,,,,,,practice,0,12,3,361,3,X,0,right,1.5405159729998559,1,0,,,,,,,,,,,,,,,,,,,,,1,,,,,,,,,,,,,,,,,,,,,,,,,,,,,,,,,,,,,,,,,,,,,,47,152161,19,Female,1,2024/02/12_10:15:55,SD,60.15309612595908,
,,,,,,practice,0,12,3,361,4,C,0,right,0.7904760330002318,1,0,,,,,,,,,,,,,,,,,,,,,1,,,,,,,,,,,,,,,,,,,,,,,,,,,,,,,,,,,,,,,,,,,,,,47,152161,19,Female,1,2024/02/12_10:15:55,SD,60.15309612595908,
,,,,,,practice,0,12,3,361,5,X,0,right,0.6503318839986605,1,0,,,,,,,,,,,,,,,,,,,,,1,,,,,,,,,,,,,,,,,,,,,,,,,,,,,,,,,,,,,,,,,,,,,,47,152161,19,Female,1,2024/02/12_10:15:55,SD,60.15309612595908,
,,,,,,practice,0,12,3,361,6,V,0,left,2.650111176999417,0,0,,,,,,,,,,,,,,,,,,,,,1,,,,,,,,,,,,,,,,,,,,,,,,,,,,,,,,,,,,,,,,,,,,,,47,152161,19,Female,1,2024/02/12_10:15:55,SD,60.15309612595908,
,,,,,,practice,0,12,3,361,7,J,0,right,0.9499373749986262,1,0,,,,,,,,,,,,,,,,,,,,,1,,,,,,,,,,,,,,,,,,,,,,,,,,,,,,,,,,,,,,,,,,,,,,47,152161,19,Female,1,2024/02/12_10:15:55,SD,60.15309612595908,
,,,,,,practice,0,12,3,361,8,F,0,right,1.2294021790003171,1,0,,,,,,,,,,,,,,,,,,,,,1,,,,,,,,,,,,,,,,,,,,,,,,,,,,,,,,,,,,,,,,,,,,,,47,152161,19,Female,1,2024/02/12_10:15:55,SD,60.15309612595908,
,,,,,,practice,0,12,3,361,9,V,1,right,0.8604228860003786,0,0,,,,,,,,,,,,,,,,,,,,,1,,,,,,,,,,,,,,,,,,,,,,,,,,,,,,,,,,,,,,,,,,,,,,47,152161,19,Female,1,2024/02/12_10:15:55,SD,60.15309612595908,
,,,,,,practice,0,12,3,361,10,V,0,left,1.502939879999758,0,0,,,,,,,,,,,,,,,,,,,,,1,,,,,,,,,,,,,,,,,,,,,,,,,,,,,,,,,,,,,,,,,,,,,,47,152161,19,Female,1,2024/02/12_10:15:55,SD,60.15309612595908,
,,,,,,practice,0,12,3,361,11,F,1,left,0.7579117160003079,1,0,,,,,,,,,,,,,,,,,,,,,1,,,,,,,,,,,,,,,,,,,,,,,,,,,,,,,,,,,,,,,,,,,,,,47,152161,19,Female,1,2024/02/12_10:15:55,SD,60.15309612595908,
,,,,,,practice,0,12,3,361,12,V,1,left,0.8352163069994276,1,0,,,,,,,,,,,,,,,,,,,,,1,,,,,,,,,,,,,,,,,,,,,,,,,,,,,,,,,,,,,,,,,,,,,,47,152161,19,Female,1,2024/02/12_10:15:55,SD,60.15309612595908,
,,,,,,practice,0,12,3,361,13,Q,0,right,0.7559995489991707,1,0,,,,,,,,,,,,,,,,,,,,,1,,,,,,,,,,,,,,,,,,,,,,,,,,,,,,,,,,,,,,,,,,,,,,47,152161,19,Female,1,2024/02/12_10:15:55,SD,60.15309612595908,
,,,,,,practice,0,12,3,361,14,X,0,right,0.6772870080003486,1,0,,,,,,,,,,,,,,,,,,,,,1,,,,,,,,,,,,,,,,,,,,,,,,,,,,,,,,,,,,,,,,,,,,,,47,152161,19,Female,1,2024/02/12_10:15:55,SD,60.15309612595908,
,,,,,,practice,0,12,3,361,15,Q,0,left,1.3159022109994112,0,0,,,,,,,,,,,,,,,,,,,,,1,,,,,,,,,,,,,,,,,,,,,,,,,,,,,,,,,,,,,,,,,,,,,,47,152161,19,Female,1,2024/02/12_10:15:55,SD,60.15309612595908,
,,,,,,practice,0,12,3,361,16,V,0,left,0.7370114029999968,0,0,,,,,,,,,,,,,,,,,,,,,1,,,,,,,,,,,,,,,,,,,,,,,,,,,,,,,,,,,,,,,,,,,,,,47,152161,19,Female,1,2024/02/12_10:15:55,SD,60.15309612595908,
,,,,,,practice,0,12,3,361,17,X,1,right,1.1752528779998102,0,0,,,,,,,,,,,,,,,,,,,,,1,,,,,,,,,,,,,,,,,,,,,,,,,,,,,,,,,,,,,,,,,,,,,,47,152161,19,Female,1,2024/02/12_10:15:55,SD,60.15309612595908,
,,,,,,practice,0,12,3,361,18,Q,1,left,1.3377612509993924,1,0,,,,,,,,,,,,,,,,,,,,,1,,,,,,,,,,,,,,,,,,,,,,,,,,,,,,,,,,,,,,,,,,,,,,47,152161,19,Female,1,2024/02/12_10:15:55,SD,60.15309612595908,
,,,,,,practice,0,12,3,361,,,,,,,,0.7,0.6,0.3076923076923077,0.6923076923076923,0.0,0.6923076923076923,1.1535714892219806,3,4,0,0,0,9,12,5,13,0,,,,1,,,,,,,,,,,,,,,,,,,,,,,,,,,,,,,,,,,,,,,,,,,,,,47,152161,19,Female,1,2024/02/12_10:15:55,SD,60.15309612595908,
1,./instructions/inst_redo_3/Slide47.png,right,13.461167568999372,804.9199941410006,818.38116171,,,,,,,,,,,,,,,,,,,,,,,,,,,,,,,,,1,,,,,,,,,,,,,,,,,,,,,,,,,,,,,,,,,,,,,,,,,,,,,,47,152161,19,Female,1,2024/02/12_10:15:55,SD,60.15309612595908,
,,,,,,practice,0,15,3,361,1,J,0,right,1.69322710599954,1,0,,,,,,,,,,,,,,,,,,,,,1,,,,,,,,,,,,,,,,,,,,,,,,,,,,,,,,,,,,,,,,,,,,,,47,152161,19,Female,1,2024/02/12_10:15:55,SD,60.15309612595908,
,,,,,,practice,0,15,3,361,2,Q,0,right,1.493743191998874,1,0,,,,,,,,,,,,,,,,,,,,,1,,,,,,,,,,,,,,,,,,,,,,,,,,,,,,,,,,,,,,,,,,,,,,47,152161,19,Female,1,2024/02/12_10:15:55,SD,60.15309612595908,
,,,,,,practice,0,15,3,361,3,F,0,right,2.8099768189986207,1,0,,,,,,,,,,,,,,,,,,,,,1,,,,,,,,,,,,,,,,,,,,,,,,,,,,,,,,,,,,,,,,,,,,,,47,152161,19,Female,1,2024/02/12_10:15:55,SD,60.15309612595908,
,,,,,,practice,0,15,3,361,4,N,0,right,4.098349170999427,1,0,,,,,,,,,,,,,,,,,,,,,1,,,,,,,,,,,,,,,,,,,,,,,,,,,,,,,,,,,,,,,,,,,,,,47,152161,19,Female,1,2024/02/12_10:15:55,SD,60.15309612595908,
,,,,,,practice,0,15,3,361,5,Q,1,left,2.572700980999798,1,0,,,,,,,,,,,,,,,,,,,,,1,,,,,,,,,,,,,,,,,,,,,,,,,,,,,,,,,,,,,,,,,,,,,,47,152161,19,Female,1,2024/02/12_10:15:55,SD,60.15309612595908,
,,,,,,practice,0,15,3,361,6,Q,0,right,2.5251205420008773,1,0,,,,,,,,,,,,,,,,,,,,,1,,,,,,,,,,,,,,,,,,,,,,,,,,,,,,,,,,,,,,,,,,,,,,47,152161,19,Female,1,2024/02/12_10:15:55,SD,60.15309612595908,
,,,,,,practice,0,15,3,361,7,N,1,left,5.062031772999035,1,0,,,,,,,,,,,,,,,,,,,,,1,,,,,,,,,,,,,,,,,,,,,,,,,,,,,,,,,,,,,,,,,,,,,,47,152161,19,Female,1,2024/02/12_10:15:55,SD,60.15309612595908,
,,,,,,practice,0,15,3,361,8,Q,1,left,1.840001372000188,1,0,,,,,,,,,,,,,,,,,,,,,1,,,,,,,,,,,,,,,,,,,,,,,,,,,,,,,,,,,,,,,,,,,,,,47,152161,19,Female,1,2024/02/12_10:15:55,SD,60.15309612595908,
,,,,,,practice,0,15,3,361,9,F,0,left,4.735476497999116,0,0,,,,,,,,,,,,,,,,,,,,,1,,,,,,,,,,,,,,,,,,,,,,,,,,,,,,,,,,,,,,,,,,,,,,47,152161,19,Female,1,2024/02/12_10:15:55,SD,60.15309612595908,
,,,,,,practice,0,15,3,361,10,V,0,right,1.6042715559997305,1,0,,,,,,,,,,,,,,,,,,,,,1,,,,,,,,,,,,,,,,,,,,,,,,,,,,,,,,,,,,,,,,,,,,,,47,152161,19,Female,1,2024/02/12_10:15:55,SD,60.15309612595908,
,,,,,,practice,0,15,3,361,11,S,0,right,1.564962727999955,1,0,,,,,,,,,,,,,,,,,,,,,1,,,,,,,,,,,,,,,,,,,,,,,,,,,,,,,,,,,,,,,,,,,,,,47,152161,19,Female,1,2024/02/12_10:15:55,SD,60.15309612595908,
,,,,,,practice,0,15,3,361,12,F,1,left,3.437674901999344,1,0,,,,,,,,,,,,,,,,,,,,,1,,,,,,,,,,,,,,,,,,,,,,,,,,,,,,,,,,,,,,,,,,,,,,47,152161,19,Female,1,2024/02/12_10:15:55,SD,60.15309612595908,
,,,,,,practice,0,15,3,361,13,N,0,right,1.3595935449993704,1,0,,,,,,,,,,,,,,,,,,,,,1,,,,,,,,,,,,,,,,,,,,,,,,,,,,,,,,,,,,,,,,,,,,,,47,152161,19,Female,1,2024/02/12_10:15:55,SD,60.15309612595908,
,,,,,,practice,0,15,3,361,14,V,0,right,1.906183429999146,1,0,,,,,,,,,,,,,,,,,,,,,1,,,,,,,,,,,,,,,,,,,,,,,,,,,,,,,,,,,,,,,,,,,,,,47,152161,19,Female,1,2024/02/12_10:15:55,SD,60.15309612595908,
,,,,,,practice,0,15,3,361,15,N,0,right,2.8631801690007705,1,0,,,,,,,,,,,,,,,,,,,,,1,,,,,,,,,,,,,,,,,,,,,,,,,,,,,,,,,,,,,,,,,,,,,,47,152161,19,Female,1,2024/02/12_10:15:55,SD,60.15309612595908,
,,,,,,practice,0,15,3,361,16,N,1,left,5.068852397000228,1,0,,,,,,,,,,,,,,,,,,,,,1,,,,,,,,,,,,,,,,,,,,,,,,,,,,,,,,,,,,,,,,,,,,,,47,152161,19,Female,1,2024/02/12_10:15:55,SD,60.15309612595908,
,,,,,,practice,0,15,3,361,17,V,1,left,1.0784243649995915,1,0,,,,,,,,,,,,,,,,,,,,,1,,,,,,,,,,,,,,,,,,,,,,,,,,,,,,,,,,,,,,,,,,,,,,47,152161,19,Female,1,2024/02/12_10:15:55,SD,60.15309612595908,
,,,,,,practice,0,15,3,361,18,X,0,right,1.3973638959996606,1,0,,,,,,,,,,,,,,,,,,,,,1,,,,,,,,,,,,,,,,,,,,,,,,,,,,,,,,,,,,,,,,,,,,,,47,152161,19,Female,1,2024/02/12_10:15:55,SD,60.15309612595908,
,,,,,,practice,0,15,3,361,,,,,,,,0.9791666666666666,1.0,0.08333333333333333,0.9166666666666666,0.0,0.9166666666666666,2.617285246777404,6,1,0,0,0,11,17,6,12,0,,,,1,,,,,,,,,,,,,,,,,,,,,,,,,,,,,,,,,,,,,,,,,,,,,,47,152161,19,Female,1,2024/02/12_10:15:55,SD,60.15309612595908,
1,./instructions/inst_prac_main/Slide51.png,right,2.0789704470007564,877.5904384709993,879.669408918,,,,,,,,,,,,,,,,,,,,,,,,,,,,,,,,,1,,,,,,,,,,,,,,,,,,,,,,,,,,,,,,,,,,,,,,,,,,,,,,47,152161,19,Female,1,2024/02/12_10:15:55,SD,60.15309612595908,
2,./instructions/inst_prac_main/Slide52.png,right,25.876772835999873,879.7043945149999,905.5811673509997,,,,,,,,,,,,,,,,,,,,,,,,,,,,,,,,,1,,,,,,,,,,,,,,,,,,,,,,,,,,,,,,,,,,,,,,,,,,,,,,47,152161,19,Female,1,2024/02/12_10:15:55,SD,60.15309612595908,
1,./instructions/inst_prac_main/Slide53.png,left,5.12490466700001,905.6163395509993,910.7412442179993,,,,,,,,,,,,,,,,,,,,,,,,,,,,,,,,,1,,,,,,,,,,,,,,,,,,,,,,,,,,,,,,,,,,,,,,,,,,,,,,47,152161,19,Female,1,2024/02/12_10:15:55,SD,60.15309612595908,
0,./instructions/inst_prac_main/Slide52.png,left,0.2008196560000215,910.77835142,910.9791710760001,,,,,,,,,,,,,,,,,,,,,,,,,,,,,,,,,1,,,,,,,,,,,,,,,,,,,,,,,,,,,,,,,,,,,,,,,,,,,,,,47,152161,19,Female,1,2024/02/12_10:15:55,SD,60.15309612595908,
-1,./instructions/inst_prac_main/Slide51.png,left,0.2005096289994981,911.0016911620005,911.202200791,,,,,,,,,,,,,,,,,,,,,,,,,,,,,,,,,1,,,,,,,,,,,,,,,,,,,,,,,,,,,,,,,,,,,,,,,,,,,,,,47,152161,19,Female,1,2024/02/12_10:15:55,SD,60.15309612595908,
-2,./instructions/inst_prac_main/Slide54.png,left,0.2005497899990587,911.2412313210007,911.4417811109997,,,,,,,,,,,,,,,,,,,,,,,,,,,,,,,,,1,,,,,,,,,,,,,,,,,,,,,,,,,,,,,,,,,,,,,,,,,,,,,,47,152161,19,Female,1,2024/02/12_10:15:55,SD,60.15309612595908,
-3,./instructions/inst_prac_main/Slide53.png,left,3.0157828419996804,911.4695317990008,914.4853146410005,,,,,,,,,,,,,,,,,,,,,,,,,,,,,,,,,1,,,,,,,,,,,,,,,,,,,,,,,,,,,,,,,,,,,,,,,,,,,,,,47,152161,19,Female,1,2024/02/12_10:15:55,SD,60.15309612595908,
-4,./instructions/inst_prac_main/Slide52.png,left,1.949067051999009,914.5200745900001,916.4691416419992,,,,,,,,,,,,,,,,,,,,,,,,,,,,,,,,,1,,,,,,,,,,,,,,,,,,,,,,,,,,,,,,,,,,,,,,,,,,,,,,47,152161,19,Female,1,2024/02/12_10:15:55,SD,60.15309612595908,
,,,,,,practice_main,0,1,1,361,1,J,0,right,0.9905011960017873,1,0,,,,,,,,,,,,,,,,,,,,,1,,,,,,,,,,,,,,,,,,,,,,,,,,,,,,,,,,,,,,,,,,,,,,47,152161,19,Female,1,2024/02/12_10:15:55,SD,60.15309612595908,
,,,,,,practice_main,0,1,1,361,2,J,1,left,0.891810983999676,1,0,,,,,,,,,,,,,,,,,,,,,1,,,,,,,,,,,,,,,,,,,,,,,,,,,,,,,,,,,,,,,,,,,,,,47,152161,19,Female,1,2024/02/12_10:15:55,SD,60.15309612595908,
,,,,,,practice_main,0,1,1,361,3,S,0,right,0.6921257929989224,1,0,,,,,,,,,,,,,,,,,,,,,1,,,,,,,,,,,,,,,,,,,,,,,,,,,,,,,,,,,,,,,,,,,,,,47,152161,19,Female,1,2024/02/12_10:15:55,SD,60.15309612595908,
,,,,,,practice_main,0,1,1,361,4,Q,0,right,nan,0,1,,,,,,,,,,,,,,,,,,,,,1,,,,,,,,,,,,,,,,,,,,,,,,,,,,,,,,,,,,,,,,,,,,,,47,152161,19,Female,1,2024/02/12_10:15:55,SD,60.15309612595908,
,,,,,,practice_main,0,1,1,361,5,N,0,right,0.7619339399989258,1,0,,,,,,,,,,,,,,,,,,,,,1,,,,,,,,,,,,,,,,,,,,,,,,,,,,,,,,,,,,,,,,,,,,,,47,152161,19,Female,1,2024/02/12_10:15:55,SD,60.15309612595908,
,,,,,,practice_main,0,1,1,361,6,N,1,left,0.5273203710003145,1,0,,,,,,,,,,,,,,,,,,,,,1,,,,,,,,,,,,,,,,,,,,,,,,,,,,,,,,,,,,,,,,,,,,,,47,152161,19,Female,1,2024/02/12_10:15:55,SD,60.15309612595908,
,,,,,,practice_main,0,1,1,361,7,C,0,right,0.5500127020004584,1,0,,,,,,,,,,,,,,,,,,,,,1,,,,,,,,,,,,,,,,,,,,,,,,,,,,,,,,,,,,,,,,,,,,,,47,152161,19,Female,1,2024/02/12_10:15:55,SD,60.15309612595908,
,,,,,,practice_main,0,1,1,361,8,X,0,right,0.5745225089995074,1,0,,,,,,,,,,,,,,,,,,,,,1,,,,,,,,,,,,,,,,,,,,,,,,,,,,,,,,,,,,,,,,,,,,,,47,152161,19,Female,1,2024/02/12_10:15:55,SD,60.15309612595908,
,,,,,,practice_main,0,1,1,361,9,F,0,right,0.5313982140014559,1,0,,,,,,,,,,,,,,,,,,,,,1,,,,,,,,,,,,,,,,,,,,,,,,,,,,,,,,,,,,,,,,,,,,,,47,152161,19,Female,1,2024/02/12_10:15:55,SD,60.15309612595908,
,,,,,,practice_main,0,1,1,361,10,C,0,right,0.5136600419991737,1,0,,,,,,,,,,,,,,,,,,,,,1,,,,,,,,,,,,,,,,,,,,,,,,,,,,,,,,,,,,,,,,,,,,,,47,152161,19,Female,1,2024/02/12_10:15:55,SD,60.15309612595908,
,,,,,,practice_main,0,1,1,361,11,C,1,left,0.49497676999999385,1,0,,,,,,,,,,,,,,,,,,,,,1,,,,,,,,,,,,,,,,,,,,,,,,,,,,,,,,,,,,,,,,,,,,,,47,152161,19,Female,1,2024/02/12_10:15:55,SD,60.15309612595908,
,,,,,,practice_main,0,1,1,361,12,F,0,right,0.5135594140010653,1,0,,,,,,,,,,,,,,,,,,,,,1,,,,,,,,,,,,,,,,,,,,,,,,,,,,,,,,,,,,,,,,,,,,,,47,152161,19,Female,1,2024/02/12_10:15:55,SD,60.15309612595908,
,,,,,,practice_main,0,1,1,361,13,F,1,left,0.576400284000556,1,0,,,,,,,,,,,,,,,,,,,,,1,,,,,,,,,,,,,,,,,,,,,,,,,,,,,,,,,,,,,,,,,,,,,,47,152161,19,Female,1,2024/02/12_10:15:55,SD,60.15309612595908,
,,,,,,practice_main,0,1,1,361,14,S,0,right,0.4608101390003867,1,0,,,,,,,,,,,,,,,,,,,,,1,,,,,,,,,,,,,,,,,,,,,,,,,,,,,,,,,,,,,,,,,,,,,,47,152161,19,Female,1,2024/02/12_10:15:55,SD,60.15309612595908,
,,,,,,practice_main,0,1,1,361,15,N,0,right,nan,0,1,,,,,,,,,,,,,,,,,,,,,1,,,,,,,,,,,,,,,,,,,,,,,,,,,,,,,,,,,,,,,,,,,,,,47,152161,19,Female,1,2024/02/12_10:15:55,SD,60.15309612595908,
,,,,,,practice_main,0,1,1,361,16,X,0,right,0.06042372200136015,1,0,,,,,,,,,,,,,,,,,,,,,1,,,,,,,,,,,,,,,,,,,,,,,,,,,,,,,,,,,,,,,,,,,,,,47,152161,19,Female,1,2024/02/12_10:15:55,SD,60.15309612595908,
,,,,,,practice_main,0,1,1,361,17,J,0,right,0.5394964870010881,1,0,,,,,,,,,,,,,,,,,,,,,1,,,,,,,,,,,,,,,,,,,,,,,,,,,,,,,,,,,,,,,,,,,,,,47,152161,19,Female,1,2024/02/12_10:15:55,SD,60.15309612595908,
,,,,,,practice_main,0,1,1,361,18,J,1,left,0.5255681380003807,1,0,,,,,,,,,,,,,,,,,,,,,1,,,,,,,,,,,,,,,,,,,,,,,,,,,,,,,,,,,,,,,,,,,,,,47,152161,19,Female,1,2024/02/12_10:15:55,SD,60.15309612595908,
,,,,,,practice_main,0,1,1,361,,,,,,,,1.0,1.0,0.0,1.0,0.1111111111111111,0.8888888888888888,0.5752825440628158,5,0,0,2,2,11,16,5,13,0,,,,1,,,,,,,,,,,,,,,,,,,,,,,,,,,,,,,,,,,,,,,,,,,,,,47,152161,19,Female,1,2024/02/12_10:15:55,SD,60.15309612595908,
,,,,,240212_110401,PRACTICE,0,1,1,361,,,,,,,,,,,,,,,,,,,,,,,,,,,,1,16,2,1,cue1.png,easy,A,50,0.9826551679998374,0,927.6572143930007,928.6637577109996,,,,,,,,,,,,,,,,,,,,,,,,,,,,,,,,,,,47,152161,19,Female,1,2024/02/12_10:15:55,SD,60.15309612595908,
,,,,,,practice_main,0,2,1,361,1,S,0,right,0.7602575140008412,1,0,,,,,,,,,,,,,,,,,,,,,1,,,,,,,,,,,,,,,,,,,,,,,,,,,,,,,,,,,,,,,,,,,,,,47,152161,19,Female,1,2024/02/12_10:15:55,SD,60.15309612595908,
,,,,,,practice_main,0,2,1,361,2,V,0,right,nan,0,1,,,,,,,,,,,,,,,,,,,,,1,,,,,,,,,,,,,,,,,,,,,,,,,,,,,,,,,,,,,,,,,,,,,,47,152161,19,Female,1,2024/02/12_10:15:55,SD,60.15309612595908,
,,,,,,practice_main,0,2,1,361,3,V,1,left,0.6075775859990244,1,0,,,,,,,,,,,,,,,,,,,,,1,,,,,,,,,,,,,,,,,,,,,,,,,,,,,,,,,,,,,,,,,,,,,,47,152161,19,Female,1,2024/02/12_10:15:55,SD,60.15309612595908,
,,,,,,practice_main,0,2,1,361,4,J,0,right,0.5349341249984718,1,0,,,,,,,,,,,,,,,,,,,,,1,,,,,,,,,,,,,,,,,,,,,,,,,,,,,,,,,,,,,,,,,,,,,,47,152161,19,Female,1,2024/02/12_10:15:55,SD,60.15309612595908,
