Instruction,Stimulus,Key,RT,START,END,Phase,Block,TrialN,NbackLevel,ISI,LetterN,Letter,Letter_isSame,Letter_Resp,Letter_RT,Letter_Accuracy,Letter_Timeout,Trial_A_measure,Trial_HR,Trial_FAR,Trial_CDR,Trial_MSR,Trial_ACC,Trial_RT,Trial_HitsCount,Trial_FAsCount,Trial_SameNoRespCount,Trial_DiffNoRespCount,Trial_NoRespCount,Trial_CDsCount,Trial_CorrectRespCount,Trial_SameLetterCount,Trial_DiffLetterCount,Trial_InvalidLetterCount,TrialCountCali,CaliEnd_A_measure,ISI_calibrated,Run,TrialIndex,TrialNumber_total,TrialNumber_valid,CueLearning,TrialDemandLearning,CueMapping,OnlineRating,OnlineRatingRT,OnlineRatingTimeOut,CueSTART,RatingSTART,OfflineRatingTimePoint,OfflineRatingQuesIndex,CueFigure,TrialDemand,OfflineRating,OfflineRatingRT,CueStart,OfflineRatingStart,PhaseType,CueLeft,CueDemandLeft,CueRight,CueDemandRight,Choice,ChoiceDemand,TaskDemand,ChoiceRT,ChoiceTimeOut,ChoiceSTART,CueCheck,CueDemandCheck,CorrectAnswer,Answer,AnswerDemand,AnswerRT,AnswerACC,AnswerTimeOut,CheckSTART,DemandRatingQuesIndex,QuesTLX,DemandLevel,DemandRating,DemandRatingRT,QuesStart,PID,SONA,Age,Gender,Run,TIME,EXPERIMENTER,frameRate,
1,./instructions/inst_begin/Slide2.png,right,46.86516344602569,0.11107056599576026,46.97623401202145,,,,,,,,,,,,,,,,,,,,,,,,,,,,,,,,,1,,,,,,,,,,,,,,,,,,,,,,,,,,,,,,,,,,,,,,,,,,,,,,119,146857,22,Female,1,2024/03/25_10:26:37,YZ,None,
2,./instructions/inst_begin/Slide3.png,right,27.363068514998304,47.00526772800367,74.36833624300198,,,,,,,,,,,,,,,,,,,,,,,,,,,,,,,,,1,,,,,,,,,,,,,,,,,,,,,,,,,,,,,,,,,,,,,,,,,,,,,,119,146857,22,Female,1,2024/03/25_10:26:37,YZ,None,
3,./instructions/inst_begin/Slide4.png,right,12.115627808001591,74.39669800901902,86.51232581702061,,,,,,,,,,,,,,,,,,,,,,,,,,,,,,,,,1,,,,,,,,,,,,,,,,,,,,,,,,,,,,,,,,,,,,,,,,,,,,,,119,146857,22,Female,1,2024/03/25_10:26:37,YZ,None,
1,./instructions/inst_prac_2/Slide6.png,right,42.513667421007995,86.55043562600622,129.0641030470142,,,,,,,,,,,,,,,,,,,,,,,,,,,,,,,,,1,,,,,,,,,,,,,,,,,,,,,,,,,,,,,,,,,,,,,,,,,,,,,,119,146857,22,Female,1,2024/03/25_10:26:37,YZ,None,
2,./instructions/inst_prac_2/Slide7.png,right,40.570588464004686,129.09370931400917,169.66429777801386,,,,,,,,,,,,,,,,,,,,,,,,,,,,,,,,,1,,,,,,,,,,,,,,,,,,,,,,,,,,,,,,,,,,,,,,,,,,,,,,119,146857,22,Female,1,2024/03/25_10:26:37,YZ,None,
3,./instructions/inst_prac_2/Slide8.png,right,16.803062746999785,169.69347748701693,186.49654023401672,,,,,,,,,,,,,,,,,,,,,,,,,,,,,,,,,1,,,,,,,,,,,,,,,,,,,,,,,,,,,,,,,,,,,,,,,,,,,,,,119,146857,22,Female,1,2024/03/25_10:26:37,YZ,None,
4,./instructions/inst_prac_2/Slide9.png,right,12.87497507900116,186.52521689000423,199.4001919690054,,,,,,,,,,,,,,,,,,,,,,,,,,,,,,,,,1,,,,,,,,,,,,,,,,,,,,,,,,,,,,,,,,,,,,,,,,,,,,,,119,146857,22,Female,1,2024/03/25_10:26:37,YZ,None,
5,./instructions/inst_prac_2/Slide10.png,right,2.715203996980563,199.42896560402005,202.1441696010006,,,,,,,,,,,,,,,,,,,,,,,,,,,,,,,,,1,,,,,,,,,,,,,,,,,,,,,,,,,,,,,,,,,,,,,,,,,,,,,,119,146857,22,Female,1,2024/03/25_10:26:37,YZ,None,
6,./instructions/inst_prac_2/Slide11.png,right,2.0753081849834416,202.1728972030105,204.24820538799395,,,,,,,,,,,,,,,,,,,,,,,,,,,,,,,,,1,,,,,,,,,,,,,,,,,,,,,,,,,,,,,,,,,,,,,,,,,,,,,,119,146857,22,Female,1,2024/03/25_10:26:37,YZ,None,
7,./instructions/inst_prac_2/Slide12.png,right,2.7891712939890567,204.27498590800678,207.06415720199584,,,,,,,,,,,,,,,,,,,,,,,,,,,,,,,,,1,,,,,,,,,,,,,,,,,,,,,,,,,,,,,,,,,,,,,,,,,,,,,,119,146857,22,Female,1,2024/03/25_10:26:37,YZ,None,
8,./instructions/inst_prac_2/Slide13.png,right,1.3075509119953495,207.09265787000186,208.4002087819972,,,,,,,,,,,,,,,,,,,,,,,,,,,,,,,,,1,,,,,,,,,,,,,,,,,,,,,,,,,,,,,,,,,,,,,,,,,,,,,,119,146857,22,Female,1,2024/03/25_10:26:37,YZ,None,
9,./instructions/inst_prac_2/Slide14.png,right,31.348770240001613,208.42774992101477,239.77652016101638,,,,,,,,,,,,,,,,,,,,,,,,,,,,,,,,,1,,,,,,,,,,,,,,,,,,,,,,,,,,,,,,,,,,,,,,,,,,,,,,119,146857,22,Female,1,2024/03/25_10:26:37,YZ,None,
10,./instructions/inst_prac_2/Slide15.png,right,29.893751510011498,239.802800681995,269.6965521920065,,,,,,,,,,,,,,,,,,,,,,,,,,,,,,,,,1,,,,,,,,,,,,,,,,,,,,,,,,,,,,,,,,,,,,,,,,,,,,,,119,146857,22,Female,1,2024/03/25_10:26:37,YZ,None,
,,,,,,practice,0,19,2,2583,1,C,0,left,2.218251293990761,0,0,,,,,,,,,,,,,,,,,,,,,1,,,,,,,,,,,,,,,,,,,,,,,,,,,,,,,,,,,,,,,,,,,,,,119,146857,22,Female,1,2024/03/25_10:26:37,YZ,None,
,,,,,,practice,0,19,2,2583,2,N,0,left,2.400327480980195,0,0,,,,,,,,,,,,,,,,,,,,,1,,,,,,,,,,,,,,,,,,,,,,,,,,,,,,,,,,,,,,,,,,,,,,119,146857,22,Female,1,2024/03/25_10:26:37,YZ,None,
,,,,,,practice,0,19,2,2583,3,C,1,left,1.8272914890258107,1,0,,,,,,,,,,,,,,,,,,,,,1,,,,,,,,,,,,,,,,,,,,,,,,,,,,,,,,,,,,,,,,,,,,,,119,146857,22,Female,1,2024/03/25_10:26:37,YZ,None,
,,,,,,practice,0,19,2,2583,4,N,1,left,1.5036866480077151,1,0,,,,,,,,,,,,,,,,,,,,,1,,,,,,,,,,,,,,,,,,,,,,,,,,,,,,,,,,,,,,,,,,,,,,119,146857,22,Female,1,2024/03/25_10:26:37,YZ,None,
,,,,,,practice,0,19,2,2583,5,S,0,right,1.768586038990179,1,0,,,,,,,,,,,,,,,,,,,,,1,,,,,,,,,,,,,,,,,,,,,,,,,,,,,,,,,,,,,,,,,,,,,,119,146857,22,Female,1,2024/03/25_10:26:37,YZ,None,
,,,,,,practice,0,19,2,2583,6,Q,0,right,1.227264635002939,1,0,,,,,,,,,,,,,,,,,,,,,1,,,,,,,,,,,,,,,,,,,,,,,,,,,,,,,,,,,,,,,,,,,,,,119,146857,22,Female,1,2024/03/25_10:26:37,YZ,None,
,,,,,,practice,0,19,2,2583,,,,,,,,0.875,1.0,0.5,0.5,0.0,0.5,1.8242345976662666,2,2,0,0,0,2,4,2,4,0,,,,1,,,,,,,,,,,,,,,,,,,,,,,,,,,,,,,,,,,,,,,,,,,,,,119,146857,22,Female,1,2024/03/25_10:26:37,YZ,None,
1,./instructions/inst_to_cali/Slide20.png,right,6.628522668004734,288.003801267012,294.63232393501676,,,,,,,,,,,,,,,,,,,,,,,,,,,,,,,,,1,,,,,,,,,,,,,,,,,,,,,,,,,,,,,,,,,,,,,,,,,,,,,,119,146857,22,Female,1,2024/03/25_10:26:37,YZ,None,
1,./instructions/inst_cali/Slide22.png,right,15.03852886898676,294.6658256240189,309.70435449300567,,,,,,,,,,,,,,,,,,,,,,,,,,,,,,,,,1,,,,,,,,,,,,,,,,,,,,,,,,,,,,,,,,,,,,,,,,,,,,,,119,146857,22,Female,1,2024/03/25_10:26:37,YZ,None,
,,,,,,calibration,0,23,2,583,1,X,0,right,0.5509239280072507,1,0,,,,,,,,,,,,,,,,,,,,,1,,,,,,,,,,,,,,,,,,,,,,,,,,,,,,,,,,,,,,,,,,,,,,119,146857,22,Female,1,2024/03/25_10:26:37,YZ,None,
,,,,,,calibration,0,23,2,583,2,Q,0,right,0.8151076989888679,1,0,,,,,,,,,,,,,,,,,,,,,1,,,,,,,,,,,,,,,,,,,,,,,,,,,,,,,,,,,,,,,,,,,,,,119,146857,22,Female,1,2024/03/25_10:26:37,YZ,None,
,,,,,,calibration,0,23,2,583,3,S,0,right,0.7645900750067085,1,0,,,,,,,,,,,,,,,,,,,,,1,,,,,,,,,,,,,,,,,,,,,,,,,,,,,,,,,,,,,,,,,,,,,,119,146857,22,Female,1,2024/03/25_10:26:37,YZ,None,
,,,,,,calibration,0,23,2,583,4,F,0,right,0.7157214700127952,1,0,,,,,,,,,,,,,,,,,,,,,1,,,,,,,,,,,,,,,,,,,,,,,,,,,,,,,,,,,,,,,,,,,,,,119,146857,22,Female,1,2024/03/25_10:26:37,YZ,None,
,,,,,,calibration,0,23,2,583,5,Q,0,left,0.9490037149807904,0,0,,,,,,,,,,,,,,,,,,,,,1,,,,,,,,,,,,,,,,,,,,,,,,,,,,,,,,,,,,,,,,,,,,,,119,146857,22,Female,1,2024/03/25_10:26:37,YZ,None,
,,,,,,calibration,0,23,2,583,6,S,0,right,0.9651648759900127,1,0,,,,,,,,,,,,,,,,,,,,,1,,,,,,,,,,,,,,,,,,,,,,,,,,,,,,,,,,,,,,,,,,,,,,119,146857,22,Female,1,2024/03/25_10:26:37,YZ,None,
,,,,,,calibration,0,23,2,583,7,Q,1,left,0.8432004280039109,1,0,,,,,,,,,,,,,,,,,,,,,1,,,,,,,,,,,,,,,,,,,,,,,,,,,,,,,,,,,,,,,,,,,,,,119,146857,22,Female,1,2024/03/25_10:26:37,YZ,None,
,,,,,,calibration,0,23,2,583,8,S,1,right,0.7498372410191223,0,0,,,,,,,,,,,,,,,,,,,,,1,,,,,,,,,,,,,,,,,,,,,,,,,,,,,,,,,,,,,,,,,,,,,,119,146857,22,Female,1,2024/03/25_10:26:37,YZ,None,
,,,,,,calibration,0,23,2,583,9,C,0,right,0.8354784760158509,1,0,,,,,,,,,,,,,,,,,,,,,1,,,,,,,,,,,,,,,,,,,,,,,,,,,,,,,,,,,,,,,,,,,,,,119,146857,22,Female,1,2024/03/25_10:26:37,YZ,None,
,,,,,,calibration,0,23,2,583,10,N,0,right,0.6426046570122708,1,0,,,,,,,,,,,,,,,,,,,,,1,,,,,,,,,,,,,,,,,,,,,,,,,,,,,,,,,,,,,,,,,,,,,,119,146857,22,Female,1,2024/03/25_10:26:37,YZ,None,
,,,,,,calibration,0,23,2,583,11,J,0,right,0.7259761200111825,1,0,,,,,,,,,,,,,,,,,,,,,1,,,,,,,,,,,,,,,,,,,,,,,,,,,,,,,,,,,,,,,,,,,,,,119,146857,22,Female,1,2024/03/25_10:26:37,YZ,None,
,,,,,,calibration,0,23,2,583,12,C,0,right,0.7753041610121727,1,0,,,,,,,,,,,,,,,,,,,,,1,,,,,,,,,,,,,,,,,,,,,,,,,,,,,,,,,,,,,,,,,,,,,,119,146857,22,Female,1,2024/03/25_10:26:37,YZ,None,
,,,,,,calibration,0,23,2,583,13,J,1,left,0.6750458530150354,1,0,,,,,,,,,,,,,,,,,,,,,1,,,,,,,,,,,,,,,,,,,,,,,,,,,,,,,,,,,,,,,,,,,,,,119,146857,22,Female,1,2024/03/25_10:26:37,YZ,None,
,,,,,,calibration,0,23,2,583,14,C,1,left,1.0253061610274017,1,0,,,,,,,,,,,,,,,,,,,,,1,,,,,,,,,,,,,,,,,,,,,,,,,,,,,,,,,,,,,,,,,,,,,,119,146857,22,Female,1,2024/03/25_10:26:37,YZ,None,
,,,,,,calibration,0,23,2,583,15,X,0,right,0.942694539000513,1,0,,,,,,,,,,,,,,,,,,,,,1,,,,,,,,,,,,,,,,,,,,,,,,,,,,,,,,,,,,,,,,,,,,,,119,146857,22,Female,1,2024/03/25_10:26:37,YZ,None,
,,,,,,calibration,0,23,2,583,,,,,,,,0.8920454545454546,0.75,0.09090909090909091,0.9090909090909091,0.0,0.9090909090909091,0.7983972932735923,3,1,0,0,0,10,13,4,11,0,,,,1,,,,,,,,,,,,,,,,,,,,,,,,,,,,,,,,,,,,,,,,,,,,,,119,146857,22,Female,1,2024/03/25_10:26:37,YZ,None,
,,,,,,Calibration,0,,2,583,,,,,,,,,,,,,,,,,,,,,,,,,1,,,1,,,,,,,,,,,,,,,,,,,,,,,,,,,,,,,,,,,,,,,,,,,,,,119,146857,22,Female,1,2024/03/25_10:26:37,YZ,None,
,,,,,,calibration,0,28,2,500,1,N,0,right,0.8404409440117888,1,0,,,,,,,,,,,,,,,,,,,,,1,,,,,,,,,,,,,,,,,,,,,,,,,,,,,,,,,,,,,,,,,,,,,,119,146857,22,Female,1,2024/03/25_10:26:37,YZ,None,
,,,,,,calibration,0,28,2,500,2,C,0,right,nan,0,1,,,,,,,,,,,,,,,,,,,,,1,,,,,,,,,,,,,,,,,,,,,,,,,,,,,,,,,,,,,,,,,,,,,,119,146857,22,Female,1,2024/03/25_10:26:37,YZ,None,
,,,,,,calibration,0,28,2,500,3,S,0,right,0.875332547002472,1,0,,,,,,,,,,,,,,,,,,,,,1,,,,,,,,,,,,,,,,,,,,,,,,,,,,,,,,,,,,,,,,,,,,,,119,146857,22,Female,1,2024/03/25_10:26:37,YZ,None,
,,,,,,calibration,0,28,2,500,4,C,1,left,0.6851724979933351,1,0,,,,,,,,,,,,,,,,,,,,,1,,,,,,,,,,,,,,,,,,,,,,,,,,,,,,,,,,,,,,,,,,,,,,119,146857,22,Female,1,2024/03/25_10:26:37,YZ,None,
,,,,,,calibration,0,28,2,500,5,S,1,left,0.6382532809802797,1,0,,,,,,,,,,,,,,,,,,,,,1,,,,,,,,,,,,,,,,,,,,,,,,,,,,,,,,,,,,,,,,,,,,,,119,146857,22,Female,1,2024/03/25_10:26:37,YZ,None,
,,,,,,calibration,0,28,2,500,6,F,0,right,0.6228386419825256,1,0,,,,,,,,,,,,,,,,,,,,,1,,,,,,,,,,,,,,,,,,,,,,,,,,,,,,,,,,,,,,,,,,,,,,119,146857,22,Female,1,2024/03/25_10:26:37,YZ,None,
,,,,,,calibration,0,28,2,500,7,X,0,right,0.6587518680025823,1,0,,,,,,,,,,,,,,,,,,,,,1,,,,,,,,,,,,,,,,,,,,,,,,,,,,,,,,,,,,,,,,,,,,,,119,146857,22,Female,1,2024/03/25_10:26:37,YZ,None,
,,,,,,calibration,0,28,2,500,8,F,1,right,nan,0,1,,,,,,,,,,,,,,,,,,,,,1,,,,,,,,,,,,,,,,,,,,,,,,,,,,,,,,,,,,,,,,,,,,,,119,146857,22,Female,1,2024/03/25_10:26:37,YZ,None,
,,,,,,calibration,0,28,2,500,9,S,0,right,0.7760398200189229,1,0,,,,,,,,,,,,,,,,,,,,,1,,,,,,,,,,,,,,,,,,,,,,,,,,,,,,,,,,,,,,,,,,,,,,119,146857,22,Female,1,2024/03/25_10:26:37,YZ,None,
,,,,,,calibration,0,28,2,500,10,X,0,right,0.7844755820115097,1,0,,,,,,,,,,,,,,,,,,,,,1,,,,,,,,,,,,,,,,,,,,,,,,,,,,,,,,,,,,,,,,,,,,,,119,146857,22,Female,1,2024/03/25_10:26:37,YZ,None,
,,,,,,calibration,0,28,2,500,11,S,1,left,0.5851615589926951,1,0,,,,,,,,,,,,,,,,,,,,,1,,,,,,,,,,,,,,,,,,,,,,,,,,,,,,,,,,,,,,,,,,,,,,119,146857,22,Female,1,2024/03/25_10:26:37,YZ,None,
,,,,,,calibration,0,28,2,500,12,V,0,right,0.7166042750177439,1,0,,,,,,,,,,,,,,,,,,,,,1,,,,,,,,,,,,,,,,,,,,,,,,,,,,,,,,,,,,,,,,,,,,,,119,146857,22,Female,1,2024/03/25_10:26:37,YZ,None,
,,,,,,calibration,0,28,2,500,13,N,0,right,0.7276502859895118,1,0,,,,,,,,,,,,,,,,,,,,,1,,,,,,,,,,,,,,,,,,,,,,,,,,,,,,,,,,,,,,,,,,,,,,119,146857,22,Female,1,2024/03/25_10:26:37,YZ,None,
,,,,,,calibration,0,28,2,500,14,V,1,left,0.625413726986153,1,0,,,,,,,,,,,,,,,,,,,,,1,,,,,,,,,,,,,,,,,,,,,,,,,,,,,,,,,,,,,,,,,,,,,,119,146857,22,Female,1,2024/03/25_10:26:37,YZ,None,
,,,,,,calibration,0,28,2,500,15,X,0,right,0.8190978319908027,1,0,,,,,,,,,,,,,,,,,,,,,1,,,,,,,,,,,,,,,,,,,,,,,,,,,,,,,,,,,,,,,,,,,,,,119,146857,22,Female,1,2024/03/25_10:26:37,YZ,None,
,,,,,,calibration,0,28,2,500,16,S,0,right,0.6752467449987307,1,0,,,,,,,,,,,,,,,,,,,,,1,,,,,,,,,,,,,,,,,,,,,,,,,,,,,,,,,,,,,,,,,,,,,,119,146857,22,Female,1,2024/03/25_10:26:37,YZ,None,
,,,,,,calibration,0,28,2,500,,,,,,,,0.95,0.8,0.0,1.0,0.125,0.875,0.7164628289985038,4,0,1,1,2,10,14,5,11,0,,,,1,,,,,,,,,,,,,,,,,,,,,,,,,,,,,,,,,,,,,,,,,,,,,,119,146857,22,Female,1,2024/03/25_10:26:37,YZ,None,
,,,,,,Calibration,0,,2,500,,,,,,,,,,,,,,,,,,,,,,,,,2,,,1,,,,,,,,,,,,,,,,,,,,,,,,,,,,,,,,,,,,,,,,,,,,,,119,146857,22,Female,1,2024/03/25_10:26:37,YZ,None,
,,,,,,calibration,0,12,2,426,1,C,0,right,0.8305200939939823,1,0,,,,,,,,,,,,,,,,,,,,,1,,,,,,,,,,,,,,,,,,,,,,,,,,,,,,,,,,,,,,,,,,,,,,119,146857,22,Female,1,2024/03/25_10:26:37,YZ,None,
,,,,,,calibration,0,12,2,426,2,V,0,right,0.7930318739963695,1,0,,,,,,,,,,,,,,,,,,,,,1,,,,,,,,,,,,,,,,,,,,,,,,,,,,,,,,,,,,,,,,,,,,,,119,146857,22,Female,1,2024/03/25_10:26:37,YZ,None,
,,,,,,calibration,0,12,2,426,3,F,0,right,0.6762048949894961,1,0,,,,,,,,,,,,,,,,,,,,,1,,,,,,,,,,,,,,,,,,,,,,,,,,,,,,,,,,,,,,,,,,,,,,119,146857,22,Female,1,2024/03/25_10:26:37,YZ,None,
,,,,,,calibration,0,12,2,426,4,S,0,left,0.7742720289970748,0,0,,,,,,,,,,,,,,,,,,,,,1,,,,,,,,,,,,,,,,,,,,,,,,,,,,,,,,,,,,,,,,,,,,,,119,146857,22,Female,1,2024/03/25_10:26:37,YZ,None,
,,,,,,calibration,0,12,2,426,5,Q,0,right,0.6746766440046486,1,0,,,,,,,,,,,,,,,,,,,,,1,,,,,,,,,,,,,,,,,,,,,,,,,,,,,,,,,,,,,,,,,,,,,,119,146857,22,Female,1,2024/03/25_10:26:37,YZ,None,
,,,,,,calibration,0,12,2,426,6,N,0,right,0.7350557750032749,1,0,,,,,,,,,,,,,,,,,,,,,1,,,,,,,,,,,,,,,,,,,,,,,,,,,,,,,,,,,,,,,,,,,,,,119,146857,22,Female,1,2024/03/25_10:26:37,YZ,None,
,,,,,,calibration,0,12,2,426,7,Q,1,left,0.578832491999492,1,0,,,,,,,,,,,,,,,,,,,,,1,,,,,,,,,,,,,,,,,,,,,,,,,,,,,,,,,,,,,,,,,,,,,,119,146857,22,Female,1,2024/03/25_10:26:37,YZ,None,
,,,,,,calibration,0,12,2,426,8,N,1,left,0.9526030689885374,1,0,,,,,,,,,,,,,,,,,,,,,1,,,,,,,,,,,,,,,,,,,,,,,,,,,,,,,,,,,,,,,,,,,,,,119,146857,22,Female,1,2024/03/25_10:26:37,YZ,None,
,,,,,,calibration,0,12,2,426,9,V,0,right,0.7532057009811979,1,0,,,,,,,,,,,,,,,,,,,,,1,,,,,,,,,,,,,,,,,,,,,,,,,,,,,,,,,,,,,,,,,,,,,,119,146857,22,Female,1,2024/03/25_10:26:37,YZ,None,
,,,,,,calibration,0,12,2,426,10,F,0,right,0.7935425059986301,1,0,,,,,,,,,,,,,,,,,,,,,1,,,,,,,,,,,,,,,,,,,,,,,,,,,,,,,,,,,,,,,,,,,,,,119,146857,22,Female,1,2024/03/25_10:26:37,YZ,None,
,,,,,,calibration,0,12,2,426,11,S,0,right,0.6592234800045844,1,0,,,,,,,,,,,,,,,,,,,,,1,,,,,,,,,,,,,,,,,,,,,,,,,,,,,,,,,,,,,,,,,,,,,,119,146857,22,Female,1,2024/03/25_10:26:37,YZ,None,
,,,,,,calibration,0,12,2,426,12,F,1,left,0.6356937040109187,1,0,,,,,,,,,,,,,,,,,,,,,1,,,,,,,,,,,,,,,,,,,,,,,,,,,,,,,,,,,,,,,,,,,,,,119,146857,22,Female,1,2024/03/25_10:26:37,YZ,None,
,,,,,,calibration,0,12,2,426,13,X,0,right,0.6688793759967666,1,0,,,,,,,,,,,,,,,,,,,,,1,,,,,,,,,,,,,,,,,,,,,,,,,,,,,,,,,,,,,,,,,,,,,,119,146857,22,Female,1,2024/03/25_10:26:37,YZ,None,
,,,,,,calibration,0,12,2,426,14,F,1,left,0.592612657987047,1,0,,,,,,,,,,,,,,,,,,,,,1,,,,,,,,,,,,,,,,,,,,,,,,,,,,,,,,,,,,,,,,,,,,,,119,146857,22,Female,1,2024/03/25_10:26:37,YZ,None,
,,,,,,calibration,0,12,2,426,15,C,0,right,0.6575848139764275,1,0,,,,,,,,,,,,,,,,,,,,,1,,,,,,,,,,,,,,,,,,,,,,,,,,,,,,,,,,,,,,,,,,,,,,119,146857,22,Female,1,2024/03/25_10:26:37,YZ,None,
,,,,,,calibration,0,12,2,426,16,F,1,left,0.6909619689977262,1,0,,,,,,,,,,,,,,,,,,,,,1,,,,,,,,,,,,,,,,,,,,,,,,,,,,,,,,,,,,,,,,,,,,,,119,146857,22,Female,1,2024/03/25_10:26:37,YZ,None,
,,,,,,calibration,0,12,2,426,17,X,0,right,0.5921850939921569,1,0,,,,,,,,,,,,,,,,,,,,,1,,,,,,,,,,,,,,,,,,,,,,,,,,,,,,,,,,,,,,,,,,,,,,119,146857,22,Female,1,2024/03/25_10:26:37,YZ,None,
,,,,,,calibration,0,12,2,426,,,,,,,,0.9791666666666666,1.0,0.08333333333333333,0.9166666666666666,0.0,0.9166666666666666,0.70935801023049,5,1,0,0,0,11,16,5,12,0,,,,1,,,,,,,,,,,,,,,,,,,,,,,,,,,,,,,,,,,,,,,,,,,,,,119,146857,22,Female,1,2024/03/25_10:26:37,YZ,None,
,,,,,,Calibration,0,,2,426,,,,,,,,,,,,,,,,,,,,,,,,,3,,,1,,,,,,,,,,,,,,,,,,,,,,,,,,,,,,,,,,,,,,,,,,,,,,119,146857,22,Female,1,2024/03/25_10:26:37,YZ,None,
,,,,,,calibration,0,28,2,361,1,X,0,right,0.5717308880120981,1,0,,,,,,,,,,,,,,,,,,,,,1,,,,,,,,,,,,,,,,,,,,,,,,,,,,,,,,,,,,,,,,,,,,,,119,146857,22,Female,1,2024/03/25_10:26:37,YZ,None,
,,,,,,calibration,0,28,2,361,2,V,0,right,0.7655298879835755,1,0,,,,,,,,,,,,,,,,,,,,,1,,,,,,,,,,,,,,,,,,,,,,,,,,,,,,,,,,,,,,,,,,,,,,119,146857,22,Female,1,2024/03/25_10:26:37,YZ,None,
,,,,,,calibration,0,28,2,361,3,X,1,left,0.47515298501821235,1,0,,,,,,,,,,,,,,,,,,,,,1,,,,,,,,,,,,,,,,,,,,,,,,,,,,,,,,,,,,,,,,,,,,,,119,146857,22,Female,1,2024/03/25_10:26:37,YZ,None,
,,,,,,calibration,0,28,2,361,4,J,0,right,0.7235635950055439,1,0,,,,,,,,,,,,,,,,,,,,,1,,,,,,,,,,,,,,,,,,,,,,,,,,,,,,,,,,,,,,,,,,,,,,119,146857,22,Female,1,2024/03/25_10:26:37,YZ,None,
,,,,,,calibration,0,28,2,361,5,N,0,right,0.6398965179978404,1,0,,,,,,,,,,,,,,,,,,,,,1,,,,,,,,,,,,,,,,,,,,,,,,,,,,,,,,,,,,,,,,,,,,,,119,146857,22,Female,1,2024/03/25_10:26:37,YZ,None,
,,,,,,calibration,0,28,2,361,6,J,1,left,0.5339293360011652,1,0,,,,,,,,,,,,,,,,,,,,,1,,,,,,,,,,,,,,,,,,,,,,,,,,,,,,,,,,,,,,,,,,,,,,119,146857,22,Female,1,2024/03/25_10:26:37,YZ,None,
,,,,,,calibration,0,28,2,361,7,C,0,right,0.6422468550154008,1,0,,,,,,,,,,,,,,,,,,,,,1,,,,,,,,,,,,,,,,,,,,,,,,,,,,,,,,,,,,,,,,,,,,,,119,146857,22,Female,1,2024/03/25_10:26:37,YZ,None,
,,,,,,calibration,0,28,2,361,8,X,0,right,0.7256506829871796,1,0,,,,,,,,,,,,,,,,,,,,,1,,,,,,,,,,,,,,,,,,,,,,,,,,,,,,,,,,,,,,,,,,,,,,119,146857,22,Female,1,2024/03/25_10:26:37,YZ,None,
,,,,,,calibration,0,28,2,361,9,C,1,left,0.5563325149996672,1,0,,,,,,,,,,,,,,,,,,,,,1,,,,,,,,,,,,,,,,,,,,,,,,,,,,,,,,,,,,,,,,,,,,,,119,146857,22,Female,1,2024/03/25_10:26:37,YZ,None,
,,,,,,calibration,0,28,2,361,10,J,0,right,0.6414720359898638,1,0,,,,,,,,,,,,,,,,,,,,,1,,,,,,,,,,,,,,,,,,,,,,,,,,,,,,,,,,,,,,,,,,,,,,119,146857,22,Female,1,2024/03/25_10:26:37,YZ,None,
,,,,,,calibration,0,28,2,361,11,S,0,right,0.5746144170116168,1,0,,,,,,,,,,,,,,,,,,,,,1,,,,,,,,,,,,,,,,,,,,,,,,,,,,,,,,,,,,,,,,,,,,,,119,146857,22,Female,1,2024/03/25_10:26:37,YZ,None,
,,,,,,calibration,0,28,2,361,12,V,0,right,0.6020092350081541,1,0,,,,,,,,,,,,,,,,,,,,,1,,,,,,,,,,,,,,,,,,,,,,,,,,,,,,,,,,,,,,,,,,,,,,119,146857,22,Female,1,2024/03/25_10:26:37,YZ,None,
,,,,,,calibration,0,28,2,361,13,S,1,right,0.7090066149830818,0,0,,,,,,,,,,,,,,,,,,,,,1,,,,,,,,,,,,,,,,,,,,,,,,,,,,,,,,,,,,,,,,,,,,,,119,146857,22,Female,1,2024/03/25_10:26:37,YZ,None,
,,,,,,calibration,0,28,2,361,14,V,1,left,0.5249353990075178,1,0,,,,,,,,,,,,,,,,,,,,,1,,,,,,,,,,,,,,,,,,,,,,,,,,,,,,,,,,,,,,,,,,,,,,119,146857,22,Female,1,2024/03/25_10:26:37,YZ,None,
,,,,,,calibration,0,28,2,361,15,Q,0,right,0.5969187619921286,1,0,,,,,,,,,,,,,,,,,,,,,1,,,,,,,,,,,,,,,,,,,,,,,,,,,,,,,,,,,,,,,,,,,,,,119,146857,22,Female,1,2024/03/25_10:26:37,YZ,None,
,,,,,,calibration,0,28,2,361,16,V,1,left,0.564911341003608,1,0,,,,,,,,,,,,,,,,,,,,,1,,,,,,,,,,,,,,,,,,,,,,,,,,,,,,,,,,,,,,,,,,,,,,119,146857,22,Female,1,2024/03/25_10:26:37,YZ,None,
,,,,,,calibration,0,28,2,361,17,F,0,right,0.6409196360036731,1,0,,,,,,,,,,,,,,,,,,,,,1,,,,,,,,,,,,,,,,,,,,,,,,,,,,,,,,,,,,,,,,,,,,,,119,146857,22,Female,1,2024/03/25_10:26:37,YZ,None,
,,,,,,calibration,0,28,2,361,18,X,0,right,0.6369137229921762,1,0,,,,,,,,,,,,,,,,,,,,,1,,,,,,,,,,,,,,,,,,,,,,,,,,,,,,,,,,,,,,,,,,,,,,119,146857,22,Female,1,2024/03/25_10:26:37,YZ,None,
,,,,,,calibration,0,28,2,361,,,,,,,,0.9583333333333334,0.8333333333333334,0.0,1.0,0.0,1.0,0.6180963570562502,5,0,0,0,0,12,17,6,12,0,,,,1,,,,,,,,,,,,,,,,,,,,,,,,,,,,,,,,,,,,,,,,,,,,,,119,146857,22,Female,1,2024/03/25_10:26:37,YZ,None,
,,,,,,Calibration,0,,2,361,,,,,,,,,,,,,,,,,,,,,,,,,4,,,1,,,,,,,,,,,,,,,,,,,,,,,,,,,,,,,,,,,,,,,,,,,,,,119,146857,22,Female,1,2024/03/25_10:26:37,YZ,None,
,,,,,,calibration,0,28,2,303,1,S,0,right,0.5980639529880136,1,0,,,,,,,,,,,,,,,,,,,,,1,,,,,,,,,,,,,,,,,,,,,,,,,,,,,,,,,,,,,,,,,,,,,,119,146857,22,Female,1,2024/03/25_10:26:37,YZ,None,
,,,,,,calibration,0,28,2,303,2,F,0,right,0.5121045589912683,1,0,,,,,,,,,,,,,,,,,,,,,1,,,,,,,,,,,,,,,,,,,,,,,,,,,,,,,,,,,,,,,,,,,,,,119,146857,22,Female,1,2024/03/25_10:26:37,YZ,None,
,,,,,,calibration,0,28,2,303,3,C,0,right,0.5123755609965883,1,0,,,,,,,,,,,,,,,,,,,,,1,,,,,,,,,,,,,,,,,,,,,,,,,,,,,,,,,,,,,,,,,,,,,,119,146857,22,Female,1,2024/03/25_10:26:37,YZ,None,
,,,,,,calibration,0,28,2,303,4,F,1,left,0.6085445310163777,1,0,,,,,,,,,,,,,,,,,,,,,1,,,,,,,,,,,,,,,,,,,,,,,,,,,,,,,,,,,,,,,,,,,,,,119,146857,22,Female,1,2024/03/25_10:26:37,YZ,None,
,,,,,,calibration,0,28,2,303,5,X,0,right,0.6095183739962522,1,0,,,,,,,,,,,,,,,,,,,,,1,,,,,,,,,,,,,,,,,,,,,,,,,,,,,,,,,,,,,,,,,,,,,,119,146857,22,Female,1,2024/03/25_10:26:37,YZ,None,
,,,,,,calibration,0,28,2,303,6,Q,0,right,0.690321436006343,1,0,,,,,,,,,,,,,,,,,,,,,1,,,,,,,,,,,,,,,,,,,,,,,,,,,,,,,,,,,,,,,,,,,,,,119,146857,22,Female,1,2024/03/25_10:26:37,YZ,None,
,,,,,,calibration,0,28,2,303,7,X,1,left,0.4708091520005837,1,0,,,,,,,,,,,,,,,,,,,,,1,,,,,,,,,,,,,,,,,,,,,,,,,,,,,,,,,,,,,,,,,,,,,,119,146857,22,Female,1,2024/03/25_10:26:37,YZ,None,
,,,,,,calibration,0,28,2,303,8,F,0,right,0.6257182180124801,1,0,,,,,,,,,,,,,,,,,,,,,1,,,,,,,,,,,,,,,,,,,,,,,,,,,,,,,,,,,,,,,,,,,,,,119,146857,22,Female,1,2024/03/25_10:26:37,YZ,None,
,,,,,,calibration,0,28,2,303,9,X,1,right,0.5423368560150266,0,0,,,,,,,,,,,,,,,,,,,,,1,,,,,,,,,,,,,,,,,,,,,,,,,,,,,,,,,,,,,,,,,,,,,,119,146857,22,Female,1,2024/03/25_10:26:37,YZ,None,
,,,,,,calibration,0,28,2,303,10,S,0,right,0.607673888996942,1,0,,,,,,,,,,,,,,,,,,,,,1,,,,,,,,,,,,,,,,,,,,,,,,,,,,,,,,,,,,,,,,,,,,,,119,146857,22,Female,1,2024/03/25_10:26:37,YZ,None,
,,,,,,calibration,0,28,2,303,11,C,0,right,0.7234100030036643,1,0,,,,,,,,,,,,,,,,,,,,,1,,,,,,,,,,,,,,,,,,,,,,,,,,,,,,,,,,,,,,,,,,,,,,119,146857,22,Female,1,2024/03/25_10:26:37,YZ,None,
,,,,,,calibration,0,28,2,303,12,J,0,right,0.5510561679839157,1,0,,,,,,,,,,,,,,,,,,,,,1,,,,,,,,,,,,,,,,,,,,,,,,,,,,,,,,,,,,,,,,,,,,,,119,146857,22,Female,1,2024/03/25_10:26:37,YZ,None,
,,,,,,calibration,0,28,2,303,13,Q,0,right,0.7083308099827264,1,0,,,,,,,,,,,,,,,,,,,,,1,,,,,,,,,,,,,,,,,,,,,,,,,,,,,,,,,,,,,,,,,,,,,,119,146857,22,Female,1,2024/03/25_10:26:37,YZ,None,
,,,,,,calibration,0,28,2,303,14,J,1,left,0.557324207999045,1,0,,,,,,,,,,,,,,,,,,,,,1,,,,,,,,,,,,,,,,,,,,,,,,,,,,,,,,,,,,,,,,,,,,,,119,146857,22,Female,1,2024/03/25_10:26:37,YZ,None,
,,,,,,calibration,0,28,2,303,15,V,0,right,0.486460269021336,1,0,,,,,,,,,,,,,,,,,,,,,1,,,,,,,,,,,,,,,,,,,,,,,,,,,,,,,,,,,,,,,,,,,,,,119,146857,22,Female,1,2024/03/25_10:26:37,YZ,None,
,,,,,,calibration,0,28,2,303,16,S,0,right,0.575310331012588,1,0,,,,,,,,,,,,,,,,,,,,,1,,,,,,,,,,,,,,,,,,,,,,,,,,,,,,,,,,,,,,,,,,,,,,119,146857,22,Female,1,2024/03/25_10:26:37,YZ,None,
,,,,,,calibration,0,28,2,303,17,V,1,left,0.5913148070103489,1,0,,,,,,,,,,,,,,,,,,,,,1,,,,,,,,,,,,,,,,,,,,,,,,,,,,,,,,,,,,,,,,,,,,,,119,146857,22,Female,1,2024/03/25_10:26:37,YZ,None,
,,,,,,calibration,0,28,2,303,18,C,0,right,0.5652207699895371,1,0,,,,,,,,,,,,,,,,,,,,,1,,,,,,,,,,,,,,,,,,,,,,,,,,,,,,,,,,,,,,,,,,,,,,119,146857,22,Female,1,2024/03/25_10:26:37,YZ,None,
,,,,,,calibration,0,28,2,303,19,V,1,right,0.43220268699224107,0,0,,,,,,,,,,,,,,,,,,,,,1,,,,,,,,,,,,,,,,,,,,,,,,,,,,,,,,,,,,,,,,,,,,,,119,146857,22,Female,1,2024/03/25_10:26:37,YZ,None,
,,,,,,calibration,0,28,2,303,,,,,,,,0.9166666666666666,0.6666666666666666,0.0,1.0,0.0,1.0,0.5772682411586988,4,0,0,0,0,13,17,6,13,0,,,,1,,,,,,,,,,,,,,,,,,,,,,,,,,,,,,,,,,,,,,,,,,,,,,119,146857,22,Female,1,2024/03/25_10:26:37,YZ,None,
,,,,,,Calibration,0,,2,303,,,,,,,,,,,,,,,,,,,,,,,,,5,,,1,,,,,,,,,,,,,,,,,,,,,,,,,,,,,,,,,,,,,,,,,,,,,,119,146857,22,Female,1,2024/03/25_10:26:37,YZ,None,
,,,,,,calibration,0,23,2,250,1,X,0,right,0.5829232030082494,1,0,,,,,,,,,,,,,,,,,,,,,1,,,,,,,,,,,,,,,,,,,,,,,,,,,,,,,,,,,,,,,,,,,,,,119,146857,22,Female,1,2024/03/25_10:26:37,YZ,None,
,,,,,,calibration,0,23,2,250,2,N,0,right,0.5911446140089538,1,0,,,,,,,,,,,,,,,,,,,,,1,,,,,,,,,,,,,,,,,,,,,,,,,,,,,,,,,,,,,,,,,,,,,,119,146857,22,Female,1,2024/03/25_10:26:37,YZ,None,
,,,,,,calibration,0,23,2,250,3,X,1,left,0.3398400600126479,1,0,,,,,,,,,,,,,,,,,,,,,1,,,,,,,,,,,,,,,,,,,,,,,,,,,,,,,,,,,,,,,,,,,,,,119,146857,22,Female,1,2024/03/25_10:26:37,YZ,None,
,,,,,,calibration,0,23,2,250,4,F,0,right,0.7333142729767133,1,0,,,,,,,,,,,,,,,,,,,,,1,,,,,,,,,,,,,,,,,,,,,,,,,,,,,,,,,,,,,,,,,,,,,,119,146857,22,Female,1,2024/03/25_10:26:37,YZ,None,
,,,,,,calibration,0,23,2,250,5,V,0,right,0.6819472619972657,1,0,,,,,,,,,,,,,,,,,,,,,1,,,,,,,,,,,,,,,,,,,,,,,,,,,,,,,,,,,,,,,,,,,,,,119,146857,22,Female,1,2024/03/25_10:26:37,YZ,None,
,,,,,,calibration,0,23,2,250,6,N,0,left,0.6081152049882803,0,0,,,,,,,,,,,,,,,,,,,,,1,,,,,,,,,,,,,,,,,,,,,,,,,,,,,,,,,,,,,,,,,,,,,,119,146857,22,Female,1,2024/03/25_10:26:37,YZ,None,
,,,,,,calibration,0,23,2,250,7,S,0,right,0.6262506970087998,1,0,,,,,,,,,,,,,,,,,,,,,1,,,,,,,,,,,,,,,,,,,,,,,,,,,,,,,,,,,,,,,,,,,,,,119,146857,22,Female,1,2024/03/25_10:26:37,YZ,None,
,,,,,,calibration,0,23,2,250,8,J,0,right,0.6090357629873324,1,0,,,,,,,,,,,,,,,,,,,,,1,,,,,,,,,,,,,,,,,,,,,,,,,,,,,,,,,,,,,,,,,,,,,,119,146857,22,Female,1,2024/03/25_10:26:37,YZ,None,
,,,,,,calibration,0,23,2,250,9,X,0,right,0.8167817249777727,1,0,,,,,,,,,,,,,,,,,,,,,1,,,,,,,,,,,,,,,,,,,,,,,,,,,,,,,,,,,,,,,,,,,,,,119,146857,22,Female,1,2024/03/25_10:26:37,YZ,None,
,,,,,,calibration,0,23,2,250,10,S,0,right,0.7585710410203319,1,0,,,,,,,,,,,,,,,,,,,,,1,,,,,,,,,,,,,,,,,,,,,,,,,,,,,,,,,,,,,,,,,,,,,,119,146857,22,Female,1,2024/03/25_10:26:37,YZ,None,
,,,,,,calibration,0,23,2,250,11,X,1,left,0.4789085939992219,1,0,,,,,,,,,,,,,,,,,,,,,1,,,,,,,,,,,,,,,,,,,,,,,,,,,,,,,,,,,,,,,,,,,,,,119,146857,22,Female,1,2024/03/25_10:26:37,YZ,None,
,,,,,,calibration,0,23,2,250,12,C,0,right,0.613431984995259,1,0,,,,,,,,,,,,,,,,,,,,,1,,,,,,,,,,,,,,,,,,,,,,,,,,,,,,,,,,,,,,,,,,,,,,119,146857,22,Female,1,2024/03/25_10:26:37,YZ,None,
,,,,,,calibration,0,23,2,250,13,X,1,right,0.7914488870010246,0,0,,,,,,,,,,,,,,,,,,,,,1,,,,,,,,,,,,,,,,,,,,,,,,,,,,,,,,,,,,,,,,,,,,,,119,146857,22,Female,1,2024/03/25_10:26:37,YZ,None,
,,,,,,calibration,0,23,2,250,14,C,1,right,nan,0,1,,,,,,,,,,,,,,,,,,,,,1,,,,,,,,,,,,,,,,,,,,,,,,,,,,,,,,,,,,,,,,,,,,,,119,146857,22,Female,1,2024/03/25_10:26:37,YZ,None,
,,,,,,calibration,0,23,2,250,15,N,0,right,0.9245660830056295,1,0,,,,,,,,,,,,,,,,,,,,,1,,,,,,,,,,,,,,,,,,,,,,,,,,,,,,,,,,,,,,,,,,,,,,119,146857,22,Female,1,2024/03/25_10:26:37,YZ,None,
,,,,,,calibration,0,23,2,250,16,C,1,left,0.6561582529975567,1,0,,,,,,,,,,,,,,,,,,,,,1,,,,,,,,,,,,,,,,,,,,,,,,,,,,,,,,,,,,,,,,,,,,,,119,146857,22,Female,1,2024/03/25_10:26:37,YZ,None,
,,,,,,calibration,0,23,2,250,17,X,0,right,0.5850288440124132,1,0,,,,,,,,,,,,,,,,,,,,,1,,,,,,,,,,,,,,,,,,,,,,,,,,,,,,,,,,,,,,,,,,,,,,119,146857,22,Female,1,2024/03/25_10:26:37,YZ,None,
,,,,,,calibration,0,23,2,250,18,Q,0,right,0.4536746999947354,1,0,,,,,,,,,,,,,,,,,,,,,1,,,,,,,,,,,,,,,,,,,,,,,,,,,,,,,,,,,,,,,,,,,,,,119,146857,22,Female,1,2024/03/25_10:26:37,YZ,None,
,,,,,,calibration,0,23,2,250,19,N,0,right,0.42627961799735203,1,0,,,,,,,,,,,,,,,,,,,,,1,,,,,,,,,,,,,,,,,,,,,,,,,,,,,,,,,,,,,,,,,,,,,,119,146857,22,Female,1,2024/03/25_10:26:37,YZ,None,
,,,,,,calibration,0,23,2,250,20,V,0,right,0.45265222201123834,1,0,,,,,,,,,,,,,,,,,,,,,1,,,,,,,,,,,,,,,,,,,,,,,,,,,,,,,,,,,,,,,,,,,,,,119,146857,22,Female,1,2024/03/25_10:26:37,YZ,None,
,,,,,,calibration,0,23,2,250,,,,,,,,0.8566666666666667,0.6,0.06666666666666667,0.9333333333333333,0.05,0.8833333333333333,0.6173722646842514,3,1,1,0,1,14,17,5,15,0,,,,1,,,,,,,,,,,,,,,,,,,,,,,,,,,,,,,,,,,,,,,,,,,,,,119,146857,22,Female,1,2024/03/25_10:26:37,YZ,None,
,,,,,,Calibration,0,,2,250,,,,,,,,,,,,,,,,,,,,,,,,,6,,,1,,,,,,,,,,,,,,,,,,,,,,,,,,,,,,,,,,,,,,,,,,,,,,119,146857,22,Female,1,2024/03/25_10:26:37,YZ,None,
,,,,,,calibration,0,6,2,202,1,C,0,right,0.5121391619904898,1,0,,,,,,,,,,,,,,,,,,,,,1,,,,,,,,,,,,,,,,,,,,,,,,,,,,,,,,,,,,,,,,,,,,,,119,146857,22,Female,1,2024/03/25_10:26:37,YZ,None,
,,,,,,calibration,0,6,2,202,2,C,0,right,0.30795571897760965,1,0,,,,,,,,,,,,,,,,,,,,,1,,,,,,,,,,,,,,,,,,,,,,,,,,,,,,,,,,,,,,,,,,,,,,119,146857,22,Female,1,2024/03/25_10:26:37,YZ,None,
,,,,,,calibration,0,6,2,202,3,S,0,right,0.44080428598681465,1,0,,,,,,,,,,,,,,,,,,,,,1,,,,,,,,,,,,,,,,,,,,,,,,,,,,,,,,,,,,,,,,,,,,,,119,146857,22,Female,1,2024/03/25_10:26:37,YZ,None,
,,,,,,calibration,0,6,2,202,4,C,1,left,0.48118712700670585,1,0,,,,,,,,,,,,,,,,,,,,,1,,,,,,,,,,,,,,,,,,,,,,,,,,,,,,,,,,,,,,,,,,,,,,119,146857,22,Female,1,2024/03/25_10:26:37,YZ,None,
,,,,,,calibration,0,6,2,202,5,F,0,right,0.405677041009767,1,0,,,,,,,,,,,,,,,,,,,,,1,,,,,,,,,,,,,,,,,,,,,,,,,,,,,,,,,,,,,,,,,,,,,,119,146857,22,Female,1,2024/03/25_10:26:37,YZ,None,
,,,,,,calibration,0,6,2,202,6,J,0,right,0.5409077869844623,1,0,,,,,,,,,,,,,,,,,,,,,1,,,,,,,,,,,,,,,,,,,,,,,,,,,,,,,,,,,,,,,,,,,,,,119,146857,22,Female,1,2024/03/25_10:26:37,YZ,None,
,,,,,,calibration,0,6,2,202,7,Q,0,right,0.40269703601370566,1,0,,,,,,,,,,,,,,,,,,,,,1,,,,,,,,,,,,,,,,,,,,,,,,,,,,,,,,,,,,,,,,,,,,,,119,146857,22,Female,1,2024/03/25_10:26:37,YZ,None,
,,,,,,calibration,0,6,2,202,8,J,1,left,0.5243742220045533,1,0,,,,,,,,,,,,,,,,,,,,,1,,,,,,,,,,,,,,,,,,,,,,,,,,,,,,,,,,,,,,,,,,,,,,119,146857,22,Female,1,2024/03/25_10:26:37,YZ,None,
,,,,,,calibration,0,6,2,202,9,Q,1,right,0.3610877140017692,0,0,,,,,,,,,,,,,,,,,,,,,1,,,,,,,,,,,,,,,,,,,,,,,,,,,,,,,,,,,,,,,,,,,,,,119,146857,22,Female,1,2024/03/25_10:26:37,YZ,None,
,,,,,,calibration,0,6,2,202,10,F,0,right,0.5185708599747159,1,0,,,,,,,,,,,,,,,,,,,,,1,,,,,,,,,,,,,,,,,,,,,,,,,,,,,,,,,,,,,,,,,,,,,,119,146857,22,Female,1,2024/03/25_10:26:37,YZ,None,
,,,,,,calibration,0,6,2,202,11,S,0,right,0.3985341820225585,1,0,,,,,,,,,,,,,,,,,,,,,1,,,,,,,,,,,,,,,,,,,,,,,,,,,,,,,,,,,,,,,,,,,,,,119,146857,22,Female,1,2024/03/25_10:26:37,YZ,None,
,,,,,,calibration,0,6,2,202,12,X,0,right,0.43348837600206025,1,0,,,,,,,,,,,,,,,,,,,,,1,,,,,,,,,,,,,,,,,,,,,,,,,,,,,,,,,,,,,,,,,,,,,,119,146857,22,Female,1,2024/03/25_10:26:37,YZ,None,
,,,,,,calibration,0,6,2,202,13,C,0,right,0.5240175910003018,1,0,,,,,,,,,,,,,,,,,,,,,1,,,,,,,,,,,,,,,,,,,,,,,,,,,,,,,,,,,,,,,,,,,,,,119,146857,22,Female,1,2024/03/25_10:26:37,YZ,None,
,,,,,,calibration,0,6,2,202,14,X,1,right,nan,0,1,,,,,,,,,,,,,,,,,,,,,1,,,,,,,,,,,,,,,,,,,,,,,,,,,,,,,,,,,,,,,,,,,,,,119,146857,22,Female,1,2024/03/25_10:26:37,YZ,None,
,,,,,,calibration,0,6,2,202,15,V,0,right,0.4408428060123697,1,0,,,,,,,,,,,,,,,,,,,,,1,,,,,,,,,,,,,,,,,,,,,,,,,,,,,,,,,,,,,,,,,,,,,,119,146857,22,Female,1,2024/03/25_10:26:37,YZ,None,
,,,,,,calibration,0,6,2,202,16,Q,0,right,0.5312769660085905,1,0,,,,,,,,,,,,,,,,,,,,,1,,,,,,,,,,,,,,,,,,,,,,,,,,,,,,,,,,,,,,,,,,,,,,119,146857,22,Female,1,2024/03/25_10:26:37,YZ,None,
,,,,,,calibration,0,6,2,202,17,F,0,right,0.4381603600049857,1,0,,,,,,,,,,,,,,,,,,,,,1,,,,,,,,,,,,,,,,,,,,,,,,,,,,,,,,,,,,,,,,,,,,,,119,146857,22,Female,1,2024/03/25_10:26:37,YZ,None,
,,,,,,calibration,0,6,2,202,18,Q,1,left,0.532151233026525,1,0,,,,,,,,,,,,,,,,,,,,,1,,,,,,,,,,,,,,,,,,,,,,,,,,,,,,,,,,,,,,,,,,,,,,119,146857,22,Female,1,2024/03/25_10:26:37,YZ,None,
,,,,,,calibration,0,6,2,202,19,X,0,right,0.40314900799421594,1,0,,,,,,,,,,,,,,,,,,,,,1,,,,,,,,,,,,,,,,,,,,,,,,,,,,,,,,,,,,,,,,,,,,,,119,146857,22,Female,1,2024/03/25_10:26:37,YZ,None,
,,,,,,calibration,0,6,2,202,20,F,0,right,0.6349515019974206,1,0,,,,,,,,,,,,,,,,,,,,,1,,,,,,,,,,,,,,,,,,,,,,,,,,,,,,,,,,,,,,,,,,,,,,119,146857,22,Female,1,2024/03/25_10:26:37,YZ,None,
,,,,,,calibration,0,6,2,202,21,X,1,left,0.547544695000397,1,0,,,,,,,,,,,,,,,,,,,,,1,,,,,,,,,,,,,,,,,,,,,,,,,,,,,,,,,,,,,,,,,,,,,,119,146857,22,Female,1,2024/03/25_10:26:37,YZ,None,
,,,,,,calibration,0,6,2,202,,,,,,,,0.9166666666666666,0.6666666666666666,0.0,1.0,0.047619047619047616,0.9523809523809523,0.4689758836510009,4,0,1,0,1,15,19,6,15,0,,,,1,,,,,,,,,,,,,,,,,,,,,,,,,,,,,,,,,,,,,,,,,,,,,,119,146857,22,Female,1,2024/03/25_10:26:37,YZ,None,
,,,,,,Calibration,0,,2,202,,,,,,,,,,,,,,,,,,,,,,,,,7,,,1,,,,,,,,,,,,,,,,,,,,,,,,,,,,,,,,,,,,,,,,,,,,,,119,146857,22,Female,1,2024/03/25_10:26:37,YZ,None,
,,,,,,calibration,0,27,2,159,1,V,0,right,0.42479075898882,1,0,,,,,,,,,,,,,,,,,,,,,1,,,,,,,,,,,,,,,,,,,,,,,,,,,,,,,,,,,,,,,,,,,,,,119,146857,22,Female,1,2024/03/25_10:26:37,YZ,None,
,,,,,,calibration,0,27,2,159,2,Q,0,right,0.6189461400208529,1,0,,,,,,,,,,,,,,,,,,,,,1,,,,,,,,,,,,,,,,,,,,,,,,,,,,,,,,,,,,,,,,,,,,,,119,146857,22,Female,1,2024/03/25_10:26:37,YZ,None,
,,,,,,calibration,0,27,2,159,3,V,1,left,0.32508537199464627,1,0,,,,,,,,,,,,,,,,,,,,,1,,,,,,,,,,,,,,,,,,,,,,,,,,,,,,,,,,,,,,,,,,,,,,119,146857,22,Female,1,2024/03/25_10:26:37,YZ,None,
,,,,,,calibration,0,27,2,159,4,J,0,right,0.44969041901640594,1,0,,,,,,,,,,,,,,,,,,,,,1,,,,,,,,,,,,,,,,,,,,,,,,,,,,,,,,,,,,,,,,,,,,,,119,146857,22,Female,1,2024/03/25_10:26:37,YZ,None,
,,,,,,calibration,0,27,2,159,5,F,0,left,0.3368011190032121,0,0,,,,,,,,,,,,,,,,,,,,,1,,,,,,,,,,,,,,,,,,,,,,,,,,,,,,,,,,,,,,,,,,,,,,119,146857,22,Female,1,2024/03/25_10:26:37,YZ,None,
,,,,,,calibration,0,27,2,159,6,X,0,right,0.5624269570107572,1,0,,,,,,,,,,,,,,,,,,,,,1,,,,,,,,,,,,,,,,,,,,,,,,,,,,,,,,,,,,,,,,,,,,,,119,146857,22,Female,1,2024/03/25_10:26:37,YZ,None,
,,,,,,calibration,0,27,2,159,7,Q,0,right,0.37078381099854596,1,0,,,,,,,,,,,,,,,,,,,,,1,,,,,,,,,,,,,,,,,,,,,,,,,,,,,,,,,,,,,,,,,,,,,,119,146857,22,Female,1,2024/03/25_10:26:37,YZ,None,
,,,,,,calibration,0,27,2,159,8,X,1,left,0.4637642969901208,1,0,,,,,,,,,,,,,,,,,,,,,1,,,,,,,,,,,,,,,,,,,,,,,,,,,,,,,,,,,,,,,,,,,,,,119,146857,22,Female,1,2024/03/25_10:26:37,YZ,None,
,,,,,,calibration,0,27,2,159,9,Q,1,left,0.6809426980034914,1,0,,,,,,,,,,,,,,,,,,,,,1,,,,,,,,,,,,,,,,,,,,,,,,,,,,,,,,,,,,,,,,,,,,,,119,146857,22,Female,1,2024/03/25_10:26:37,YZ,None,
,,,,,,calibration,0,27,2,159,10,F,0,right,0.5122207169770263,1,0,,,,,,,,,,,,,,,,,,,,,1,,,,,,,,,,,,,,,,,,,,,,,,,,,,,,,,,,,,,,,,,,,,,,119,146857,22,Female,1,2024/03/25_10:26:37,YZ,None,
,,,,,,calibration,0,27,2,159,11,X,0,right,0.5240413099818397,1,0,,,,,,,,,,,,,,,,,,,,,1,,,,,,,,,,,,,,,,,,,,,,,,,,,,,,,,,,,,,,,,,,,,,,119,146857,22,Female,1,2024/03/25_10:26:37,YZ,None,
,,,,,,calibration,0,27,2,159,12,F,1,right,0.6096631359832827,0,0,,,,,,,,,,,,,,,,,,,,,1,,,,,,,,,,,,,,,,,,,,,,,,,,,,,,,,,,,,,,,,,,,,,,119,146857,22,Female,1,2024/03/25_10:26:37,YZ,None,
,,,,,,calibration,0,27,2,159,13,S,0,right,0.6518024950055405,1,0,,,,,,,,,,,,,,,,,,,,,1,,,,,,,,,,,,,,,,,,,,,,,,,,,,,,,,,,,,,,,,,,,,,,119,146857,22,Female,1,2024/03/25_10:26:37,YZ,None,
,,,,,,calibration,0,27,2,159,14,X,0,right,0.5540554180042818,1,0,,,,,,,,,,,,,,,,,,,,,1,,,,,,,,,,,,,,,,,,,,,,,,,,,,,,,,,,,,,,,,,,,,,,119,146857,22,Female,1,2024/03/25_10:26:37,YZ,None,
,,,,,,calibration,0,27,2,159,15,Q,0,right,0.39696406200528145,1,0,,,,,,,,,,,,,,,,,,,,,1,,,,,,,,,,,,,,,,,,,,,,,,,,,,,,,,,,,,,,,,,,,,,,119,146857,22,Female,1,2024/03/25_10:26:37,YZ,None,
,,,,,,calibration,0,27,2,159,16,J,0,right,0.4400058669853024,1,0,,,,,,,,,,,,,,,,,,,,,1,,,,,,,,,,,,,,,,,,,,,,,,,,,,,,,,,,,,,,,,,,,,,,119,146857,22,Female,1,2024/03/25_10:26:37,YZ,None,
,,,,,,calibration,0,27,2,159,17,C,0,right,0.4802508040156681,1,0,,,,,,,,,,,,,,,,,,,,,1,,,,,,,,,,,,,,,,,,,,,,,,,,,,,,,,,,,,,,,,,,,,,,119,146857,22,Female,1,2024/03/25_10:26:37,YZ,None,
,,,,,,calibration,0,27,2,159,18,Q,0,right,0.5751183530082926,1,0,,,,,,,,,,,,,,,,,,,,,1,,,,,,,,,,,,,,,,,,,,,,,,,,,,,,,,,,,,,,,,,,,,,,119,146857,22,Female,1,2024/03/25_10:26:37,YZ,None,
,,,,,,calibration,0,27,2,159,19,C,1,left,0.5431892639899161,1,0,,,,,,,,,,,,,,,,,,,,,1,,,,,,,,,,,,,,,,,,,,,,,,,,,,,,,,,,,,,,,,,,,,,,119,146857,22,Female,1,2024/03/25_10:26:37,YZ,None,
,,,,,,calibration,0,27,2,159,20,N,0,right,0.4289014530077111,1,0,,,,,,,,,,,,,,,,,,,,,1,,,,,,,,,,,,,,,,,,,,,,,,,,,,,,,,,,,,,,,,,,,,,,119,146857,22,Female,1,2024/03/25_10:26:37,YZ,None,
,,,,,,calibration,0,27,2,159,21,C,1,left,0.4369419260183349,1,0,,,,,,,,,,,,,,,,,,,,,1,,,,,,,,,,,,,,,,,,,,,,,,,,,,,,,,,,,,,,,,,,,,,,119,146857,22,Female,1,2024/03/25_10:26:37,YZ,None,
,,,,,,calibration,0,27,2,159,22,N,1,right,0.36009638200630434,0,0,,,,,,,,,,,,,,,,,,,,,1,,,,,,,,,,,,,,,,,,,,,,,,,,,,,,,,,,,,,,,,,,,,,,119,146857,22,Female,1,2024/03/25_10:26:37,YZ,None,
,,,,,,calibration,0,27,2,159,,,,,,,,0.8928571428571428,0.7142857142857143,0.06666666666666667,0.9333333333333333,0.0,0.9333333333333333,0.4884764890461652,5,1,0,0,0,14,19,7,15,0,,,,1,,,,,,,,,,,,,,,,,,,,,,,,,,,,,,,,,,,,,,,,,,,,,,119,146857,22,Female,1,2024/03/25_10:26:37,YZ,None,
,,,,,,Calibration,0,,2,159,,,,,,,,,,,,,,,,,,,,,,,,,8,,,1,,,,,,,,,,,,,,,,,,,,,,,,,,,,,,,,,,,,,,,,,,,,,,119,146857,22,Female,1,2024/03/25_10:26:37,YZ,None,
,,,,,,calibration,0,28,2,120,1,J,0,right,0.75451016498846,1,0,,,,,,,,,,,,,,,,,,,,,1,,,,,,,,,,,,,,,,,,,,,,,,,,,,,,,,,,,,,,,,,,,,,,119,146857,22,Female,1,2024/03/25_10:26:37,YZ,None,
,,,,,,calibration,0,28,2,120,2,Q,0,right,0.31927050100057386,1,0,,,,,,,,,,,,,,,,,,,,,1,,,,,,,,,,,,,,,,,,,,,,,,,,,,,,,,,,,,,,,,,,,,,,119,146857,22,Female,1,2024/03/25_10:26:37,YZ,None,
,,,,,,calibration,0,28,2,120,3,N,0,right,0.4963201929931529,1,0,,,,,,,,,,,,,,,,,,,,,1,,,,,,,,,,,,,,,,,,,,,,,,,,,,,,,,,,,,,,,,,,,,,,119,146857,22,Female,1,2024/03/25_10:26:37,YZ,None,
,,,,,,calibration,0,28,2,120,4,C,0,left,0.5121581040148158,0,0,,,,,,,,,,,,,,,,,,,,,1,,,,,,,,,,,,,,,,,,,,,,,,,,,,,,,,,,,,,,,,,,,,,,119,146857,22,Female,1,2024/03/25_10:26:37,YZ,None,
,,,,,,calibration,0,28,2,120,5,N,1,right,0.4659384939877782,0,0,,,,,,,,,,,,,,,,,,,,,1,,,,,,,,,,,,,,,,,,,,,,,,,,,,,,,,,,,,,,,,,,,,,,119,146857,22,Female,1,2024/03/25_10:26:37,YZ,None,
,,,,,,calibration,0,28,2,120,6,J,0,right,nan,0,1,,,,,,,,,,,,,,,,,,,,,1,,,,,,,,,,,,,,,,,,,,,,,,,,,,,,,,,,,,,,,,,,,,,,119,146857,22,Female,1,2024/03/25_10:26:37,YZ,None,
,,,,,,calibration,0,28,2,120,7,Q,0,left,0.8742233800003305,0,0,,,,,,,,,,,,,,,,,,,,,1,,,,,,,,,,,,,,,,,,,,,,,,,,,,,,,,,,,,,,,,,,,,,,119,146857,22,Female,1,2024/03/25_10:26:37,YZ,None,
,,,,,,calibration,0,28,2,120,8,J,1,right,0.8550838390074205,0,0,,,,,,,,,,,,,,,,,,,,,1,,,,,,,,,,,,,,,,,,,,,,,,,,,,,,,,,,,,,,,,,,,,,,119,146857,22,Female,1,2024/03/25_10:26:37,YZ,None,
,,,,,,calibration,0,28,2,120,9,N,0,right,0.634799118997762,1,0,,,,,,,,,,,,,,,,,,,,,1,,,,,,,,,,,,,,,,,,,,,,,,,,,,,,,,,,,,,,,,,,,,,,119,146857,22,Female,1,2024/03/25_10:26:37,YZ,None,
,,,,,,calibration,0,28,2,120,10,J,1,left,0.6260173929913435,1,0,,,,,,,,,,,,,,,,,,,,,1,,,,,,,,,,,,,,,,,,,,,,,,,,,,,,,,,,,,,,,,,,,,,,119,146857,22,Female,1,2024/03/25_10:26:37,YZ,None,
,,,,,,calibration,0,28,2,120,11,N,1,right,0.7408500750025269,0,0,,,,,,,,,,,,,,,,,,,,,1,,,,,,,,,,,,,,,,,,,,,,,,,,,,,,,,,,,,,,,,,,,,,,119,146857,22,Female,1,2024/03/25_10:26:37,YZ,None,
,,,,,,calibration,0,28,2,120,12,F,0,right,0.6797800539934542,1,0,,,,,,,,,,,,,,,,,,,,,1,,,,,,,,,,,,,,,,,,,,,,,,,,,,,,,,,,,,,,,,,,,,,,119,146857,22,Female,1,2024/03/25_10:26:37,YZ,None,
,,,,,,calibration,0,28,2,120,13,J,0,left,0.6416106010146905,0,0,,,,,,,,,,,,,,,,,,,,,1,,,,,,,,,,,,,,,,,,,,,,,,,,,,,,,,,,,,,,,,,,,,,,119,146857,22,Female,1,2024/03/25_10:26:37,YZ,None,
,,,,,,calibration,0,28,2,120,14,F,1,right,0.8124173610121943,0,0,,,,,,,,,,,,,,,,,,,,,1,,,,,,,,,,,,,,,,,,,,,,,,,,,,,,,,,,,,,,,,,,,,,,119,146857,22,Female,1,2024/03/25_10:26:37,YZ,None,
,,,,,,calibration,0,28,2,120,15,V,0,right,0.7148262239934411,1,0,,,,,,,,,,,,,,,,,,,,,1,,,,,,,,,,,,,,,,,,,,,,,,,,,,,,,,,,,,,,,,,,,,,,119,146857,22,Female,1,2024/03/25_10:26:37,YZ,None,
,,,,,,calibration,0,28,2,120,16,X,0,right,0.6091307169990614,1,0,,,,,,,,,,,,,,,,,,,,,1,,,,,,,,,,,,,,,,,,,,,,,,,,,,,,,,,,,,,,,,,,,,,,119,146857,22,Female,1,2024/03/25_10:26:37,YZ,None,
,,,,,,calibration,0,28,2,120,17,S,0,right,0.6524729729862884,1,0,,,,,,,,,,,,,,,,,,,,,1,,,,,,,,,,,,,,,,,,,,,,,,,,,,,,,,,,,,,,,,,,,,,,119,146857,22,Female,1,2024/03/25_10:26:37,YZ,None,
,,,,,,calibration,0,28,2,120,18,F,0,right,0.6435417770117056,1,0,,,,,,,,,,,,,,,,,,,,,1,,,,,,,,,,,,,,,,,,,,,,,,,,,,,,,,,,,,,,,,,,,,,,119,146857,22,Female,1,2024/03/25_10:26:37,YZ,None,
,,,,,,calibration,0,28,2,120,19,C,0,right,0.6121433599910233,1,0,,,,,,,,,,,,,,,,,,,,,1,,,,,,,,,,,,,,,,,,,,,,,,,,,,,,,,,,,,,,,,,,,,,,119,146857,22,Female,1,2024/03/25_10:26:37,YZ,None,
,,,,,,calibration,0,28,2,120,20,X,0,right,0.588709136005491,1,0,,,,,,,,,,,,,,,,,,,,,1,,,,,,,,,,,,,,,,,,,,,,,,,,,,,,,,,,,,,,,,,,,,,,119,146857,22,Female,1,2024/03/25_10:26:37,YZ,None,
,,,,,,calibration,0,28,2,120,21,S,0,right,0.6017503290204331,1,0,,,,,,,,,,,,,,,,,,,,,1,,,,,,,,,,,,,,,,,,,,,,,,,,,,,,,,,,,,,,,,,,,,,,119,146857,22,Female,1,2024/03/25_10:26:37,YZ,None,
,,,,,,calibration,0,28,2,120,22,Q,0,right,0.6688632869918365,1,0,,,,,,,,,,,,,,,,,,,,,1,,,,,,,,,,,,,,,,,,,,,,,,,,,,,,,,,,,,,,,,,,,,,,119,146857,22,Female,1,2024/03/25_10:26:37,YZ,None,
,,,,,,calibration,0,28,2,120,23,S,1,left,0.5755141750269104,1,0,,,,,,,,,,,,,,,,,,,,,1,,,,,,,,,,,,,,,,,,,,,,,,,,,,,,,,,,,,,,,,,,,,,,119,146857,22,Female,1,2024/03/25_10:26:37,YZ,None,
,,,,,,calibration,0,28,2,120,,,,,,,,0.6568627450980391,0.3333333333333333,0.17647058823529413,0.8125,0.043478260869565216,0.7800511508951407,0.6399968753195769,2,3,0,1,1,13,15,6,17,0,,,,1,,,,,,,,,,,,,,,,,,,,,,,,,,,,,,,,,,,,,,,,,,,,,,119,146857,22,Female,1,2024/03/25_10:26:37,YZ,None,
,,,,,,Calibration,0,,2,120,,,,,,,,,,,,,,,,,,,,,,,,,9,,,1,,,,,,,,,,,,,,,,,,,,,,,,,,,,,,,,,,,,,,,,,,,,,,119,146857,22,Female,1,2024/03/25_10:26:37,YZ,None,
,,,,,,calibration,0,11,2,159,1,Q,0,right,0.33857486897613853,1,0,,,,,,,,,,,,,,,,,,,,,1,,,,,,,,,,,,,,,,,,,,,,,,,,,,,,,,,,,,,,,,,,,,,,119,146857,22,Female,1,2024/03/25_10:26:37,YZ,None,
,,,,,,calibration,0,11,2,159,2,S,0,right,0.3923336479929276,1,0,,,,,,,,,,,,,,,,,,,,,1,,,,,,,,,,,,,,,,,,,,,,,,,,,,,,,,,,,,,,,,,,,,,,119,146857,22,Female,1,2024/03/25_10:26:37,YZ,None,
,,,,,,calibration,0,11,2,159,3,F,0,right,0.4325691729900427,1,0,,,,,,,,,,,,,,,,,,,,,1,,,,,,,,,,,,,,,,,,,,,,,,,,,,,,,,,,,,,,,,,,,,,,119,146857,22,Female,1,2024/03/25_10:26:37,YZ,None,
,,,,,,calibration,0,11,2,159,4,V,0,right,0.4930250140023418,1,0,,,,,,,,,,,,,,,,,,,,,1,,,,,,,,,,,,,,,,,,,,,,,,,,,,,,,,,,,,,,,,,,,,,,119,146857,22,Female,1,2024/03/25_10:26:37,YZ,None,
,,,,,,calibration,0,11,2,159,5,Q,0,right,0.6831391080049798,1,0,,,,,,,,,,,,,,,,,,,,,1,,,,,,,,,,,,,,,,,,,,,,,,,,,,,,,,,,,,,,,,,,,,,,119,146857,22,Female,1,2024/03/25_10:26:37,YZ,None,
,,,,,,calibration,0,11,2,159,6,S,0,left,0.49854745701304637,0,0,,,,,,,,,,,,,,,,,,,,,1,,,,,,,,,,,,,,,,,,,,,,,,,,,,,,,,,,,,,,,,,,,,,,119,146857,22,Female,1,2024/03/25_10:26:37,YZ,None,
,,,,,,calibration,0,11,2,159,7,J,0,right,0.37910744099644944,1,0,,,,,,,,,,,,,,,,,,,,,1,,,,,,,,,,,,,,,,,,,,,,,,,,,,,,,,,,,,,,,,,,,,,,119,146857,22,Female,1,2024/03/25_10:26:37,YZ,None,
,,,,,,calibration,0,11,2,159,8,S,1,left,0.5614491809974425,1,0,,,,,,,,,,,,,,,,,,,,,1,,,,,,,,,,,,,,,,,,,,,,,,,,,,,,,,,,,,,,,,,,,,,,119,146857,22,Female,1,2024/03/25_10:26:37,YZ,None,
,,,,,,calibration,0,11,2,159,9,Q,0,right,0.39905979300965555,1,0,,,,,,,,,,,,,,,,,,,,,1,,,,,,,,,,,,,,,,,,,,,,,,,,,,,,,,,,,,,,,,,,,,,,119,146857,22,Female,1,2024/03/25_10:26:37,YZ,None,
,,,,,,calibration,0,11,2,159,10,S,1,left,0.4719620709947776,1,0,,,,,,,,,,,,,,,,,,,,,1,,,,,,,,,,,,,,,,,,,,,,,,,,,,,,,,,,,,,,,,,,,,,,119,146857,22,Female,1,2024/03/25_10:26:37,YZ,None,
,,,,,,calibration,0,11,2,159,11,V,0,right,0.31325369302066974,1,0,,,,,,,,,,,,,,,,,,,,,1,,,,,,,,,,,,,,,,,,,,,,,,,,,,,,,,,,,,,,,,,,,,,,119,146857,22,Female,1,2024/03/25_10:26:37,YZ,None,
,,,,,,calibration,0,11,2,159,12,S,1,left,0.3843125129933469,1,0,,,,,,,,,,,,,,,,,,,,,1,,,,,,,,,,,,,,,,,,,,,,,,,,,,,,,,,,,,,,,,,,,,,,119,146857,22,Female,1,2024/03/25_10:26:37,YZ,None,
,,,,,,calibration,0,11,2,159,13,F,0,right,0.4723049720050767,1,0,,,,,,,,,,,,,,,,,,,,,1,,,,,,,,,,,,,,,,,,,,,,,,,,,,,,,,,,,,,,,,,,,,,,119,146857,22,Female,1,2024/03/25_10:26:37,YZ,None,
,,,,,,calibration,0,11,2,159,14,S,1,left,0.28869526099879295,1,0,,,,,,,,,,,,,,,,,,,,,1,,,,,,,,,,,,,,,,,,,,,,,,,,,,,,,,,,,,,,,,,,,,,,119,146857,22,Female,1,2024/03/25_10:26:37,YZ,None,
,,,,,,calibration,0,11,2,159,15,C,0,right,0.4905019970028661,1,0,,,,,,,,,,,,,,,,,,,,,1,,,,,,,,,,,,,,,,,,,,,,,,,,,,,,,,,,,,,,,,,,,,,,119,146857,22,Female,1,2024/03/25_10:26:37,YZ,None,
,,,,,,calibration,0,11,2,159,16,V,0,left,0.5893546009901911,0,0,,,,,,,,,,,,,,,,,,,,,1,,,,,,,,,,,,,,,,,,,,,,,,,,,,,,,,,,,,,,,,,,,,,,119,146857,22,Female,1,2024/03/25_10:26:37,YZ,None,
,,,,,,calibration,0,11,2,159,17,C,1,left,nan,0,1,,,,,,,,,,,,,,,,,,,,,1,,,,,,,,,,,,,,,,,,,,,,,,,,,,,,,,,,,,,,,,,,,,,,119,146857,22,Female,1,2024/03/25_10:26:37,YZ,None,
,,,,,,calibration,0,11,2,159,18,Q,0,right,0.49959923297865316,1,0,,,,,,,,,,,,,,,,,,,,,1,,,,,,,,,,,,,,,,,,,,,,,,,,,,,,,,,,,,,,,,,,,,,,119,146857,22,Female,1,2024/03/25_10:26:37,YZ,None,
,,,,,,calibration,0,11,2,159,19,C,1,left,0.634074079018319,1,0,,,,,,,,,,,,,,,,,,,,,1,,,,,,,,,,,,,,,,,,,,,,,,,,,,,,,,,,,,,,,,,,,,,,119,146857,22,Female,1,2024/03/25_10:26:37,YZ,None,
,,,,,,calibration,0,11,2,159,20,V,0,right,0.5748060999903828,1,0,,,,,,,,,,,,,,,,,,,,,1,,,,,,,,,,,,,,,,,,,,,,,,,,,,,,,,,,,,,,,,,,,,,,119,146857,22,Female,1,2024/03/25_10:26:37,YZ,None,
,,,,,,calibration,0,11,2,159,21,J,0,right,0.5124098709784448,1,0,,,,,,,,,,,,,,,,,,,,,1,,,,,,,,,,,,,,,,,,,,,,,,,,,,,,,,,,,,,,,,,,,,,,119,146857,22,Female,1,2024/03/25_10:26:37,YZ,None,
,,,,,,calibration,0,11,2,159,22,N,0,right,0.394447387981927,1,0,,,,,,,,,,,,,,,,,,,,,1,,,,,,,,,,,,,,,,,,,,,,,,,,,,,,,,,,,,,,,,,,,,,,119,146857,22,Female,1,2024/03/25_10:26:37,YZ,None,
,,,,,,calibration,0,11,2,159,,,,,,,,0.90625,0.8333333333333334,0.125,0.875,0.045454545454545456,0.8295454545454546,0.46683464109221295,5,2,1,0,1,14,19,6,16,0,,,,1,,,,,,,,,,,,,,,,,,,,,,,,,,,,,,,,,,,,,,,,,,,,,,119,146857,22,Female,1,2024/03/25_10:26:37,YZ,None,
,,,,,,Calibration,0,,2,159,,,,,,,,,,,,,,,,,,,,,,,,,10,,,1,,,,,,,,,,,,,,,,,,,,,,,,,,,,,,,,,,,,,,,,,,,,,,119,146857,22,Female,1,2024/03/25_10:26:37,YZ,None,
,,,,,,calibration,0,6,2,120,1,J,0,right,0.5252677710086573,1,0,,,,,,,,,,,,,,,,,,,,,1,,,,,,,,,,,,,,,,,,,,,,,,,,,,,,,,,,,,,,,,,,,,,,119,146857,22,Female,1,2024/03/25_10:26:37,YZ,None,
,,,,,,calibration,0,6,2,120,2,S,0,right,0.3853761200152803,1,0,,,,,,,,,,,,,,,,,,,,,1,,,,,,,,,,,,,,,,,,,,,,,,,,,,,,,,,,,,,,,,,,,,,,119,146857,22,Female,1,2024/03/25_10:26:37,YZ,None,
,,,,,,calibration,0,6,2,120,3,V,0,right,0.525514146022033,1,0,,,,,,,,,,,,,,,,,,,,,1,,,,,,,,,,,,,,,,,,,,,,,,,,,,,,,,,,,,,,,,,,,,,,119,146857,22,Female,1,2024/03/25_10:26:37,YZ,None,
,,,,,,calibration,0,6,2,120,4,S,1,left,0.5247255760186817,1,0,,,,,,,,,,,,,,,,,,,,,1,,,,,,,,,,,,,,,,,,,,,,,,,,,,,,,,,,,,,,,,,,,,,,119,146857,22,Female,1,2024/03/25_10:26:37,YZ,None,
,,,,,,calibration,0,6,2,120,5,C,0,right,0.3349297299864702,1,0,,,,,,,,,,,,,,,,,,,,,1,,,,,,,,,,,,,,,,,,,,,,,,,,,,,,,,,,,,,,,,,,,,,,119,146857,22,Female,1,2024/03/25_10:26:37,YZ,None,
,,,,,,calibration,0,6,2,120,6,V,0,right,0.36829451299854554,1,0,,,,,,,,,,,,,,,,,,,,,1,,,,,,,,,,,,,,,,,,,,,,,,,,,,,,,,,,,,,,,,,,,,,,119,146857,22,Female,1,2024/03/25_10:26:37,YZ,None,
,,,,,,calibration,0,6,2,120,7,C,1,left,0.49782159400638193,1,0,,,,,,,,,,,,,,,,,,,,,1,,,,,,,,,,,,,,,,,,,,,,,,,,,,,,,,,,,,,,,,,,,,,,119,146857,22,Female,1,2024/03/25_10:26:37,YZ,None,
,,,,,,calibration,0,6,2,120,8,X,0,right,0.4884427200013306,1,0,,,,,,,,,,,,,,,,,,,,,1,,,,,,,,,,,,,,,,,,,,,,,,,,,,,,,,,,,,,,,,,,,,,,119,146857,22,Female,1,2024/03/25_10:26:37,YZ,None,
,,,,,,calibration,0,6,2,120,9,S,0,right,nan,0,1,,,,,,,,,,,,,,,,,,,,,1,,,,,,,,,,,,,,,,,,,,,,,,,,,,,,,,,,,,,,,,,,,,,,119,146857,22,Female,1,2024/03/25_10:26:37,YZ,None,
,,,,,,calibration,0,6,2,120,10,X,1,right,0.4327230060007423,0,0,,,,,,,,,,,,,,,,,,,,,1,,,,,,,,,,,,,,,,,,,,,,,,,,,,,,,,,,,,,,,,,,,,,,119,146857,22,Female,1,2024/03/25_10:26:37,YZ,None,
,,,,,,calibration,0,6,2,120,11,S,1,left,0.8492603859922383,1,0,,,,,,,,,,,,,,,,,,,,,1,,,,,,,,,,,,,,,,,,,,,,,,,,,,,,,,,,,,,,,,,,,,,,119,146857,22,Female,1,2024/03/25_10:26:37,YZ,None,
,,,,,,calibration,0,6,2,120,12,V,0,right,0.3837209420162253,1,0,,,,,,,,,,,,,,,,,,,,,1,,,,,,,,,,,,,,,,,,,,,,,,,,,,,,,,,,,,,,,,,,,,,,119,146857,22,Female,1,2024/03/25_10:26:37,YZ,None,
,,,,,,calibration,0,6,2,120,13,Q,0,left,0.4567174039839301,0,0,,,,,,,,,,,,,,,,,,,,,1,,,,,,,,,,,,,,,,,,,,,,,,,,,,,,,,,,,,,,,,,,,,,,119,146857,22,Female,1,2024/03/25_10:26:37,YZ,None,
,,,,,,calibration,0,6,2,120,14,X,0,right,0.40843068799586035,1,0,,,,,,,,,,,,,,,,,,,,,1,,,,,,,,,,,,,,,,,,,,,,,,,,,,,,,,,,,,,,,,,,,,,,119,146857,22,Female,1,2024/03/25_10:26:37,YZ,None,
,,,,,,calibration,0,6,2,120,15,Q,1,right,0.45581544301239774,0,0,,,,,,,,,,,,,,,,,,,,,1,,,,,,,,,,,,,,,,,,,,,,,,,,,,,,,,,,,,,,,,,,,,,,119,146857,22,Female,1,2024/03/25_10:26:37,YZ,None,
,,,,,,calibration,0,6,2,120,16,J,0,right,0.4404182790021878,1,0,,,,,,,,,,,,,,,,,,,,,1,,,,,,,,,,,,,,,,,,,,,,,,,,,,,,,,,,,,,,,,,,,,,,119,146857,22,Female,1,2024/03/25_10:26:37,YZ,None,
,,,,,,calibration,0,6,2,120,17,Q,1,left,0.48084935001679696,1,0,,,,,,,,,,,,,,,,,,,,,1,,,,,,,,,,,,,,,,,,,,,,,,,,,,,,,,,,,,,,,,,,,,,,119,146857,22,Female,1,2024/03/25_10:26:37,YZ,None,
,,,,,,calibration,0,6,2,120,18,V,0,right,0.4926595709985122,1,0,,,,,,,,,,,,,,,,,,,,,1,,,,,,,,,,,,,,,,,,,,,,,,,,,,,,,,,,,,,,,,,,,,,,119,146857,22,Female,1,2024/03/25_10:26:37,YZ,None,
,,,,,,calibration,0,6,2,120,19,J,0,right,0.9084154610172845,1,0,,,,,,,,,,,,,,,,,,,,,1,,,,,,,,,,,,,,,,,,,,,,,,,,,,,,,,,,,,,,,,,,,,,,119,146857,22,Female,1,2024/03/25_10:26:37,YZ,None,
,,,,,,calibration,0,6,2,120,20,F,0,right,0.41055563697591424,1,0,,,,,,,,,,,,,,,,,,,,,1,,,,,,,,,,,,,,,,,,,,,,,,,,,,,,,,,,,,,,,,,,,,,,119,146857,22,Female,1,2024/03/25_10:26:37,YZ,None,
,,,,,,calibration,0,6,2,120,21,J,1,right,0.4885242099990137,0,0,,,,,,,,,,,,,,,,,,,,,1,,,,,,,,,,,,,,,,,,,,,,,,,,,,,,,,,,,,,,,,,,,,,,119,146857,22,Female,1,2024/03/25_10:26:37,YZ,None,
,,,,,,calibration,0,6,2,120,22,S,0,right,0.4335730060120113,1,0,,,,,,,,,,,,,,,,,,,,,1,,,,,,,,,,,,,,,,,,,,,,,,,,,,,,,,,,,,,,,,,,,,,,119,146857,22,Female,1,2024/03/25_10:26:37,YZ,None,
,,,,,,calibration,0,6,2,120,23,V,0,right,0.6422945040103514,1,0,,,,,,,,,,,,,,,,,,,,,1,,,,,,,,,,,,,,,,,,,,,,,,,,,,,,,,,,,,,,,,,,,,,,119,146857,22,Female,1,2024/03/25_10:26:37,YZ,None,
,,,,,,calibration,0,6,2,120,,,,,,,,0.8504464285714285,0.5714285714285714,0.0625,0.9333333333333333,0.043478260869565216,0.8940217391304348,0.4970150025950385,4,1,0,1,1,14,18,7,16,0,,,,1,,,,,,,,,,,,,,,,,,,,,,,,,,,,,,,,,,,,,,,,,,,,,,119,146857,22,Female,1,2024/03/25_10:26:37,YZ,None,
,,,,,,Calibration,0,,2,120,,,,,,,,,,,,,,,,,,,,,,,,,11,,,1,,,,,,,,,,,,,,,,,,,,,,,,,,,,,,,,,,,,,,,,,,,,,,119,146857,22,Female,1,2024/03/25_10:26:37,YZ,None,
,,,,,,calibration,0,18,2,83,1,C,0,right,0.4677855269983411,1,0,,,,,,,,,,,,,,,,,,,,,1,,,,,,,,,,,,,,,,,,,,,,,,,,,,,,,,,,,,,,,,,,,,,,119,146857,22,Female,1,2024/03/25_10:26:37,YZ,None,
,,,,,,calibration,0,18,2,83,2,V,0,right,0.2972032859979663,1,0,,,,,,,,,,,,,,,,,,,,,1,,,,,,,,,,,,,,,,,,,,,,,,,,,,,,,,,,,,,,,,,,,,,,119,146857,22,Female,1,2024/03/25_10:26:37,YZ,None,
,,,,,,calibration,0,18,2,83,3,J,0,right,0.48101116297766566,1,0,,,,,,,,,,,,,,,,,,,,,1,,,,,,,,,,,,,,,,,,,,,,,,,,,,,,,,,,,,,,,,,,,,,,119,146857,22,Female,1,2024/03/25_10:26:37,YZ,None,
,,,,,,calibration,0,18,2,83,4,V,1,right,0.41252911201445386,0,0,,,,,,,,,,,,,,,,,,,,,1,,,,,,,,,,,,,,,,,,,,,,,,,,,,,,,,,,,,,,,,,,,,,,119,146857,22,Female,1,2024/03/25_10:26:37,YZ,None,
,,,,,,calibration,0,18,2,83,5,N,0,right,0.45812530801049434,1,0,,,,,,,,,,,,,,,,,,,,,1,,,,,,,,,,,,,,,,,,,,,,,,,,,,,,,,,,,,,,,,,,,,,,119,146857,22,Female,1,2024/03/25_10:26:37,YZ,None,
,,,,,,calibration,0,18,2,83,6,C,0,left,0.5330468110041693,0,0,,,,,,,,,,,,,,,,,,,,,1,,,,,,,,,,,,,,,,,,,,,,,,,,,,,,,,,,,,,,,,,,,,,,119,146857,22,Female,1,2024/03/25_10:26:37,YZ,None,
,,,,,,calibration,0,18,2,83,7,F,0,right,0.3772259670076892,1,0,,,,,,,,,,,,,,,,,,,,,1,,,,,,,,,,,,,,,,,,,,,,,,,,,,,,,,,,,,,,,,,,,,,,119,146857,22,Female,1,2024/03/25_10:26:37,YZ,None,
,,,,,,calibration,0,18,2,83,8,C,1,right,0.6722795419918839,0,0,,,,,,,,,,,,,,,,,,,,,1,,,,,,,,,,,,,,,,,,,,,,,,,,,,,,,,,,,,,,,,,,,,,,119,146857,22,Female,1,2024/03/25_10:26:37,YZ,None,
,,,,,,calibration,0,18,2,83,9,F,1,right,0.48829514198587276,0,0,,,,,,,,,,,,,,,,,,,,,1,,,,,,,,,,,,,,,,,,,,,,,,,,,,,,,,,,,,,,,,,,,,,,119,146857,22,Female,1,2024/03/25_10:26:37,YZ,None,
,,,,,,calibration,0,18,2,83,10,N,0,right,0.44067864600219764,1,0,,,,,,,,,,,,,,,,,,,,,1,,,,,,,,,,,,,,,,,,,,,,,,,,,,,,,,,,,,,,,,,,,,,,119,146857,22,Female,1,2024/03/25_10:26:37,YZ,None,
,,,,,,calibration,0,18,2,83,11,F,1,left,0.4490509960160125,1,0,,,,,,,,,,,,,,,,,,,,,1,,,,,,,,,,,,,,,,,,,,,,,,,,,,,,,,,,,,,,,,,,,,,,119,146857,22,Female,1,2024/03/25_10:26:37,YZ,None,
,,,,,,calibration,0,18,2,83,12,X,0,right,0.4348701619892381,1,0,,,,,,,,,,,,,,,,,,,,,1,,,,,,,,,,,,,,,,,,,,,,,,,,,,,,,,,,,,,,,,,,,,,,119,146857,22,Female,1,2024/03/25_10:26:37,YZ,None,
,,,,,,calibration,0,18,2,83,13,V,0,right,0.4663961039914284,1,0,,,,,,,,,,,,,,,,,,,,,1,,,,,,,,,,,,,,,,,,,,,,,,,,,,,,,,,,,,,,,,,,,,,,119,146857,22,Female,1,2024/03/25_10:26:37,YZ,None,
,,,,,,calibration,0,18,2,83,14,X,1,left,0.6687670499959495,1,0,,,,,,,,,,,,,,,,,,,,,1,,,,,,,,,,,,,,,,,,,,,,,,,,,,,,,,,,,,,,,,,,,,,,119,146857,22,Female,1,2024/03/25_10:26:37,YZ,None,
,,,,,,calibration,0,18,2,83,15,N,0,right,0.48918027599575,1,0,,,,,,,,,,,,,,,,,,,,,1,,,,,,,,,,,,,,,,,,,,,,,,,,,,,,,,,,,,,,,,,,,,,,119,146857,22,Female,1,2024/03/25_10:26:37,YZ,None,
,,,,,,calibration,0,18,2,83,16,V,0,right,0.7555879899882711,1,0,,,,,,,,,,,,,,,,,,,,,1,,,,,,,,,,,,,,,,,,,,,,,,,,,,,,,,,,,,,,,,,,,,,,119,146857,22,Female,1,2024/03/25_10:26:37,YZ,None,
,,,,,,calibration,0,18,2,83,17,F,0,right,0.3597905559872743,1,0,,,,,,,,,,,,,,,,,,,,,1,,,,,,,,,,,,,,,,,,,,,,,,,,,,,,,,,,,,,,,,,,,,,,119,146857,22,Female,1,2024/03/25_10:26:37,YZ,None,
,,,,,,calibration,0,18,2,83,18,J,0,right,0.40425167200737633,1,0,,,,,,,,,,,,,,,,,,,,,1,,,,,,,,,,,,,,,,,,,,,,,,,,,,,,,,,,,,,,,,,,,,,,119,146857,22,Female,1,2024/03/25_10:26:37,YZ,None,
,,,,,,calibration,0,18,2,83,19,F,1,right,0.6486191010044422,0,0,,,,,,,,,,,,,,,,,,,,,1,,,,,,,,,,,,,,,,,,,,,,,,,,,,,,,,,,,,,,,,,,,,,,119,146857,22,Female,1,2024/03/25_10:26:37,YZ,None,
,,,,,,calibration,0,18,2,83,20,X,0,right,0.4184137410193216,1,0,,,,,,,,,,,,,,,,,,,,,1,,,,,,,,,,,,,,,,,,,,,,,,,,,,,,,,,,,,,,,,,,,,,,119,146857,22,Female,1,2024/03/25_10:26:37,YZ,None,
,,,,,,calibration,0,18,2,83,21,J,0,right,0.4812962400028482,1,0,,,,,,,,,,,,,,,,,,,,,1,,,,,,,,,,,,,,,,,,,,,,,,,,,,,,,,,,,,,,,,,,,,,,119,146857,22,Female,1,2024/03/25_10:26:37,YZ,None,
,,,,,,calibration,0,18,2,83,22,X,1,right,0.45816199999535456,0,0,,,,,,,,,,,,,,,,,,,,,1,,,,,,,,,,,,,,,,,,,,,,,,,,,,,,,,,,,,,,,,,,,,,,119,146857,22,Female,1,2024/03/25_10:26:37,YZ,None,
,,,,,,calibration,0,18,2,83,23,J,1,right,0.5432252809987403,0,0,,,,,,,,,,,,,,,,,,,,,1,,,,,,,,,,,,,,,,,,,,,,,,,,,,,,,,,,,,,,,,,,,,,,119,146857,22,Female,1,2024/03/25_10:26:37,YZ,None,
,,,,,,calibration,0,18,2,83,24,V,0,left,0.5579245669941884,0,0,,,,,,,,,,,,,,,,,,,,,1,,,,,,,,,,,,,,,,,,,,,,,,,,,,,,,,,,,,,,,,,,,,,,119,146857,22,Female,1,2024/03/25_10:26:37,YZ,None,
,,,,,,calibration,0,18,2,83,,,,,,,,0.65625,0.25,0.125,0.875,0.0,0.875,0.4901548433323721,2,2,0,0,0,14,16,8,16,0,,,,1,,,,,,,,,,,,,,,,,,,,,,,,,,,,,,,,,,,,,,,,,,,,,,119,146857,22,Female,1,2024/03/25_10:26:37,YZ,None,
,,,,,,Calibration,0,,2,83,,,,,,,,,,,,,,,,,,,,,,,,,12,,,1,,,,,,,,,,,,,,,,,,,,,,,,,,,,,,,,,,,,,,,,,,,,,,119,146857,22,Female,1,2024/03/25_10:26:37,YZ,None,
,,,,,,calibration,0,25,2,120,1,S,0,right,0.3551739840186201,1,0,,,,,,,,,,,,,,,,,,,,,1,,,,,,,,,,,,,,,,,,,,,,,,,,,,,,,,,,,,,,,,,,,,,,119,146857,22,Female,1,2024/03/25_10:26:37,YZ,None,
,,,,,,calibration,0,25,2,120,2,X,0,right,0.42421305799507536,1,0,,,,,,,,,,,,,,,,,,,,,1,,,,,,,,,,,,,,,,,,,,,,,,,,,,,,,,,,,,,,,,,,,,,,119,146857,22,Female,1,2024/03/25_10:26:37,YZ,None,
,,,,,,calibration,0,25,2,120,3,S,1,left,0.512325249001151,1,0,,,,,,,,,,,,,,,,,,,,,1,,,,,,,,,,,,,,,,,,,,,,,,,,,,,,,,,,,,,,,,,,,,,,119,146857,22,Female,1,2024/03/25_10:26:37,YZ,None,
,,,,,,calibration,0,25,2,120,4,C,0,right,0.4052082489943132,1,0,,,,,,,,,,,,,,,,,,,,,1,,,,,,,,,,,,,,,,,,,,,,,,,,,,,,,,,,,,,,,,,,,,,,119,146857,22,Female,1,2024/03/25_10:26:37,YZ,None,
,,,,,,calibration,0,25,2,120,5,Q,0,right,0.5494392649852671,1,0,,,,,,,,,,,,,,,,,,,,,1,,,,,,,,,,,,,,,,,,,,,,,,,,,,,,,,,,,,,,,,,,,,,,119,146857,22,Female,1,2024/03/25_10:26:37,YZ,None,
,,,,,,calibration,0,25,2,120,6,C,1,right,0.3950059759954456,0,0,,,,,,,,,,,,,,,,,,,,,1,,,,,,,,,,,,,,,,,,,,,,,,,,,,,,,,,,,,,,,,,,,,,,119,146857,22,Female,1,2024/03/25_10:26:37,YZ,None,
,,,,,,calibration,0,25,2,120,7,J,0,right,0.5241875920037273,1,0,,,,,,,,,,,,,,,,,,,,,1,,,,,,,,,,,,,,,,,,,,,,,,,,,,,,,,,,,,,,,,,,,,,,119,146857,22,Female,1,2024/03/25_10:26:37,YZ,None,
,,,,,,calibration,0,25,2,120,8,C,1,left,0.34277585201198235,1,0,,,,,,,,,,,,,,,,,,,,,1,,,,,,,,,,,,,,,,,,,,,,,,,,,,,,,,,,,,,,,,,,,,,,119,146857,22,Female,1,2024/03/25_10:26:37,YZ,None,
,,,,,,calibration,0,25,2,120,9,F,0,right,0.4448577570146881,1,0,,,,,,,,,,,,,,,,,,,,,1,,,,,,,,,,,,,,,,,,,,,,,,,,,,,,,,,,,,,,,,,,,,,,119,146857,22,Female,1,2024/03/25_10:26:37,YZ,None,
,,,,,,calibration,0,25,2,120,10,C,1,left,0.3326695369905792,1,0,,,,,,,,,,,,,,,,,,,,,1,,,,,,,,,,,,,,,,,,,,,,,,,,,,,,,,,,,,,,,,,,,,,,119,146857,22,Female,1,2024/03/25_10:26:37,YZ,None,
,,,,,,calibration,0,25,2,120,11,F,1,right,0.45574677700642496,0,0,,,,,,,,,,,,,,,,,,,,,1,,,,,,,,,,,,,,,,,,,,,,,,,,,,,,,,,,,,,,,,,,,,,,119,146857,22,Female,1,2024/03/25_10:26:37,YZ,None,
,,,,,,calibration,0,25,2,120,12,S,0,right,0.6294526760175359,1,0,,,,,,,,,,,,,,,,,,,,,1,,,,,,,,,,,,,,,,,,,,,,,,,,,,,,,,,,,,,,,,,,,,,,119,146857,22,Female,1,2024/03/25_10:26:37,YZ,None,
,,,,,,calibration,0,25,2,120,13,N,0,right,0.5120936250023078,1,0,,,,,,,,,,,,,,,,,,,,,1,,,,,,,,,,,,,,,,,,,,,,,,,,,,,,,,,,,,,,,,,,,,,,119,146857,22,Female,1,2024/03/25_10:26:37,YZ,None,
,,,,,,calibration,0,25,2,120,14,X,0,right,0.36184297999716364,1,0,,,,,,,,,,,,,,,,,,,,,1,,,,,,,,,,,,,,,,,,,,,,,,,,,,,,,,,,,,,,,,,,,,,,119,146857,22,Female,1,2024/03/25_10:26:37,YZ,None,
,,,,,,calibration,0,25,2,120,15,S,0,right,0.6792812710045837,1,0,,,,,,,,,,,,,,,,,,,,,1,,,,,,,,,,,,,,,,,,,,,,,,,,,,,,,,,,,,,,,,,,,,,,119,146857,22,Female,1,2024/03/25_10:26:37,YZ,None,
,,,,,,calibration,0,25,2,120,16,V,0,right,0.5658150819945149,1,0,,,,,,,,,,,,,,,,,,,,,1,,,,,,,,,,,,,,,,,,,,,,,,,,,,,,,,,,,,,,,,,,,,,,119,146857,22,Female,1,2024/03/25_10:26:37,YZ,None,
,,,,,,calibration,0,25,2,120,17,J,0,right,0.4315280130249448,1,0,,,,,,,,,,,,,,,,,,,,,1,,,,,,,,,,,,,,,,,,,,,,,,,,,,,,,,,,,,,,,,,,,,,,119,146857,22,Female,1,2024/03/25_10:26:37,YZ,None,
,,,,,,calibration,0,25,2,120,18,X,0,right,0.5343719299999066,1,0,,,,,,,,,,,,,,,,,,,,,1,,,,,,,,,,,,,,,,,,,,,,,,,,,,,,,,,,,,,,,,,,,,,,119,146857,22,Female,1,2024/03/25_10:26:37,YZ,None,
,,,,,,calibration,0,25,2,120,19,Q,0,right,0.3513208220247179,1,0,,,,,,,,,,,,,,,,,,,,,1,,,,,,,,,,,,,,,,,,,,,,,,,,,,,,,,,,,,,,,,,,,,,,119,146857,22,Female,1,2024/03/25_10:26:37,YZ,None,
,,,,,,calibration,0,25,2,120,20,X,1,right,0.45751290599582717,0,0,,,,,,,,,,,,,,,,,,,,,1,,,,,,,,,,,,,,,,,,,,,,,,,,,,,,,,,,,,,,,,,,,,,,119,146857,22,Female,1,2024/03/25_10:26:37,YZ,None,
,,,,,,calibration,0,25,2,120,21,Q,1,right,0.5921673289849423,0,0,,,,,,,,,,,,,,,,,,,,,1,,,,,,,,,,,,,,,,,,,,,,,,,,,,,,,,,,,,,,,,,,,,,,119,146857,22,Female,1,2024/03/25_10:26:37,YZ,None,
,,,,,,calibration,0,25,2,120,22,N,0,right,0.6677243440062739,1,0,,,,,,,,,,,,,,,,,,,,,1,,,,,,,,,,,,,,,,,,,,,,,,,,,,,,,,,,,,,,,,,,,,,,119,146857,22,Female,1,2024/03/25_10:26:37,YZ,None,
,,,,,,calibration,0,25,2,120,23,S,0,right,0.5684388490044512,1,0,,,,,,,,,,,,,,,,,,,,,1,,,,,,,,,,,,,,,,,,,,,,,,,,,,,,,,,,,,,,,,,,,,,,119,146857,22,Female,1,2024/03/25_10:26:37,YZ,None,
,,,,,,calibration,0,25,2,120,,,,,,,,0.8571428571428571,0.42857142857142855,0.0,1.0,0.0,1.0,0.4823110053510628,3,0,0,0,0,16,19,7,16,0,,,,1,,,,,,,,,,,,,,,,,,,,,,,,,,,,,,,,,,,,,,,,,,,,,,119,146857,22,Female,1,2024/03/25_10:26:37,YZ,None,
,,,,,,Calibration,0,,2,120,,,,,,,,,,,,,,,,,,,,,,,,,13,,,1,,,,,,,,,,,,,,,,,,,,,,,,,,,,,,,,,,,,,,,,,,,,,,119,146857,22,Female,1,2024/03/25_10:26:37,YZ,None,
,,,,,,calibration,0,28,2,83,1,V,0,right,0.4759703229938168,1,0,,,,,,,,,,,,,,,,,,,,,1,,,,,,,,,,,,,,,,,,,,,,,,,,,,,,,,,,,,,,,,,,,,,,119,146857,22,Female,1,2024/03/25_10:26:37,YZ,None,
,,,,,,calibration,0,28,2,83,2,C,0,right,0.4642387490021065,1,0,,,,,,,,,,,,,,,,,,,,,1,,,,,,,,,,,,,,,,,,,,,,,,,,,,,,,,,,,,,,,,,,,,,,119,146857,22,Female,1,2024/03/25_10:26:37,YZ,None,
,,,,,,calibration,0,28,2,83,3,J,0,right,0.5237844410003163,1,0,,,,,,,,,,,,,,,,,,,,,1,,,,,,,,,,,,,,,,,,,,,,,,,,,,,,,,,,,,,,,,,,,,,,119,146857,22,Female,1,2024/03/25_10:26:37,YZ,None,
,,,,,,calibration,0,28,2,83,4,Q,0,right,0.5350003280036617,1,0,,,,,,,,,,,,,,,,,,,,,1,,,,,,,,,,,,,,,,,,,,,,,,,,,,,,,,,,,,,,,,,,,,,,119,146857,22,Female,1,2024/03/25_10:26:37,YZ,None,
,,,,,,calibration,0,28,2,83,5,C,0,left,0.6063808589824475,0,0,,,,,,,,,,,,,,,,,,,,,1,,,,,,,,,,,,,,,,,,,,,,,,,,,,,,,,,,,,,,,,,,,,,,119,146857,22,Female,1,2024/03/25_10:26:37,YZ,None,
,,,,,,calibration,0,28,2,83,6,Q,1,right,0.5751079559850041,0,0,,,,,,,,,,,,,,,,,,,,,1,,,,,,,,,,,,,,,,,,,,,,,,,,,,,,,,,,,,,,,,,,,,,,119,146857,22,Female,1,2024/03/25_10:26:37,YZ,None,
,,,,,,calibration,0,28,2,83,7,X,0,right,nan,0,1,,,,,,,,,,,,,,,,,,,,,1,,,,,,,,,,,,,,,,,,,,,,,,,,,,,,,,,,,,,,,,,,,,,,119,146857,22,Female,1,2024/03/25_10:26:37,YZ,None,
,,,,,,calibration,0,28,2,83,8,S,0,right,0.6409758689987939,1,0,,,,,,,,,,,,,,,,,,,,,1,,,,,,,,,,,,,,,,,,,,,,,,,,,,,,,,,,,,,,,,,,,,,,119,146857,22,Female,1,2024/03/25_10:26:37,YZ,None,
,,,,,,calibration,0,28,2,83,9,X,1,right,0.8296197789895814,0,0,,,,,,,,,,,,,,,,,,,,,1,,,,,,,,,,,,,,,,,,,,,,,,,,,,,,,,,,,,,,,,,,,,,,119,146857,22,Female,1,2024/03/25_10:26:37,YZ,None,
,,,,,,calibration,0,28,2,83,10,V,0,right,0.7151814149983693,1,0,,,,,,,,,,,,,,,,,,,,,1,,,,,,,,,,,,,,,,,,,,,,,,,,,,,,,,,,,,,,,,,,,,,,119,146857,22,Female,1,2024/03/25_10:26:37,YZ,None,
,,,,,,calibration,0,28,2,83,11,F,0,right,0.6148780049989,1,0,,,,,,,,,,,,,,,,,,,,,1,,,,,,,,,,,,,,,,,,,,,,,,,,,,,,,,,,,,,,,,,,,,,,119,146857,22,Female,1,2024/03/25_10:26:37,YZ,None,
,,,,,,calibration,0,28,2,83,12,C,0,right,0.624119675019756,1,0,,,,,,,,,,,,,,,,,,,,,1,,,,,,,,,,,,,,,,,,,,,,,,,,,,,,,,,,,,,,,,,,,,,,119,146857,22,Female,1,2024/03/25_10:26:37,YZ,None,
,,,,,,calibration,0,28,2,83,13,X,0,right,0.6295606850180775,1,0,,,,,,,,,,,,,,,,,,,,,1,,,,,,,,,,,,,,,,,,,,,,,,,,,,,,,,,,,,,,,,,,,,,,119,146857,22,Female,1,2024/03/25_10:26:37,YZ,None,
,,,,,,calibration,0,28,2,83,14,C,1,right,0.43035128101473674,0,0,,,,,,,,,,,,,,,,,,,,,1,,,,,,,,,,,,,,,,,,,,,,,,,,,,,,,,,,,,,,,,,,,,,,119,146857,22,Female,1,2024/03/25_10:26:37,YZ,None,
,,,,,,calibration,0,28,2,83,15,F,0,right,0.5548429490008857,1,0,,,,,,,,,,,,,,,,,,,,,1,,,,,,,,,,,,,,,,,,,,,,,,,,,,,,,,,,,,,,,,,,,,,,119,146857,22,Female,1,2024/03/25_10:26:37,YZ,None,
,,,,,,calibration,0,28,2,83,16,S,0,right,0.4620536550064571,1,0,,,,,,,,,,,,,,,,,,,,,1,,,,,,,,,,,,,,,,,,,,,,,,,,,,,,,,,,,,,,,,,,,,,,119,146857,22,Female,1,2024/03/25_10:26:37,YZ,None,
,,,,,,calibration,0,28,2,83,17,F,1,left,0.6360359489917755,1,0,,,,,,,,,,,,,,,,,,,,,1,,,,,,,,,,,,,,,,,,,,,,,,,,,,,,,,,,,,,,,,,,,,,,119,146857,22,Female,1,2024/03/25_10:26:37,YZ,None,
,,,,,,calibration,0,28,2,83,18,X,0,right,0.4763081819983199,1,0,,,,,,,,,,,,,,,,,,,,,1,,,,,,,,,,,,,,,,,,,,,,,,,,,,,,,,,,,,,,,,,,,,,,119,146857,22,Female,1,2024/03/25_10:26:37,YZ,None,
,,,,,,calibration,0,28,2,83,19,F,1,left,0.6173276689951308,1,0,,,,,,,,,,,,,,,,,,,,,1,,,,,,,,,,,,,,,,,,,,,,,,,,,,,,,,,,,,,,,,,,,,,,119,146857,22,Female,1,2024/03/25_10:26:37,YZ,None,
,,,,,,calibration,0,28,2,83,20,X,1,right,0.41994610501569696,0,0,,,,,,,,,,,,,,,,,,,,,1,,,,,,,,,,,,,,,,,,,,,,,,,,,,,,,,,,,,,,,,,,,,,,119,146857,22,Female,1,2024/03/25_10:26:37,YZ,None,
,,,,,,calibration,0,28,2,83,21,N,0,left,0.5607830230146646,0,0,,,,,,,,,,,,,,,,,,,,,1,,,,,,,,,,,,,,,,,,,,,,,,,,,,,,,,,,,,,,,,,,,,,,119,146857,22,Female,1,2024/03/25_10:26:37,YZ,None,
,,,,,,calibration,0,28,2,83,22,C,0,left,nan,0,1,,,,,,,,,,,,,,,,,,,,,1,,,,,,,,,,,,,,,,,,,,,,,,,,,,,,,,,,,,,,,,,,,,,,119,146857,22,Female,1,2024/03/25_10:26:37,YZ,None,
,,,,,,calibration,0,28,2,83,23,V,0,right,0.4269309400115162,1,0,,,,,,,,,,,,,,,,,,,,,1,,,,,,,,,,,,,,,,,,,,,,,,,,,,,,,,,,,,,,,,,,,,,,119,146857,22,Female,1,2024/03/25_10:26:37,YZ,None,
,,,,,,calibration,0,28,2,83,24,S,0,right,0.42872113999328576,1,0,,,,,,,,,,,,,,,,,,,,,1,,,,,,,,,,,,,,,,,,,,,,,,,,,,,,,,,,,,,,,,,,,,,,119,146857,22,Female,1,2024/03/25_10:26:37,YZ,None,
,,,,,,calibration,0,28,2,83,,,,,,,,0.7222222222222222,0.3333333333333333,0.1111111111111111,0.875,0.08333333333333333,0.8055555555555555,0.5567326807742409,2,2,0,2,2,14,16,6,18,0,,,,1,,,,,,,,,,,,,,,,,,,,,,,,,,,,,,,,,,,,,,,,,,,,,,119,146857,22,Female,1,2024/03/25_10:26:37,YZ,None,
,,,,,,Calibration,0,,2,83,,,,,,,,,,,,,,,,,,,,,,,,,14,,,1,,,,,,,,,,,,,,,,,,,,,,,,,,,,,,,,,,,,,,,,,,,,,,119,146857,22,Female,1,2024/03/25_10:26:37,YZ,None,
,,,,,,calibration,0,7,2,120,1,S,0,right,0.46459497601608746,1,0,,,,,,,,,,,,,,,,,,,,,1,,,,,,,,,,,,,,,,,,,,,,,,,,,,,,,,,,,,,,,,,,,,,,119,146857,22,Female,1,2024/03/25_10:26:37,YZ,None,
,,,,,,calibration,0,7,2,120,2,X,0,right,0.3165013400139287,1,0,,,,,,,,,,,,,,,,,,,,,1,,,,,,,,,,,,,,,,,,,,,,,,,,,,,,,,,,,,,,,,,,,,,,119,146857,22,Female,1,2024/03/25_10:26:37,YZ,None,
,,,,,,calibration,0,7,2,120,3,V,0,right,0.4636810060183052,1,0,,,,,,,,,,,,,,,,,,,,,1,,,,,,,,,,,,,,,,,,,,,,,,,,,,,,,,,,,,,,,,,,,,,,119,146857,22,Female,1,2024/03/25_10:26:37,YZ,None,
,,,,,,calibration,0,7,2,120,4,F,0,right,0.542233590997057,1,0,,,,,,,,,,,,,,,,,,,,,1,,,,,,,,,,,,,,,,,,,,,,,,,,,,,,,,,,,,,,,,,,,,,,119,146857,22,Female,1,2024/03/25_10:26:37,YZ,None,
,,,,,,calibration,0,7,2,120,5,N,0,right,0.6712952110101469,1,0,,,,,,,,,,,,,,,,,,,,,1,,,,,,,,,,,,,,,,,,,,,,,,,,,,,,,,,,,,,,,,,,,,,,119,146857,22,Female,1,2024/03/25_10:26:37,YZ,None,
,,,,,,calibration,0,7,2,120,6,F,1,right,0.3590522409940604,0,0,,,,,,,,,,,,,,,,,,,,,1,,,,,,,,,,,,,,,,,,,,,,,,,,,,,,,,,,,,,,,,,,,,,,119,146857,22,Female,1,2024/03/25_10:26:37,YZ,None,
,,,,,,calibration,0,7,2,120,7,N,1,right,0.5711780510027893,0,0,,,,,,,,,,,,,,,,,,,,,1,,,,,,,,,,,,,,,,,,,,,,,,,,,,,,,,,,,,,,,,,,,,,,119,146857,22,Female,1,2024/03/25_10:26:37,YZ,None,
,,,,,,calibration,0,7,2,120,8,C,0,right,0.5915066449961159,1,0,,,,,,,,,,,,,,,,,,,,,1,,,,,,,,,,,,,,,,,,,,,,,,,,,,,,,,,,,,,,,,,,,,,,119,146857,22,Female,1,2024/03/25_10:26:37,YZ,None,
,,,,,,calibration,0,7,2,120,9,N,1,left,0.4527275550062768,1,0,,,,,,,,,,,,,,,,,,,,,1,,,,,,,,,,,,,,,,,,,,,,,,,,,,,,,,,,,,,,,,,,,,,,119,146857,22,Female,1,2024/03/25_10:26:37,YZ,None,
,,,,,,calibration,0,7,2,120,10,S,0,right,0.4817485730163753,1,0,,,,,,,,,,,,,,,,,,,,,1,,,,,,,,,,,,,,,,,,,,,,,,,,,,,,,,,,,,,,,,,,,,,,119,146857,22,Female,1,2024/03/25_10:26:37,YZ,None,
,,,,,,calibration,0,7,2,120,11,V,0,right,0.789646821009228,1,0,,,,,,,,,,,,,,,,,,,,,1,,,,,,,,,,,,,,,,,,,,,,,,,,,,,,,,,,,,,,,,,,,,,,119,146857,22,Female,1,2024/03/25_10:26:37,YZ,None,
,,,,,,calibration,0,7,2,120,12,F,0,right,0.8024842070008162,1,0,,,,,,,,,,,,,,,,,,,,,1,,,,,,,,,,,,,,,,,,,,,,,,,,,,,,,,,,,,,,,,,,,,,,119,146857,22,Female,1,2024/03/25_10:26:37,YZ,None,
,,,,,,calibration,0,7,2,120,13,N,0,right,nan,0,1,,,,,,,,,,,,,,,,,,,,,1,,,,,,,,,,,,,,,,,,,,,,,,,,,,,,,,,,,,,,,,,,,,,,119,146857,22,Female,1,2024/03/25_10:26:37,YZ,None,
,,,,,,calibration,0,7,2,120,14,C,0,right,nan,0,1,,,,,,,,,,,,,,,,,,,,,1,,,,,,,,,,,,,,,,,,,,,,,,,,,,,,,,,,,,,,,,,,,,,,119,146857,22,Female,1,2024/03/25_10:26:37,YZ,None,
,,,,,,calibration,0,7,2,120,15,N,1,right,0.43136918600066565,0,0,,,,,,,,,,,,,,,,,,,,,1,,,,,,,,,,,,,,,,,,,,,,,,,,,,,,,,,,,,,,,,,,,,,,119,146857,22,Female,1,2024/03/25_10:26:37,YZ,None,
,,,,,,calibration,0,7,2,120,16,F,0,right,nan,0,1,,,,,,,,,,,,,,,,,,,,,1,,,,,,,,,,,,,,,,,,,,,,,,,,,,,,,,,,,,,,,,,,,,,,119,146857,22,Female,1,2024/03/25_10:26:37,YZ,None,
,,,,,,calibration,0,7,2,120,17,N,1,right,0.0,0,0,,,,,,,,,,,,,,,,,,,,,1,,,,,,,,,,,,,,,,,,,,,,,,,,,,,,,,,,,,,,,,,,,,,,119,146857,22,Female,1,2024/03/25_10:26:37,YZ,None,
,,,,,,calibration,0,7,2,120,18,V,0,right,nan,0,1,,,,,,,,,,,,,,,,,,,,,1,,,,,,,,,,,,,,,,,,,,,,,,,,,,,,,,,,,,,,,,,,,,,,119,146857,22,Female,1,2024/03/25_10:26:37,YZ,None,
,,,,,,calibration,0,7,2,120,19,Q,0,right,0.1940142640087288,1,0,,,,,,,,,,,,,,,,,,,,,1,,,,,,,,,,,,,,,,,,,,,,,,,,,,,,,,,,,,,,,,,,,,,,119,146857,22,Female,1,2024/03/25_10:26:37,YZ,None,
,,,,,,calibration,0,7,2,120,20,V,1,left,0.6184606940078083,1,0,,,,,,,,,,,,,,,,,,,,,1,,,,,,,,,,,,,,,,,,,,,,,,,,,,,,,,,,,,,,,,,,,,,,119,146857,22,Female,1,2024/03/25_10:26:37,YZ,None,
,,,,,,calibration,0,7,2,120,21,S,0,right,0.553735317022074,1,0,,,,,,,,,,,,,,,,,,,,,1,,,,,,,,,,,,,,,,,,,,,,,,,,,,,,,,,,,,,,,,,,,,,,119,146857,22,Female,1,2024/03/25_10:26:37,YZ,None,
,,,,,,calibration,0,7,2,120,22,V,1,left,0.6604703410121147,1,0,,,,,,,,,,,,,,,,,,,,,1,,,,,,,,,,,,,,,,,,,,,,,,,,,,,,,,,,,,,,,,,,,,,,119,146857,22,Female,1,2024/03/25_10:26:37,YZ,None,
,,,,,,calibration,0,7,2,120,23,F,0,right,0.7253500170190819,1,0,,,,,,,,,,,,,,,,,,,,,1,,,,,,,,,,,,,,,,,,,,,,,,,,,,,,,,,,,,,,,,,,,,,,119,146857,22,Female,1,2024/03/25_10:26:37,YZ,None,
,,,,,,calibration,0,7,2,120,,,,,,,,0.8571428571428571,0.42857142857142855,0.0,1.0,0.17391304347826086,0.8260869565217391,0.5100026334816663,3,0,0,4,4,12,15,7,16,0,,,,1,,,,,,,,,,,,,,,,,,,,,,,,,,,,,,,,,,,,,,,,,,,,,,119,146857,22,Female,1,2024/03/25_10:26:37,YZ,None,
,,,,,,Calibration,0,,2,120,,,,,,,,,,,,,,,,,,,,,,,,,15,,,1,,,,,,,,,,,,,,,,,,,,,,,,,,,,,,,,,,,,,,,,,,,,,,119,146857,22,Female,1,2024/03/25_10:26:37,YZ,None,
,,,,,,CALIBRATION,0,,,,,,,,,,,,,,,,,,,,,,,,,,,,15,0.8571428571428571,120,1,,,,,,,,,,,,,,,,,,,,,,,,,,,,,,,,,,,,,,,,,,,,,,119,146857,22,Female,1,2024/03/25_10:26:37,YZ,None,
1,./instructions/inst_prac_1/Slide24.png,right,28.119876324984943,694.7841336580168,722.9040099830017,,,,,,,,,,,,,,,,,,,,,,,,,,,,,,,,,1,,,,,,,,,,,,,,,,,,,,,,,,,,,,,,,,,,,,,,,,,,,,,,119,146857,22,Female,1,2024/03/25_10:26:37,YZ,None,
2,./instructions/inst_prac_1/Slide25.png,right,1.9872725270106457,722.9328836560016,724.9201561830123,,,,,,,,,,,,,,,,,,,,,,,,,,,,,,,,,1,,,,,,,,,,,,,,,,,,,,,,,,,,,,,,,,,,,,,,,,,,,,,,119,146857,22,Female,1,2024/03/25_10:26:37,YZ,None,
3,./instructions/inst_prac_1/Slide26.png,right,1.1956338600139134,724.9486153280013,726.1442491880152,,,,,,,,,,,,,,,,,,,,,,,,,,,,,,,,,1,,,,,,,,,,,,,,,,,,,,,,,,,,,,,,,,,,,,,,,,,,,,,,119,146857,22,Female,1,2024/03/25_10:26:37,YZ,None,
4,./instructions/inst_prac_1/Slide27.png,right,1.0523054169898387,726.1719215850171,727.224227002007,,,,,,,,,,,,,,,,,,,,,,,,,,,,,,,,,1,,,,,,,,,,,,,,,,,,,,,,,,,,,,,,,,,,,,,,,,,,,,,,119,146857,22,Female,1,2024/03/25_10:26:37,YZ,None,
5,./instructions/inst_prac_1/Slide28.png,right,0.786756162007805,727.2534588430135,728.0402150050213,,,,,,,,,,,,,,,,,,,,,,,,,,,,,,,,,1,,,,,,,,,,,,,,,,,,,,,,,,,,,,,,,,,,,,,,,,,,,,,,119,146857,22,Female,1,2024/03/25_10:26:37,YZ,None,
6,./instructions/inst_prac_1/Slide29.png,right,3.2354019379999954,728.0689388010069,731.3043407390069,,,,,,,,,,,,,,,,,,,,,,,,,,,,,,,,,1,,,,,,,,,,,,,,,,,,,,,,,,,,,,,,,,,,,,,,,,,,,,,,119,146857,22,Female,1,2024/03/25_10:26:37,YZ,None,
7,./instructions/inst_prac_1/Slide30.png,right,1.5312649449915625,731.3329377960181,732.8642027410096,,,,,,,,,,,,,,,,,,,,,,,,,,,,,,,,,1,,,,,,,,,,,,,,,,,,,,,,,,,,,,,,,,,,,,,,,,,,,,,,119,146857,22,Female,1,2024/03/25_10:26:37,YZ,None,
,,,,,,practice,0,6,1,1250,1,Q,0,right,3.7556817540025804,1,0,,,,,,,,,,,,,,,,,,,,,1,,,,,,,,,,,,,,,,,,,,,,,,,,,,,,,,,,,,,,,,,,,,,,119,146857,22,Female,1,2024/03/25_10:26:37,YZ,None,
,,,,,,practice,0,6,1,1250,2,S,0,right,1.0301825780188665,1,0,,,,,,,,,,,,,,,,,,,,,1,,,,,,,,,,,,,,,,,,,,,,,,,,,,,,,,,,,,,,,,,,,,,,119,146857,22,Female,1,2024/03/25_10:26:37,YZ,None,
,,,,,,practice,0,6,1,1250,3,Q,0,right,0.6961219139921013,1,0,,,,,,,,,,,,,,,,,,,,,1,,,,,,,,,,,,,,,,,,,,,,,,,,,,,,,,,,,,,,,,,,,,,,119,146857,22,Female,1,2024/03/25_10:26:37,YZ,None,
,,,,,,practice,0,6,1,1250,4,C,0,right,0.7805186120094731,1,0,,,,,,,,,,,,,,,,,,,,,1,,,,,,,,,,,,,,,,,,,,,,,,,,,,,,,,,,,,,,,,,,,,,,119,146857,22,Female,1,2024/03/25_10:26:37,YZ,None,
,,,,,,practice,0,6,1,1250,5,C,1,left,0.7638133380096406,1,0,,,,,,,,,,,,,,,,,,,,,1,,,,,,,,,,,,,,,,,,,,,,,,,,,,,,,,,,,,,,,,,,,,,,119,146857,22,Female,1,2024/03/25_10:26:37,YZ,None,
,,,,,,practice,0,6,1,1250,6,V,0,right,0.7740529949951451,1,0,,,,,,,,,,,,,,,,,,,,,1,,,,,,,,,,,,,,,,,,,,,,,,,,,,,,,,,,,,,,,,,,,,,,119,146857,22,Female,1,2024/03/25_10:26:37,YZ,None,
,,,,,,practice,0,6,1,1250,7,V,1,left,0.7890362850157544,1,0,,,,,,,,,,,,,,,,,,,,,1,,,,,,,,,,,,,,,,,,,,,,,,,,,,,,,,,,,,,,,,,,,,,,119,146857,22,Female,1,2024/03/25_10:26:37,YZ,None,
,,,,,,practice,0,6,1,1250,8,Q,0,right,0.9274931510153692,1,0,,,,,,,,,,,,,,,,,,,,,1,,,,,,,,,,,,,,,,,,,,,,,,,,,,,,,,,,,,,,,,,,,,,,119,146857,22,Female,1,2024/03/25_10:26:37,YZ,None,
,,,,,,practice,0,6,1,1250,9,V,0,right,1.029032893013209,1,0,,,,,,,,,,,,,,,,,,,,,1,,,,,,,,,,,,,,,,,,,,,,,,,,,,,,,,,,,,,,,,,,,,,,119,146857,22,Female,1,2024/03/25_10:26:37,YZ,None,
,,,,,,practice,0,6,1,1250,10,V,1,left,0.7078309140051715,1,0,,,,,,,,,,,,,,,,,,,,,1,,,,,,,,,,,,,,,,,,,,,,,,,,,,,,,,,,,,,,,,,,,,,,119,146857,22,Female,1,2024/03/25_10:26:37,YZ,None,
,,,,,,practice,0,6,1,1250,,,,,,,,1.0,1.0,0.0,1.0,0.0,1.0,1.1253764434077311,3,0,0,0,0,7,10,3,7,0,,,,1,,,,,,,,,,,,,,,,,,,,,,,,,,,,,,,,,,,,,,,,,,,,,,119,146857,22,Female,1,2024/03/25_10:26:37,YZ,None,
1,./instructions/inst_prac_1_next/Slide35.png,right,2.3483542799949646,754.6439317740151,756.99228605401,,,,,,,,,,,,,,,,,,,,,,,,,,,,,,,,,1,,,,,,,,,,,,,,,,,,,,,,,,,,,,,,,,,,,,,,,,,,,,,,119,146857,22,Female,1,2024/03/25_10:26:37,YZ,None,
,,,,,,practice,0,32,1,120,1,J,0,right,0.4185093600244727,1,0,,,,,,,,,,,,,,,,,,,,,1,,,,,,,,,,,,,,,,,,,,,,,,,,,,,,,,,,,,,,,,,,,,,,119,146857,22,Female,1,2024/03/25_10:26:37,YZ,None,
,,,,,,practice,0,32,1,120,2,X,0,right,0.46059144198079593,1,0,,,,,,,,,,,,,,,,,,,,,1,,,,,,,,,,,,,,,,,,,,,,,,,,,,,,,,,,,,,,,,,,,,,,119,146857,22,Female,1,2024/03/25_10:26:37,YZ,None,
,,,,,,practice,0,32,1,120,3,V,0,right,0.5084159219986759,1,0,,,,,,,,,,,,,,,,,,,,,1,,,,,,,,,,,,,,,,,,,,,,,,,,,,,,,,,,,,,,,,,,,,,,119,146857,22,Female,1,2024/03/25_10:26:37,YZ,None,
,,,,,,practice,0,32,1,120,4,C,0,right,0.5725500459957402,1,0,,,,,,,,,,,,,,,,,,,,,1,,,,,,,,,,,,,,,,,,,,,,,,,,,,,,,,,,,,,,,,,,,,,,119,146857,22,Female,1,2024/03/25_10:26:37,YZ,None,
,,,,,,practice,0,32,1,120,5,C,1,left,0.40055225501419045,1,0,,,,,,,,,,,,,,,,,,,,,1,,,,,,,,,,,,,,,,,,,,,,,,,,,,,,,,,,,,,,,,,,,,,,119,146857,22,Female,1,2024/03/25_10:26:37,YZ,None,
,,,,,,practice,0,32,1,120,6,S,0,right,0.5196470499795396,1,0,,,,,,,,,,,,,,,,,,,,,1,,,,,,,,,,,,,,,,,,,,,,,,,,,,,,,,,,,,,,,,,,,,,,119,146857,22,Female,1,2024/03/25_10:26:37,YZ,None,
,,,,,,practice,0,32,1,120,7,Q,0,right,0.4684090459777508,1,0,,,,,,,,,,,,,,,,,,,,,1,,,,,,,,,,,,,,,,,,,,,,,,,,,,,,,,,,,,,,,,,,,,,,119,146857,22,Female,1,2024/03/25_10:26:37,YZ,None,
,,,,,,practice,0,32,1,120,8,N,0,right,0.49622035201173276,1,0,,,,,,,,,,,,,,,,,,,,,1,,,,,,,,,,,,,,,,,,,,,,,,,,,,,,,,,,,,,,,,,,,,,,119,146857,22,Female,1,2024/03/25_10:26:37,YZ,None,
,,,,,,practice,0,32,1,120,9,N,1,left,0.5572780299989972,1,0,,,,,,,,,,,,,,,,,,,,,1,,,,,,,,,,,,,,,,,,,,,,,,,,,,,,,,,,,,,,,,,,,,,,119,146857,22,Female,1,2024/03/25_10:26:37,YZ,None,
,,,,,,practice,0,32,1,120,10,X,0,right,0.47318254099809565,1,0,,,,,,,,,,,,,,,,,,,,,1,,,,,,,,,,,,,,,,,,,,,,,,,,,,,,,,,,,,,,,,,,,,,,119,146857,22,Female,1,2024/03/25_10:26:37,YZ,None,
,,,,,,practice,0,32,1,120,11,X,1,left,0.6894618530059233,1,0,,,,,,,,,,,,,,,,,,,,,1,,,,,,,,,,,,,,,,,,,,,,,,,,,,,,,,,,,,,,,,,,,,,,119,146857,22,Female,1,2024/03/25_10:26:37,YZ,None,
,,,,,,practice,0,32,1,120,12,V,0,right,0.5361050380161032,1,0,,,,,,,,,,,,,,,,,,,,,1,,,,,,,,,,,,,,,,,,,,,,,,,,,,,,,,,,,,,,,,,,,,,,119,146857,22,Female,1,2024/03/25_10:26:37,YZ,None,
,,,,,,practice,0,32,1,120,13,F,0,right,0.6242000860220287,1,0,,,,,,,,,,,,,,,,,,,,,1,,,,,,,,,,,,,,,,,,,,,,,,,,,,,,,,,,,,,,,,,,,,,,119,146857,22,Female,1,2024/03/25_10:26:37,YZ,None,
,,,,,,practice,0,32,1,120,14,C,0,right,0.5841042810061481,1,0,,,,,,,,,,,,,,,,,,,,,1,,,,,,,,,,,,,,,,,,,,,,,,,,,,,,,,,,,,,,,,,,,,,,119,146857,22,Female,1,2024/03/25_10:26:37,YZ,None,
,,,,,,practice,0,32,1,120,15,J,0,right,0.5392926810018253,1,0,,,,,,,,,,,,,,,,,,,,,1,,,,,,,,,,,,,,,,,,,,,,,,,,,,,,,,,,,,,,,,,,,,,,119,146857,22,Female,1,2024/03/25_10:26:37,YZ,None,
,,,,,,practice,0,32,1,120,16,J,1,left,0.41295885798172094,1,0,,,,,,,,,,,,,,,,,,,,,1,,,,,,,,,,,,,,,,,,,,,,,,,,,,,,,,,,,,,,,,,,,,,,119,146857,22,Female,1,2024/03/25_10:26:37,YZ,None,
,,,,,,practice,0,32,1,120,17,S,0,right,0.5417382099840324,1,0,,,,,,,,,,,,,,,,,,,,,1,,,,,,,,,,,,,,,,,,,,,,,,,,,,,,,,,,,,,,,,,,,,,,119,146857,22,Female,1,2024/03/25_10:26:37,YZ,None,
,,,,,,practice,0,32,1,120,18,F,0,right,0.47421538599883206,1,0,,,,,,,,,,,,,,,,,,,,,1,,,,,,,,,,,,,,,,,,,,,,,,,,,,,,,,,,,,,,,,,,,,,,119,146857,22,Female,1,2024/03/25_10:26:37,YZ,None,
,,,,,,practice,0,32,1,120,19,F,1,left,0.4422063279780559,1,0,,,,,,,,,,,,,,,,,,,,,1,,,,,,,,,,,,,,,,,,,,,,,,,,,,,,,,,,,,,,,,,,,,,,119,146857,22,Female,1,2024/03/25_10:26:37,YZ,None,
,,,,,,practice,0,32,1,120,20,V,0,right,0.4899783769797068,1,0,,,,,,,,,,,,,,,,,,,,,1,,,,,,,,,,,,,,,,,,,,,,,,,,,,,,,,,,,,,,,,,,,,,,119,146857,22,Female,1,2024/03/25_10:26:37,YZ,None,
,,,,,,practice,0,32,1,120,21,F,0,right,0.4584192020120099,1,0,,,,,,,,,,,,,,,,,,,,,1,,,,,,,,,,,,,,,,,,,,,,,,,,,,,,,,,,,,,,,,,,,,,,119,146857,22,Female,1,2024/03/25_10:26:37,YZ,None,
,,,,,,practice,0,32,1,120,22,Q,0,right,1.5216663039755076,1,0,,,,,,,,,,,,,,,,,,,,,1,,,,,,,,,,,,,,,,,,,,,,,,,,,,,,,,,,,,,,,,,,,,,,119,146857,22,Female,1,2024/03/25_10:26:37,YZ,None,
,,,,,,practice,0,32,1,120,23,Q,1,left,0.7277764129976276,1,0,,,,,,,,,,,,,,,,,,,,,1,,,,,,,,,,,,,,,,,,,,,,,,,,,,,,,,,,,,,,,,,,,,,,119,146857,22,Female,1,2024/03/25_10:26:37,YZ,None,
,,,,,,practice,0,32,1,120,,,,,,,,1.0,1.0,0.0,1.0,0.0,1.0,0.5616295243886745,6,0,0,0,0,17,23,6,17,0,,,,1,,,,,,,,,,,,,,,,,,,,,,,,,,,,,,,,,,,,,,,,,,,,,,119,146857,22,Female,1,2024/03/25_10:26:37,YZ,None,
,,,,,,practice,0,21,1,120,1,Q,0,right,0.6927931669924874,1,0,,,,,,,,,,,,,,,,,,,,,1,,,,,,,,,,,,,,,,,,,,,,,,,,,,,,,,,,,,,,,,,,,,,,119,146857,22,Female,1,2024/03/25_10:26:37,YZ,None,
,,,,,,practice,0,21,1,120,2,S,0,right,0.5485248350014444,1,0,,,,,,,,,,,,,,,,,,,,,1,,,,,,,,,,,,,,,,,,,,,,,,,,,,,,,,,,,,,,,,,,,,,,119,146857,22,Female,1,2024/03/25_10:26:37,YZ,None,
,,,,,,practice,0,21,1,120,3,J,0,right,0.5224158400087617,1,0,,,,,,,,,,,,,,,,,,,,,1,,,,,,,,,,,,,,,,,,,,,,,,,,,,,,,,,,,,,,,,,,,,,,119,146857,22,Female,1,2024/03/25_10:26:37,YZ,None,
,,,,,,practice,0,21,1,120,4,J,1,left,0.645352040999569,1,0,,,,,,,,,,,,,,,,,,,,,1,,,,,,,,,,,,,,,,,,,,,,,,,,,,,,,,,,,,,,,,,,,,,,119,146857,22,Female,1,2024/03/25_10:26:37,YZ,None,
,,,,,,practice,0,21,1,120,5,F,0,right,0.5885585680080112,1,0,,,,,,,,,,,,,,,,,,,,,1,,,,,,,,,,,,,,,,,,,,,,,,,,,,,,,,,,,,,,,,,,,,,,119,146857,22,Female,1,2024/03/25_10:26:37,YZ,None,
,,,,,,practice,0,21,1,120,6,F,1,left,0.6483495219727047,1,0,,,,,,,,,,,,,,,,,,,,,1,,,,,,,,,,,,,,,,,,,,,,,,,,,,,,,,,,,,,,,,,,,,,,119,146857,22,Female,1,2024/03/25_10:26:37,YZ,None,
,,,,,,practice,0,21,1,120,7,V,0,right,0.6430021259875502,1,0,,,,,,,,,,,,,,,,,,,,,1,,,,,,,,,,,,,,,,,,,,,,,,,,,,,,,,,,,,,,,,,,,,,,119,146857,22,Female,1,2024/03/25_10:26:37,YZ,None,
,,,,,,practice,0,21,1,120,8,V,1,left,0.4427465269982349,1,0,,,,,,,,,,,,,,,,,,,,,1,,,,,,,,,,,,,,,,,,,,,,,,,,,,,,,,,,,,,,,,,,,,,,119,146857,22,Female,1,2024/03/25_10:26:37,YZ,None,
,,,,,,practice,0,21,1,120,9,F,0,right,0.6264794419985265,1,0,,,,,,,,,,,,,,,,,,,,,1,,,,,,,,,,,,,,,,,,,,,,,,,,,,,,,,,,,,,,,,,,,,,,119,146857,22,Female,1,2024/03/25_10:26:37,YZ,None,
,,,,,,practice,0,21,1,120,10,Q,0,right,0.6651124060153961,1,0,,,,,,,,,,,,,,,,,,,,,1,,,,,,,,,,,,,,,,,,,,,,,,,,,,,,,,,,,,,,,,,,,,,,119,146857,22,Female,1,2024/03/25_10:26:37,YZ,None,
,,,,,,practice,0,21,1,120,11,S,0,right,0.6579317739815451,1,0,,,,,,,,,,,,,,,,,,,,,1,,,,,,,,,,,,,,,,,,,,,,,,,,,,,,,,,,,,,,,,,,,,,,119,146857,22,Female,1,2024/03/25_10:26:37,YZ,None,
,,,,,,practice,0,21,1,120,12,X,0,right,0.5300178460020106,1,0,,,,,,,,,,,,,,,,,,,,,1,,,,,,,,,,,,,,,,,,,,,,,,,,,,,,,,,,,,,,,,,,,,,,119,146857,22,Female,1,2024/03/25_10:26:37,YZ,None,
,,,,,,practice,0,21,1,120,13,N,0,right,0.6688104850181844,1,0,,,,,,,,,,,,,,,,,,,,,1,,,,,,,,,,,,,,,,,,,,,,,,,,,,,,,,,,,,,,,,,,,,,,119,146857,22,Female,1,2024/03/25_10:26:37,YZ,None,
,,,,,,practice,0,21,1,120,14,C,0,right,0.6958477790176403,1,0,,,,,,,,,,,,,,,,,,,,,1,,,,,,,,,,,,,,,,,,,,,,,,,,,,,,,,,,,,,,,,,,,,,,119,146857,22,Female,1,2024/03/25_10:26:37,YZ,None,
,,,,,,practice,0,21,1,120,15,C,1,left,0.6367939049960114,1,0,,,,,,,,,,,,,,,,,,,,,1,,,,,,,,,,,,,,,,,,,,,,,,,,,,,,,,,,,,,,,,,,,,,,119,146857,22,Female,1,2024/03/25_10:26:37,YZ,None,
,,,,,,practice,0,21,1,120,16,F,0,right,0.688792518019909,1,0,,,,,,,,,,,,,,,,,,,,,1,,,,,,,,,,,,,,,,,,,,,,,,,,,,,,,,,,,,,,,,,,,,,,119,146857,22,Female,1,2024/03/25_10:26:37,YZ,None,
,,,,,,practice,0,21,1,120,17,Q,0,right,0.5123027090157848,1,0,,,,,,,,,,,,,,,,,,,,,1,,,,,,,,,,,,,,,,,,,,,,,,,,,,,,,,,,,,,,,,,,,,,,119,146857,22,Female,1,2024/03/25_10:26:37,YZ,None,
,,,,,,practice,0,21,1,120,18,Q,1,left,0.6251554759801365,1,0,,,,,,,,,,,,,,,,,,,,,1,,,,,,,,,,,,,,,,,,,,,,,,,,,,,,,,,,,,,,,,,,,,,,119,146857,22,Female,1,2024/03/25_10:26:37,YZ,None,
,,,,,,practice,0,21,1,120,19,S,0,right,0.522055465989979,1,0,,,,,,,,,,,,,,,,,,,,,1,,,,,,,,,,,,,,,,,,,,,,,,,,,,,,,,,,,,,,,,,,,,,,119,146857,22,Female,1,2024/03/25_10:26:37,YZ,None,
,,,,,,practice,0,21,1,120,20,S,1,left,0.5133548119920306,1,0,,,,,,,,,,,,,,,,,,,,,1,,,,,,,,,,,,,,,,,,,,,,,,,,,,,,,,,,,,,,,,,,,,,,119,146857,22,Female,1,2024/03/25_10:26:37,YZ,None,
,,,,,,practice,0,21,1,120,21,N,0,right,0.6046012419974431,1,0,,,,,,,,,,,,,,,,,,,,,1,,,,,,,,,,,,,,,,,,,,,,,,,,,,,,,,,,,,,,,,,,,,,,119,146857,22,Female,1,2024/03/25_10:26:37,YZ,None,
,,,,,,practice,0,21,1,120,22,F,0,right,0.5768452920019627,1,0,,,,,,,,,,,,,,,,,,,,,1,,,,,,,,,,,,,,,,,,,,,,,,,,,,,,,,,,,,,,,,,,,,,,119,146857,22,Female,1,2024/03/25_10:26:37,YZ,None,
,,,,,,practice,0,21,1,120,23,F,1,left,0.6025328710093163,1,0,,,,,,,,,,,,,,,,,,,,,1,,,,,,,,,,,,,,,,,,,,,,,,,,,,,,,,,,,,,,,,,,,,,,119,146857,22,Female,1,2024/03/25_10:26:37,YZ,None,
,,,,,,practice,0,21,1,120,,,,,,,,1.0,1.0,0.0,1.0,0.0,1.0,0.6025381151741148,7,0,0,0,0,16,23,7,16,0,,,,1,,,,,,,,,,,,,,,,,,,,,,,,,,,,,,,,,,,,,,,,,,,,,,119,146857,22,Female,1,2024/03/25_10:26:37,YZ,None,
1,./instructions/inst_prac_3/Slide37.png,right,4.222212727996521,812.0340885680052,816.2563012960018,,,,,,,,,,,,,,,,,,,,,,,,,,,,,,,,,1,,,,,,,,,,,,,,,,,,,,,,,,,,,,,,,,,,,,,,,,,,,,,,119,146857,22,Female,1,2024/03/25_10:26:37,YZ,None,
2,./instructions/inst_prac_3/Slide38.png,right,1.0990619999938644,816.2850728670019,817.3841348669957,,,,,,,,,,,,,,,,,,,,,,,,,,,,,,,,,1,,,,,,,,,,,,,,,,,,,,,,,,,,,,,,,,,,,,,,,,,,,,,,119,146857,22,Female,1,2024/03/25_10:26:37,YZ,None,
3,./instructions/inst_prac_3/Slide39.png,right,0.7473231240001041,817.4128172710189,818.160140395019,,,,,,,,,,,,,,,,,,,,,,,,,,,,,,,,,1,,,,,,,,,,,,,,,,,,,,,,,,,,,,,,,,,,,,,,,,,,,,,,119,146857,22,Female,1,2024/03/25_10:26:37,YZ,None,
4,./instructions/inst_prac_3/Slide40.png,right,0.587666525010718,818.1884661329968,818.7761326580076,,,,,,,,,,,,,,,,,,,,,,,,,,,,,,,,,1,,,,,,,,,,,,,,,,,,,,,,,,,,,,,,,,,,,,,,,,,,,,,,119,146857,22,Female,1,2024/03/25_10:26:37,YZ,None,
5,./instructions/inst_prac_3/Slide41.png,right,3.1386697519919835,818.8055946530076,821.9442644049996,,,,,,,,,,,,,,,,,,,,,,,,,,,,,,,,,1,,,,,,,,,,,,,,,,,,,,,,,,,,,,,,,,,,,,,,,,,,,,,,119,146857,22,Female,1,2024/03/25_10:26:37,YZ,None,
6,./instructions/inst_prac_3/Slide42.png,right,4.5315762069949415,821.9727220430213,826.5042982500163,,,,,,,,,,,,,,,,,,,,,,,,,,,,,,,,,1,,,,,,,,,,,,,,,,,,,,,,,,,,,,,,,,,,,,,,,,,,,,,,119,146857,22,Female,1,2024/03/25_10:26:37,YZ,None,
7,./instructions/inst_prac_3/Slide43.png,right,2.786939945013728,826.5332361680048,829.3201761130185,,,,,,,,,,,,,,,,,,,,,,,,,,,,,,,,,1,,,,,,,,,,,,,,,,,,,,,,,,,,,,,,,,,,,,,,,,,,,,,,119,146857,22,Female,1,2024/03/25_10:26:37,YZ,None,
8,./instructions/inst_prac_3/Slide44.png,right,1.2052123230241705,829.3470423489925,830.5522546720167,,,,,,,,,,,,,,,,,,,,,,,,,,,,,,,,,1,,,,,,,,,,,,,,,,,,,,,,,,,,,,,,,,,,,,,,,,,,,,,,119,146857,22,Female,1,2024/03/25_10:26:37,YZ,None,
,,,,,,practice,0,17,3,788,1,Q,0,right,0.7796684140048455,1,0,,,,,,,,,,,,,,,,,,,,,1,,,,,,,,,,,,,,,,,,,,,,,,,,,,,,,,,,,,,,,,,,,,,,119,146857,22,Female,1,2024/03/25_10:26:37,YZ,None,
,,,,,,practice,0,17,3,788,2,N,0,right,0.7579018669785,1,0,,,,,,,,,,,,,,,,,,,,,1,,,,,,,,,,,,,,,,,,,,,,,,,,,,,,,,,,,,,,,,,,,,,,119,146857,22,Female,1,2024/03/25_10:26:37,YZ,None,
,,,,,,practice,0,17,3,788,3,X,0,right,0.5012322170077823,1,0,,,,,,,,,,,,,,,,,,,,,1,,,,,,,,,,,,,,,,,,,,,,,,,,,,,,,,,,,,,,,,,,,,,,119,146857,22,Female,1,2024/03/25_10:26:37,YZ,None,
,,,,,,practice,0,17,3,788,4,Q,1,left,0.7820180900162086,1,0,,,,,,,,,,,,,,,,,,,,,1,,,,,,,,,,,,,,,,,,,,,,,,,,,,,,,,,,,,,,,,,,,,,,119,146857,22,Female,1,2024/03/25_10:26:37,YZ,None,
,,,,,,practice,0,17,3,788,5,S,0,right,1.054133263998665,1,0,,,,,,,,,,,,,,,,,,,,,1,,,,,,,,,,,,,,,,,,,,,,,,,,,,,,,,,,,,,,,,,,,,,,119,146857,22,Female,1,2024/03/25_10:26:37,YZ,None,
,,,,,,practice,0,17,3,788,6,V,0,right,0.6775468770065345,1,0,,,,,,,,,,,,,,,,,,,,,1,,,,,,,,,,,,,,,,,,,,,,,,,,,,,,,,,,,,,,,,,,,,,,119,146857,22,Female,1,2024/03/25_10:26:37,YZ,None,
,,,,,,practice,0,17,3,788,7,Q,1,left,0.8307868299889378,1,0,,,,,,,,,,,,,,,,,,,,,1,,,,,,,,,,,,,,,,,,,,,,,,,,,,,,,,,,,,,,,,,,,,,,119,146857,22,Female,1,2024/03/25_10:26:37,YZ,None,
,,,,,,practice,0,17,3,788,8,C,0,right,0.8459450969821773,1,0,,,,,,,,,,,,,,,,,,,,,1,,,,,,,,,,,,,,,,,,,,,,,,,,,,,,,,,,,,,,,,,,,,,,119,146857,22,Female,1,2024/03/25_10:26:37,YZ,None,
,,,,,,practice,0,17,3,788,9,V,1,right,0.8131860430003144,0,0,,,,,,,,,,,,,,,,,,,,,1,,,,,,,,,,,,,,,,,,,,,,,,,,,,,,,,,,,,,,,,,,,,,,119,146857,22,Female,1,2024/03/25_10:26:37,YZ,None,
,,,,,,practice,0,17,3,788,10,X,0,right,0.8378725410148036,1,0,,,,,,,,,,,,,,,,,,,,,1,,,,,,,,,,,,,,,,,,,,,,,,,,,,,,,,,,,,,,,,,,,,,,119,146857,22,Female,1,2024/03/25_10:26:37,YZ,None,
,,,,,,practice,0,17,3,788,11,Q,0,right,0.8794159550161567,1,0,,,,,,,,,,,,,,,,,,,,,1,,,,,,,,,,,,,,,,,,,,,,,,,,,,,,,,,,,,,,,,,,,,,,119,146857,22,Female,1,2024/03/25_10:26:37,YZ,None,
,,,,,,practice,0,17,3,788,12,N,0,right,0.8928053629933856,1,0,,,,,,,,,,,,,,,,,,,,,1,,,,,,,,,,,,,,,,,,,,,,,,,,,,,,,,,,,,,,,,,,,,,,119,146857,22,Female,1,2024/03/25_10:26:37,YZ,None,
,,,,,,practice,0,17,3,788,13,X,1,left,0.8413501880131662,1,0,,,,,,,,,,,,,,,,,,,,,1,,,,,,,,,,,,,,,,,,,,,,,,,,,,,,,,,,,,,,,,,,,,,,119,146857,22,Female,1,2024/03/25_10:26:37,YZ,None,
,,,,,,practice,0,17,3,788,,,,,,,,0.9375,0.75,0.0,1.0,0.0,1.0,0.8072202112324214,3,0,0,0,0,9,12,4,9,0,,,,1,,,,,,,,,,,,,,,,,,,,,,,,,,,,,,,,,,,,,,,,,,,,,,119,146857,22,Female,1,2024/03/25_10:26:37,YZ,None,
1,./instructions/inst_prac_3_next/Slide49.png,right,74.64148572902195,855.2387607239943,929.8802464530163,,,,,,,,,,,,,,,,,,,,,,,,,,,,,,,,,1,,,,,,,,,,,,,,,,,,,,,,,,,,,,,,,,,,,,,,,,,,,,,,119,146857,22,Female,1,2024/03/25_10:26:37,YZ,None,
,,,,,,practice,0,20,3,120,1,C,0,right,0.1910301320021972,1,0,,,,,,,,,,,,,,,,,,,,,1,,,,,,,,,,,,,,,,,,,,,,,,,,,,,,,,,,,,,,,,,,,,,,119,146857,22,Female,1,2024/03/25_10:26:37,YZ,None,
,,,,,,practice,0,20,3,120,2,Q,0,right,0.2903405230026692,1,0,,,,,,,,,,,,,,,,,,,,,1,,,,,,,,,,,,,,,,,,,,,,,,,,,,,,,,,,,,,,,,,,,,,,119,146857,22,Female,1,2024/03/25_10:26:37,YZ,None,
,,,,,,practice,0,20,3,120,3,J,0,right,0.3221692339866422,1,0,,,,,,,,,,,,,,,,,,,,,1,,,,,,,,,,,,,,,,,,,,,,,,,,,,,,,,,,,,,,,,,,,,,,119,146857,22,Female,1,2024/03/25_10:26:37,YZ,None,
,,,,,,practice,0,20,3,120,4,C,1,left,0.5608464110118803,1,0,,,,,,,,,,,,,,,,,,,,,1,,,,,,,,,,,,,,,,,,,,,,,,,,,,,,,,,,,,,,,,,,,,,,119,146857,22,Female,1,2024/03/25_10:26:37,YZ,None,
,,,,,,practice,0,20,3,120,5,N,0,right,0.5702251649927348,1,0,,,,,,,,,,,,,,,,,,,,,1,,,,,,,,,,,,,,,,,,,,,,,,,,,,,,,,,,,,,,,,,,,,,,119,146857,22,Female,1,2024/03/25_10:26:37,YZ,None,
,,,,,,practice,0,20,3,120,6,Q,0,left,0.8640647149877623,0,0,,,,,,,,,,,,,,,,,,,,,1,,,,,,,,,,,,,,,,,,,,,,,,,,,,,,,,,,,,,,,,,,,,,,119,146857,22,Female,1,2024/03/25_10:26:37,YZ,None,
,,,,,,practice,0,20,3,120,7,S,0,right,0.5497043379873503,1,0,,,,,,,,,,,,,,,,,,,,,1,,,,,,,,,,,,,,,,,,,,,,,,,,,,,,,,,,,,,,,,,,,,,,119,146857,22,Female,1,2024/03/25_10:26:37,YZ,None,
,,,,,,practice,0,20,3,120,8,N,1,right,0.7358677790034562,0,0,,,,,,,,,,,,,,,,,,,,,1,,,,,,,,,,,,,,,,,,,,,,,,,,,,,,,,,,,,,,,,,,,,,,119,146857,22,Female,1,2024/03/25_10:26:37,YZ,None,
,,,,,,practice,0,20,3,120,9,S,0,right,0.8684380310005508,1,0,,,,,,,,,,,,,,,,,,,,,1,,,,,,,,,,,,,,,,,,,,,,,,,,,,,,,,,,,,,,,,,,,,,,119,146857,22,Female,1,2024/03/25_10:26:37,YZ,None,
,,,,,,practice,0,20,3,120,10,S,1,left,0.7997512329893652,1,0,,,,,,,,,,,,,,,,,,,,,1,,,,,,,,,,,,,,,,,,,,,,,,,,,,,,,,,,,,,,,,,,,,,,119,146857,22,Female,1,2024/03/25_10:26:37,YZ,None,
,,,,,,practice,0,20,3,120,11,V,0,right,0.6093981500016525,1,0,,,,,,,,,,,,,,,,,,,,,1,,,,,,,,,,,,,,,,,,,,,,,,,,,,,,,,,,,,,,,,,,,,,,119,146857,22,Female,1,2024/03/25_10:26:37,YZ,None,
,,,,,,practice,0,20,3,120,12,S,1,left,0.6532794530212414,1,0,,,,,,,,,,,,,,,,,,,,,1,,,,,,,,,,,,,,,,,,,,,,,,,,,,,,,,,,,,,,,,,,,,,,119,146857,22,Female,1,2024/03/25_10:26:37,YZ,None,
,,,,,,practice,0,20,3,120,13,N,0,right,0.5617013649898581,1,0,,,,,,,,,,,,,,,,,,,,,1,,,,,,,,,,,,,,,,,,,,,,,,,,,,,,,,,,,,,,,,,,,,,,119,146857,22,Female,1,2024/03/25_10:26:37,YZ,None,
,,,,,,practice,0,20,3,120,14,F,0,right,0.7486542590195313,1,0,,,,,,,,,,,,,,,,,,,,,1,,,,,,,,,,,,,,,,,,,,,,,,,,,,,,,,,,,,,,,,,,,,,,119,146857,22,Female,1,2024/03/25_10:26:37,YZ,None,
,,,,,,practice,0,20,3,120,15,Q,0,right,0.7613626520032994,1,0,,,,,,,,,,,,,,,,,,,,,1,,,,,,,,,,,,,,,,,,,,,,,,,,,,,,,,,,,,,,,,,,,,,,119,146857,22,Female,1,2024/03/25_10:26:37,YZ,None,
,,,,,,practice,0,20,3,120,16,Q,0,right,0.6500981050194241,1,0,,,,,,,,,,,,,,,,,,,,,1,,,,,,,,,,,,,,,,,,,,,,,,,,,,,,,,,,,,,,,,,,,,,,119,146857,22,Female,1,2024/03/25_10:26:37,YZ,None,
,,,,,,practice,0,20,3,120,17,F,1,right,0.6691655069880653,0,0,,,,,,,,,,,,,,,,,,,,,1,,,,,,,,,,,,,,,,,,,,,,,,,,,,,,,,,,,,,,,,,,,,,,119,146857,22,Female,1,2024/03/25_10:26:37,YZ,None,
,,,,,,practice,0,20,3,120,18,S,0,right,0.6722782959986944,1,0,,,,,,,,,,,,,,,,,,,,,1,,,,,,,,,,,,,,,,,,,,,,,,,,,,,,,,,,,,,,,,,,,,,,119,146857,22,Female,1,2024/03/25_10:26:37,YZ,None,
,,,,,,practice,0,20,3,120,19,J,0,right,0.6236444109817967,1,0,,,,,,,,,,,,,,,,,,,,,1,,,,,,,,,,,,,,,,,,,,,,,,,,,,,,,,,,,,,,,,,,,,,,119,146857,22,Female,1,2024/03/25_10:26:37,YZ,None,
,,,,,,practice,0,20,3,120,20,J,0,right,0.7377568200172391,1,0,,,,,,,,,,,,,,,,,,,,,1,,,,,,,,,,,,,,,,,,,,,,,,,,,,,,,,,,,,,,,,,,,,,,119,146857,22,Female,1,2024/03/25_10:26:37,YZ,None,
,,,,,,practice,0,20,3,120,21,S,1,right,1.1618205710256007,0,0,,,,,,,,,,,,,,,,,,,,,1,,,,,,,,,,,,,,,,,,,,,,,,,,,,,,,,,,,,,,,,,,,,,,119,146857,22,Female,1,2024/03/25_10:26:37,YZ,None,
,,,,,,practice,0,20,3,120,22,S,0,right,0.6637915659812279,1,0,,,,,,,,,,,,,,,,,,,,,1,,,,,,,,,,,,,,,,,,,,,,,,,,,,,,,,,,,,,,,,,,,,,,119,146857,22,Female,1,2024/03/25_10:26:37,YZ,None,
,,,,,,practice,0,20,3,120,23,F,0,right,1.3179223840124905,1,0,,,,,,,,,,,,,,,,,,,,,1,,,,,,,,,,,,,,,,,,,,,,,,,,,,,,,,,,,,,,,,,,,,,,119,146857,22,Female,1,2024/03/25_10:26:37,YZ,None,
,,,,,,practice,0,20,3,120,,,,,,,,0.8308823529411765,0.5,0.058823529411764705,0.9411764705882353,0.0,0.9411764705882353,0.6775352652184665,3,1,0,0,0,16,19,6,17,0,,,,1,,,,,,,,,,,,,,,,,,,,,,,,,,,,,,,,,,,,,,,,,,,,,,119,146857,22,Female,1,2024/03/25_10:26:37,YZ,None,
,,,,,,practice,0,10,3,120,1,N,0,right,0.44412082800408825,1,0,,,,,,,,,,,,,,,,,,,,,1,,,,,,,,,,,,,,,,,,,,,,,,,,,,,,,,,,,,,,,,,,,,,,119,146857,22,Female,1,2024/03/25_10:26:37,YZ,None,
,,,,,,practice,0,10,3,120,2,F,0,right,0.3363671189872548,1,0,,,,,,,,,,,,,,,,,,,,,1,,,,,,,,,,,,,,,,,,,,,,,,,,,,,,,,,,,,,,,,,,,,,,119,146857,22,Female,1,2024/03/25_10:26:37,YZ,None,
,,,,,,practice,0,10,3,120,3,Q,0,right,0.3693485130206682,1,0,,,,,,,,,,,,,,,,,,,,,1,,,,,,,,,,,,,,,,,,,,,,,,,,,,,,,,,,,,,,,,,,,,,,119,146857,22,Female,1,2024/03/25_10:26:37,YZ,None,
,,,,,,practice,0,10,3,120,4,V,0,right,0.5404488240019418,1,0,,,,,,,,,,,,,,,,,,,,,1,,,,,,,,,,,,,,,,,,,,,,,,,,,,,,,,,,,,,,,,,,,,,,119,146857,22,Female,1,2024/03/25_10:26:37,YZ,None,
,,,,,,practice,0,10,3,120,5,C,0,right,0.6337489779980388,1,0,,,,,,,,,,,,,,,,,,,,,1,,,,,,,,,,,,,,,,,,,,,,,,,,,,,,,,,,,,,,,,,,,,,,119,146857,22,Female,1,2024/03/25_10:26:37,YZ,None,
,,,,,,practice,0,10,3,120,6,Q,1,left,0.9206159560126252,1,0,,,,,,,,,,,,,,,,,,,,,1,,,,,,,,,,,,,,,,,,,,,,,,,,,,,,,,,,,,,,,,,,,,,,119,146857,22,Female,1,2024/03/25_10:26:37,YZ,None,
,,,,,,practice,0,10,3,120,7,C,0,right,0.8598980749957263,1,0,,,,,,,,,,,,,,,,,,,,,1,,,,,,,,,,,,,,,,,,,,,,,,,,,,,,,,,,,,,,,,,,,,,,119,146857,22,Female,1,2024/03/25_10:26:37,YZ,None,
,,,,,,practice,0,10,3,120,8,C,1,left,1.1725360680138692,1,0,,,,,,,,,,,,,,,,,,,,,1,,,,,,,,,,,,,,,,,,,,,,,,,,,,,,,,,,,,,,,,,,,,,,119,146857,22,Female,1,2024/03/25_10:26:37,YZ,None,
,,,,,,practice,0,10,3,120,9,X,0,right,0.6604333780123852,1,0,,,,,,,,,,,,,,,,,,,,,1,,,,,,,,,,,,,,,,,,,,,,,,,,,,,,,,,,,,,,,,,,,,,,119,146857,22,Female,1,2024/03/25_10:26:37,YZ,None,
,,,,,,practice,0,10,3,120,10,S,0,right,0.8817346419964451,1,0,,,,,,,,,,,,,,,,,,,,,1,,,,,,,,,,,,,,,,,,,,,,,,,,,,,,,,,,,,,,,,,,,,,,119,146857,22,Female,1,2024/03/25_10:26:37,YZ,None,
,,,,,,practice,0,10,3,120,11,X,0,right,0.9297885559790302,1,0,,,,,,,,,,,,,,,,,,,,,1,,,,,,,,,,,,,,,,,,,,,,,,,,,,,,,,,,,,,,,,,,,,,,119,146857,22,Female,1,2024/03/25_10:26:37,YZ,None,
,,,,,,practice,0,10,3,120,12,N,0,right,0.5285387690237258,1,0,,,,,,,,,,,,,,,,,,,,,1,,,,,,,,,,,,,,,,,,,,,,,,,,,,,,,,,,,,,,,,,,,,,,119,146857,22,Female,1,2024/03/25_10:26:37,YZ,None,
,,,,,,practice,0,10,3,120,13,V,0,right,0.6342391240177676,1,0,,,,,,,,,,,,,,,,,,,,,1,,,,,,,,,,,,,,,,,,,,,,,,,,,,,,,,,,,,,,,,,,,,,,119,146857,22,Female,1,2024/03/25_10:26:37,YZ,None,
,,,,,,practice,0,10,3,120,14,Q,0,right,0.7759619389835279,1,0,,,,,,,,,,,,,,,,,,,,,1,,,,,,,,,,,,,,,,,,,,,,,,,,,,,,,,,,,,,,,,,,,,,,119,146857,22,Female,1,2024/03/25_10:26:37,YZ,None,
,,,,,,practice,0,10,3,120,15,X,0,right,0.7920472020050511,1,0,,,,,,,,,,,,,,,,,,,,,1,,,,,,,,,,,,,,,,,,,,,,,,,,,,,,,,,,,,,,,,,,,,,,119,146857,22,Female,1,2024/03/25_10:26:37,YZ,None,
,,,,,,practice,0,10,3,120,16,V,1,left,0.9456222509907093,1,0,,,,,,,,,,,,,,,,,,,,,1,,,,,,,,,,,,,,,,,,,,,,,,,,,,,,,,,,,,,,,,,,,,,,119,146857,22,Female,1,2024/03/25_10:26:37,YZ,None,
,,,,,,practice,0,10,3,120,17,C,0,right,0.5881575899838936,1,0,,,,,,,,,,,,,,,,,,,,,1,,,,,,,,,,,,,,,,,,,,,,,,,,,,,,,,,,,,,,,,,,,,,,119,146857,22,Female,1,2024/03/25_10:26:37,YZ,None,
,,,,,,practice,0,10,3,120,18,X,1,right,0.8729478719760664,0,0,,,,,,,,,,,,,,,,,,,,,1,,,,,,,,,,,,,,,,,,,,,,,,,,,,,,,,,,,,,,,,,,,,,,119,146857,22,Female,1,2024/03/25_10:26:37,YZ,None,
,,,,,,practice,0,10,3,120,19,V,1,left,1.0640001770225354,1,0,,,,,,,,,,,,,,,,,,,,,1,,,,,,,,,,,,,,,,,,,,,,,,,,,,,,,,,,,,,,,,,,,,,,119,146857,22,Female,1,2024/03/25_10:26:37,YZ,None,
,,,,,,practice,0,10,3,120,20,F,0,right,0.5977370309992693,1,0,,,,,,,,,,,,,,,,,,,,,1,,,,,,,,,,,,,,,,,,,,,,,,,,,,,,,,,,,,,,,,,,,,,,119,146857,22,Female,1,2024/03/25_10:26:37,YZ,None,
,,,,,,practice,0,10,3,120,21,X,1,right,0.5721142099937424,0,0,,,,,,,,,,,,,,,,,,,,,1,,,,,,,,,,,,,,,,,,,,,,,,,,,,,,,,,,,,,,,,,,,,,,119,146857,22,Female,1,2024/03/25_10:26:37,YZ,None,
,,,,,,practice,0,10,3,120,22,C,0,right,0.5966095269832294,1,0,,,,,,,,,,,,,,,,,,,,,1,,,,,,,,,,,,,,,,,,,,,,,,,,,,,,,,,,,,,,,,,,,,,,119,146857,22,Female,1,2024/03/25_10:26:37,YZ,None,
,,,,,,practice,0,10,3,120,23,V,0,left,0.7326863759953994,0,0,,,,,,,,,,,,,,,,,,,,,1,,,,,,,,,,,,,,,,,,,,,,,,,,,,,,,,,,,,,,,,,,,,,,119,146857,22,Female,1,2024/03/25_10:26:37,YZ,None,
,,,,,,practice,0,10,3,120,,,,,,,,0.8823529411764706,0.6666666666666666,0.058823529411764705,0.9411764705882353,0.0,0.9411764705882353,0.7152044784781301,4,1,0,0,0,16,20,6,17,0,,,,1,,,,,,,,,,,,,,,,,,,,,,,,,,,,,,,,,,,,,,,,,,,,,,119,146857,22,Female,1,2024/03/25_10:26:37,YZ,None,
1,./instructions/inst_prac_main/Slide51.png,right,5.900862527982099,990.1714016100159,996.072264137998,,,,,,,,,,,,,,,,,,,,,,,,,,,,,,,,,1,,,,,,,,,,,,,,,,,,,,,,,,,,,,,,,,,,,,,,,,,,,,,,119,146857,22,Female,1,2024/03/25_10:26:37,YZ,None,
2,./instructions/inst_prac_main/Slide52.png,right,15.739197330985917,996.100909226021,1011.840106557007,,,,,,,,,,,,,,,,,,,,,,,,,,,,,,,,,1,,,,,,,,,,,,,,,,,,,,,,,,,,,,,,,,,,,,,,,,,,,,,,119,146857,22,Female,1,2024/03/25_10:26:37,YZ,None,
3,./instructions/inst_prac_main/Slide53.png,right,5.163050123024732,1011.8690739049925,1017.0321240280173,,,,,,,,,,,,,,,,,,,,,,,,,,,,,,,,,1,,,,,,,,,,,,,,,,,,,,,,,,,,,,,,,,,,,,,,,,,,,,,,119,146857,22,Female,1,2024/03/25_10:26:37,YZ,None,
4,./instructions/inst_prac_main/Slide54.png,right,17.707358915999066,1017.0608687030035,1034.7682276190026,,,,,,,,,,,,,,,,,,,,,,,,,,,,,,,,,1,,,,,,,,,,,,,,,,,,,,,,,,,,,,,,,,,,,,,,,,,,,,,,119,146857,22,Female,1,2024/03/25_10:26:37,YZ,None,
,,,,,,practice_main,0,1,1,120,1,S,0,None,nan,0,1,,,,,,,,,,,,,,,,,,,,,1,,,,,,,,,,,,,,,,,,,,,,,,,,,,,,,,,,,,,,,,,,,,,,119,146857,22,Female,1,2024/03/25_10:26:37,YZ,None,
,,,,,,practice_main,0,1,1,120,2,S,1,right,0.4909617739904206,0,0,,,,,,,,,,,,,,,,,,,,,1,,,,,,,,,,,,,,,,,,,,,,,,,,,,,,,,,,,,,,,,,,,,,,119,146857,22,Female,1,2024/03/25_10:26:37,YZ,None,
,,,,,,practice_main,0,1,1,120,3,J,0,right,0.44348164499388076,1,0,,,,,,,,,,,,,,,,,,,,,1,,,,,,,,,,,,,,,,,,,,,,,,,,,,,,,,,,,,,,,,,,,,,,119,146857,22,Female,1,2024/03/25_10:26:37,YZ,None,
,,,,,,practice_main,0,1,1,120,4,X,0,right,0.6084848179889377,1,0,,,,,,,,,,,,,,,,,,,,,1,,,,,,,,,,,,,,,,,,,,,,,,,,,,,,,,,,,,,,,,,,,,,,119,146857,22,Female,1,2024/03/25_10:26:37,YZ,None,
,,,,,,practice_main,0,1,1,120,5,S,0,right,0.28789113997481763,1,0,,,,,,,,,,,,,,,,,,,,,1,,,,,,,,,,,,,,,,,,,,,,,,,,,,,,,,,,,,,,,,,,,,,,119,146857,22,Female,1,2024/03/25_10:26:37,YZ,None,
,,,,,,practice_main,0,1,1,120,6,J,0,right,0.39797613499104045,1,0,,,,,,,,,,,,,,,,,,,,,1,,,,,,,,,,,,,,,,,,,,,,,,,,,,,,,,,,,,,,,,,,,,,,119,146857,22,Female,1,2024/03/25_10:26:37,YZ,None,
,,,,,,practice_main,0,1,1,120,7,X,0,right,0.40455654700053856,1,0,,,,,,,,,,,,,,,,,,,,,1,,,,,,,,,,,,,,,,,,,,,,,,,,,,,,,,,,,,,,,,,,,,,,119,146857,22,Female,1,2024/03/25_10:26:37,YZ,None,
,,,,,,practice_main,0,1,1,120,8,X,1,right,0.5245714930060785,0,0,,,,,,,,,,,,,,,,,,,,,1,,,,,,,,,,,,,,,,,,,,,,,,,,,,,,,,,,,,,,,,,,,,,,119,146857,22,Female,1,2024/03/25_10:26:37,YZ,None,
,,,,,,practice_main,0,1,1,120,9,Q,0,right,0.4370826490048785,1,0,,,,,,,,,,,,,,,,,,,,,1,,,,,,,,,,,,,,,,,,,,,,,,,,,,,,,,,,,,,,,,,,,,,,119,146857,22,Female,1,2024/03/25_10:26:37,YZ,None,
,,,,,,practice_main,0,1,1,120,10,V,0,right,0.48787266202270985,1,0,,,,,,,,,,,,,,,,,,,,,1,,,,,,,,,,,,,,,,,,,,,,,,,,,,,,,,,,,,,,,,,,,,,,119,146857,22,Female,1,2024/03/25_10:26:37,YZ,None,
,,,,,,practice_main,0,1,1,120,11,V,1,left,0.5121988510072697,1,0,,,,,,,,,,,,,,,,,,,,,1,,,,,,,,,,,,,,,,,,,,,,,,,,,,,,,,,,,,,,,,,,,,,,119,146857,22,Female,1,2024/03/25_10:26:37,YZ,None,
,,,,,,practice_main,0,1,1,120,12,N,0,right,0.42779151699505746,1,0,,,,,,,,,,,,,,,,,,,,,1,,,,,,,,,,,,,,,,,,,,,,,,,,,,,,,,,,,,,,,,,,,,,,119,146857,22,Female,1,2024/03/25_10:26:37,YZ,None,
,,,,,,practice_main,0,1,1,120,13,J,0,right,0.42041057397727855,1,0,,,,,,,,,,,,,,,,,,,,,1,,,,,,,,,,,,,,,,,,,,,,,,,,,,,,,,,,,,,,,,,,,,,,119,146857,22,Female,1,2024/03/25_10:26:37,YZ,None,
,,,,,,practice_main,0,1,1,120,14,X,0,right,0.43986846099141985,1,0,,,,,,,,,,,,,,,,,,,,,1,,,,,,,,,,,,,,,,,,,,,,,,,,,,,,,,,,,,,,,,,,,,,,119,146857,22,Female,1,2024/03/25_10:26:37,YZ,None,
,,,,,,practice_main,0,1,1,120,15,X,1,right,0.4087029440270271,0,0,,,,,,,,,,,,,,,,,,,,,1,,,,,,,,,,,,,,,,,,,,,,,,,,,,,,,,,,,,,,,,,,,,,,119,146857,22,Female,1,2024/03/25_10:26:37,YZ,None,
,,,,,,practice_main,0,1,1,120,16,C,0,right,0.45692906898329966,1,0,,,,,,,,,,,,,,,,,,,,,1,,,,,,,,,,,,,,,,,,,,,,,,,,,,,,,,,,,,,,,,,,,,,,119,146857,22,Female,1,2024/03/25_10:26:37,YZ,None,
,,,,,,practice_main,0,1,1,120,17,C,1,right,0.8092432839912362,0,0,,,,,,,,,,,,,,,,,,,,,1,,,,,,,,,,,,,,,,,,,,,,,,,,,,,,,,,,,,,,,,,,,,,,119,146857,22,Female,1,2024/03/25_10:26:37,YZ,None,
,,,,,,practice_main,0,1,1,120,18,S,0,right,0.4157013540097978,1,0,,,,,,,,,,,,,,,,,,,,,1,,,,,,,,,,,,,,,,,,,,,,,,,,,,,,,,,,,,,,,,,,,,,,119,146857,22,Female,1,2024/03/25_10:26:37,YZ,None,
,,,,,,practice_main,0,1,1,120,19,S,1,right,0.814184924995061,0,0,,,,,,,,,,,,,,,,,,,,,1,,,,,,,,,,,,,,,,,,,,,,,,,,,,,,,,,,,,,,,,,,,,,,119,146857,22,Female,1,2024/03/25_10:26:37,YZ,None,
,,,,,,practice_main,0,1,1,120,20,Q,0,right,0.552836709015537,1,0,,,,,,,,,,,,,,,,,,,,,1,,,,,,,,,,,,,,,,,,,,,,,,,,,,,,,,,,,,,,,,,,,,,,119,146857,22,Female,1,2024/03/25_10:26:37,YZ,None,
,,,,,,practice_main,0,1,1,120,21,X,0,right,0.4273824089905247,1,0,,,,,,,,,,,,,,,,,,,,,1,,,,,,,,,,,,,,,,,,,,,,,,,,,,,,,,,,,,,,,,,,,,,,119,146857,22,Female,1,2024/03/25_10:26:37,YZ,None,
,,,,,,practice_main,0,1,1,120,22,N,0,right,0.369911198009504,1,0,,,,,,,,,,,,,,,,,,,,,1,,,,,,,,,,,,,,,,,,,,,,,,,,,,,,,,,,,,,,,,,,,,,,119,146857,22,Female,1,2024/03/25_10:26:37,YZ,None,
,,,,,,practice_main,0,1,1,120,23,X,0,right,0.6565811470209155,1,0,,,,,,,,,,,,,,,,,,,,,1,,,,,,,,,,,,,,,,,,,,,,,,,,,,,,,,,,,,,,,,,,,,,,119,146857,22,Female,1,2024/03/25_10:26:37,YZ,None,
