Instruction,Stimulus,Key,RT,START,END,Phase,Block,TrialN,NbackLevel,ISI,LetterN,Letter,Letter_isSame,Letter_Resp,Letter_RT,Letter_Accuracy,Letter_Timeout,Trial_A_measure,Trial_HR,Trial_FAR,Trial_CDR,Trial_MSR,Trial_ACC,Trial_RT,Trial_HitsCount,Trial_FAsCount,Trial_SameNoRespCount,Trial_DiffNoRespCount,Trial_NoRespCount,Trial_CDsCount,Trial_CorrectRespCount,Trial_SameLetterCount,Trial_DiffLetterCount,Trial_InvalidLetterCount,TrialCountCali,CaliEnd_A_measure,ISI_calibrated,Run,TrialIndex,TrialNumber_total,TrialNumber_valid,CueLearning,TrialDemandLearning,CueMapping,OnlineRating,OnlineRatingRT,OnlineRatingTimeOut,CueSTART,RatingSTART,OfflineRatingTimePoint,OfflineRatingQuesIndex,CueFigure,TrialDemand,OfflineRating,OfflineRatingRT,CueStart,OfflineRatingStart,PhaseType,CueLeft,CueDemandLeft,CueRight,CueDemandRight,Choice,ChoiceDemand,TaskDemand,ChoiceRT,ChoiceTimeOut,ChoiceSTART,CueCheck,CueDemandCheck,CorrectAnswer,Answer,AnswerDemand,AnswerRT,AnswerACC,AnswerTimeOut,CheckSTART,DemandRatingQuesIndex,QuesTLX,DemandLevel,DemandRating,DemandRatingRT,QuesStart,PID,SONA,Age,Gender,Run,TIME,EXPERIMENTER,frameRate,
1,./instructions/inst_begin/Slide2.png,right,27.066709521008306,0.18718130300112534,27.25389082400943,,,,,,,,,,,,,,,,,,,,,,,,,,,,,,,,,1,,,,,,,,,,,,,,,,,,,,,,,,,,,,,,,,,,,,,,,,,,,,,,114,159562,24,Male,1,2024/03/22_10:16:36,YZ,None,
2,./instructions/inst_begin/Slide3.png,right,11.47523027099669,27.3064031820104,38.78163345300709,,,,,,,,,,,,,,,,,,,,,,,,,,,,,,,,,1,,,,,,,,,,,,,,,,,,,,,,,,,,,,,,,,,,,,,,,,,,,,,,114,159562,24,Male,1,2024/03/22_10:16:36,YZ,None,
1,./instructions/inst_begin/Slide4.png,left,26.297880034995615,38.8119707940059,65.10985082900152,,,,,,,,,,,,,,,,,,,,,,,,,,,,,,,,,1,,,,,,,,,,,,,,,,,,,,,,,,,,,,,,,,,,,,,,,,,,,,,,114,159562,24,Male,1,2024/03/22_10:16:36,YZ,None,
2,./instructions/inst_begin/Slide3.png,right,20.276119437010493,65.13747711500037,85.41359655201086,,,,,,,,,,,,,,,,,,,,,,,,,,,,,,,,,1,,,,,,,,,,,,,,,,,,,,,,,,,,,,,,,,,,,,,,,,,,,,,,114,159562,24,Male,1,2024/03/22_10:16:36,YZ,None,
3,./instructions/inst_begin/Slide4.png,right,7.386433464998845,85.44324484400568,92.82967830900452,,,,,,,,,,,,,,,,,,,,,,,,,,,,,,,,,1,,,,,,,,,,,,,,,,,,,,,,,,,,,,,,,,,,,,,,,,,,,,,,114,159562,24,Male,1,2024/03/22_10:16:36,YZ,None,
1,./instructions/inst_prac_2/Slide6.png,right,24.00269180300529,92.87486074199842,116.87755254500371,,,,,,,,,,,,,,,,,,,,,,,,,,,,,,,,,1,,,,,,,,,,,,,,,,,,,,,,,,,,,,,,,,,,,,,,,,,,,,,,114,159562,24,Male,1,2024/03/22_10:16:36,YZ,None,
2,./instructions/inst_prac_2/Slide7.png,right,25.5294302500115,116.90820309300034,142.43763334301184,,,,,,,,,,,,,,,,,,,,,,,,,,,,,,,,,1,,,,,,,,,,,,,,,,,,,,,,,,,,,,,,,,,,,,,,,,,,,,,,114,159562,24,Male,1,2024/03/22_10:16:36,YZ,None,
3,./instructions/inst_prac_2/Slide8.png,right,26.233453206994454,142.46806208101043,168.70151528800488,,,,,,,,,,,,,,,,,,,,,,,,,,,,,,,,,1,,,,,,,,,,,,,,,,,,,,,,,,,,,,,,,,,,,,,,,,,,,,,,114,159562,24,Male,1,2024/03/22_10:16:36,YZ,None,
4,./instructions/inst_prac_2/Slide9.png,right,4.827643312004511,168.7299116810027,173.55755499300722,,,,,,,,,,,,,,,,,,,,,,,,,,,,,,,,,1,,,,,,,,,,,,,,,,,,,,,,,,,,,,,,,,,,,,,,,,,,,,,,114,159562,24,Male,1,2024/03/22_10:16:36,YZ,None,
5,./instructions/inst_prac_2/Slide10.png,right,6.087921626996831,173.59767321200343,179.68559483900026,,,,,,,,,,,,,,,,,,,,,,,,,,,,,,,,,1,,,,,,,,,,,,,,,,,,,,,,,,,,,,,,,,,,,,,,,,,,,,,,114,159562,24,Male,1,2024/03/22_10:16:36,YZ,None,
6,./instructions/inst_prac_2/Slide11.png,right,0.2004256279906258,179.73185098000977,179.9322766080004,,,,,,,,,,,,,,,,,,,,,,,,,,,,,,,,,1,,,,,,,,,,,,,,,,,,,,,,,,,,,,,,,,,,,,,,,,,,,,,,114,159562,24,Male,1,2024/03/22_10:16:36,YZ,None,
7,./instructions/inst_prac_2/Slide12.png,right,5.2336550439940766,179.9558315680042,185.1894866119983,,,,,,,,,,,,,,,,,,,,,,,,,,,,,,,,,1,,,,,,,,,,,,,,,,,,,,,,,,,,,,,,,,,,,,,,,,,,,,,,114,159562,24,Male,1,2024/03/22_10:16:36,YZ,None,
8,./instructions/inst_prac_2/Slide13.png,right,4.386152539998875,185.21944099100074,189.6055935309996,,,,,,,,,,,,,,,,,,,,,,,,,,,,,,,,,1,,,,,,,,,,,,,,,,,,,,,,,,,,,,,,,,,,,,,,,,,,,,,,114,159562,24,Male,1,2024/03/22_10:16:36,YZ,None,
9,./instructions/inst_prac_2/Slide14.png,right,19.097583007998765,189.63611900800606,208.73370201600483,,,,,,,,,,,,,,,,,,,,,,,,,,,,,,,,,1,,,,,,,,,,,,,,,,,,,,,,,,,,,,,,,,,,,,,,,,,,,,,,114,159562,24,Male,1,2024/03/22_10:16:36,YZ,None,
10,./instructions/inst_prac_2/Slide15.png,right,6.572809853008948,208.76072792999912,215.33353778300807,,,,,,,,,,,,,,,,,,,,,,,,,,,,,,,,,1,,,,,,,,,,,,,,,,,,,,,,,,,,,,,,,,,,,,,,,,,,,,,,114,159562,24,Male,1,2024/03/22_10:16:36,YZ,None,
,,,,,,practice,0,16,2,2583,1,S,0,right,5.961798606993398,1,0,,,,,,,,,,,,,,,,,,,,,1,,,,,,,,,,,,,,,,,,,,,,,,,,,,,,,,,,,,,,,,,,,,,,114,159562,24,Male,1,2024/03/22_10:16:36,YZ,None,
,,,,,,practice,0,16,2,2583,2,Q,0,right,2.1536717140115798,1,0,,,,,,,,,,,,,,,,,,,,,1,,,,,,,,,,,,,,,,,,,,,,,,,,,,,,,,,,,,,,,,,,,,,,114,159562,24,Male,1,2024/03/22_10:16:36,YZ,None,
,,,,,,practice,0,16,2,2583,3,X,0,right,2.1188415540091228,1,0,,,,,,,,,,,,,,,,,,,,,1,,,,,,,,,,,,,,,,,,,,,,,,,,,,,,,,,,,,,,,,,,,,,,114,159562,24,Male,1,2024/03/22_10:16:36,YZ,None,
,,,,,,practice,0,16,2,2583,4,Q,1,left,1.0012452939990908,1,0,,,,,,,,,,,,,,,,,,,,,1,,,,,,,,,,,,,,,,,,,,,,,,,,,,,,,,,,,,,,,,,,,,,,114,159562,24,Male,1,2024/03/22_10:16:36,YZ,None,
,,,,,,practice,0,16,2,2583,5,V,0,right,0.8718149650085252,1,0,,,,,,,,,,,,,,,,,,,,,1,,,,,,,,,,,,,,,,,,,,,,,,,,,,,,,,,,,,,,,,,,,,,,114,159562,24,Male,1,2024/03/22_10:16:36,YZ,None,
,,,,,,practice,0,16,2,2583,6,Q,1,left,1.6925906969991047,1,0,,,,,,,,,,,,,,,,,,,,,1,,,,,,,,,,,,,,,,,,,,,,,,,,,,,,,,,,,,,,,,,,,,,,114,159562,24,Male,1,2024/03/22_10:16:36,YZ,None,
,,,,,,practice,0,16,2,2583,,,,,,,,1.0,1.0,0.0,1.0,0.0,1.0,2.299993805170137,2,0,0,0,0,4,6,2,4,0,,,,1,,,,,,,,,,,,,,,,,,,,,,,,,,,,,,,,,,,,,,,,,,,,,,114,159562,24,Male,1,2024/03/22_10:16:36,YZ,None,
1,./instructions/inst_to_cali/Slide20.png,right,5.010452583010192,235.47505318099866,240.48550576400885,,,,,,,,,,,,,,,,,,,,,,,,,,,,,,,,,1,,,,,,,,,,,,,,,,,,,,,,,,,,,,,,,,,,,,,,,,,,,,,,114,159562,24,Male,1,2024/03/22_10:16:36,YZ,None,
1,./instructions/inst_cali/Slide22.png,right,16.463854638990597,240.53389866401267,256.99775330300326,,,,,,,,,,,,,,,,,,,,,,,,,,,,,,,,,1,,,,,,,,,,,,,,,,,,,,,,,,,,,,,,,,,,,,,,,,,,,,,,114,159562,24,Male,1,2024/03/22_10:16:36,YZ,None,
,,,,,,calibration,0,11,2,583,1,S,0,None,nan,0,1,,,,,,,,,,,,,,,,,,,,,1,,,,,,,,,,,,,,,,,,,,,,,,,,,,,,,,,,,,,,,,,,,,,,114,159562,24,Male,1,2024/03/22_10:16:36,YZ,None,
,,,,,,calibration,0,11,2,583,2,C,0,right,1.2849194349983009,1,0,,,,,,,,,,,,,,,,,,,,,1,,,,,,,,,,,,,,,,,,,,,,,,,,,,,,,,,,,,,,,,,,,,,,114,159562,24,Male,1,2024/03/22_10:16:36,YZ,None,
,,,,,,calibration,0,11,2,583,3,N,0,right,0.9714077420067042,1,0,,,,,,,,,,,,,,,,,,,,,1,,,,,,,,,,,,,,,,,,,,,,,,,,,,,,,,,,,,,,,,,,,,,,114,159562,24,Male,1,2024/03/22_10:16:36,YZ,None,
,,,,,,calibration,0,11,2,583,4,S,0,left,0.5244732209976064,0,0,,,,,,,,,,,,,,,,,,,,,1,,,,,,,,,,,,,,,,,,,,,,,,,,,,,,,,,,,,,,,,,,,,,,114,159562,24,Male,1,2024/03/22_10:16:36,YZ,None,
,,,,,,calibration,0,11,2,583,5,N,1,left,nan,0,1,,,,,,,,,,,,,,,,,,,,,1,,,,,,,,,,,,,,,,,,,,,,,,,,,,,,,,,,,,,,,,,,,,,,114,159562,24,Male,1,2024/03/22_10:16:36,YZ,None,
,,,,,,calibration,0,11,2,583,6,C,0,left,nan,0,1,,,,,,,,,,,,,,,,,,,,,1,,,,,,,,,,,,,,,,,,,,,,,,,,,,,,,,,,,,,,,,,,,,,,114,159562,24,Male,1,2024/03/22_10:16:36,YZ,None,
,,,,,,calibration,0,11,2,583,7,S,0,right,0.1773128709901357,1,0,,,,,,,,,,,,,,,,,,,,,1,,,,,,,,,,,,,,,,,,,,,,,,,,,,,,,,,,,,,,,,,,,,,,114,159562,24,Male,1,2024/03/22_10:16:36,YZ,None,
,,,,,,calibration,0,11,2,583,8,Q,0,left,0.02075263499864377,0,0,,,,,,,,,,,,,,,,,,,,,1,,,,,,,,,,,,,,,,,,,,,,,,,,,,,,,,,,,,,,,,,,,,,,114,159562,24,Male,1,2024/03/22_10:16:36,YZ,None,
,,,,,,calibration,0,11,2,583,9,X,0,right,0.89230022499396,1,0,,,,,,,,,,,,,,,,,,,,,1,,,,,,,,,,,,,,,,,,,,,,,,,,,,,,,,,,,,,,,,,,,,,,114,159562,24,Male,1,2024/03/22_10:16:36,YZ,None,
,,,,,,calibration,0,11,2,583,10,J,0,right,0.8618246319965692,1,0,,,,,,,,,,,,,,,,,,,,,1,,,,,,,,,,,,,,,,,,,,,,,,,,,,,,,,,,,,,,,,,,,,,,114,159562,24,Male,1,2024/03/22_10:16:36,YZ,None,
,,,,,,calibration,0,11,2,583,11,X,1,right,0.6747519599884981,0,0,,,,,,,,,,,,,,,,,,,,,1,,,,,,,,,,,,,,,,,,,,,,,,,,,,,,,,,,,,,,,,,,,,,,114,159562,24,Male,1,2024/03/22_10:16:36,YZ,None,
,,,,,,calibration,0,11,2,583,12,Q,0,right,1.4197421799908625,1,0,,,,,,,,,,,,,,,,,,,,,1,,,,,,,,,,,,,,,,,,,,,,,,,,,,,,,,,,,,,,,,,,,,,,114,159562,24,Male,1,2024/03/22_10:16:36,YZ,None,
,,,,,,calibration,0,11,2,583,13,X,1,left,0.5120554669992998,1,0,,,,,,,,,,,,,,,,,,,,,1,,,,,,,,,,,,,,,,,,,,,,,,,,,,,,,,,,,,,,,,,,,,,,114,159562,24,Male,1,2024/03/22_10:16:36,YZ,None,
,,,,,,calibration,0,11,2,583,14,Q,1,left,0.9766043209965574,1,0,,,,,,,,,,,,,,,,,,,,,1,,,,,,,,,,,,,,,,,,,,,,,,,,,,,,,,,,,,,,,,,,,,,,114,159562,24,Male,1,2024/03/22_10:16:36,YZ,None,
,,,,,,calibration,0,11,2,583,15,F,0,left,nan,0,1,,,,,,,,,,,,,,,,,,,,,1,,,,,,,,,,,,,,,,,,,,,,,,,,,,,,,,,,,,,,,,,,,,,,114,159562,24,Male,1,2024/03/22_10:16:36,YZ,None,
,,,,,,calibration,0,11,2,583,,,,,,,,0.7386363636363636,0.5,0.18181818181818182,0.75,0.26666666666666666,0.5515151515151515,0.756013153541558,2,2,1,3,4,6,8,4,11,0,,,,1,,,,,,,,,,,,,,,,,,,,,,,,,,,,,,,,,,,,,,,,,,,,,,114,159562,24,Male,1,2024/03/22_10:16:36,YZ,None,
,,,,,,Calibration,0,,2,583,,,,,,,,,,,,,,,,,,,,,,,,,1,,,1,,,,,,,,,,,,,,,,,,,,,,,,,,,,,,,,,,,,,,,,,,,,,,114,159562,24,Male,1,2024/03/22_10:16:36,YZ,None,
,,,,,,calibration,0,5,2,679,1,N,0,None,nan,0,1,,,,,,,,,,,,,,,,,,,,,1,,,,,,,,,,,,,,,,,,,,,,,,,,,,,,,,,,,,,,,,,,,,,,114,159562,24,Male,1,2024/03/22_10:16:36,YZ,None,
,,,,,,calibration,0,5,2,679,2,Q,0,right,0.929346926001017,1,0,,,,,,,,,,,,,,,,,,,,,1,,,,,,,,,,,,,,,,,,,,,,,,,,,,,,,,,,,,,,,,,,,,,,114,159562,24,Male,1,2024/03/22_10:16:36,YZ,None,
,,,,,,calibration,0,5,2,679,3,X,0,right,0.6751863190002041,1,0,,,,,,,,,,,,,,,,,,,,,1,,,,,,,,,,,,,,,,,,,,,,,,,,,,,,,,,,,,,,,,,,,,,,114,159562,24,Male,1,2024/03/22_10:16:36,YZ,None,
,,,,,,calibration,0,5,2,679,4,Q,1,left,0.702789428003598,1,0,,,,,,,,,,,,,,,,,,,,,1,,,,,,,,,,,,,,,,,,,,,,,,,,,,,,,,,,,,,,,,,,,,,,114,159562,24,Male,1,2024/03/22_10:16:36,YZ,None,
,,,,,,calibration,0,5,2,679,5,J,0,right,0.6938766870007385,1,0,,,,,,,,,,,,,,,,,,,,,1,,,,,,,,,,,,,,,,,,,,,,,,,,,,,,,,,,,,,,,,,,,,,,114,159562,24,Male,1,2024/03/22_10:16:36,YZ,None,
,,,,,,calibration,0,5,2,679,6,Q,1,left,0.7254460120020667,1,0,,,,,,,,,,,,,,,,,,,,,1,,,,,,,,,,,,,,,,,,,,,,,,,,,,,,,,,,,,,,,,,,,,,,114,159562,24,Male,1,2024/03/22_10:16:36,YZ,None,
,,,,,,calibration,0,5,2,679,7,J,1,right,0.54127252100443,0,0,,,,,,,,,,,,,,,,,,,,,1,,,,,,,,,,,,,,,,,,,,,,,,,,,,,,,,,,,,,,,,,,,,,,114,159562,24,Male,1,2024/03/22_10:16:36,YZ,None,
,,,,,,calibration,0,5,2,679,8,C,0,right,0.8082771109911846,1,0,,,,,,,,,,,,,,,,,,,,,1,,,,,,,,,,,,,,,,,,,,,,,,,,,,,,,,,,,,,,,,,,,,,,114,159562,24,Male,1,2024/03/22_10:16:36,YZ,None,
,,,,,,calibration,0,5,2,679,9,J,1,left,0.5448418299929472,1,0,,,,,,,,,,,,,,,,,,,,,1,,,,,,,,,,,,,,,,,,,,,,,,,,,,,,,,,,,,,,,,,,,,,,114,159562,24,Male,1,2024/03/22_10:16:36,YZ,None,
,,,,,,calibration,0,5,2,679,10,V,0,right,0.4598861890117405,1,0,,,,,,,,,,,,,,,,,,,,,1,,,,,,,,,,,,,,,,,,,,,,,,,,,,,,,,,,,,,,,,,,,,,,114,159562,24,Male,1,2024/03/22_10:16:36,YZ,None,
,,,,,,calibration,0,5,2,679,11,C,0,right,0.9323806269967463,1,0,,,,,,,,,,,,,,,,,,,,,1,,,,,,,,,,,,,,,,,,,,,,,,,,,,,,,,,,,,,,,,,,,,,,114,159562,24,Male,1,2024/03/22_10:16:36,YZ,None,
,,,,,,calibration,0,5,2,679,12,S,0,left,0.5123365110048326,0,0,,,,,,,,,,,,,,,,,,,,,1,,,,,,,,,,,,,,,,,,,,,,,,,,,,,,,,,,,,,,,,,,,,,,114,159562,24,Male,1,2024/03/22_10:16:36,YZ,None,
,,,,,,calibration,0,5,2,679,13,X,0,right,0.3973026409948943,1,0,,,,,,,,,,,,,,,,,,,,,1,,,,,,,,,,,,,,,,,,,,,,,,,,,,,,,,,,,,,,,,,,,,,,114,159562,24,Male,1,2024/03/22_10:16:36,YZ,None,
,,,,,,calibration,0,5,2,679,14,J,0,left,0.5593514799984405,0,0,,,,,,,,,,,,,,,,,,,,,1,,,,,,,,,,,,,,,,,,,,,,,,,,,,,,,,,,,,,,,,,,,,,,114,159562,24,Male,1,2024/03/22_10:16:36,YZ,None,
,,,,,,calibration,0,5,2,679,,,,,,,,0.8374999999999999,0.75,0.2,0.7777777777777778,0.07142857142857142,0.7285714285714286,0.65248417553868,3,2,0,1,1,7,10,4,10,0,,,,1,,,,,,,,,,,,,,,,,,,,,,,,,,,,,,,,,,,,,,,,,,,,,,114,159562,24,Male,1,2024/03/22_10:16:36,YZ,None,
,,,,,,Calibration,0,,2,679,,,,,,,,,,,,,,,,,,,,,,,,,2,,,1,,,,,,,,,,,,,,,,,,,,,,,,,,,,,,,,,,,,,,,,,,,,,,114,159562,24,Male,1,2024/03/22_10:16:36,YZ,None,
,,,,,,calibration,0,9,2,679,1,X,0,right,1.1300629750039661,1,0,,,,,,,,,,,,,,,,,,,,,1,,,,,,,,,,,,,,,,,,,,,,,,,,,,,,,,,,,,,,,,,,,,,,114,159562,24,Male,1,2024/03/22_10:16:36,YZ,None,
,,,,,,calibration,0,9,2,679,2,J,0,left,0.7202358039940009,0,0,,,,,,,,,,,,,,,,,,,,,1,,,,,,,,,,,,,,,,,,,,,,,,,,,,,,,,,,,,,,,,,,,,,,114,159562,24,Male,1,2024/03/22_10:16:36,YZ,None,
,,,,,,calibration,0,9,2,679,3,X,1,right,0.729589290000149,0,0,,,,,,,,,,,,,,,,,,,,,1,,,,,,,,,,,,,,,,,,,,,,,,,,,,,,,,,,,,,,,,,,,,,,114,159562,24,Male,1,2024/03/22_10:16:36,YZ,None,
,,,,,,calibration,0,9,2,679,4,F,0,right,0.5238942040014081,1,0,,,,,,,,,,,,,,,,,,,,,1,,,,,,,,,,,,,,,,,,,,,,,,,,,,,,,,,,,,,,,,,,,,,,114,159562,24,Male,1,2024/03/22_10:16:36,YZ,None,
,,,,,,calibration,0,9,2,679,5,X,1,left,0.468816609994974,1,0,,,,,,,,,,,,,,,,,,,,,1,,,,,,,,,,,,,,,,,,,,,,,,,,,,,,,,,,,,,,,,,,,,,,114,159562,24,Male,1,2024/03/22_10:16:36,YZ,None,
,,,,,,calibration,0,9,2,679,6,F,1,right,0.5122435380035313,0,0,,,,,,,,,,,,,,,,,,,,,1,,,,,,,,,,,,,,,,,,,,,,,,,,,,,,,,,,,,,,,,,,,,,,114,159562,24,Male,1,2024/03/22_10:16:36,YZ,None,
,,,,,,calibration,0,9,2,679,7,Q,0,right,1.349657646002015,1,0,,,,,,,,,,,,,,,,,,,,,1,,,,,,,,,,,,,,,,,,,,,,,,,,,,,,,,,,,,,,,,,,,,,,114,159562,24,Male,1,2024/03/22_10:16:36,YZ,None,
,,,,,,calibration,0,9,2,679,8,S,0,right,0.5914274639944779,1,0,,,,,,,,,,,,,,,,,,,,,1,,,,,,,,,,,,,,,,,,,,,,,,,,,,,,,,,,,,,,,,,,,,,,114,159562,24,Male,1,2024/03/22_10:16:36,YZ,None,
,,,,,,calibration,0,9,2,679,9,F,0,right,0.5753625559882494,1,0,,,,,,,,,,,,,,,,,,,,,1,,,,,,,,,,,,,,,,,,,,,,,,,,,,,,,,,,,,,,,,,,,,,,114,159562,24,Male,1,2024/03/22_10:16:36,YZ,None,
,,,,,,calibration,0,9,2,679,10,S,1,right,0.6572058750025462,0,0,,,,,,,,,,,,,,,,,,,,,1,,,,,,,,,,,,,,,,,,,,,,,,,,,,,,,,,,,,,,,,,,,,,,114,159562,24,Male,1,2024/03/22_10:16:36,YZ,None,
,,,,,,calibration,0,9,2,679,11,N,0,left,0.9245172800001455,0,0,,,,,,,,,,,,,,,,,,,,,1,,,,,,,,,,,,,,,,,,,,,,,,,,,,,,,,,,,,,,,,,,,,,,114,159562,24,Male,1,2024/03/22_10:16:36,YZ,None,
,,,,,,calibration,0,9,2,679,12,C,0,right,0.32231374899856746,1,0,,,,,,,,,,,,,,,,,,,,,1,,,,,,,,,,,,,,,,,,,,,,,,,,,,,,,,,,,,,,,,,,,,,,114,159562,24,Male,1,2024/03/22_10:16:36,YZ,None,
,,,,,,calibration,0,9,2,679,13,S,0,right,0.7067162339953938,1,0,,,,,,,,,,,,,,,,,,,,,1,,,,,,,,,,,,,,,,,,,,,,,,,,,,,,,,,,,,,,,,,,,,,,114,159562,24,Male,1,2024/03/22_10:16:36,YZ,None,
,,,,,,calibration,0,9,2,679,14,X,0,right,0.5198953399958555,1,0,,,,,,,,,,,,,,,,,,,,,1,,,,,,,,,,,,,,,,,,,,,,,,,,,,,,,,,,,,,,,,,,,,,,114,159562,24,Male,1,2024/03/22_10:16:36,YZ,None,
,,,,,,calibration,0,9,2,679,,,,,,,,0.5625,0.25,0.2,0.8,0.0,0.8,0.6951384689268058,1,2,0,0,0,8,9,4,10,0,,,,1,,,,,,,,,,,,,,,,,,,,,,,,,,,,,,,,,,,,,,,,,,,,,,114,159562,24,Male,1,2024/03/22_10:16:36,YZ,None,
,,,,,,Calibration,0,,2,679,,,,,,,,,,,,,,,,,,,,,,,,,3,,,1,,,,,,,,,,,,,,,,,,,,,,,,,,,,,,,,,,,,,,,,,,,,,,114,159562,24,Male,1,2024/03/22_10:16:36,YZ,None,
,,,,,,calibration,0,30,2,788,1,Q,0,right,1.163519184992765,1,0,,,,,,,,,,,,,,,,,,,,,1,,,,,,,,,,,,,,,,,,,,,,,,,,,,,,,,,,,,,,,,,,,,,,114,159562,24,Male,1,2024/03/22_10:16:36,YZ,None,
,,,,,,calibration,0,30,2,788,2,S,0,right,0.5955436420044862,1,0,,,,,,,,,,,,,,,,,,,,,1,,,,,,,,,,,,,,,,,,,,,,,,,,,,,,,,,,,,,,,,,,,,,,114,159562,24,Male,1,2024/03/22_10:16:36,YZ,None,
,,,,,,calibration,0,30,2,788,3,F,0,right,0.6798082579916809,1,0,,,,,,,,,,,,,,,,,,,,,1,,,,,,,,,,,,,,,,,,,,,,,,,,,,,,,,,,,,,,,,,,,,,,114,159562,24,Male,1,2024/03/22_10:16:36,YZ,None,
,,,,,,calibration,0,30,2,788,4,S,1,left,0.36584021999442484,1,0,,,,,,,,,,,,,,,,,,,,,1,,,,,,,,,,,,,,,,,,,,,,,,,,,,,,,,,,,,,,,,,,,,,,114,159562,24,Male,1,2024/03/22_10:16:36,YZ,None,
,,,,,,calibration,0,30,2,788,5,J,0,right,0.8646600609936286,1,0,,,,,,,,,,,,,,,,,,,,,1,,,,,,,,,,,,,,,,,,,,,,,,,,,,,,,,,,,,,,,,,,,,,,114,159562,24,Male,1,2024/03/22_10:16:36,YZ,None,
,,,,,,calibration,0,30,2,788,6,S,1,left,0.5255772700038506,1,0,,,,,,,,,,,,,,,,,,,,,1,,,,,,,,,,,,,,,,,,,,,,,,,,,,,,,,,,,,,,,,,,,,,,114,159562,24,Male,1,2024/03/22_10:16:36,YZ,None,
,,,,,,calibration,0,30,2,788,7,V,0,right,0.41347454900096636,1,0,,,,,,,,,,,,,,,,,,,,,1,,,,,,,,,,,,,,,,,,,,,,,,,,,,,,,,,,,,,,,,,,,,,,114,159562,24,Male,1,2024/03/22_10:16:36,YZ,None,
,,,,,,calibration,0,30,2,788,8,S,1,left,0.5124278250004863,1,0,,,,,,,,,,,,,,,,,,,,,1,,,,,,,,,,,,,,,,,,,,,,,,,,,,,,,,,,,,,,,,,,,,,,114,159562,24,Male,1,2024/03/22_10:16:36,YZ,None,
,,,,,,calibration,0,30,2,788,9,J,0,right,0.6251036339963321,1,0,,,,,,,,,,,,,,,,,,,,,1,,,,,,,,,,,,,,,,,,,,,,,,,,,,,,,,,,,,,,,,,,,,,,114,159562,24,Male,1,2024/03/22_10:16:36,YZ,None,
,,,,,,calibration,0,30,2,788,10,F,0,right,0.4009288709930843,1,0,,,,,,,,,,,,,,,,,,,,,1,,,,,,,,,,,,,,,,,,,,,,,,,,,,,,,,,,,,,,,,,,,,,,114,159562,24,Male,1,2024/03/22_10:16:36,YZ,None,
,,,,,,calibration,0,30,2,788,11,J,1,left,0.5823686619987711,1,0,,,,,,,,,,,,,,,,,,,,,1,,,,,,,,,,,,,,,,,,,,,,,,,,,,,,,,,,,,,,,,,,,,,,114,159562,24,Male,1,2024/03/22_10:16:36,YZ,None,
,,,,,,calibration,0,30,2,788,12,Q,0,right,0.4343685179919703,1,0,,,,,,,,,,,,,,,,,,,,,1,,,,,,,,,,,,,,,,,,,,,,,,,,,,,,,,,,,,,,,,,,,,,,114,159562,24,Male,1,2024/03/22_10:16:36,YZ,None,
,,,,,,calibration,0,30,2,788,13,F,0,right,0.4956362040102249,1,0,,,,,,,,,,,,,,,,,,,,,1,,,,,,,,,,,,,,,,,,,,,,,,,,,,,,,,,,,,,,,,,,,,,,114,159562,24,Male,1,2024/03/22_10:16:36,YZ,None,
,,,,,,calibration,0,30,2,788,,,,,,,,1.0,1.0,0.0,1.0,0.0,1.0,0.5891736076132824,4,0,0,0,0,9,13,4,9,0,,,,1,,,,,,,,,,,,,,,,,,,,,,,,,,,,,,,,,,,,,,,,,,,,,,114,159562,24,Male,1,2024/03/22_10:16:36,YZ,None,
,,,,,,Calibration,0,,2,788,,,,,,,,,,,,,,,,,,,,,,,,,4,,,1,,,,,,,,,,,,,,,,,,,,,,,,,,,,,,,,,,,,,,,,,,,,,,114,159562,24,Male,1,2024/03/22_10:16:36,YZ,None,
,,,,,,calibration,0,9,2,679,1,X,0,right,0.9808014800073579,1,0,,,,,,,,,,,,,,,,,,,,,1,,,,,,,,,,,,,,,,,,,,,,,,,,,,,,,,,,,,,,,,,,,,,,114,159562,24,Male,1,2024/03/22_10:16:36,YZ,None,
,,,,,,calibration,0,9,2,679,2,J,0,right,0.4769409869913943,1,0,,,,,,,,,,,,,,,,,,,,,1,,,,,,,,,,,,,,,,,,,,,,,,,,,,,,,,,,,,,,,,,,,,,,114,159562,24,Male,1,2024/03/22_10:16:36,YZ,None,
,,,,,,calibration,0,9,2,679,3,X,1,right,0.7818669659900479,0,0,,,,,,,,,,,,,,,,,,,,,1,,,,,,,,,,,,,,,,,,,,,,,,,,,,,,,,,,,,,,,,,,,,,,114,159562,24,Male,1,2024/03/22_10:16:36,YZ,None,
,,,,,,calibration,0,9,2,679,4,F,0,right,0.5803994500020053,1,0,,,,,,,,,,,,,,,,,,,,,1,,,,,,,,,,,,,,,,,,,,,,,,,,,,,,,,,,,,,,,,,,,,,,114,159562,24,Male,1,2024/03/22_10:16:36,YZ,None,
,,,,,,calibration,0,9,2,679,5,X,1,right,0.5240604430000531,0,0,,,,,,,,,,,,,,,,,,,,,1,,,,,,,,,,,,,,,,,,,,,,,,,,,,,,,,,,,,,,,,,,,,,,114,159562,24,Male,1,2024/03/22_10:16:36,YZ,None,
,,,,,,calibration,0,9,2,679,6,F,1,left,0.4538717659888789,1,0,,,,,,,,,,,,,,,,,,,,,1,,,,,,,,,,,,,,,,,,,,,,,,,,,,,,,,,,,,,,,,,,,,,,114,159562,24,Male,1,2024/03/22_10:16:36,YZ,None,
,,,,,,calibration,0,9,2,679,7,Q,0,right,0.271967669003061,1,0,,,,,,,,,,,,,,,,,,,,,1,,,,,,,,,,,,,,,,,,,,,,,,,,,,,,,,,,,,,,,,,,,,,,114,159562,24,Male,1,2024/03/22_10:16:36,YZ,None,
,,,,,,calibration,0,9,2,679,8,S,0,right,0.39151252499141265,1,0,,,,,,,,,,,,,,,,,,,,,1,,,,,,,,,,,,,,,,,,,,,,,,,,,,,,,,,,,,,,,,,,,,,,114,159562,24,Male,1,2024/03/22_10:16:36,YZ,None,
,,,,,,calibration,0,9,2,679,9,F,0,right,0.48100669898849446,1,0,,,,,,,,,,,,,,,,,,,,,1,,,,,,,,,,,,,,,,,,,,,,,,,,,,,,,,,,,,,,,,,,,,,,114,159562,24,Male,1,2024/03/22_10:16:36,YZ,None,
,,,,,,calibration,0,9,2,679,10,S,1,left,0.465653591993032,1,0,,,,,,,,,,,,,,,,,,,,,1,,,,,,,,,,,,,,,,,,,,,,,,,,,,,,,,,,,,,,,,,,,,,,114,159562,24,Male,1,2024/03/22_10:16:36,YZ,None,
,,,,,,calibration,0,9,2,679,11,N,0,right,0.9935866380110383,1,0,,,,,,,,,,,,,,,,,,,,,1,,,,,,,,,,,,,,,,,,,,,,,,,,,,,,,,,,,,,,,,,,,,,,114,159562,24,Male,1,2024/03/22_10:16:36,YZ,None,
,,,,,,calibration,0,9,2,679,12,C,0,right,0.5584367310075322,1,0,,,,,,,,,,,,,,,,,,,,,1,,,,,,,,,,,,,,,,,,,,,,,,,,,,,,,,,,,,,,,,,,,,,,114,159562,24,Male,1,2024/03/22_10:16:36,YZ,None,
,,,,,,calibration,0,9,2,679,13,S,0,left,0.5122724310058402,0,0,,,,,,,,,,,,,,,,,,,,,1,,,,,,,,,,,,,,,,,,,,,,,,,,,,,,,,,,,,,,,,,,,,,,114,159562,24,Male,1,2024/03/22_10:16:36,YZ,None,
,,,,,,calibration,0,9,2,679,14,X,0,right,0.49793948099249974,1,0,,,,,,,,,,,,,,,,,,,,,1,,,,,,,,,,,,,,,,,,,,,,,,,,,,,,,,,,,,,,,,,,,,,,114,159562,24,Male,1,2024/03/22_10:16:36,YZ,None,
,,,,,,calibration,0,9,2,679,,,,,,,,0.7999999999999999,0.5,0.1,0.9,0.0,0.9,0.5693083469980463,2,1,0,0,0,9,11,4,10,0,,,,1,,,,,,,,,,,,,,,,,,,,,,,,,,,,,,,,,,,,,,,,,,,,,,114,159562,24,Male,1,2024/03/22_10:16:36,YZ,None,
,,,,,,Calibration,0,,2,679,,,,,,,,,,,,,,,,,,,,,,,,,5,,,1,,,,,,,,,,,,,,,,,,,,,,,,,,,,,,,,,,,,,,,,,,,,,,114,159562,24,Male,1,2024/03/22_10:16:36,YZ,None,
,,,,,,calibration,0,12,2,679,1,V,0,right,1.2824539639987051,1,0,,,,,,,,,,,,,,,,,,,,,1,,,,,,,,,,,,,,,,,,,,,,,,,,,,,,,,,,,,,,,,,,,,,,114,159562,24,Male,1,2024/03/22_10:16:36,YZ,None,
,,,,,,calibration,0,12,2,679,2,N,0,right,0.6807218850008212,1,0,,,,,,,,,,,,,,,,,,,,,1,,,,,,,,,,,,,,,,,,,,,,,,,,,,,,,,,,,,,,,,,,,,,,114,159562,24,Male,1,2024/03/22_10:16:36,YZ,None,
,,,,,,calibration,0,12,2,679,3,V,1,left,0.41417279599409085,1,0,,,,,,,,,,,,,,,,,,,,,1,,,,,,,,,,,,,,,,,,,,,,,,,,,,,,,,,,,,,,,,,,,,,,114,159562,24,Male,1,2024/03/22_10:16:36,YZ,None,
,,,,,,calibration,0,12,2,679,4,Q,0,right,0.619365694001317,1,0,,,,,,,,,,,,,,,,,,,,,1,,,,,,,,,,,,,,,,,,,,,,,,,,,,,,,,,,,,,,,,,,,,,,114,159562,24,Male,1,2024/03/22_10:16:36,YZ,None,
,,,,,,calibration,0,12,2,679,5,F,0,right,0.5186868150049122,1,0,,,,,,,,,,,,,,,,,,,,,1,,,,,,,,,,,,,,,,,,,,,,,,,,,,,,,,,,,,,,,,,,,,,,114,159562,24,Male,1,2024/03/22_10:16:36,YZ,None,
,,,,,,calibration,0,12,2,679,6,Q,1,right,0.4360958039906109,0,0,,,,,,,,,,,,,,,,,,,,,1,,,,,,,,,,,,,,,,,,,,,,,,,,,,,,,,,,,,,,,,,,,,,,114,159562,24,Male,1,2024/03/22_10:16:36,YZ,None,
,,,,,,calibration,0,12,2,679,7,N,0,left,0.5982680110028014,0,0,,,,,,,,,,,,,,,,,,,,,1,,,,,,,,,,,,,,,,,,,,,,,,,,,,,,,,,,,,,,,,,,,,,,114,159562,24,Male,1,2024/03/22_10:16:36,YZ,None,
,,,,,,calibration,0,12,2,679,8,S,0,right,0.39269556899671443,1,0,,,,,,,,,,,,,,,,,,,,,1,,,,,,,,,,,,,,,,,,,,,,,,,,,,,,,,,,,,,,,,,,,,,,114,159562,24,Male,1,2024/03/22_10:16:36,YZ,None,
,,,,,,calibration,0,12,2,679,9,Q,0,left,0.6332530080107972,0,0,,,,,,,,,,,,,,,,,,,,,1,,,,,,,,,,,,,,,,,,,,,,,,,,,,,,,,,,,,,,,,,,,,,,114,159562,24,Male,1,2024/03/22_10:16:36,YZ,None,
,,,,,,calibration,0,12,2,679,10,X,0,right,1.4642499559995485,1,0,,,,,,,,,,,,,,,,,,,,,1,,,,,,,,,,,,,,,,,,,,,,,,,,,,,,,,,,,,,,,,,,,,,,114,159562,24,Male,1,2024/03/22_10:16:36,YZ,None,
,,,,,,calibration,0,12,2,679,11,J,0,left,0.8594349519989919,0,0,,,,,,,,,,,,,,,,,,,,,1,,,,,,,,,,,,,,,,,,,,,,,,,,,,,,,,,,,,,,,,,,,,,,114,159562,24,Male,1,2024/03/22_10:16:36,YZ,None,
,,,,,,calibration,0,12,2,679,12,X,1,right,0.21929921599803492,0,0,,,,,,,,,,,,,,,,,,,,,1,,,,,,,,,,,,,,,,,,,,,,,,,,,,,,,,,,,,,,,,,,,,,,114,159562,24,Male,1,2024/03/22_10:16:36,YZ,None,
,,,,,,calibration,0,12,2,679,13,C,0,right,0.9829238969978178,1,0,,,,,,,,,,,,,,,,,,,,,1,,,,,,,,,,,,,,,,,,,,,,,,,,,,,,,,,,,,,,,,,,,,,,114,159562,24,Male,1,2024/03/22_10:16:36,YZ,None,
,,,,,,calibration,0,12,2,679,14,X,1,right,0.43073752500640694,0,0,,,,,,,,,,,,,,,,,,,,,1,,,,,,,,,,,,,,,,,,,,,,,,,,,,,,,,,,,,,,,,,,,,,,114,159562,24,Male,1,2024/03/22_10:16:36,YZ,None,
,,,,,,calibration,0,12,2,679,,,,,,,,0.029166666666666646,0.25,0.3,0.7,0.0,0.7,0.6808827922858265,1,3,0,0,0,7,8,4,10,0,,,,1,,,,,,,,,,,,,,,,,,,,,,,,,,,,,,,,,,,,,,,,,,,,,,114,159562,24,Male,1,2024/03/22_10:16:36,YZ,None,
,,,,,,Calibration,0,,2,679,,,,,,,,,,,,,,,,,,,,,,,,,6,,,1,,,,,,,,,,,,,,,,,,,,,,,,,,,,,,,,,,,,,,,,,,,,,,114,159562,24,Male,1,2024/03/22_10:16:36,YZ,None,
,,,,,,calibration,0,3,2,788,1,Q,0,right,0.35962550999829546,1,0,,,,,,,,,,,,,,,,,,,,,1,,,,,,,,,,,,,,,,,,,,,,,,,,,,,,,,,,,,,,,,,,,,,,114,159562,24,Male,1,2024/03/22_10:16:36,YZ,None,
,,,,,,calibration,0,3,2,788,2,V,0,right,0.34842925499833655,1,0,,,,,,,,,,,,,,,,,,,,,1,,,,,,,,,,,,,,,,,,,,,,,,,,,,,,,,,,,,,,,,,,,,,,114,159562,24,Male,1,2024/03/22_10:16:36,YZ,None,
,,,,,,calibration,0,3,2,788,3,J,0,right,0.24977228399075102,1,0,,,,,,,,,,,,,,,,,,,,,1,,,,,,,,,,,,,,,,,,,,,,,,,,,,,,,,,,,,,,,,,,,,,,114,159562,24,Male,1,2024/03/22_10:16:36,YZ,None,
,,,,,,calibration,0,3,2,788,4,C,0,left,0.23257643000397366,0,0,,,,,,,,,,,,,,,,,,,,,1,,,,,,,,,,,,,,,,,,,,,,,,,,,,,,,,,,,,,,,,,,,,,,114,159562,24,Male,1,2024/03/22_10:16:36,YZ,None,
,,,,,,calibration,0,3,2,788,5,X,0,right,0.432654784002807,1,0,,,,,,,,,,,,,,,,,,,,,1,,,,,,,,,,,,,,,,,,,,,,,,,,,,,,,,,,,,,,,,,,,,,,114,159562,24,Male,1,2024/03/22_10:16:36,YZ,None,
,,,,,,calibration,0,3,2,788,6,C,1,right,1.9503586560022086,0,0,,,,,,,,,,,,,,,,,,,,,1,,,,,,,,,,,,,,,,,,,,,,,,,,,,,,,,,,,,,,,,,,,,,,114,159562,24,Male,1,2024/03/22_10:16:36,YZ,None,
,,,,,,calibration,0,3,2,788,7,Q,0,left,0.84074027799943,0,0,,,,,,,,,,,,,,,,,,,,,1,,,,,,,,,,,,,,,,,,,,,,,,,,,,,,,,,,,,,,,,,,,,,,114,159562,24,Male,1,2024/03/22_10:16:36,YZ,None,
,,,,,,calibration,0,3,2,788,8,C,1,right,0.9739802230033092,0,0,,,,,,,,,,,,,,,,,,,,,1,,,,,,,,,,,,,,,,,,,,,,,,,,,,,,,,,,,,,,,,,,,,,,114,159562,24,Male,1,2024/03/22_10:16:36,YZ,None,
,,,,,,calibration,0,3,2,788,9,J,0,right,0.7027437079959782,1,0,,,,,,,,,,,,,,,,,,,,,1,,,,,,,,,,,,,,,,,,,,,,,,,,,,,,,,,,,,,,,,,,,,,,114,159562,24,Male,1,2024/03/22_10:16:36,YZ,None,
,,,,,,calibration,0,3,2,788,10,Q,0,right,0.6806204080057796,1,0,,,,,,,,,,,,,,,,,,,,,1,,,,,,,,,,,,,,,,,,,,,,,,,,,,,,,,,,,,,,,,,,,,,,114,159562,24,Male,1,2024/03/22_10:16:36,YZ,None,
,,,,,,calibration,0,3,2,788,11,V,0,right,0.5124758879974252,1,0,,,,,,,,,,,,,,,,,,,,,1,,,,,,,,,,,,,,,,,,,,,,,,,,,,,,,,,,,,,,,,,,,,,,114,159562,24,Male,1,2024/03/22_10:16:36,YZ,None,
,,,,,,calibration,0,3,2,788,12,Q,1,right,0.6754564580041915,0,0,,,,,,,,,,,,,,,,,,,,,1,,,,,,,,,,,,,,,,,,,,,,,,,,,,,,,,,,,,,,,,,,,,,,114,159562,24,Male,1,2024/03/22_10:16:36,YZ,None,
,,,,,,calibration,0,3,2,788,13,V,1,left,0.49826718399708625,1,0,,,,,,,,,,,,,,,,,,,,,1,,,,,,,,,,,,,,,,,,,,,,,,,,,,,,,,,,,,,,,,,,,,,,114,159562,24,Male,1,2024/03/22_10:16:36,YZ,None,
,,,,,,calibration,0,3,2,788,,,,,,,,0.5347222222222222,0.25,0.2222222222222222,0.7777777777777778,0.0,0.7777777777777778,0.6505923896922747,1,2,0,0,0,7,8,4,9,0,,,,1,,,,,,,,,,,,,,,,,,,,,,,,,,,,,,,,,,,,,,,,,,,,,,114,159562,24,Male,1,2024/03/22_10:16:36,YZ,None,
,,,,,,Calibration,0,,2,788,,,,,,,,,,,,,,,,,,,,,,,,,7,,,1,,,,,,,,,,,,,,,,,,,,,,,,,,,,,,,,,,,,,,,,,,,,,,114,159562,24,Male,1,2024/03/22_10:16:36,YZ,None,
,,,,,,calibration,0,16,2,917,1,X,0,right,0.7375435040012235,1,0,,,,,,,,,,,,,,,,,,,,,1,,,,,,,,,,,,,,,,,,,,,,,,,,,,,,,,,,,,,,,,,,,,,,114,159562,24,Male,1,2024/03/22_10:16:36,YZ,None,
,,,,,,calibration,0,16,2,917,2,S,0,right,0.46849028099677525,1,0,,,,,,,,,,,,,,,,,,,,,1,,,,,,,,,,,,,,,,,,,,,,,,,,,,,,,,,,,,,,,,,,,,,,114,159562,24,Male,1,2024/03/22_10:16:36,YZ,None,
,,,,,,calibration,0,16,2,917,3,X,1,left,0.532092585999635,1,0,,,,,,,,,,,,,,,,,,,,,1,,,,,,,,,,,,,,,,,,,,,,,,,,,,,,,,,,,,,,,,,,,,,,114,159562,24,Male,1,2024/03/22_10:16:36,YZ,None,
,,,,,,calibration,0,16,2,917,4,S,1,right,0.4882305179926334,0,0,,,,,,,,,,,,,,,,,,,,,1,,,,,,,,,,,,,,,,,,,,,,,,,,,,,,,,,,,,,,,,,,,,,,114,159562,24,Male,1,2024/03/22_10:16:36,YZ,None,
,,,,,,calibration,0,16,2,917,5,F,0,right,nan,0,1,,,,,,,,,,,,,,,,,,,,,1,,,,,,,,,,,,,,,,,,,,,,,,,,,,,,,,,,,,,,,,,,,,,,114,159562,24,Male,1,2024/03/22_10:16:36,YZ,None,
,,,,,,calibration,0,16,2,917,6,V,0,right,0.0,1,0,,,,,,,,,,,,,,,,,,,,,1,,,,,,,,,,,,,,,,,,,,,,,,,,,,,,,,,,,,,,,,,,,,,,114,159562,24,Male,1,2024/03/22_10:16:36,YZ,None,
,,,,,,calibration,0,16,2,917,7,X,0,right,0.4192968459974509,1,0,,,,,,,,,,,,,,,,,,,,,1,,,,,,,,,,,,,,,,,,,,,,,,,,,,,,,,,,,,,,,,,,,,,,114,159562,24,Male,1,2024/03/22_10:16:36,YZ,None,
,,,,,,calibration,0,16,2,917,8,N,0,left,0.4284224339935463,0,0,,,,,,,,,,,,,,,,,,,,,1,,,,,,,,,,,,,,,,,,,,,,,,,,,,,,,,,,,,,,,,,,,,,,114,159562,24,Male,1,2024/03/22_10:16:36,YZ,None,
,,,,,,calibration,0,16,2,917,9,V,0,right,0.22767378699791152,1,0,,,,,,,,,,,,,,,,,,,,,1,,,,,,,,,,,,,,,,,,,,,,,,,,,,,,,,,,,,,,,,,,,,,,114,159562,24,Male,1,2024/03/22_10:16:36,YZ,None,
,,,,,,calibration,0,16,2,917,10,N,1,left,0.6383933530014474,1,0,,,,,,,,,,,,,,,,,,,,,1,,,,,,,,,,,,,,,,,,,,,,,,,,,,,,,,,,,,,,,,,,,,,,114,159562,24,Male,1,2024/03/22_10:16:36,YZ,None,
,,,,,,calibration,0,16,2,917,11,J,0,right,0.49640937500225846,1,0,,,,,,,,,,,,,,,,,,,,,1,,,,,,,,,,,,,,,,,,,,,,,,,,,,,,,,,,,,,,,,,,,,,,114,159562,24,Male,1,2024/03/22_10:16:36,YZ,None,
,,,,,,calibration,0,16,2,917,12,N,1,left,0.6766984069981845,1,0,,,,,,,,,,,,,,,,,,,,,1,,,,,,,,,,,,,,,,,,,,,,,,,,,,,,,,,,,,,,,,,,,,,,114,159562,24,Male,1,2024/03/22_10:16:36,YZ,None,
,,,,,,calibration,0,16,2,917,,,,,,,,0.875,0.75,0.125,0.8571428571428571,0.08333333333333333,0.7916666666666666,0.464841008271006,3,1,0,1,1,6,9,4,8,0,,,,1,,,,,,,,,,,,,,,,,,,,,,,,,,,,,,,,,,,,,,,,,,,,,,114,159562,24,Male,1,2024/03/22_10:16:36,YZ,None,
,,,,,,Calibration,0,,2,917,,,,,,,,,,,,,,,,,,,,,,,,,8,,,1,,,,,,,,,,,,,,,,,,,,,,,,,,,,,,,,,,,,,,,,,,,,,,114,159562,24,Male,1,2024/03/22_10:16:36,YZ,None,
,,,,,,calibration,0,6,2,788,1,S,0,right,0.7099757840042002,1,0,,,,,,,,,,,,,,,,,,,,,1,,,,,,,,,,,,,,,,,,,,,,,,,,,,,,,,,,,,,,,,,,,,,,114,159562,24,Male,1,2024/03/22_10:16:36,YZ,None,
,,,,,,calibration,0,6,2,788,2,J,0,right,0.3901127579883905,1,0,,,,,,,,,,,,,,,,,,,,,1,,,,,,,,,,,,,,,,,,,,,,,,,,,,,,,,,,,,,,,,,,,,,,114,159562,24,Male,1,2024/03/22_10:16:36,YZ,None,
,,,,,,calibration,0,6,2,788,3,S,1,left,0.42014715100231115,1,0,,,,,,,,,,,,,,,,,,,,,1,,,,,,,,,,,,,,,,,,,,,,,,,,,,,,,,,,,,,,,,,,,,,,114,159562,24,Male,1,2024/03/22_10:16:36,YZ,None,
,,,,,,calibration,0,6,2,788,4,Q,0,right,0.4487937889934983,1,0,,,,,,,,,,,,,,,,,,,,,1,,,,,,,,,,,,,,,,,,,,,,,,,,,,,,,,,,,,,,,,,,,,,,114,159562,24,Male,1,2024/03/22_10:16:36,YZ,None,
,,,,,,calibration,0,6,2,788,5,F,0,left,0.6025740419863723,0,0,,,,,,,,,,,,,,,,,,,,,1,,,,,,,,,,,,,,,,,,,,,,,,,,,,,,,,,,,,,,,,,,,,,,114,159562,24,Male,1,2024/03/22_10:16:36,YZ,None,
,,,,,,calibration,0,6,2,788,6,Q,1,right,0.38747135701123625,0,0,,,,,,,,,,,,,,,,,,,,,1,,,,,,,,,,,,,,,,,,,,,,,,,,,,,,,,,,,,,,,,,,,,,,114,159562,24,Male,1,2024/03/22_10:16:36,YZ,None,
,,,,,,calibration,0,6,2,788,7,F,1,left,0.3405688700004248,1,0,,,,,,,,,,,,,,,,,,,,,1,,,,,,,,,,,,,,,,,,,,,,,,,,,,,,,,,,,,,,,,,,,,,,114,159562,24,Male,1,2024/03/22_10:16:36,YZ,None,
,,,,,,calibration,0,6,2,788,8,C,0,right,0.29749781099963,1,0,,,,,,,,,,,,,,,,,,,,,1,,,,,,,,,,,,,,,,,,,,,,,,,,,,,,,,,,,,,,,,,,,,,,114,159562,24,Male,1,2024/03/22_10:16:36,YZ,None,
,,,,,,calibration,0,6,2,788,9,V,0,right,0.3294802359887399,1,0,,,,,,,,,,,,,,,,,,,,,1,,,,,,,,,,,,,,,,,,,,,,,,,,,,,,,,,,,,,,,,,,,,,,114,159562,24,Male,1,2024/03/22_10:16:36,YZ,None,
,,,,,,calibration,0,6,2,788,10,Q,0,right,0.4550086090021068,1,0,,,,,,,,,,,,,,,,,,,,,1,,,,,,,,,,,,,,,,,,,,,,,,,,,,,,,,,,,,,,,,,,,,,,114,159562,24,Male,1,2024/03/22_10:16:36,YZ,None,
,,,,,,calibration,0,6,2,788,11,X,0,right,1.0011696339934133,1,0,,,,,,,,,,,,,,,,,,,,,1,,,,,,,,,,,,,,,,,,,,,,,,,,,,,,,,,,,,,,,,,,,,,,114,159562,24,Male,1,2024/03/22_10:16:36,YZ,None,
,,,,,,calibration,0,6,2,788,12,Q,1,right,1.6819293379958253,0,0,,,,,,,,,,,,,,,,,,,,,1,,,,,,,,,,,,,,,,,,,,,,,,,,,,,,,,,,,,,,,,,,,,,,114,159562,24,Male,1,2024/03/22_10:16:36,YZ,None,
,,,,,,calibration,0,6,2,788,13,C,0,left,1.782744737007306,0,0,,,,,,,,,,,,,,,,,,,,,1,,,,,,,,,,,,,,,,,,,,,,,,,,,,,,,,,,,,,,,,,,,,,,114,159562,24,Male,1,2024/03/22_10:16:36,YZ,None,
,,,,,,calibration,0,6,2,788,,,,,,,,0.7083333333333333,0.5,0.2222222222222222,0.7777777777777778,0.0,0.7777777777777778,0.680574931997958,2,2,0,0,0,7,9,4,9,0,,,,1,,,,,,,,,,,,,,,,,,,,,,,,,,,,,,,,,,,,,,,,,,,,,,114,159562,24,Male,1,2024/03/22_10:16:36,YZ,None,
,,,,,,Calibration,0,,2,788,,,,,,,,,,,,,,,,,,,,,,,,,9,,,1,,,,,,,,,,,,,,,,,,,,,,,,,,,,,,,,,,,,,,,,,,,,,,114,159562,24,Male,1,2024/03/22_10:16:36,YZ,None,
,,,,,,calibration,0,33,2,917,1,N,0,right,0.5694992060016375,1,0,,,,,,,,,,,,,,,,,,,,,1,,,,,,,,,,,,,,,,,,,,,,,,,,,,,,,,,,,,,,,,,,,,,,114,159562,24,Male,1,2024/03/22_10:16:36,YZ,None,
,,,,,,calibration,0,33,2,917,2,N,0,right,0.4657906820066273,1,0,,,,,,,,,,,,,,,,,,,,,1,,,,,,,,,,,,,,,,,,,,,,,,,,,,,,,,,,,,,,,,,,,,,,114,159562,24,Male,1,2024/03/22_10:16:36,YZ,None,
,,,,,,calibration,0,33,2,917,3,X,0,right,0.6829197789920727,1,0,,,,,,,,,,,,,,,,,,,,,1,,,,,,,,,,,,,,,,,,,,,,,,,,,,,,,,,,,,,,,,,,,,,,114,159562,24,Male,1,2024/03/22_10:16:36,YZ,None,
,,,,,,calibration,0,33,2,917,4,J,0,right,0.473797058002674,1,0,,,,,,,,,,,,,,,,,,,,,1,,,,,,,,,,,,,,,,,,,,,,,,,,,,,,,,,,,,,,,,,,,,,,114,159562,24,Male,1,2024/03/22_10:16:36,YZ,None,
,,,,,,calibration,0,33,2,917,5,N,0,left,0.8427084120048676,0,0,,,,,,,,,,,,,,,,,,,,,1,,,,,,,,,,,,,,,,,,,,,,,,,,,,,,,,,,,,,,,,,,,,,,114,159562,24,Male,1,2024/03/22_10:16:36,YZ,None,
,,,,,,calibration,0,33,2,917,6,F,0,right,0.9931472009920981,1,0,,,,,,,,,,,,,,,,,,,,,1,,,,,,,,,,,,,,,,,,,,,,,,,,,,,,,,,,,,,,,,,,,,,,114,159562,24,Male,1,2024/03/22_10:16:36,YZ,None,
,,,,,,calibration,0,33,2,917,7,N,1,right,1.1588531190063804,0,0,,,,,,,,,,,,,,,,,,,,,1,,,,,,,,,,,,,,,,,,,,,,,,,,,,,,,,,,,,,,,,,,,,,,114,159562,24,Male,1,2024/03/22_10:16:36,YZ,None,
,,,,,,calibration,0,33,2,917,8,F,1,left,0.6077968589961529,1,0,,,,,,,,,,,,,,,,,,,,,1,,,,,,,,,,,,,,,,,,,,,,,,,,,,,,,,,,,,,,,,,,,,,,114,159562,24,Male,1,2024/03/22_10:16:36,YZ,None,
,,,,,,calibration,0,33,2,917,9,Q,0,left,nan,0,1,,,,,,,,,,,,,,,,,,,,,1,,,,,,,,,,,,,,,,,,,,,,,,,,,,,,,,,,,,,,,,,,,,,,114,159562,24,Male,1,2024/03/22_10:16:36,YZ,None,
,,,,,,calibration,0,33,2,917,10,N,0,right,1.232175092009129,1,0,,,,,,,,,,,,,,,,,,,,,1,,,,,,,,,,,,,,,,,,,,,,,,,,,,,,,,,,,,,,,,,,,,,,114,159562,24,Male,1,2024/03/22_10:16:36,YZ,None,
,,,,,,calibration,0,33,2,917,11,Q,1,right,0.5410689540003659,0,0,,,,,,,,,,,,,,,,,,,,,1,,,,,,,,,,,,,,,,,,,,,,,,,,,,,,,,,,,,,,,,,,,,,,114,159562,24,Male,1,2024/03/22_10:16:36,YZ,None,
,,,,,,calibration,0,33,2,917,12,S,0,left,0.44822282998939045,0,0,,,,,,,,,,,,,,,,,,,,,1,,,,,,,,,,,,,,,,,,,,,,,,,,,,,,,,,,,,,,,,,,,,,,114,159562,24,Male,1,2024/03/22_10:16:36,YZ,None,
,,,,,,calibration,0,33,2,917,,,,,,,,0.6111111111111112,0.3333333333333333,0.2222222222222222,0.75,0.08333333333333333,0.6944444444444444,0.728725381091036,1,2,0,1,1,6,7,3,9,0,,,,1,,,,,,,,,,,,,,,,,,,,,,,,,,,,,,,,,,,,,,,,,,,,,,114,159562,24,Male,1,2024/03/22_10:16:36,YZ,None,
,,,,,,Calibration,0,,2,917,,,,,,,,,,,,,,,,,,,,,,,,,10,,,1,,,,,,,,,,,,,,,,,,,,,,,,,,,,,,,,,,,,,,,,,,,,,,114,159562,24,Male,1,2024/03/22_10:16:36,YZ,None,
,,,,,,calibration,0,24,2,1068,1,V,0,right,1.0772188100090716,1,0,,,,,,,,,,,,,,,,,,,,,1,,,,,,,,,,,,,,,,,,,,,,,,,,,,,,,,,,,,,,,,,,,,,,114,159562,24,Male,1,2024/03/22_10:16:36,YZ,None,
,,,,,,calibration,0,24,2,1068,2,S,0,right,0.42698592999659013,1,0,,,,,,,,,,,,,,,,,,,,,1,,,,,,,,,,,,,,,,,,,,,,,,,,,,,,,,,,,,,,,,,,,,,,114,159562,24,Male,1,2024/03/22_10:16:36,YZ,None,
,,,,,,calibration,0,24,2,1068,3,V,1,right,0.6652058619947638,0,0,,,,,,,,,,,,,,,,,,,,,1,,,,,,,,,,,,,,,,,,,,,,,,,,,,,,,,,,,,,,,,,,,,,,114,159562,24,Male,1,2024/03/22_10:16:36,YZ,None,
,,,,,,calibration,0,24,2,1068,4,J,0,right,nan,0,1,,,,,,,,,,,,,,,,,,,,,1,,,,,,,,,,,,,,,,,,,,,,,,,,,,,,,,,,,,,,,,,,,,,,114,159562,24,Male,1,2024/03/22_10:16:36,YZ,None,
,,,,,,calibration,0,24,2,1068,5,N,0,left,0.3961243609956,0,0,,,,,,,,,,,,,,,,,,,,,1,,,,,,,,,,,,,,,,,,,,,,,,,,,,,,,,,,,,,,,,,,,,,,114,159562,24,Male,1,2024/03/22_10:16:36,YZ,None,
,,,,,,calibration,0,24,2,1068,6,X,0,right,1.0397467659931863,1,0,,,,,,,,,,,,,,,,,,,,,1,,,,,,,,,,,,,,,,,,,,,,,,,,,,,,,,,,,,,,,,,,,,,,114,159562,24,Male,1,2024/03/22_10:16:36,YZ,None,
,,,,,,calibration,0,24,2,1068,7,J,0,right,0.48877564100257587,1,0,,,,,,,,,,,,,,,,,,,,,1,,,,,,,,,,,,,,,,,,,,,,,,,,,,,,,,,,,,,,,,,,,,,,114,159562,24,Male,1,2024/03/22_10:16:36,YZ,None,
,,,,,,calibration,0,24,2,1068,8,F,0,left,1.190027447999455,0,0,,,,,,,,,,,,,,,,,,,,,1,,,,,,,,,,,,,,,,,,,,,,,,,,,,,,,,,,,,,,,,,,,,,,114,159562,24,Male,1,2024/03/22_10:16:36,YZ,None,
,,,,,,calibration,0,24,2,1068,9,Q,0,right,1.0900554779946106,1,0,,,,,,,,,,,,,,,,,,,,,1,,,,,,,,,,,,,,,,,,,,,,,,,,,,,,,,,,,,,,,,,,,,,,114,159562,24,Male,1,2024/03/22_10:16:36,YZ,None,
,,,,,,calibration,0,24,2,1068,10,F,1,left,1.3692264139972394,1,0,,,,,,,,,,,,,,,,,,,,,1,,,,,,,,,,,,,,,,,,,,,,,,,,,,,,,,,,,,,,,,,,,,,,114,159562,24,Male,1,2024/03/22_10:16:36,YZ,None,
,,,,,,calibration,0,24,2,1068,11,Q,1,right,1.2058586460043443,0,0,,,,,,,,,,,,,,,,,,,,,1,,,,,,,,,,,,,,,,,,,,,,,,,,,,,,,,,,,,,,,,,,,,,,114,159562,24,Male,1,2024/03/22_10:16:36,YZ,None,
,,,,,,calibration,0,24,2,1068,,,,,,,,0.5833333333333334,0.3333333333333333,0.25,0.7142857142857143,0.09090909090909091,0.6590909090909091,0.8949225355987437,1,2,0,1,1,5,6,3,8,0,,,,1,,,,,,,,,,,,,,,,,,,,,,,,,,,,,,,,,,,,,,,,,,,,,,114,159562,24,Male,1,2024/03/22_10:16:36,YZ,None,
,,,,,,Calibration,0,,2,1068,,,,,,,,,,,,,,,,,,,,,,,,,11,,,1,,,,,,,,,,,,,,,,,,,,,,,,,,,,,,,,,,,,,,,,,,,,,,114,159562,24,Male,1,2024/03/22_10:16:36,YZ,None,
,,,,,,calibration,0,14,2,1250,1,Q,0,None,nan,0,1,,,,,,,,,,,,,,,,,,,,,1,,,,,,,,,,,,,,,,,,,,,,,,,,,,,,,,,,,,,,,,,,,,,,114,159562,24,Male,1,2024/03/22_10:16:36,YZ,None,
,,,,,,calibration,0,14,2,1250,2,F,0,right,0.345598529005656,1,0,,,,,,,,,,,,,,,,,,,,,1,,,,,,,,,,,,,,,,,,,,,,,,,,,,,,,,,,,,,,,,,,,,,,114,159562,24,Male,1,2024/03/22_10:16:36,YZ,None,
,,,,,,calibration,0,14,2,1250,3,N,0,right,0.7427288190083345,1,0,,,,,,,,,,,,,,,,,,,,,1,,,,,,,,,,,,,,,,,,,,,,,,,,,,,,,,,,,,,,,,,,,,,,114,159562,24,Male,1,2024/03/22_10:16:36,YZ,None,
,,,,,,calibration,0,14,2,1250,4,F,1,left,0.32371073799731676,1,0,,,,,,,,,,,,,,,,,,,,,1,,,,,,,,,,,,,,,,,,,,,,,,,,,,,,,,,,,,,,,,,,,,,,114,159562,24,Male,1,2024/03/22_10:16:36,YZ,None,
,,,,,,calibration,0,14,2,1250,5,S,0,right,1.2580044889909914,1,0,,,,,,,,,,,,,,,,,,,,,1,,,,,,,,,,,,,,,,,,,,,,,,,,,,,,,,,,,,,,,,,,,,,,114,159562,24,Male,1,2024/03/22_10:16:36,YZ,None,
,,,,,,calibration,0,14,2,1250,6,F,1,right,nan,0,1,,,,,,,,,,,,,,,,,,,,,1,,,,,,,,,,,,,,,,,,,,,,,,,,,,,,,,,,,,,,,,,,,,,,114,159562,24,Male,1,2024/03/22_10:16:36,YZ,None,
,,,,,,calibration,0,14,2,1250,7,S,1,right,1.0082873579958687,0,0,,,,,,,,,,,,,,,,,,,,,1,,,,,,,,,,,,,,,,,,,,,,,,,,,,,,,,,,,,,,,,,,,,,,114,159562,24,Male,1,2024/03/22_10:16:36,YZ,None,
,,,,,,calibration,0,14,2,1250,8,J,0,right,nan,0,1,,,,,,,,,,,,,,,,,,,,,1,,,,,,,,,,,,,,,,,,,,,,,,,,,,,,,,,,,,,,,,,,,,,,114,159562,24,Male,1,2024/03/22_10:16:36,YZ,None,
,,,,,,calibration,0,14,2,1250,9,Q,0,right,1.8749660470057279,1,0,,,,,,,,,,,,,,,,,,,,,1,,,,,,,,,,,,,,,,,,,,,,,,,,,,,,,,,,,,,,,,,,,,,,114,159562,24,Male,1,2024/03/22_10:16:36,YZ,None,
,,,,,,calibration,0,14,2,1250,10,N,0,left,0.7873609380039852,0,0,,,,,,,,,,,,,,,,,,,,,1,,,,,,,,,,,,,,,,,,,,,,,,,,,,,,,,,,,,,,,,,,,,,,114,159562,24,Male,1,2024/03/22_10:16:36,YZ,None,
,,,,,,calibration,0,14,2,1250,,,,,,,,0.6904761904761906,0.3333333333333333,0.14285714285714285,0.8,0.3,0.5571428571428572,0.905808131143983,1,1,1,2,3,4,5,3,7,0,,,,1,,,,,,,,,,,,,,,,,,,,,,,,,,,,,,,,,,,,,,,,,,,,,,114,159562,24,Male,1,2024/03/22_10:16:36,YZ,None,
,,,,,,Calibration,0,,2,1250,,,,,,,,,,,,,,,,,,,,,,,,,12,,,1,,,,,,,,,,,,,,,,,,,,,,,,,,,,,,,,,,,,,,,,,,,,,,114,159562,24,Male,1,2024/03/22_10:16:36,YZ,None,
,,,,,,calibration,0,27,2,1472,1,V,0,right,1.2763855820085155,1,0,,,,,,,,,,,,,,,,,,,,,1,,,,,,,,,,,,,,,,,,,,,,,,,,,,,,,,,,,,,,,,,,,,,,114,159562,24,Male,1,2024/03/22_10:16:36,YZ,None,
,,,,,,calibration,0,27,2,1472,2,V,0,right,0.9218715550086927,1,0,,,,,,,,,,,,,,,,,,,,,1,,,,,,,,,,,,,,,,,,,,,,,,,,,,,,,,,,,,,,,,,,,,,,114,159562,24,Male,1,2024/03/22_10:16:36,YZ,None,
,,,,,,calibration,0,27,2,1472,3,J,0,right,0.8804024580022087,1,0,,,,,,,,,,,,,,,,,,,,,1,,,,,,,,,,,,,,,,,,,,,,,,,,,,,,,,,,,,,,,,,,,,,,114,159562,24,Male,1,2024/03/22_10:16:36,YZ,None,
,,,,,,calibration,0,27,2,1472,4,V,1,left,0.8482075359934242,1,0,,,,,,,,,,,,,,,,,,,,,1,,,,,,,,,,,,,,,,,,,,,,,,,,,,,,,,,,,,,,,,,,,,,,114,159562,24,Male,1,2024/03/22_10:16:36,YZ,None,
,,,,,,calibration,0,27,2,1472,5,J,1,left,1.441253607001272,1,0,,,,,,,,,,,,,,,,,,,,,1,,,,,,,,,,,,,,,,,,,,,,,,,,,,,,,,,,,,,,,,,,,,,,114,159562,24,Male,1,2024/03/22_10:16:36,YZ,None,
,,,,,,calibration,0,27,2,1472,6,Q,0,left,nan,0,1,,,,,,,,,,,,,,,,,,,,,1,,,,,,,,,,,,,,,,,,,,,,,,,,,,,,,,,,,,,,,,,,,,,,114,159562,24,Male,1,2024/03/22_10:16:36,YZ,None,
,,,,,,calibration,0,27,2,1472,7,X,0,right,1.5412040460068965,1,0,,,,,,,,,,,,,,,,,,,,,1,,,,,,,,,,,,,,,,,,,,,,,,,,,,,,,,,,,,,,,,,,,,,,114,159562,24,Male,1,2024/03/22_10:16:36,YZ,None,
,,,,,,calibration,0,27,2,1472,8,Q,1,left,0.6902125230117235,1,0,,,,,,,,,,,,,,,,,,,,,1,,,,,,,,,,,,,,,,,,,,,,,,,,,,,,,,,,,,,,,,,,,,,,114,159562,24,Male,1,2024/03/22_10:16:36,YZ,None,
,,,,,,calibration,0,27,2,1472,9,J,0,right,0.9191778359963791,1,0,,,,,,,,,,,,,,,,,,,,,1,,,,,,,,,,,,,,,,,,,,,,,,,,,,,,,,,,,,,,,,,,,,,,114,159562,24,Male,1,2024/03/22_10:16:36,YZ,None,
,,,,,,calibration,0,27,2,1472,,,,,,,,1.0,1.0,0.0,1.0,0.1111111111111111,0.8888888888888888,1.064839392878639,3,0,0,1,1,5,8,3,6,0,,,,1,,,,,,,,,,,,,,,,,,,,,,,,,,,,,,,,,,,,,,,,,,,,,,114,159562,24,Male,1,2024/03/22_10:16:36,YZ,None,
,,,,,,Calibration,0,,2,1472,,,,,,,,,,,,,,,,,,,,,,,,,13,,,1,,,,,,,,,,,,,,,,,,,,,,,,,,,,,,,,,,,,,,,,,,,,,,114,159562,24,Male,1,2024/03/22_10:16:36,YZ,None,
,,,,,,calibration,0,33,2,1250,1,X,0,right,1.647064461998525,1,0,,,,,,,,,,,,,,,,,,,,,1,,,,,,,,,,,,,,,,,,,,,,,,,,,,,,,,,,,,,,,,,,,,,,114,159562,24,Male,1,2024/03/22_10:16:36,YZ,None,
,,,,,,calibration,0,33,2,1250,2,X,0,right,0.6590576439921279,1,0,,,,,,,,,,,,,,,,,,,,,1,,,,,,,,,,,,,,,,,,,,,,,,,,,,,,,,,,,,,,,,,,,,,,114,159562,24,Male,1,2024/03/22_10:16:36,YZ,None,
,,,,,,calibration,0,33,2,1250,3,X,1,left,0.624377079991973,1,0,,,,,,,,,,,,,,,,,,,,,1,,,,,,,,,,,,,,,,,,,,,,,,,,,,,,,,,,,,,,,,,,,,,,114,159562,24,Male,1,2024/03/22_10:16:36,YZ,None,
,,,,,,calibration,0,33,2,1250,4,F,0,right,0.7906403039960423,1,0,,,,,,,,,,,,,,,,,,,,,1,,,,,,,,,,,,,,,,,,,,,,,,,,,,,,,,,,,,,,,,,,,,,,114,159562,24,Male,1,2024/03/22_10:16:36,YZ,None,
,,,,,,calibration,0,33,2,1250,5,C,0,right,0.7411712230095873,1,0,,,,,,,,,,,,,,,,,,,,,1,,,,,,,,,,,,,,,,,,,,,,,,,,,,,,,,,,,,,,,,,,,,,,114,159562,24,Male,1,2024/03/22_10:16:36,YZ,None,
,,,,,,calibration,0,33,2,1250,6,F,1,left,0.8313340199965751,1,0,,,,,,,,,,,,,,,,,,,,,1,,,,,,,,,,,,,,,,,,,,,,,,,,,,,,,,,,,,,,,,,,,,,,114,159562,24,Male,1,2024/03/22_10:16:36,YZ,None,
,,,,,,calibration,0,33,2,1250,7,S,0,right,1.1575391180085717,1,0,,,,,,,,,,,,,,,,,,,,,1,,,,,,,,,,,,,,,,,,,,,,,,,,,,,,,,,,,,,,,,,,,,,,114,159562,24,Male,1,2024/03/22_10:16:36,YZ,None,
,,,,,,calibration,0,33,2,1250,8,V,0,right,1.9121554209996248,1,0,,,,,,,,,,,,,,,,,,,,,1,,,,,,,,,,,,,,,,,,,,,,,,,,,,,,,,,,,,,,,,,,,,,,114,159562,24,Male,1,2024/03/22_10:16:36,YZ,None,
,,,,,,calibration,0,33,2,1250,9,S,1,left,0.6741241609997815,1,0,,,,,,,,,,,,,,,,,,,,,1,,,,,,,,,,,,,,,,,,,,,,,,,,,,,,,,,,,,,,,,,,,,,,114,159562,24,Male,1,2024/03/22_10:16:36,YZ,None,
,,,,,,calibration,0,33,2,1250,10,Q,0,right,0.9223567709996132,1,0,,,,,,,,,,,,,,,,,,,,,1,,,,,,,,,,,,,,,,,,,,,,,,,,,,,,,,,,,,,,,,,,,,,,114,159562,24,Male,1,2024/03/22_10:16:36,YZ,None,
,,,,,,calibration,0,33,2,1250,,,,,,,,1.0,1.0,0.0,1.0,0.0,1.0,0.9959820203992422,3,0,0,0,0,7,10,3,7,0,,,,1,,,,,,,,,,,,,,,,,,,,,,,,,,,,,,,,,,,,,,,,,,,,,,114,159562,24,Male,1,2024/03/22_10:16:36,YZ,None,
,,,,,,Calibration,0,,2,1250,,,,,,,,,,,,,,,,,,,,,,,,,14,,,1,,,,,,,,,,,,,,,,,,,,,,,,,,,,,,,,,,,,,,,,,,,,,,114,159562,24,Male,1,2024/03/22_10:16:36,YZ,None,
,,,,,,calibration,0,19,2,1068,1,S,0,right,0.8769552549929358,1,0,,,,,,,,,,,,,,,,,,,,,1,,,,,,,,,,,,,,,,,,,,,,,,,,,,,,,,,,,,,,,,,,,,,,114,159562,24,Male,1,2024/03/22_10:16:36,YZ,None,
,,,,,,calibration,0,19,2,1068,2,X,0,right,0.6881732960027875,1,0,,,,,,,,,,,,,,,,,,,,,1,,,,,,,,,,,,,,,,,,,,,,,,,,,,,,,,,,,,,,,,,,,,,,114,159562,24,Male,1,2024/03/22_10:16:36,YZ,None,
,,,,,,calibration,0,19,2,1068,3,C,0,right,0.5750349430018105,1,0,,,,,,,,,,,,,,,,,,,,,1,,,,,,,,,,,,,,,,,,,,,,,,,,,,,,,,,,,,,,,,,,,,,,114,159562,24,Male,1,2024/03/22_10:16:36,YZ,None,
,,,,,,calibration,0,19,2,1068,4,X,1,left,0.8360400039964588,1,0,,,,,,,,,,,,,,,,,,,,,1,,,,,,,,,,,,,,,,,,,,,,,,,,,,,,,,,,,,,,,,,,,,,,114,159562,24,Male,1,2024/03/22_10:16:36,YZ,None,
,,,,,,calibration,0,19,2,1068,5,S,0,right,0.9225261380051961,1,0,,,,,,,,,,,,,,,,,,,,,1,,,,,,,,,,,,,,,,,,,,,,,,,,,,,,,,,,,,,,,,,,,,,,114,159562,24,Male,1,2024/03/22_10:16:36,YZ,None,
,,,,,,calibration,0,19,2,1068,6,V,0,left,1.023688774992479,0,0,,,,,,,,,,,,,,,,,,,,,1,,,,,,,,,,,,,,,,,,,,,,,,,,,,,,,,,,,,,,,,,,,,,,114,159562,24,Male,1,2024/03/22_10:16:36,YZ,None,
,,,,,,calibration,0,19,2,1068,7,N,0,right,0.8075174110126682,1,0,,,,,,,,,,,,,,,,,,,,,1,,,,,,,,,,,,,,,,,,,,,,,,,,,,,,,,,,,,,,,,,,,,,,114,159562,24,Male,1,2024/03/22_10:16:36,YZ,None,
,,,,,,calibration,0,19,2,1068,8,F,0,left,1.0746702420001384,0,0,,,,,,,,,,,,,,,,,,,,,1,,,,,,,,,,,,,,,,,,,,,,,,,,,,,,,,,,,,,,,,,,,,,,114,159562,24,Male,1,2024/03/22_10:16:36,YZ,None,
,,,,,,calibration,0,19,2,1068,9,S,0,left,1.2450003320118412,0,0,,,,,,,,,,,,,,,,,,,,,1,,,,,,,,,,,,,,,,,,,,,,,,,,,,,,,,,,,,,,,,,,,,,,114,159562,24,Male,1,2024/03/22_10:16:36,YZ,None,
,,,,,,calibration,0,19,2,1068,10,F,1,right,0.6816611329995794,0,0,,,,,,,,,,,,,,,,,,,,,1,,,,,,,,,,,,,,,,,,,,,,,,,,,,,,,,,,,,,,,,,,,,,,114,159562,24,Male,1,2024/03/22_10:16:36,YZ,None,
,,,,,,calibration,0,19,2,1068,11,S,1,left,0.7085700930038001,1,0,,,,,,,,,,,,,,,,,,,,,1,,,,,,,,,,,,,,,,,,,,,,,,,,,,,,,,,,,,,,,,,,,,,,114,159562,24,Male,1,2024/03/22_10:16:36,YZ,None,
,,,,,,calibration,0,19,2,1068,,,,,,,,0.6979166666666666,0.6666666666666666,0.375,0.625,0.0,0.625,0.858167056547245,2,3,0,0,0,5,7,3,8,0,,,,1,,,,,,,,,,,,,,,,,,,,,,,,,,,,,,,,,,,,,,,,,,,,,,114,159562,24,Male,1,2024/03/22_10:16:36,YZ,None,
,,,,,,Calibration,0,,2,1068,,,,,,,,,,,,,,,,,,,,,,,,,15,,,1,,,,,,,,,,,,,,,,,,,,,,,,,,,,,,,,,,,,,,,,,,,,,,114,159562,24,Male,1,2024/03/22_10:16:36,YZ,None,
,,,,,,calibration,0,29,2,1250,1,V,0,right,1.4924238469975535,1,0,,,,,,,,,,,,,,,,,,,,,1,,,,,,,,,,,,,,,,,,,,,,,,,,,,,,,,,,,,,,,,,,,,,,114,159562,24,Male,1,2024/03/22_10:16:36,YZ,None,
,,,,,,calibration,0,29,2,1250,2,S,0,left,0.8087050449976232,0,0,,,,,,,,,,,,,,,,,,,,,1,,,,,,,,,,,,,,,,,,,,,,,,,,,,,,,,,,,,,,,,,,,,,,114,159562,24,Male,1,2024/03/22_10:16:36,YZ,None,
,,,,,,calibration,0,29,2,1250,3,V,1,left,nan,0,1,,,,,,,,,,,,,,,,,,,,,1,,,,,,,,,,,,,,,,,,,,,,,,,,,,,,,,,,,,,,,,,,,,,,114,159562,24,Male,1,2024/03/22_10:16:36,YZ,None,
,,,,,,calibration,0,29,2,1250,4,C,0,right,0.84822227100085,1,0,,,,,,,,,,,,,,,,,,,,,1,,,,,,,,,,,,,,,,,,,,,,,,,,,,,,,,,,,,,,,,,,,,,,114,159562,24,Male,1,2024/03/22_10:16:36,YZ,None,
,,,,,,calibration,0,29,2,1250,5,F,0,left,0.7973295389965642,0,0,,,,,,,,,,,,,,,,,,,,,1,,,,,,,,,,,,,,,,,,,,,,,,,,,,,,,,,,,,,,,,,,,,,,114,159562,24,Male,1,2024/03/22_10:16:36,YZ,None,
,,,,,,calibration,0,29,2,1250,6,C,1,right,0.6242136719956761,0,0,,,,,,,,,,,,,,,,,,,,,1,,,,,,,,,,,,,,,,,,,,,,,,,,,,,,,,,,,,,,,,,,,,,,114,159562,24,Male,1,2024/03/22_10:16:36,YZ,None,
,,,,,,calibration,0,29,2,1250,7,F,1,left,1.3901230420015054,1,0,,,,,,,,,,,,,,,,,,,,,1,,,,,,,,,,,,,,,,,,,,,,,,,,,,,,,,,,,,,,,,,,,,,,114,159562,24,Male,1,2024/03/22_10:16:36,YZ,None,
,,,,,,calibration,0,29,2,1250,8,X,0,right,0.7708492359961383,1,0,,,,,,,,,,,,,,,,,,,,,1,,,,,,,,,,,,,,,,,,,,,,,,,,,,,,,,,,,,,,,,,,,,,,114,159562,24,Male,1,2024/03/22_10:16:36,YZ,None,
,,,,,,calibration,0,29,2,1250,9,N,0,left,0.9220770469983108,0,0,,,,,,,,,,,,,,,,,,,,,1,,,,,,,,,,,,,,,,,,,,,,,,,,,,,,,,,,,,,,,,,,,,,,114,159562,24,Male,1,2024/03/22_10:16:36,YZ,None,
,,,,,,calibration,0,29,2,1250,10,V,0,left,nan,0,1,,,,,,,,,,,,,,,,,,,,,1,,,,,,,,,,,,,,,,,,,,,,,,,,,,,,,,,,,,,,,,,,,,,,114,159562,24,Male,1,2024/03/22_10:16:36,YZ,None,
,,,,,,calibration,0,29,2,1250,,,,,,,,0.031746031746031744,0.3333333333333333,0.42857142857142855,0.5,0.2,0.3714285714285714,0.9567429623730277,1,3,1,1,2,3,4,3,7,0,,,,1,,,,,,,,,,,,,,,,,,,,,,,,,,,,,,,,,,,,,,,,,,,,,,114,159562,24,Male,1,2024/03/22_10:16:36,YZ,None,
,,,,,,Calibration,0,,2,1250,,,,,,,,,,,,,,,,,,,,,,,,,16,,,1,,,,,,,,,,,,,,,,,,,,,,,,,,,,,,,,,,,,,,,,,,,,,,114,159562,24,Male,1,2024/03/22_10:16:36,YZ,None,
,,,,,,calibration,0,22,2,1472,1,J,0,right,0.8377813459956087,1,0,,,,,,,,,,,,,,,,,,,,,1,,,,,,,,,,,,,,,,,,,,,,,,,,,,,,,,,,,,,,,,,,,,,,114,159562,24,Male,1,2024/03/22_10:16:36,YZ,None,
,,,,,,calibration,0,22,2,1472,2,C,0,right,0.6811588370037498,1,0,,,,,,,,,,,,,,,,,,,,,1,,,,,,,,,,,,,,,,,,,,,,,,,,,,,,,,,,,,,,,,,,,,,,114,159562,24,Male,1,2024/03/22_10:16:36,YZ,None,
,,,,,,calibration,0,22,2,1472,3,J,1,left,0.6745109519979451,1,0,,,,,,,,,,,,,,,,,,,,,1,,,,,,,,,,,,,,,,,,,,,,,,,,,,,,,,,,,,,,,,,,,,,,114,159562,24,Male,1,2024/03/22_10:16:36,YZ,None,
,,,,,,calibration,0,22,2,1472,4,S,0,right,0.586721130006481,1,0,,,,,,,,,,,,,,,,,,,,,1,,,,,,,,,,,,,,,,,,,,,,,,,,,,,,,,,,,,,,,,,,,,,,114,159562,24,Male,1,2024/03/22_10:16:36,YZ,None,
,,,,,,calibration,0,22,2,1472,5,J,1,left,0.5634519559971523,1,0,,,,,,,,,,,,,,,,,,,,,1,,,,,,,,,,,,,,,,,,,,,,,,,,,,,,,,,,,,,,,,,,,,,,114,159562,24,Male,1,2024/03/22_10:16:36,YZ,None,
,,,,,,calibration,0,22,2,1472,6,N,0,right,0.6609374809922883,1,0,,,,,,,,,,,,,,,,,,,,,1,,,,,,,,,,,,,,,,,,,,,,,,,,,,,,,,,,,,,,,,,,,,,,114,159562,24,Male,1,2024/03/22_10:16:36,YZ,None,
,,,,,,calibration,0,22,2,1472,7,Q,0,right,0.5242023909959244,1,0,,,,,,,,,,,,,,,,,,,,,1,,,,,,,,,,,,,,,,,,,,,,,,,,,,,,,,,,,,,,,,,,,,,,114,159562,24,Male,1,2024/03/22_10:16:36,YZ,None,
,,,,,,calibration,0,22,2,1472,8,N,1,right,0.70508230800624,0,0,,,,,,,,,,,,,,,,,,,,,1,,,,,,,,,,,,,,,,,,,,,,,,,,,,,,,,,,,,,,,,,,,,,,114,159562,24,Male,1,2024/03/22_10:16:36,YZ,None,
,,,,,,calibration,0,22,2,1472,9,J,0,left,1.2408567059901543,0,0,,,,,,,,,,,,,,,,,,,,,1,,,,,,,,,,,,,,,,,,,,,,,,,,,,,,,,,,,,,,,,,,,,,,114,159562,24,Male,1,2024/03/22_10:16:36,YZ,None,
,,,,,,calibration,0,22,2,1472,,,,,,,,0.8194444444444444,0.6666666666666666,0.16666666666666666,0.8333333333333334,0.0,0.8333333333333334,0.7194114563317271,2,1,0,0,0,5,7,3,6,0,,,,1,,,,,,,,,,,,,,,,,,,,,,,,,,,,,,,,,,,,,,,,,,,,,,114,159562,24,Male,1,2024/03/22_10:16:36,YZ,None,
,,,,,,Calibration,0,,2,1472,,,,,,,,,,,,,,,,,,,,,,,,,17,,,1,,,,,,,,,,,,,,,,,,,,,,,,,,,,,,,,,,,,,,,,,,,,,,114,159562,24,Male,1,2024/03/22_10:16:36,YZ,None,
,,,,,,CALIBRATION,0,,,,,,,,,,,,,,,,,,,,,,,,,,,,17,0.8194444444444444,1472,1,,,,,,,,,,,,,,,,,,,,,,,,,,,,,,,,,,,,,,,,,,,,,,114,159562,24,Male,1,2024/03/22_10:16:36,YZ,None,
1,./instructions/inst_prac_1/Slide24.png,right,40.642981675002375,577.8905524950096,618.533534170012,,,,,,,,,,,,,,,,,,,,,,,,,,,,,,,,,1,,,,,,,,,,,,,,,,,,,,,,,,,,,,,,,,,,,,,,,,,,,,,,114,159562,24,Male,1,2024/03/22_10:16:36,YZ,None,
2,./instructions/inst_prac_1/Slide25.png,right,3.442073620011797,618.5794359610009,622.0215095810127,,,,,,,,,,,,,,,,,,,,,,,,,,,,,,,,,1,,,,,,,,,,,,,,,,,,,,,,,,,,,,,,,,,,,,,,,,,,,,,,114,159562,24,Male,1,2024/03/22_10:16:36,YZ,None,
3,./instructions/inst_prac_1/Slide26.png,right,0.842792505005491,622.0507567500026,622.8935492550081,,,,,,,,,,,,,,,,,,,,,,,,,,,,,,,,,1,,,,,,,,,,,,,,,,,,,,,,,,,,,,,,,,,,,,,,,,,,,,,,114,159562,24,Male,1,2024/03/22_10:16:36,YZ,None,
4,./instructions/inst_prac_1/Slide27.png,right,1.3311019410029985,622.9225552150019,624.2536571560049,,,,,,,,,,,,,,,,,,,,,,,,,,,,,,,,,1,,,,,,,,,,,,,,,,,,,,,,,,,,,,,,,,,,,,,,,,,,,,,,114,159562,24,Male,1,2024/03/22_10:16:36,YZ,None,
5,./instructions/inst_prac_1/Slide28.png,right,1.024525201995857,624.2929429570067,625.3174681590026,,,,,,,,,,,,,,,,,,,,,,,,,,,,,,,,,1,,,,,,,,,,,,,,,,,,,,,,,,,,,,,,,,,,,,,,,,,,,,,,114,159562,24,Male,1,2024/03/22_10:16:36,YZ,None,
6,./instructions/inst_prac_1/Slide29.png,right,5.685691396996845,625.3598971370084,631.0455885340052,,,,,,,,,,,,,,,,,,,,,,,,,,,,,,,,,1,,,,,,,,,,,,,,,,,,,,,,,,,,,,,,,,,,,,,,,,,,,,,,114,159562,24,Male,1,2024/03/22_10:16:36,YZ,None,
7,./instructions/inst_prac_1/Slide30.png,right,6.775465781000094,631.094105495009,637.8695712760091,,,,,,,,,,,,,,,,,,,,,,,,,,,,,,,,,1,,,,,,,,,,,,,,,,,,,,,,,,,,,,,,,,,,,,,,,,,,,,,,114,159562,24,Male,1,2024/03/22_10:16:36,YZ,None,
,,,,,,practice,0,36,1,1250,1,C,0,right,1.138613635004731,1,0,,,,,,,,,,,,,,,,,,,,,1,,,,,,,,,,,,,,,,,,,,,,,,,,,,,,,,,,,,,,,,,,,,,,114,159562,24,Male,1,2024/03/22_10:16:36,YZ,None,
,,,,,,practice,0,36,1,1250,2,F,0,right,2.673285365002812,1,0,,,,,,,,,,,,,,,,,,,,,1,,,,,,,,,,,,,,,,,,,,,,,,,,,,,,,,,,,,,,,,,,,,,,114,159562,24,Male,1,2024/03/22_10:16:36,YZ,None,
,,,,,,practice,0,36,1,1250,3,F,1,left,0.6537918000103673,1,0,,,,,,,,,,,,,,,,,,,,,1,,,,,,,,,,,,,,,,,,,,,,,,,,,,,,,,,,,,,,,,,,,,,,114,159562,24,Male,1,2024/03/22_10:16:36,YZ,None,
,,,,,,practice,0,36,1,1250,4,Q,0,right,0.7326181120006368,1,0,,,,,,,,,,,,,,,,,,,,,1,,,,,,,,,,,,,,,,,,,,,,,,,,,,,,,,,,,,,,,,,,,,,,114,159562,24,Male,1,2024/03/22_10:16:36,YZ,None,
,,,,,,practice,0,36,1,1250,5,Q,1,left,0.4857619940012228,1,0,,,,,,,,,,,,,,,,,,,,,1,,,,,,,,,,,,,,,,,,,,,,,,,,,,,,,,,,,,,,,,,,,,,,114,159562,24,Male,1,2024/03/22_10:16:36,YZ,None,
,,,,,,practice,0,36,1,1250,6,X,0,right,0.443676109003718,1,0,,,,,,,,,,,,,,,,,,,,,1,,,,,,,,,,,,,,,,,,,,,,,,,,,,,,,,,,,,,,,,,,,,,,114,159562,24,Male,1,2024/03/22_10:16:36,YZ,None,
,,,,,,practice,0,36,1,1250,7,V,0,right,0.7842085130105261,1,0,,,,,,,,,,,,,,,,,,,,,1,,,,,,,,,,,,,,,,,,,,,,,,,,,,,,,,,,,,,,,,,,,,,,114,159562,24,Male,1,2024/03/22_10:16:36,YZ,None,
,,,,,,practice,0,36,1,1250,8,V,1,left,0.6061998029908864,1,0,,,,,,,,,,,,,,,,,,,,,1,,,,,,,,,,,,,,,,,,,,,,,,,,,,,,,,,,,,,,,,,,,,,,114,159562,24,Male,1,2024/03/22_10:16:36,YZ,None,
,,,,,,practice,0,36,1,1250,9,X,0,right,0.8379486939957133,1,0,,,,,,,,,,,,,,,,,,,,,1,,,,,,,,,,,,,,,,,,,,,,,,,,,,,,,,,,,,,,,,,,,,,,114,159562,24,Male,1,2024/03/22_10:16:36,YZ,None,
,,,,,,practice,0,36,1,1250,10,V,0,right,1.3559029360039858,1,0,,,,,,,,,,,,,,,,,,,,,1,,,,,,,,,,,,,,,,,,,,,,,,,,,,,,,,,,,,,,,,,,,,,,114,159562,24,Male,1,2024/03/22_10:16:36,YZ,None,
,,,,,,practice,0,36,1,1250,,,,,,,,1.0,1.0,0.0,1.0,0.0,1.0,0.97120069610246,3,0,0,0,0,7,10,3,7,0,,,,1,,,,,,,,,,,,,,,,,,,,,,,,,,,,,,,,,,,,,,,,,,,,,,114,159562,24,Male,1,2024/03/22_10:16:36,YZ,None,
1,./instructions/inst_prac_1_next/Slide35.png,right,1.578301942005055,658.1313295790023,659.7096315210074,,,,,,,,,,,,,,,,,,,,,,,,,,,,,,,,,1,,,,,,,,,,,,,,,,,,,,,,,,,,,,,,,,,,,,,,,,,,,,,,114,159562,24,Male,1,2024/03/22_10:16:36,YZ,None,
,,,,,,practice,0,21,1,1472,1,X,0,right,0.7476364120084327,1,0,,,,,,,,,,,,,,,,,,,,,1,,,,,,,,,,,,,,,,,,,,,,,,,,,,,,,,,,,,,,,,,,,,,,114,159562,24,Male,1,2024/03/22_10:16:36,YZ,None,
,,,,,,practice,0,21,1,1472,2,V,0,right,0.7623213560000295,1,0,,,,,,,,,,,,,,,,,,,,,1,,,,,,,,,,,,,,,,,,,,,,,,,,,,,,,,,,,,,,,,,,,,,,114,159562,24,Male,1,2024/03/22_10:16:36,YZ,None,
,,,,,,practice,0,21,1,1472,3,V,1,left,0.5590576050017262,1,0,,,,,,,,,,,,,,,,,,,,,1,,,,,,,,,,,,,,,,,,,,,,,,,,,,,,,,,,,,,,,,,,,,,,114,159562,24,Male,1,2024/03/22_10:16:36,YZ,None,
,,,,,,practice,0,21,1,1472,4,S,0,right,0.5487320960091893,1,0,,,,,,,,,,,,,,,,,,,,,1,,,,,,,,,,,,,,,,,,,,,,,,,,,,,,,,,,,,,,,,,,,,,,114,159562,24,Male,1,2024/03/22_10:16:36,YZ,None,
,,,,,,practice,0,21,1,1472,5,C,0,right,0.5724344890040811,1,0,,,,,,,,,,,,,,,,,,,,,1,,,,,,,,,,,,,,,,,,,,,,,,,,,,,,,,,,,,,,,,,,,,,,114,159562,24,Male,1,2024/03/22_10:16:36,YZ,None,
,,,,,,practice,0,21,1,1472,6,C,1,left,0.544276455999352,1,0,,,,,,,,,,,,,,,,,,,,,1,,,,,,,,,,,,,,,,,,,,,,,,,,,,,,,,,,,,,,,,,,,,,,114,159562,24,Male,1,2024/03/22_10:16:36,YZ,None,
,,,,,,practice,0,21,1,1472,7,Q,0,right,0.8771043579909019,1,0,,,,,,,,,,,,,,,,,,,,,1,,,,,,,,,,,,,,,,,,,,,,,,,,,,,,,,,,,,,,,,,,,,,,114,159562,24,Male,1,2024/03/22_10:16:36,YZ,None,
,,,,,,practice,0,21,1,1472,8,Q,1,left,0.5541596800030675,1,0,,,,,,,,,,,,,,,,,,,,,1,,,,,,,,,,,,,,,,,,,,,,,,,,,,,,,,,,,,,,,,,,,,,,114,159562,24,Male,1,2024/03/22_10:16:36,YZ,None,
,,,,,,practice,0,21,1,1472,9,S,0,right,0.6853588890080573,1,0,,,,,,,,,,,,,,,,,,,,,1,,,,,,,,,,,,,,,,,,,,,,,,,,,,,,,,,,,,,,,,,,,,,,114,159562,24,Male,1,2024/03/22_10:16:36,YZ,None,
,,,,,,practice,0,21,1,1472,,,,,,,,1.0,1.0,0.0,1.0,0.0,1.0,0.6501201490027597,3,0,0,0,0,6,9,3,6,0,,,,1,,,,,,,,,,,,,,,,,,,,,,,,,,,,,,,,,,,,,,,,,,,,,,114,159562,24,Male,1,2024/03/22_10:16:36,YZ,None,
,,,,,,practice,0,17,1,1472,1,Q,0,right,0.6546674330020323,1,0,,,,,,,,,,,,,,,,,,,,,1,,,,,,,,,,,,,,,,,,,,,,,,,,,,,,,,,,,,,,,,,,,,,,114,159562,24,Male,1,2024/03/22_10:16:36,YZ,None,
,,,,,,practice,0,17,1,1472,2,J,0,right,0.45675446699897293,1,0,,,,,,,,,,,,,,,,,,,,,1,,,,,,,,,,,,,,,,,,,,,,,,,,,,,,,,,,,,,,,,,,,,,,114,159562,24,Male,1,2024/03/22_10:16:36,YZ,None,
,,,,,,practice,0,17,1,1472,3,J,1,left,0.5529136530094547,1,0,,,,,,,,,,,,,,,,,,,,,1,,,,,,,,,,,,,,,,,,,,,,,,,,,,,,,,,,,,,,,,,,,,,,114,159562,24,Male,1,2024/03/22_10:16:36,YZ,None,
,,,,,,practice,0,17,1,1472,4,V,0,right,0.5838234510010807,1,0,,,,,,,,,,,,,,,,,,,,,1,,,,,,,,,,,,,,,,,,,,,,,,,,,,,,,,,,,,,,,,,,,,,,114,159562,24,Male,1,2024/03/22_10:16:36,YZ,None,
,,,,,,practice,0,17,1,1472,5,N,0,right,0.5724002470087726,1,0,,,,,,,,,,,,,,,,,,,,,1,,,,,,,,,,,,,,,,,,,,,,,,,,,,,,,,,,,,,,,,,,,,,,114,159562,24,Male,1,2024/03/22_10:16:36,YZ,None,
,,,,,,practice,0,17,1,1472,6,N,1,left,0.5308119410037762,1,0,,,,,,,,,,,,,,,,,,,,,1,,,,,,,,,,,,,,,,,,,,,,,,,,,,,,,,,,,,,,,,,,,,,,114,159562,24,Male,1,2024/03/22_10:16:36,YZ,None,
,,,,,,practice,0,17,1,1472,7,V,0,right,0.7094472390017472,1,0,,,,,,,,,,,,,,,,,,,,,1,,,,,,,,,,,,,,,,,,,,,,,,,,,,,,,,,,,,,,,,,,,,,,114,159562,24,Male,1,2024/03/22_10:16:36,YZ,None,
,,,,,,practice,0,17,1,1472,8,V,1,right,0.5243499290081672,0,0,,,,,,,,,,,,,,,,,,,,,1,,,,,,,,,,,,,,,,,,,,,,,,,,,,,,,,,,,,,,,,,,,,,,114,159562,24,Male,1,2024/03/22_10:16:36,YZ,None,
,,,,,,practice,0,17,1,1472,9,C,0,right,2.057962912003859,1,0,,,,,,,,,,,,,,,,,,,,,1,,,,,,,,,,,,,,,,,,,,,,,,,,,,,,,,,,,,,,,,,,,,,,114,159562,24,Male,1,2024/03/22_10:16:36,YZ,None,
,,,,,,practice,0,17,1,1472,,,,,,,,0.9166666666666666,0.6666666666666666,0.0,1.0,0.0,1.0,0.7381256968930958,2,0,0,0,0,6,8,3,6,0,,,,1,,,,,,,,,,,,,,,,,,,,,,,,,,,,,,,,,,,,,,,,,,,,,,114,159562,24,Male,1,2024/03/22_10:16:36,YZ,None,
1,./instructions/inst_prac_3/Slide37.png,right,6.850262856998597,685.7394521850074,692.589715042006,,,,,,,,,,,,,,,,,,,,,,,,,,,,,,,,,1,,,,,,,,,,,,,,,,,,,,,,,,,,,,,,,,,,,,,,,,,,,,,,114,159562,24,Male,1,2024/03/22_10:16:36,YZ,None,
2,./instructions/inst_prac_3/Slide38.png,right,1.0338934129977133,692.6196363960044,693.6535298090021,,,,,,,,,,,,,,,,,,,,,,,,,,,,,,,,,1,,,,,,,,,,,,,,,,,,,,,,,,,,,,,,,,,,,,,,,,,,,,,,114,159562,24,Male,1,2024/03/22_10:16:36,YZ,None,
3,./instructions/inst_prac_3/Slide39.png,right,0.6132459700020263,693.6804408760072,694.2936868460092,,,,,,,,,,,,,,,,,,,,,,,,,,,,,,,,,1,,,,,,,,,,,,,,,,,,,,,,,,,,,,,,,,,,,,,,,,,,,,,,114,159562,24,Male,1,2024/03/22_10:16:36,YZ,None,
4,./instructions/inst_prac_3/Slide40.png,right,0.9059463899902767,694.323594120011,695.2295405100012,,,,,,,,,,,,,,,,,,,,,,,,,,,,,,,,,1,,,,,,,,,,,,,,,,,,,,,,,,,,,,,,,,,,,,,,,,,,,,,,114,159562,24,Male,1,2024/03/22_10:16:36,YZ,None,
5,./instructions/inst_prac_3/Slide41.png,right,5.393912376996013,695.2597533610096,700.6536657380057,,,,,,,,,,,,,,,,,,,,,,,,,,,,,,,,,1,,,,,,,,,,,,,,,,,,,,,,,,,,,,,,,,,,,,,,,,,,,,,,114,159562,24,Male,1,2024/03/22_10:16:36,YZ,None,
6,./instructions/inst_prac_3/Slide42.png,right,2.6181959149980685,700.6834637870052,703.3016597020032,,,,,,,,,,,,,,,,,,,,,,,,,,,,,,,,,1,,,,,,,,,,,,,,,,,,,,,,,,,,,,,,,,,,,,,,,,,,,,,,114,159562,24,Male,1,2024/03/22_10:16:36,YZ,None,
7,./instructions/inst_prac_3/Slide43.png,right,4.64945691099274,703.3320922460116,707.9815491570043,,,,,,,,,,,,,,,,,,,,,,,,,,,,,,,,,1,,,,,,,,,,,,,,,,,,,,,,,,,,,,,,,,,,,,,,,,,,,,,,114,159562,24,Male,1,2024/03/22_10:16:36,YZ,None,
8,./instructions/inst_prac_3/Slide44.png,right,1.5455349249969004,708.0120224810089,709.5575574060058,,,,,,,,,,,,,,,,,,,,,,,,,,,,,,,,,1,,,,,,,,,,,,,,,,,,,,,,,,,,,,,,,,,,,,,,,,,,,,,,114,159562,24,Male,1,2024/03/22_10:16:36,YZ,None,
,,,,,,practice,0,5,3,788,1,C,0,right,0.9645235969946953,1,0,,,,,,,,,,,,,,,,,,,,,1,,,,,,,,,,,,,,,,,,,,,,,,,,,,,,,,,,,,,,,,,,,,,,114,159562,24,Male,1,2024/03/22_10:16:36,YZ,None,
,,,,,,practice,0,5,3,788,2,C,0,right,0.5798715300043114,1,0,,,,,,,,,,,,,,,,,,,,,1,,,,,,,,,,,,,,,,,,,,,,,,,,,,,,,,,,,,,,,,,,,,,,114,159562,24,Male,1,2024/03/22_10:16:36,YZ,None,
,,,,,,practice,0,5,3,788,3,Q,0,right,1.0677125189977232,1,0,,,,,,,,,,,,,,,,,,,,,1,,,,,,,,,,,,,,,,,,,,,,,,,,,,,,,,,,,,,,,,,,,,,,114,159562,24,Male,1,2024/03/22_10:16:36,YZ,None,
,,,,,,practice,0,5,3,788,4,J,0,right,0.580149444998824,1,0,,,,,,,,,,,,,,,,,,,,,1,,,,,,,,,,,,,,,,,,,,,,,,,,,,,,,,,,,,,,,,,,,,,,114,159562,24,Male,1,2024/03/22_10:16:36,YZ,None,
,,,,,,practice,0,5,3,788,5,N,0,right,0.8529147759982152,1,0,,,,,,,,,,,,,,,,,,,,,1,,,,,,,,,,,,,,,,,,,,,,,,,,,,,,,,,,,,,,,,,,,,,,114,159562,24,Male,1,2024/03/22_10:16:36,YZ,None,
,,,,,,practice,0,5,3,788,6,N,0,right,1.2756256839929847,1,0,,,,,,,,,,,,,,,,,,,,,1,,,,,,,,,,,,,,,,,,,,,,,,,,,,,,,,,,,,,,,,,,,,,,114,159562,24,Male,1,2024/03/22_10:16:36,YZ,None,
,,,,,,practice,0,5,3,788,7,J,1,left,0.8292540370021015,1,0,,,,,,,,,,,,,,,,,,,,,1,,,,,,,,,,,,,,,,,,,,,,,,,,,,,,,,,,,,,,,,,,,,,,114,159562,24,Male,1,2024/03/22_10:16:36,YZ,None,
,,,,,,practice,0,5,3,788,8,Q,0,right,2.687090988998534,1,0,,,,,,,,,,,,,,,,,,,,,1,,,,,,,,,,,,,,,,,,,,,,,,,,,,,,,,,,,,,,,,,,,,,,114,159562,24,Male,1,2024/03/22_10:16:36,YZ,None,
,,,,,,practice,0,5,3,788,9,N,1,left,0.831106728001032,1,0,,,,,,,,,,,,,,,,,,,,,1,,,,,,,,,,,,,,,,,,,,,,,,,,,,,,,,,,,,,,,,,,,,,,114,159562,24,Male,1,2024/03/22_10:16:36,YZ,None,
,,,,,,practice,0,5,3,788,10,S,0,right,0.6116831160034053,1,0,,,,,,,,,,,,,,,,,,,,,1,,,,,,,,,,,,,,,,,,,,,,,,,,,,,,,,,,,,,,,,,,,,,,114,159562,24,Male,1,2024/03/22_10:16:36,YZ,None,
,,,,,,practice,0,5,3,788,11,Q,1,left,1.203767721002805,1,0,,,,,,,,,,,,,,,,,,,,,1,,,,,,,,,,,,,,,,,,,,,,,,,,,,,,,,,,,,,,,,,,,,,,114,159562,24,Male,1,2024/03/22_10:16:36,YZ,None,
,,,,,,practice,0,5,3,788,12,X,0,right,0.6474113480071537,1,0,,,,,,,,,,,,,,,,,,,,,1,,,,,,,,,,,,,,,,,,,,,,,,,,,,,,,,,,,,,,,,,,,,,,114,159562,24,Male,1,2024/03/22_10:16:36,YZ,None,
,,,,,,practice,0,5,3,788,13,S,1,left,0.6355362280010013,1,0,,,,,,,,,,,,,,,,,,,,,1,,,,,,,,,,,,,,,,,,,,,,,,,,,,,,,,,,,,,,,,,,,,,,114,159562,24,Male,1,2024/03/22_10:16:36,YZ,None,
,,,,,,practice,0,5,3,788,,,,,,,,1.0,1.0,0.0,1.0,0.0,1.0,0.9820498244617528,4,0,0,0,0,9,13,4,9,0,,,,1,,,,,,,,,,,,,,,,,,,,,,,,,,,,,,,,,,,,,,,,,,,,,,114,159562,24,Male,1,2024/03/22_10:16:36,YZ,None,
1,./instructions/inst_prac_3_next/Slide49.png,right,1.860195950997877,736.0413434180082,737.9015393690061,,,,,,,,,,,,,,,,,,,,,,,,,,,,,,,,,1,,,,,,,,,,,,,,,,,,,,,,,,,,,,,,,,,,,,,,,,,,,,,,114,159562,24,Male,1,2024/03/22_10:16:36,YZ,None,
,,,,,,practice,0,23,3,1472,1,C,0,right,0.7109282149904175,1,0,,,,,,,,,,,,,,,,,,,,,1,,,,,,,,,,,,,,,,,,,,,,,,,,,,,,,,,,,,,,,,,,,,,,114,159562,24,Male,1,2024/03/22_10:16:36,YZ,None,
,,,,,,practice,0,23,3,1472,2,C,0,right,0.4926648020045832,1,0,,,,,,,,,,,,,,,,,,,,,1,,,,,,,,,,,,,,,,,,,,,,,,,,,,,,,,,,,,,,,,,,,,,,114,159562,24,Male,1,2024/03/22_10:16:36,YZ,None,
,,,,,,practice,0,23,3,1472,3,V,0,right,0.8258482810051646,1,0,,,,,,,,,,,,,,,,,,,,,1,,,,,,,,,,,,,,,,,,,,,,,,,,,,,,,,,,,,,,,,,,,,,,114,159562,24,Male,1,2024/03/22_10:16:36,YZ,None,
,,,,,,practice,0,23,3,1472,4,J,0,right,0.6127089910005452,1,0,,,,,,,,,,,,,,,,,,,,,1,,,,,,,,,,,,,,,,,,,,,,,,,,,,,,,,,,,,,,,,,,,,,,114,159562,24,Male,1,2024/03/22_10:16:36,YZ,None,
,,,,,,practice,0,23,3,1472,5,C,1,left,0.8441437340079574,1,0,,,,,,,,,,,,,,,,,,,,,1,,,,,,,,,,,,,,,,,,,,,,,,,,,,,,,,,,,,,,,,,,,,,,114,159562,24,Male,1,2024/03/22_10:16:36,YZ,None,
,,,,,,practice,0,23,3,1472,6,N,0,right,1.4764714159973664,1,0,,,,,,,,,,,,,,,,,,,,,1,,,,,,,,,,,,,,,,,,,,,,,,,,,,,,,,,,,,,,,,,,,,,,114,159562,24,Male,1,2024/03/22_10:16:36,YZ,None,
,,,,,,practice,0,23,3,1472,7,J,1,right,0.8128034690016648,0,0,,,,,,,,,,,,,,,,,,,,,1,,,,,,,,,,,,,,,,,,,,,,,,,,,,,,,,,,,,,,,,,,,,,,114,159562,24,Male,1,2024/03/22_10:16:36,YZ,None,
,,,,,,practice,0,23,3,1472,8,F,0,right,1.2759749840042787,1,0,,,,,,,,,,,,,,,,,,,,,1,,,,,,,,,,,,,,,,,,,,,,,,,,,,,,,,,,,,,,,,,,,,,,114,159562,24,Male,1,2024/03/22_10:16:36,YZ,None,
,,,,,,practice,0,23,3,1472,9,N,1,right,0.9963314469932811,0,0,,,,,,,,,,,,,,,,,,,,,1,,,,,,,,,,,,,,,,,,,,,,,,,,,,,,,,,,,,,,,,,,,,,,114,159562,24,Male,1,2024/03/22_10:16:36,YZ,None,
,,,,,,practice,0,23,3,1472,,,,,,,,0.8333333333333334,0.3333333333333333,0.0,1.0,0.0,1.0,0.8942083710005844,1,0,0,0,0,6,7,3,6,0,,,,1,,,,,,,,,,,,,,,,,,,,,,,,,,,,,,,,,,,,,,,,,,,,,,114,159562,24,Male,1,2024/03/22_10:16:36,YZ,None,
,,,,,,practice,0,10,3,1472,1,Q,0,right,0.7121248890034622,1,0,,,,,,,,,,,,,,,,,,,,,1,,,,,,,,,,,,,,,,,,,,,,,,,,,,,,,,,,,,,,,,,,,,,,114,159562,24,Male,1,2024/03/22_10:16:36,YZ,None,
,,,,,,practice,0,10,3,1472,2,N,0,right,0.821005422010785,1,0,,,,,,,,,,,,,,,,,,,,,1,,,,,,,,,,,,,,,,,,,,,,,,,,,,,,,,,,,,,,,,,,,,,,114,159562,24,Male,1,2024/03/22_10:16:36,YZ,None,
,,,,,,practice,0,10,3,1472,3,J,0,right,0.7925475210067816,1,0,,,,,,,,,,,,,,,,,,,,,1,,,,,,,,,,,,,,,,,,,,,,,,,,,,,,,,,,,,,,,,,,,,,,114,159562,24,Male,1,2024/03/22_10:16:36,YZ,None,
,,,,,,practice,0,10,3,1472,4,Q,1,right,1.3852088479907252,0,0,,,,,,,,,,,,,,,,,,,,,1,,,,,,,,,,,,,,,,,,,,,,,,,,,,,,,,,,,,,,,,,,,,,,114,159562,24,Male,1,2024/03/22_10:16:36,YZ,None,
,,,,,,practice,0,10,3,1472,5,N,1,left,0.5917176509974524,1,0,,,,,,,,,,,,,,,,,,,,,1,,,,,,,,,,,,,,,,,,,,,,,,,,,,,,,,,,,,,,,,,,,,,,114,159562,24,Male,1,2024/03/22_10:16:36,YZ,None,
,,,,,,practice,0,10,3,1472,6,S,0,left,0.7016084439965198,0,0,,,,,,,,,,,,,,,,,,,,,1,,,,,,,,,,,,,,,,,,,,,,,,,,,,,,,,,,,,,,,,,,,,,,114,159562,24,Male,1,2024/03/22_10:16:36,YZ,None,
,,,,,,practice,0,10,3,1472,7,Q,1,right,0.4362555359984981,0,0,,,,,,,,,,,,,,,,,,,,,1,,,,,,,,,,,,,,,,,,,,,,,,,,,,,,,,,,,,,,,,,,,,,,114,159562,24,Male,1,2024/03/22_10:16:36,YZ,None,
,,,,,,practice,0,10,3,1472,8,J,0,right,0.9601493039954221,1,0,,,,,,,,,,,,,,,,,,,,,1,,,,,,,,,,,,,,,,,,,,,,,,,,,,,,,,,,,,,,,,,,,,,,114,159562,24,Male,1,2024/03/22_10:16:36,YZ,None,
,,,,,,practice,0,10,3,1472,9,C,0,right,3.008597236999776,1,0,,,,,,,,,,,,,,,,,,,,,1,,,,,,,,,,,,,,,,,,,,,,,,,,,,,,,,,,,,,,,,,,,,,,114,159562,24,Male,1,2024/03/22_10:16:36,YZ,None,
,,,,,,practice,0,10,3,1472,,,,,,,,0.6666666666666666,0.3333333333333333,0.16666666666666666,0.8333333333333334,0.0,0.8333333333333334,1.0454683168888248,1,1,0,0,0,5,6,3,6,0,,,,1,,,,,,,,,,,,,,,,,,,,,,,,,,,,,,,,,,,,,,,,,,,,,,114,159562,24,Male,1,2024/03/22_10:16:36,YZ,None,
1,./instructions/inst_redo_3/Slide47.png,right,11.220887849995052,767.3926502180111,778.6135380680062,,,,,,,,,,,,,,,,,,,,,,,,,,,,,,,,,1,,,,,,,,,,,,,,,,,,,,,,,,,,,,,,,,,,,,,,,,,,,,,,114,159562,24,Male,1,2024/03/22_10:16:36,YZ,None,
,,,,,,practice,0,15,3,1472,1,F,0,right,3.2125160509895068,1,0,,,,,,,,,,,,,,,,,,,,,1,,,,,,,,,,,,,,,,,,,,,,,,,,,,,,,,,,,,,,,,,,,,,,114,159562,24,Male,1,2024/03/22_10:16:36,YZ,None,
,,,,,,practice,0,15,3,1472,2,N,0,right,0.6601677910075523,1,0,,,,,,,,,,,,,,,,,,,,,1,,,,,,,,,,,,,,,,,,,,,,,,,,,,,,,,,,,,,,,,,,,,,,114,159562,24,Male,1,2024/03/22_10:16:36,YZ,None,
,,,,,,practice,0,15,3,1472,3,X,0,right,0.7887390129908454,1,0,,,,,,,,,,,,,,,,,,,,,1,,,,,,,,,,,,,,,,,,,,,,,,,,,,,,,,,,,,,,,,,,,,,,114,159562,24,Male,1,2024/03/22_10:16:36,YZ,None,
,,,,,,practice,0,15,3,1472,4,S,0,right,0.640006720990641,1,0,,,,,,,,,,,,,,,,,,,,,1,,,,,,,,,,,,,,,,,,,,,,,,,,,,,,,,,,,,,,,,,,,,,,114,159562,24,Male,1,2024/03/22_10:16:36,YZ,None,
,,,,,,practice,0,15,3,1472,5,N,1,right,1.720438728996669,0,0,,,,,,,,,,,,,,,,,,,,,1,,,,,,,,,,,,,,,,,,,,,,,,,,,,,,,,,,,,,,,,,,,,,,114,159562,24,Male,1,2024/03/22_10:16:36,YZ,None,
,,,,,,practice,0,15,3,1472,6,X,1,left,1.1670622649980942,1,0,,,,,,,,,,,,,,,,,,,,,1,,,,,,,,,,,,,,,,,,,,,,,,,,,,,,,,,,,,,,,,,,,,,,114,159562,24,Male,1,2024/03/22_10:16:36,YZ,None,
,,,,,,practice,0,15,3,1472,7,C,0,left,1.5960704640019685,0,0,,,,,,,,,,,,,,,,,,,,,1,,,,,,,,,,,,,,,,,,,,,,,,,,,,,,,,,,,,,,,,,,,,,,114,159562,24,Male,1,2024/03/22_10:16:36,YZ,None,
,,,,,,practice,0,15,3,1472,8,N,1,right,0.6652866950025782,0,0,,,,,,,,,,,,,,,,,,,,,1,,,,,,,,,,,,,,,,,,,,,,,,,,,,,,,,,,,,,,,,,,,,,,114,159562,24,Male,1,2024/03/22_10:16:36,YZ,None,
,,,,,,practice,0,15,3,1472,9,F,0,right,0.5142419499898097,1,0,,,,,,,,,,,,,,,,,,,,,1,,,,,,,,,,,,,,,,,,,,,,,,,,,,,,,,,,,,,,,,,,,,,,114,159562,24,Male,1,2024/03/22_10:16:36,YZ,None,
,,,,,,practice,0,15,3,1472,,,,,,,,0.6666666666666666,0.3333333333333333,0.16666666666666666,0.8333333333333334,0.0,0.8333333333333334,1.2182810754408517,1,1,0,0,0,5,6,3,6,0,,,,1,,,,,,,,,,,,,,,,,,,,,,,,,,,,,,,,,,,,,,,,,,,,,,114,159562,24,Male,1,2024/03/22_10:16:36,YZ,None,
1,./instructions/inst_redo_3/Slide47.png,right,11.13300879500457,795.3526322899997,806.4856410850043,,,,,,,,,,,,,,,,,,,,,,,,,,,,,,,,,1,,,,,,,,,,,,,,,,,,,,,,,,,,,,,,,,,,,,,,,,,,,,,,114,159562,24,Male,1,2024/03/22_10:16:36,YZ,None,
,,,,,,practice,0,16,3,1472,1,Q,0,right,1.222023012000136,1,0,,,,,,,,,,,,,,,,,,,,,1,,,,,,,,,,,,,,,,,,,,,,,,,,,,,,,,,,,,,,,,,,,,,,114,159562,24,Male,1,2024/03/22_10:16:36,YZ,None,
,,,,,,practice,0,16,3,1472,2,C,0,right,0.8249557960079983,1,0,,,,,,,,,,,,,,,,,,,,,1,,,,,,,,,,,,,,,,,,,,,,,,,,,,,,,,,,,,,,,,,,,,,,114,159562,24,Male,1,2024/03/22_10:16:36,YZ,None,
,,,,,,practice,0,16,3,1472,3,N,0,right,0.6882199770043371,1,0,,,,,,,,,,,,,,,,,,,,,1,,,,,,,,,,,,,,,,,,,,,,,,,,,,,,,,,,,,,,,,,,,,,,114,159562,24,Male,1,2024/03/22_10:16:36,YZ,None,
,,,,,,practice,0,16,3,1472,4,N,0,right,1.2960109889972955,1,0,,,,,,,,,,,,,,,,,,,,,1,,,,,,,,,,,,,,,,,,,,,,,,,,,,,,,,,,,,,,,,,,,,,,114,159562,24,Male,1,2024/03/22_10:16:36,YZ,None,
,,,,,,practice,0,16,3,1472,5,C,1,left,1.8686520379997091,1,0,,,,,,,,,,,,,,,,,,,,,1,,,,,,,,,,,,,,,,,,,,,,,,,,,,,,,,,,,,,,,,,,,,,,114,159562,24,Male,1,2024/03/22_10:16:36,YZ,None,
,,,,,,practice,0,16,3,1472,6,V,0,right,2.2720483979937853,1,0,,,,,,,,,,,,,,,,,,,,,1,,,,,,,,,,,,,,,,,,,,,,,,,,,,,,,,,,,,,,,,,,,,,,114,159562,24,Male,1,2024/03/22_10:16:36,YZ,None,
,,,,,,practice,0,16,3,1472,7,J,0,right,1.3367725540010724,1,0,,,,,,,,,,,,,,,,,,,,,1,,,,,,,,,,,,,,,,,,,,,,,,,,,,,,,,,,,,,,,,,,,,,,114,159562,24,Male,1,2024/03/22_10:16:36,YZ,None,
,,,,,,practice,0,16,3,1472,8,C,1,left,1.7751931000093464,1,0,,,,,,,,,,,,,,,,,,,,,1,,,,,,,,,,,,,,,,,,,,,,,,,,,,,,,,,,,,,,,,,,,,,,114,159562,24,Male,1,2024/03/22_10:16:36,YZ,None,
,,,,,,practice,0,16,3,1472,9,V,1,right,1.9240623680088902,0,0,,,,,,,,,,,,,,,,,,,,,1,,,,,,,,,,,,,,,,,,,,,,,,,,,,,,,,,,,,,,,,,,,,,,114,159562,24,Male,1,2024/03/22_10:16:36,YZ,None,
,,,,,,practice,0,16,3,1472,,,,,,,,0.9166666666666666,0.6666666666666666,0.0,1.0,0.0,1.0,1.4675486924469523,2,0,0,0,0,6,8,3,6,0,,,,1,,,,,,,,,,,,,,,,,,,,,,,,,,,,,,,,,,,,,,,,,,,,,,114,159562,24,Male,1,2024/03/22_10:16:36,YZ,None,
1,./instructions/inst_prac_main/Slide51.png,right,3.1316424590040697,826.9939227860013,830.1255652450054,,,,,,,,,,,,,,,,,,,,,,,,,,,,,,,,,1,,,,,,,,,,,,,,,,,,,,,,,,,,,,,,,,,,,,,,,,,,,,,,114,159562,24,Male,1,2024/03/22_10:16:36,YZ,None,
2,./instructions/inst_prac_main/Slide52.png,right,22.745670632008114,830.1559686330002,852.9016392650083,,,,,,,,,,,,,,,,,,,,,,,,,,,,,,,,,1,,,,,,,,,,,,,,,,,,,,,,,,,,,,,,,,,,,,,,,,,,,,,,114,159562,24,Male,1,2024/03/22_10:16:36,YZ,None,
1,./instructions/inst_prac_main/Slide53.png,left,2.7568953820009483,852.928837006999,855.6857323889999,,,,,,,,,,,,,,,,,,,,,,,,,,,,,,,,,1,,,,,,,,,,,,,,,,,,,,,,,,,,,,,,,,,,,,,,,,,,,,,,114,159562,24,Male,1,2024/03/22_10:16:36,YZ,None,
0,./instructions/inst_prac_main/Slide52.png,left,0.20044717499695253,855.7093726560124,855.9098198310094,,,,,,,,,,,,,,,,,,,,,,,,,,,,,,,,,1,,,,,,,,,,,,,,,,,,,,,,,,,,,,,,,,,,,,,,,,,,,,,,114,159562,24,Male,1,2024/03/22_10:16:36,YZ,None,
-1,./instructions/inst_prac_main/Slide51.png,left,0.20043391799845267,855.9292700170045,856.1297039350029,,,,,,,,,,,,,,,,,,,,,,,,,,,,,,,,,1,,,,,,,,,,,,,,,,,,,,,,,,,,,,,,,,,,,,,,,,,,,,,,114,159562,24,Male,1,2024/03/22_10:16:36,YZ,None,
-2,./instructions/inst_prac_main/Slide54.png,left,0.2004373840027256,856.1524451250007,856.3528825090034,,,,,,,,,,,,,,,,,,,,,,,,,,,,,,,,,1,,,,,,,,,,,,,,,,,,,,,,,,,,,,,,,,,,,,,,,,,,,,,,114,159562,24,Male,1,2024/03/22_10:16:36,YZ,None,
-3,./instructions/inst_prac_main/Slide53.png,left,0.2004567770054564,856.3756597780011,856.5761165550066,,,,,,,,,,,,,,,,,,,,,,,,,,,,,,,,,1,,,,,,,,,,,,,,,,,,,,,,,,,,,,,,,,,,,,,,,,,,,,,,114,159562,24,Male,1,2024/03/22_10:16:36,YZ,None,
-4,./instructions/inst_prac_main/Slide52.png,left,0.20030252500146162,856.5993350229983,856.7996375479997,,,,,,,,,,,,,,,,,,,,,,,,,,,,,,,,,1,,,,,,,,,,,,,,,,,,,,,,,,,,,,,,,,,,,,,,,,,,,,,,114,159562,24,Male,1,2024/03/22_10:16:36,YZ,None,
,,,,,,practice_main,0,1,1,1472,1,S,0,None,nan,0,1,,,,,,,,,,,,,,,,,,,,,1,,,,,,,,,,,,,,,,,,,,,,,,,,,,,,,,,,,,,,,,,,,,,,114,159562,24,Male,1,2024/03/22_10:16:36,YZ,None,
,,,,,,practice_main,0,1,1,1472,2,F,0,right,0.0,1,0,,,,,,,,,,,,,,,,,,,,,1,,,,,,,,,,,,,,,,,,,,,,,,,,,,,,,,,,,,,,,,,,,,,,114,159562,24,Male,1,2024/03/22_10:16:36,YZ,None,
,,,,,,practice_main,0,1,1,1472,3,C,0,right,0.4491713199968217,1,0,,,,,,,,,,,,,,,,,,,,,1,,,,,,,,,,,,,,,,,,,,,,,,,,,,,,,,,,,,,,,,,,,,,,114,159562,24,Male,1,2024/03/22_10:16:36,YZ,None,
,,,,,,practice_main,0,1,1,1472,4,C,1,left,0.915247373006423,1,0,,,,,,,,,,,,,,,,,,,,,1,,,,,,,,,,,,,,,,,,,,,,,,,,,,,,,,,,,,,,,,,,,,,,114,159562,24,Male,1,2024/03/22_10:16:36,YZ,None,
,,,,,,practice_main,0,1,1,1472,5,J,0,right,0.9600631920038722,1,0,,,,,,,,,,,,,,,,,,,,,1,,,,,,,,,,,,,,,,,,,,,,,,,,,,,,,,,,,,,,,,,,,,,,114,159562,24,Male,1,2024/03/22_10:16:36,YZ,None,
,,,,,,practice_main,0,1,1,1472,6,J,1,left,0.5436582299880683,1,0,,,,,,,,,,,,,,,,,,,,,1,,,,,,,,,,,,,,,,,,,,,,,,,,,,,,,,,,,,,,,,,,,,,,114,159562,24,Male,1,2024/03/22_10:16:36,YZ,None,
,,,,,,practice_main,0,1,1,1472,7,F,0,right,0.5740923999983352,1,0,,,,,,,,,,,,,,,,,,,,,1,,,,,,,,,,,,,,,,,,,,,,,,,,,,,,,,,,,,,,,,,,,,,,114,159562,24,Male,1,2024/03/22_10:16:36,YZ,None,
,,,,,,practice_main,0,1,1,1472,8,F,1,left,0.48655216200859286,1,0,,,,,,,,,,,,,,,,,,,,,1,,,,,,,,,,,,,,,,,,,,,,,,,,,,,,,,,,,,,,,,,,,,,,114,159562,24,Male,1,2024/03/22_10:16:36,YZ,None,
,,,,,,practice_main,0,1,1,1472,9,C,0,right,0.4482834950031247,1,0,,,,,,,,,,,,,,,,,,,,,1,,,,,,,,,,,,,,,,,,,,,,,,,,,,,,,,,,,,,,,,,,,,,,114,159562,24,Male,1,2024/03/22_10:16:36,YZ,None,
,,,,,,practice_main,0,1,1,1472,,,,,,,,1.0,1.0,0.0,1.0,0.1111111111111111,0.8888888888888888,0.5471335215006548,3,0,0,1,1,5,8,3,6,0,,,,1,,,,,,,,,,,,,,,,,,,,,,,,,,,,,,,,,,,,,,,,,,,,,,114,159562,24,Male,1,2024/03/22_10:16:36,YZ,None,
,,,,,240322_105747,PRACTICE,0,1,1,1472,,,,,,,,,,,,,,,,,,,,,,,,,,,,1,16,1,1,cue2.png,easy,B,50,2.9734904319921043,0,859.9048330490041,862.912821594,,,,,,,,,,,,,,,,,,,,,,,,,,,,,,,,,,,114,159562,24,Male,1,2024/03/22_10:16:36,YZ,None,
,,,,,,practice_main,0,2,3,1472,1,S,0,right,1.0479777680011466,1,0,,,,,,,,,,,,,,,,,,,,,1,,,,,,,,,,,,,,,,,,,,,,,,,,,,,,,,,,,,,,,,,,,,,,114,159562,24,Male,1,2024/03/22_10:16:36,YZ,None,
,,,,,,practice_main,0,2,3,1472,2,X,0,right,0.46758393199706916,1,0,,,,,,,,,,,,,,,,,,,,,1,,,,,,,,,,,,,,,,,,,,,,,,,,,,,,,,,,,,,,,,,,,,,,114,159562,24,Male,1,2024/03/22_10:16:36,YZ,None,
,,,,,,practice_main,0,2,3,1472,3,N,0,right,0.635457355005201,1,0,,,,,,,,,,,,,,,,,,,,,1,,,,,,,,,,,,,,,,,,,,,,,,,,,,,,,,,,,,,,,,,,,,,,114,159562,24,Male,1,2024/03/22_10:16:36,YZ,None,
,,,,,,practice_main,0,2,3,1472,4,F,0,right,0.43524400900059845,1,0,,,,,,,,,,,,,,,,,,,,,1,,,,,,,,,,,,,,,,,,,,,,,,,,,,,,,,,,,,,,,,,,,,,,114,159562,24,Male,1,2024/03/22_10:16:36,YZ,None,
,,,,,,practice_main,0,2,3,1472,5,X,1,left,0.4316489610064309,1,0,,,,,,,,,,,,,,,,,,,,,1,,,,,,,,,,,,,,,,,,,,,,,,,,,,,,,,,,,,,,,,,,,,,,114,159562,24,Male,1,2024/03/22_10:16:36,YZ,None,
,,,,,,practice_main,0,2,3,1472,6,N,1,right,0.8409503159928136,0,0,,,,,,,,,,,,,,,,,,,,,1,,,,,,,,,,,,,,,,,,,,,,,,,,,,,,,,,,,,,,,,,,,,,,114,159562,24,Male,1,2024/03/22_10:16:36,YZ,None,
,,,,,,practice_main,0,2,3,1472,7,N,0,left,0.7360754539986374,0,0,,,,,,,,,,,,,,,,,,,,,1,,,,,,,,,,,,,,,,,,,,,,,,,,,,,,,,,,,,,,,,,,,,,,114,159562,24,Male,1,2024/03/22_10:16:36,YZ,None,
,,,,,,practice_main,0,2,3,1472,8,F,0,right,0.8215097979991697,1,0,,,,,,,,,,,,,,,,,,,,,1,,,,,,,,,,,,,,,,,,,,,,,,,,,,,,,,,,,,,,,,,,,,,,114,159562,24,Male,1,2024/03/22_10:16:36,YZ,None,
,,,,,,practice_main,0,2,3,1472,9,N,1,left,0.7047344540042104,1,0,,,,,,,,,,,,,,,,,,,,,1,,,,,,,,,,,,,,,,,,,,,,,,,,,,,,,,,,,,,,,,,,,,,,114,159562,24,Male,1,2024/03/22_10:16:36,YZ,None,
,,,,,,practice_main,0,2,3,1472,,,,,,,,0.8194444444444444,0.6666666666666666,0.16666666666666666,0.8333333333333334,0.0,0.8333333333333334,0.6801313385561419,2,1,0,0,0,5,7,3,6,0,,,,1,,,,,,,,,,,,,,,,,,,,,,,,,,,,,,,,,,,,,,,,,,,,,,114,159562,24,Male,1,2024/03/22_10:16:36,YZ,None,
,,,,,240322_105810,PRACTICE,0,2,3,1472,,,,,,,,,,,,,,,,,,,,,,,,,,,,1,49,2,2,cue1.png,hard,B,50,2.966904250992229,0,883.1372025840101,886.1207089310046,,,,,,,,,,,,,,,,,,,,,,,,,,,,,,,,,,,114,159562,24,Male,1,2024/03/22_10:16:36,YZ,None,
,,,,,,practice_main,0,3,3,1472,1,J,0,right,0.7582147399953101,1,0,,,,,,,,,,,,,,,,,,,,,1,,,,,,,,,,,,,,,,,,,,,,,,,,,,,,,,,,,,,,,,,,,,,,114,159562,24,Male,1,2024/03/22_10:16:36,YZ,None,
,,,,,,practice_main,0,3,3,1472,2,N,0,right,0.4136296179931378,1,0,,,,,,,,,,,,,,,,,,,,,1,,,,,,,,,,,,,,,,,,,,,,,,,,,,,,,,,,,,,,,,,,,,,,114,159562,24,Male,1,2024/03/22_10:16:36,YZ,None,
,,,,,,practice_main,0,3,3,1472,3,J,0,right,0.5127160310075851,1,0,,,,,,,,,,,,,,,,,,,,,1,,,,,,,,,,,,,,,,,,,,,,,,,,,,,,,,,,,,,,,,,,,,,,114,159562,24,Male,1,2024/03/22_10:16:36,YZ,None,
,,,,,,practice_main,0,3,3,1472,4,J,1,left,0.355014390006545,1,0,,,,,,,,,,,,,,,,,,,,,1,,,,,,,,,,,,,,,,,,,,,,,,,,,,,,,,,,,,,,,,,,,,,,114,159562,24,Male,1,2024/03/22_10:16:36,YZ,None,
,,,,,,practice_main,0,3,3,1472,5,V,0,right,0.8173932349891402,1,0,,,,,,,,,,,,,,,,,,,,,1,,,,,,,,,,,,,,,,,,,,,,,,,,,,,,,,,,,,,,,,,,,,,,114,159562,24,Male,1,2024/03/22_10:16:36,YZ,None,
,,,,,,practice_main,0,3,3,1472,6,J,1,right,0.5239638010098133,0,0,,,,,,,,,,,,,,,,,,,,,1,,,,,,,,,,,,,,,,,,,,,,,,,,,,,,,,,,,,,,,,,,,,,,114,159562,24,Male,1,2024/03/22_10:16:36,YZ,None,
,,,,,,practice_main,0,3,3,1472,7,X,0,right,0.7233669950073818,1,0,,,,,,,,,,,,,,,,,,,,,1,,,,,,,,,,,,,,,,,,,,,,,,,,,,,,,,,,,,,,,,,,,,,,114,159562,24,Male,1,2024/03/22_10:16:36,YZ,None,
,,,,,,practice_main,0,3,3,1472,8,S,0,right,0.4622784569946816,1,0,,,,,,,,,,,,,,,,,,,,,1,,,,,,,,,,,,,,,,,,,,,,,,,,,,,,,,,,,,,,,,,,,,,,114,159562,24,Male,1,2024/03/22_10:16:36,YZ,None,
,,,,,,practice_main,0,3,3,1472,9,J,1,left,0.5407143580086995,1,0,,,,,,,,,,,,,,,,,,,,,1,,,,,,,,,,,,,,,,,,,,,,,,,,,,,,,,,,,,,,,,,,,,,,114,159562,24,Male,1,2024/03/22_10:16:36,YZ,None,
,,,,,,practice_main,0,3,3,1472,,,,,,,,0.9166666666666666,0.6666666666666666,0.0,1.0,0.0,1.0,0.5674768472235883,2,0,0,0,0,6,8,3,6,0,,,,1,,,,,,,,,,,,,,,,,,,,,,,,,,,,,,,,,,,,,,,,,,,,,,114,159562,24,Male,1,2024/03/22_10:16:36,YZ,None,
,,,,,240322_105831,PRACTICE,0,3,3,1472,,,,,,,,,,,,,,,,,,,,,,,,,,,,1,28,3,3,cue1.png,hard,B,56,1.755567307001911,0,906.1044197480078,907.8764439040096,,,,,,,,,,,,,,,,,,,,,,,,,,,,,,,,,,,114,159562,24,Male,1,2024/03/22_10:16:36,YZ,None,
1,./instructions/inst_prac_end/Slide56.png,right,24.43103817899828,925.3745349600067,949.805573139005,,,,,,,,,,,,,,,,,,,,,,,,,,,,,,,,,1,,,,,,,,,,,,,,,,,,,,,,,,,,,,,,,,,,,,,,,,,,,,,,114,159562,24,Male,1,2024/03/22_10:16:36,YZ,None,
1,./instructions/inst_test/Slide57.png,right,94.61151899599645,949.8579628980078,1044.4694818940043,,,,,,,,,,,,,,,,,,,,,,,,,,,,,,,,,1,,,,,,,,,,,,,,,,,,,,,,,,,,,,,,,,,,,,,,,,,,,,,,114,159562,24,Male,1,2024/03/22_10:16:36,YZ,None,
,,,,,,test,1,1,1,1472,1,S,0,right,0.5933566739986418,1,0,,,,,,,,,,,,,,,,,,,,,1,,,,,,,,,,,,,,,,,,,,,,,,,,,,,,,,,,,,,,,,,,,,,,114,159562,24,Male,1,2024/03/22_10:16:36,YZ,None,
,,,,,,test,1,1,1,1472,2,S,1,left,0.441247853988898,1,0,,,,,,,,,,,,,,,,,,,,,1,,,,,,,,,,,,,,,,,,,,,,,,,,,,,,,,,,,,,,,,,,,,,,114,159562,24,Male,1,2024/03/22_10:16:36,YZ,None,
,,,,,,test,1,1,1,1472,3,Q,0,right,0.5247643309994601,1,0,,,,,,,,,,,,,,,,,,,,,1,,,,,,,,,,,,,,,,,,,,,,,,,,,,,,,,,,,,,,,,,,,,,,114,159562,24,Male,1,2024/03/22_10:16:36,YZ,None,
,,,,,,test,1,1,1,1472,4,F,0,right,0.40597164099744987,1,0,,,,,,,,,,,,,,,,,,,,,1,,,,,,,,,,,,,,,,,,,,,,,,,,,,,,,,,,,,,,,,,,,,,,114,159562,24,Male,1,2024/03/22_10:16:36,YZ,None,
,,,,,,test,1,1,1,1472,5,F,1,left,0.4893186599947512,1,0,,,,,,,,,,,,,,,,,,,,,1,,,,,,,,,,,,,,,,,,,,,,,,,,,,,,,,,,,,,,,,,,,,,,114,159562,24,Male,1,2024/03/22_10:16:36,YZ,None,
,,,,,,test,1,1,1,1472,6,N,0,right,0.40767778700683266,1,0,,,,,,,,,,,,,,,,,,,,,1,,,,,,,,,,,,,,,,,,,,,,,,,,,,,,,,,,,,,,,,,,,,,,114,159562,24,Male,1,2024/03/22_10:16:36,YZ,None,
,,,,,,test,1,1,1,1472,7,V,0,right,0.49706571199931204,1,0,,,,,,,,,,,,,,,,,,,,,1,,,,,,,,,,,,,,,,,,,,,,,,,,,,,,,,,,,,,,,,,,,,,,114,159562,24,Male,1,2024/03/22_10:16:36,YZ,None,
,,,,,,test,1,1,1,1472,8,J,0,right,0.47322106700448785,1,0,,,,,,,,,,,,,,,,,,,,,1,,,,,,,,,,,,,,,,,,,,,,,,,,,,,,,,,,,,,,,,,,,,,,114,159562,24,Male,1,2024/03/22_10:16:36,YZ,None,
,,,,,,test,1,1,1,1472,9,J,1,left,0.48529513900575694,1,0,,,,,,,,,,,,,,,,,,,,,1,,,,,,,,,,,,,,,,,,,,,,,,,,,,,,,,,,,,,,,,,,,,,,114,159562,24,Male,1,2024/03/22_10:16:36,YZ,None,
,,,,,,Test,1,1,1,1472,,,,,,,,1.0,1.0,0.0,1.0,0.0,1.0,0.4797687627772878,3,0,0,0,0,6,9,3,6,0,,,,1,,,,,,,,,,,,,,,,,,,,,,,,,,,,,,,,,,,,,,,,,,,,,,114,159562,24,Male,1,2024/03/22_10:16:36,YZ,None,
,,,,,240322_110053,TEST,1,1,1,1472,,,,,,,,,,,,,,,,,,,,,,,,,,,,1,1,1,1,cue2.png,easy,B,40,1.602143588999752,0,1049.5305689790112,1051.1505907910032,,,,,,,,,,,,,,,,,,,,,,,,,,,,,,,,,,,114,159562,24,Male,1,2024/03/22_10:16:36,YZ,None,
,,,,,,test,1,2,3,1472,1,Q,0,right,1.0078526730067097,1,0,,,,,,,,,,,,,,,,,,,,,1,,,,,,,,,,,,,,,,,,,,,,,,,,,,,,,,,,,,,,,,,,,,,,114,159562,24,Male,1,2024/03/22_10:16:36,YZ,None,
,,,,,,test,1,2,3,1472,2,F,0,right,0.2930516210035421,1,0,,,,,,,,,,,,,,,,,,,,,1,,,,,,,,,,,,,,,,,,,,,,,,,,,,,,,,,,,,,,,,,,,,,,114,159562,24,Male,1,2024/03/22_10:16:36,YZ,None,
,,,,,,test,1,2,3,1472,3,X,0,right,0.3235209679987747,1,0,,,,,,,,,,,,,,,,,,,,,1,,,,,,,,,,,,,,,,,,,,,,,,,,,,,,,,,,,,,,,,,,,,,,114,159562,24,Male,1,2024/03/22_10:16:36,YZ,None,
,,,,,,test,1,2,3,1472,4,X,0,right,0.647308220010018,1,0,,,,,,,,,,,,,,,,,,,,,1,,,,,,,,,,,,,,,,,,,,,,,,,,,,,,,,,,,,,,,,,,,,,,114,159562,24,Male,1,2024/03/22_10:16:36,YZ,None,
,,,,,,test,1,2,3,1472,5,F,1,right,0.5123567130067386,0,0,,,,,,,,,,,,,,,,,,,,,1,,,,,,,,,,,,,,,,,,,,,,,,,,,,,,,,,,,,,,,,,,,,,,114,159562,24,Male,1,2024/03/22_10:16:36,YZ,None,
,,,,,,test,1,2,3,1472,6,X,1,left,0.5640372699999716,1,0,,,,,,,,,,,,,,,,,,,,,1,,,,,,,,,,,,,,,,,,,,,,,,,,,,,,,,,,,,,,,,,,,,,,114,159562,24,Male,1,2024/03/22_10:16:36,YZ,None,
,,,,,,test,1,2,3,1472,7,J,0,right,0.5986629609978991,1,0,,,,,,,,,,,,,,,,,,,,,1,,,,,,,,,,,,,,,,,,,,,,,,,,,,,,,,,,,,,,,,,,,,,,114,159562,24,Male,1,2024/03/22_10:16:36,YZ,None,
,,,,,,test,1,2,3,1472,8,F,1,left,0.7154511690023355,1,0,,,,,,,,,,,,,,,,,,,,,1,,,,,,,,,,,,,,,,,,,,,,,,,,,,,,,,,,,,,,,,,,,,,,114,159562,24,Male,1,2024/03/22_10:16:36,YZ,None,
,,,,,,test,1,2,3,1472,9,F,0,left,0.4580544550117338,0,0,,,,,,,,,,,,,,,,,,,,,1,,,,,,,,,,,,,,,,,,,,,,,,,,,,,,,,,,,,,,,,,,,,,,114,159562,24,Male,1,2024/03/22_10:16:36,YZ,None,
,,,,,,Test,1,2,3,1472,,,,,,,,0.8194444444444444,0.6666666666666666,0.16666666666666666,0.8333333333333334,0.0,0.8333333333333334,0.5689217833375247,2,1,0,0,0,5,7,3,6,0,,,,1,,,,,,,,,,,,,,,,,,,,,,,,,,,,,,,,,,,,,,,,,,,,,,114,159562,24,Male,1,2024/03/22_10:16:36,YZ,None,
,,,,,240322_110114,TEST,1,2,3,1472,,,,,,,,,,,,,,,,,,,,,,,,,,,,1,2,2,2,cue1.png,hard,B,46,1.5469770420022542,0,1069.3125724080019,1070.8797381230106,,,,,,,,,,,,,,,,,,,,,,,,,,,,,,,,,,,114,159562,24,Male,1,2024/03/22_10:16:36,YZ,None,
,,,,,,test,1,3,3,1472,1,F,0,right,0.7303645570063964,1,0,,,,,,,,,,,,,,,,,,,,,1,,,,,,,,,,,,,,,,,,,,,,,,,,,,,,,,,,,,,,,,,,,,,,114,159562,24,Male,1,2024/03/22_10:16:36,YZ,None,
,,,,,,test,1,3,3,1472,2,J,0,right,0.3727805350063136,1,0,,,,,,,,,,,,,,,,,,,,,1,,,,,,,,,,,,,,,,,,,,,,,,,,,,,,,,,,,,,,,,,,,,,,114,159562,24,Male,1,2024/03/22_10:16:36,YZ,None,
,,,,,,test,1,3,3,1472,3,F,0,right,0.5125843989953864,1,0,,,,,,,,,,,,,,,,,,,,,1,,,,,,,,,,,,,,,,,,,,,,,,,,,,,,,,,,,,,,,,,,,,,,114,159562,24,Male,1,2024/03/22_10:16:36,YZ,None,
,,,,,,test,1,3,3,1472,4,S,0,right,0.6143139310006518,1,0,,,,,,,,,,,,,,,,,,,,,1,,,,,,,,,,,,,,,,,,,,,,,,,,,,,,,,,,,,,,,,,,,,,,114,159562,24,Male,1,2024/03/22_10:16:36,YZ,None,
,,,,,,test,1,3,3,1472,5,J,1,right,0.6411789789999602,0,0,,,,,,,,,,,,,,,,,,,,,1,,,,,,,,,,,,,,,,,,,,,,,,,,,,,,,,,,,,,,,,,,,,,,114,159562,24,Male,1,2024/03/22_10:16:36,YZ,None,
,,,,,,test,1,3,3,1472,6,F,1,left,0.5557144659978803,1,0,,,,,,,,,,,,,,,,,,,,,1,,,,,,,,,,,,,,,,,,,,,,,,,,,,,,,,,,,,,,,,,,,,,,114,159562,24,Male,1,2024/03/22_10:16:36,YZ,None,
,,,,,,test,1,3,3,1472,7,X,0,right,0.5803758039983222,1,0,,,,,,,,,,,,,,,,,,,,,1,,,,,,,,,,,,,,,,,,,,,,,,,,,,,,,,,,,,,,,,,,,,,,114,159562,24,Male,1,2024/03/22_10:16:36,YZ,None,
,,,,,,test,1,3,3,1472,8,J,1,right,0.5580280470021535,0,0,,,,,,,,,,,,,,,,,,,,,1,,,,,,,,,,,,,,,,,,,,,,,,,,,,,,,,,,,,,,,,,,,,,,114,159562,24,Male,1,2024/03/22_10:16:36,YZ,None,
,,,,,,test,1,3,3,1472,9,Q,0,right,0.48619477900501806,1,0,,,,,,,,,,,,,,,,,,,,,1,,,,,,,,,,,,,,,,,,,,,,,,,,,,,,,,,,,,,,,,,,,,,,114,159562,24,Male,1,2024/03/22_10:16:36,YZ,None,
,,,,,,Test,1,3,3,1472,,,,,,,,0.8333333333333334,0.3333333333333333,0.0,1.0,0.0,1.0,0.5612817218902314,1,0,0,0,0,6,7,3,6,0,,,,1,,,,,,,,,,,,,,,,,,,,,,,,,,,,,,,,,,,,,,,,,,,,,,114,159562,24,Male,1,2024/03/22_10:16:36,YZ,None,
,,,,,240322_110134,TEST,1,3,3,1472,,,,,,,,,,,,,,,,,,,,,,,,,,,,1,3,3,3,cue1.png,hard,B,47,1.3641108000010718,0,1089.8556351180014,1091.2372118430067,,,,,,,,,,,,,,,,,,,,,,,,,,,,,,,,,,,114,159562,24,Male,1,2024/03/22_10:16:36,YZ,None,
,,,,,,test,1,4,3,1472,1,J,0,right,0.7091743309865706,1,0,,,,,,,,,,,,,,,,,,,,,1,,,,,,,,,,,,,,,,,,,,,,,,,,,,,,,,,,,,,,,,,,,,,,114,159562,24,Male,1,2024/03/22_10:16:36,YZ,None,
,,,,,,test,1,4,3,1472,2,V,0,right,0.36791233099938836,1,0,,,,,,,,,,,,,,,,,,,,,1,,,,,,,,,,,,,,,,,,,,,,,,,,,,,,,,,,,,,,,,,,,,,,114,159562,24,Male,1,2024/03/22_10:16:36,YZ,None,
,,,,,,test,1,4,3,1472,3,C,0,right,0.3032137830014108,1,0,,,,,,,,,,,,,,,,,,,,,1,,,,,,,,,,,,,,,,,,,,,,,,,,,,,,,,,,,,,,,,,,,,,,114,159562,24,Male,1,2024/03/22_10:16:36,YZ,None,
,,,,,,test,1,4,3,1472,4,V,0,left,0.5520651169936173,0,0,,,,,,,,,,,,,,,,,,,,,1,,,,,,,,,,,,,,,,,,,,,,,,,,,,,,,,,,,,,,,,,,,,,,114,159562,24,Male,1,2024/03/22_10:16:36,YZ,None,
,,,,,,test,1,4,3,1472,5,V,1,right,0.7745555569999851,0,0,,,,,,,,,,,,,,,,,,,,,1,,,,,,,,,,,,,,,,,,,,,,,,,,,,,,,,,,,,,,,,,,,,,,114,159562,24,Male,1,2024/03/22_10:16:36,YZ,None,
,,,,,,test,1,4,3,1472,6,Q,0,right,0.5200013119901996,1,0,,,,,,,,,,,,,,,,,,,,,1,,,,,,,,,,,,,,,,,,,,,,,,,,,,,,,,,,,,,,,,,,,,,,114,159562,24,Male,1,2024/03/22_10:16:36,YZ,None,
,,,,,,test,1,4,3,1472,7,V,1,left,0.45735102499020286,1,0,,,,,,,,,,,,,,,,,,,,,1,,,,,,,,,,,,,,,,,,,,,,,,,,,,,,,,,,,,,,,,,,,,,,114,159562,24,Male,1,2024/03/22_10:16:36,YZ,None,
,,,,,,test,1,4,3,1472,8,V,1,right,0.5241712009883486,0,0,,,,,,,,,,,,,,,,,,,,,1,,,,,,,,,,,,,,,,,,,,,,,,,,,,,,,,,,,,,,,,,,,,,,114,159562,24,Male,1,2024/03/22_10:16:36,YZ,None,
,,,,,,test,1,4,3,1472,9,N,0,right,0.5565068580035586,1,0,,,,,,,,,,,,,,,,,,,,,1,,,,,,,,,,,,,,,,,,,,,,,,,,,,,,,,,,,,,,,,,,,,,,114,159562,24,Male,1,2024/03/22_10:16:36,YZ,None,
,,,,,,Test,1,4,3,1472,,,,,,,,0.6666666666666666,0.3333333333333333,0.16666666666666666,0.8333333333333334,0.0,0.8333333333333334,0.5294390572170313,1,1,0,0,0,5,6,3,6,0,,,,1,,,,,,,,,,,,,,,,,,,,,,,,,,,,,,,,,,,,,,,,,,,,,,114,159562,24,Male,1,2024/03/22_10:16:36,YZ,None,
,,,,,240322_110153,TEST,1,4,3,1472,,,,,,,,,,,,,,,,,,,,,,,,,,,,1,4,4,4,cue1.png,hard,B,45,0.8058382159942994,0,1110.1598894920025,1110.986811766008,,,,,,,,,,,,,,,,,,,,,,,,,,,,,,,,,,,114,159562,24,Male,1,2024/03/22_10:16:36,YZ,None,
,,,,,,test,1,5,1,1472,1,F,0,right,0.5124235399998724,1,0,,,,,,,,,,,,,,,,,,,,,1,,,,,,,,,,,,,,,,,,,,,,,,,,,,,,,,,,,,,,,,,,,,,,114,159562,24,Male,1,2024/03/22_10:16:36,YZ,None,
,,,,,,test,1,5,1,1472,2,S,0,right,0.47720865000155754,1,0,,,,,,,,,,,,,,,,,,,,,1,,,,,,,,,,,,,,,,,,,,,,,,,,,,,,,,,,,,,,,,,,,,,,114,159562,24,Male,1,2024/03/22_10:16:36,YZ,None,
,,,,,,test,1,5,1,1472,3,X,0,right,0.4595199580071494,1,0,,,,,,,,,,,,,,,,,,,,,1,,,,,,,,,,,,,,,,,,,,,,,,,,,,,,,,,,,,,,,,,,,,,,114,159562,24,Male,1,2024/03/22_10:16:36,YZ,None,
,,,,,,test,1,5,1,1472,4,N,0,right,0.46761059999698773,1,0,,,,,,,,,,,,,,,,,,,,,1,,,,,,,,,,,,,,,,,,,,,,,,,,,,,,,,,,,,,,,,,,,,,,114,159562,24,Male,1,2024/03/22_10:16:36,YZ,None,
,,,,,,test,1,5,1,1472,5,N,1,left,0.47140747698722407,1,0,,,,,,,,,,,,,,,,,,,,,1,,,,,,,,,,,,,,,,,,,,,,,,,,,,,,,,,,,,,,,,,,,,,,114,159562,24,Male,1,2024/03/22_10:16:36,YZ,None,
,,,,,,test,1,5,1,1472,6,F,0,right,0.3669290640100371,1,0,,,,,,,,,,,,,,,,,,,,,1,,,,,,,,,,,,,,,,,,,,,,,,,,,,,,,,,,,,,,,,,,,,,,114,159562,24,Male,1,2024/03/22_10:16:36,YZ,None,
,,,,,,test,1,5,1,1472,7,F,1,left,0.44432561099529266,1,0,,,,,,,,,,,,,,,,,,,,,1,,,,,,,,,,,,,,,,,,,,,,,,,,,,,,,,,,,,,,,,,,,,,,114,159562,24,Male,1,2024/03/22_10:16:36,YZ,None,
,,,,,,test,1,5,1,1472,8,C,0,right,0.3612387509929249,1,0,,,,,,,,,,,,,,,,,,,,,1,,,,,,,,,,,,,,,,,,,,,,,,,,,,,,,,,,,,,,,,,,,,,,114,159562,24,Male,1,2024/03/22_10:16:36,YZ,None,
,,,,,,test,1,5,1,1472,9,C,1,left,0.5264209510060027,1,0,,,,,,,,,,,,,,,,,,,,,1,,,,,,,,,,,,,,,,,,,,,,,,,,,,,,,,,,,,,,,,,,,,,,114,159562,24,Male,1,2024/03/22_10:16:36,YZ,None,
,,,,,,Test,1,5,1,1472,,,,,,,,1.0,1.0,0.0,1.0,0.0,1.0,0.4541205113330054,3,0,0,0,0,6,9,3,6,0,,,,1,,,,,,,,,,,,,,,,,,,,,,,,,,,,,,,,,,,,,,,,,,,,,,114,159562,24,Male,1,2024/03/22_10:16:36,YZ,None,
,,,,,240322_110220,TEST,1,5,1,1472,,,,,,,,,,,,,,,,,,,,,,,,,,,,1,5,6,5,cue2.png,easy,B,47,0.7378895379952155,0,1137.6623914000083,1138.420475662002,,,,,,,,,,,,,,,,,,,,,,,,,,,,,,,,,,,114,159562,24,Male,1,2024/03/22_10:16:36,YZ,None,
,,,,,,test,1,6,3,1472,1,V,0,right,0.7211846240097657,1,0,,,,,,,,,,,,,,,,,,,,,1,,,,,,,,,,,,,,,,,,,,,,,,,,,,,,,,,,,,,,,,,,,,,,114,159562,24,Male,1,2024/03/22_10:16:36,YZ,None,
,,,,,,test,1,6,3,1472,2,Q,0,right,0.5668761669949163,1,0,,,,,,,,,,,,,,,,,,,,,1,,,,,,,,,,,,,,,,,,,,,,,,,,,,,,,,,,,,,,,,,,,,,,114,159562,24,Male,1,2024/03/22_10:16:36,YZ,None,
,,,,,,test,1,6,3,1472,3,C,0,right,0.3544522930023959,1,0,,,,,,,,,,,,,,,,,,,,,1,,,,,,,,,,,,,,,,,,,,,,,,,,,,,,,,,,,,,,,,,,,,,,114,159562,24,Male,1,2024/03/22_10:16:36,YZ,None,
,,,,,,test,1,6,3,1472,4,F,0,left,0.4877337080106372,0,0,,,,,,,,,,,,,,,,,,,,,1,,,,,,,,,,,,,,,,,,,,,,,,,,,,,,,,,,,,,,,,,,,,,,114,159562,24,Male,1,2024/03/22_10:16:36,YZ,None,
,,,,,,test,1,6,3,1472,5,X,0,right,0.5764595450018533,1,0,,,,,,,,,,,,,,,,,,,,,1,,,,,,,,,,,,,,,,,,,,,,,,,,,,,,,,,,,,,,,,,,,,,,114,159562,24,Male,1,2024/03/22_10:16:36,YZ,None,
,,,,,,test,1,6,3,1472,6,C,1,left,0.5653690120088868,1,0,,,,,,,,,,,,,,,,,,,,,1,,,,,,,,,,,,,,,,,,,,,,,,,,,,,,,,,,,,,,,,,,,,,,114,159562,24,Male,1,2024/03/22_10:16:36,YZ,None,
,,,,,,test,1,6,3,1472,7,F,1,right,0.6585025209933519,0,0,,,,,,,,,,,,,,,,,,,,,1,,,,,,,,,,,,,,,,,,,,,,,,,,,,,,,,,,,,,,,,,,,,,,114,159562,24,Male,1,2024/03/22_10:16:36,YZ,None,
,,,,,,test,1,6,3,1472,8,C,0,right,0.35737103600695264,1,0,,,,,,,,,,,,,,,,,,,,,1,,,,,,,,,,,,,,,,,,,,,,,,,,,,,,,,,,,,,,,,,,,,,,114,159562,24,Male,1,2024/03/22_10:16:36,YZ,None,
,,,,,,test,1,6,3,1472,9,C,1,left,0.45291147999523673,1,0,,,,,,,,,,,,,,,,,,,,,1,,,,,,,,,,,,,,,,,,,,,,,,,,,,,,,,,,,,,,,,,,,,,,114,159562,24,Male,1,2024/03/22_10:16:36,YZ,None,
,,,,,,Test,1,6,3,1472,,,,,,,,0.8194444444444444,0.6666666666666666,0.16666666666666666,0.8333333333333334,0.0,0.8333333333333334,0.5267622651137773,2,1,0,0,0,5,7,3,6,0,,,,1,,,,,,,,,,,,,,,,,,,,,,,,,,,,,,,,,,,,,,,,,,,,,,114,159562,24,Male,1,2024/03/22_10:16:36,YZ,None,
,,,,,240322_110239,TEST,1,6,3,1472,,,,,,,,,,,,,,,,,,,,,,,,,,,,1,6,7,6,cue1.png,hard,B,49,0.6618383589957375,0,1156.3532877170073,1157.0271043350076,,,,,,,,,,,,,,,,,,,,,,,,,,,,,,,,,,,114,159562,24,Male,1,2024/03/22_10:16:36,YZ,None,
,,,,,,test,1,7,3,1472,1,X,0,right,0.5909285689995158,1,0,,,,,,,,,,,,,,,,,,,,,1,,,,,,,,,,,,,,,,,,,,,,,,,,,,,,,,,,,,,,,,,,,,,,114,159562,24,Male,1,2024/03/22_10:16:36,YZ,None,
,,,,,,test,1,7,3,1472,2,N,0,right,0.31132973700005095,1,0,,,,,,,,,,,,,,,,,,,,,1,,,,,,,,,,,,,,,,,,,,,,,,,,,,,,,,,,,,,,,,,,,,,,114,159562,24,Male,1,2024/03/22_10:16:36,YZ,None,
,,,,,,test,1,7,3,1472,3,N,0,right,0.3408906589902472,1,0,,,,,,,,,,,,,,,,,,,,,1,,,,,,,,,,,,,,,,,,,,,,,,,,,,,,,,,,,,,,,,,,,,,,114,159562,24,Male,1,2024/03/22_10:16:36,YZ,None,
,,,,,,test,1,7,3,1472,4,X,1,left,0.34598997700959444,1,0,,,,,,,,,,,,,,,,,,,,,1,,,,,,,,,,,,,,,,,,,,,,,,,,,,,,,,,,,,,,,,,,,,,,114,159562,24,Male,1,2024/03/22_10:16:36,YZ,None,
,,,,,,test,1,7,3,1472,5,N,1,right,0.6956140760012204,0,0,,,,,,,,,,,,,,,,,,,,,1,,,,,,,,,,,,,,,,,,,,,,,,,,,,,,,,,,,,,,,,,,,,,,114,159562,24,Male,1,2024/03/22_10:16:36,YZ,None,
,,,,,,test,1,7,3,1472,6,S,0,right,0.7908390279917512,1,0,,,,,,,,,,,,,,,,,,,,,1,,,,,,,,,,,,,,,,,,,,,,,,,,,,,,,,,,,,,,,,,,,,,,114,159562,24,Male,1,2024/03/22_10:16:36,YZ,None,
,,,,,,test,1,7,3,1472,7,X,1,right,0.4137441899947589,0,0,,,,,,,,,,,,,,,,,,,,,1,,,,,,,,,,,,,,,,,,,,,,,,,,,,,,,,,,,,,,,,,,,,,,114,159562,24,Male,1,2024/03/22_10:16:36,YZ,None,
,,,,,,test,1,7,3,1472,8,S,0,left,0.49042723700404167,0,0,,,,,,,,,,,,,,,,,,,,,1,,,,,,,,,,,,,,,,,,,,,,,,,,,,,,,,,,,,,,,,,,,,,,114,159562,24,Male,1,2024/03/22_10:16:36,YZ,None,
,,,,,,test,1,7,3,1472,9,N,0,right,0.4577194900048198,1,0,,,,,,,,,,,,,,,,,,,,,1,,,,,,,,,,,,,,,,,,,,,,,,,,,,,,,,,,,,,,,,,,,,,,114,159562,24,Male,1,2024/03/22_10:16:36,YZ,None,
,,,,,,Test,1,7,3,1472,,,,,,,,0.6666666666666666,0.3333333333333333,0.16666666666666666,0.8333333333333334,0.0,0.8333333333333334,0.4930536625551112,1,1,0,0,0,5,6,3,6,0,,,,1,,,,,,,,,,,,,,,,,,,,,,,,,,,,,,,,,,,,,,,,,,,,,,114,159562,24,Male,1,2024/03/22_10:16:36,YZ,None,
,,,,,240322_110259,TEST,1,7,3,1472,,,,,,,,,,,,,,,,,,,,,,,,,,,,1,7,8,7,cue1.png,hard,B,49,0.9885015639883932,0,1175.6237231640116,1176.6323311330052,,,,,,,,,,,,,,,,,,,,,,,,,,,,,,,,,,,114,159562,24,Male,1,2024/03/22_10:16:36,YZ,None,
,,,,,,test,1,8,1,1472,1,N,0,right,0.7246293700009119,1,0,,,,,,,,,,,,,,,,,,,,,1,,,,,,,,,,,,,,,,,,,,,,,,,,,,,,,,,,,,,,,,,,,,,,114,159562,24,Male,1,2024/03/22_10:16:36,YZ,None,
,,,,,,test,1,8,1,1472,2,N,1,right,0.40127254999242723,0,0,,,,,,,,,,,,,,,,,,,,,1,,,,,,,,,,,,,,,,,,,,,,,,,,,,,,,,,,,,,,,,,,,,,,114,159562,24,Male,1,2024/03/22_10:16:36,YZ,None,
,,,,,,test,1,8,1,1472,3,C,0,right,1.633623001005617,1,0,,,,,,,,,,,,,,,,,,,,,1,,,,,,,,,,,,,,,,,,,,,,,,,,,,,,,,,,,,,,,,,,,,,,114,159562,24,Male,1,2024/03/22_10:16:36,YZ,None,
,,,,,,test,1,8,1,1472,4,V,0,right,0.7415114140021615,1,0,,,,,,,,,,,,,,,,,,,,,1,,,,,,,,,,,,,,,,,,,,,,,,,,,,,,,,,,,,,,,,,,,,,,114,159562,24,Male,1,2024/03/22_10:16:36,YZ,None,
,,,,,,test,1,8,1,1472,5,F,0,right,0.4318505809933413,1,0,,,,,,,,,,,,,,,,,,,,,1,,,,,,,,,,,,,,,,,,,,,,,,,,,,,,,,,,,,,,,,,,,,,,114,159562,24,Male,1,2024/03/22_10:16:36,YZ,None,
,,,,,,test,1,8,1,1472,6,F,1,left,0.5121429069986334,1,0,,,,,,,,,,,,,,,,,,,,,1,,,,,,,,,,,,,,,,,,,,,,,,,,,,,,,,,,,,,,,,,,,,,,114,159562,24,Male,1,2024/03/22_10:16:36,YZ,None,
,,,,,,test,1,8,1,1472,7,N,0,right,0.30550466899876483,1,0,,,,,,,,,,,,,,,,,,,,,1,,,,,,,,,,,,,,,,,,,,,,,,,,,,,,,,,,,,,,,,,,,,,,114,159562,24,Male,1,2024/03/22_10:16:36,YZ,None,
,,,,,,test,1,8,1,1472,8,V,0,right,0.4636303130100714,1,0,,,,,,,,,,,,,,,,,,,,,1,,,,,,,,,,,,,,,,,,,,,,,,,,,,,,,,,,,,,,,,,,,,,,114,159562,24,Male,1,2024/03/22_10:16:36,YZ,None,
,,,,,,test,1,8,1,1472,9,V,1,left,0.3726882030023262,1,0,,,,,,,,,,,,,,,,,,,,,1,,,,,,,,,,,,,,,,,,,,,,,,,,,,,,,,,,,,,,,,,,,,,,114,159562,24,Male,1,2024/03/22_10:16:36,YZ,None,
,,,,,,Test,1,8,1,1472,,,,,,,,0.9166666666666666,0.6666666666666666,0.0,1.0,0.0,1.0,0.6207614453338061,2,0,0,0,0,6,8,3,6,0,,,,1,,,,,,,,,,,,,,,,,,,,,,,,,,,,,,,,,,,,,,,,,,,,,,114,159562,24,Male,1,2024/03/22_10:16:36,YZ,None,
,,,,,240322_110319,TEST,1,8,1,1472,,,,,,,,,,,,,,,,,,,,,,,,,,,,1,8,9,8,cue2.png,easy,B,47,0.7384707919991342,0,1194.8987142990081,1195.653721487004,,,,,,,,,,,,,,,,,,,,,,,,,,,,,,,,,,,114,159562,24,Male,1,2024/03/22_10:16:36,YZ,None,
,,,,,,test,1,9,1,1472,1,X,0,right,1.1141898869973375,1,0,,,,,,,,,,,,,,,,,,,,,1,,,,,,,,,,,,,,,,,,,,,,,,,,,,,,,,,,,,,,,,,,,,,,114,159562,24,Male,1,2024/03/22_10:16:36,YZ,None,
,,,,,,test,1,9,1,1472,2,X,1,right,0.7142582929955097,0,0,,,,,,,,,,,,,,,,,,,,,1,,,,,,,,,,,,,,,,,,,,,,,,,,,,,,,,,,,,,,,,,,,,,,114,159562,24,Male,1,2024/03/22_10:16:36,YZ,None,
,,,,,,test,1,9,1,1472,3,Q,0,right,0.4319133629905991,1,0,,,,,,,,,,,,,,,,,,,,,1,,,,,,,,,,,,,,,,,,,,,,,,,,,,,,,,,,,,,,,,,,,,,,114,159562,24,Male,1,2024/03/22_10:16:36,YZ,None,
,,,,,,test,1,9,1,1472,4,V,0,right,0.5117065619997447,1,0,,,,,,,,,,,,,,,,,,,,,1,,,,,,,,,,,,,,,,,,,,,,,,,,,,,,,,,,,,,,,,,,,,,,114,159562,24,Male,1,2024/03/22_10:16:36,YZ,None,
,,,,,,test,1,9,1,1472,5,F,0,right,0.5704305109975394,1,0,,,,,,,,,,,,,,,,,,,,,1,,,,,,,,,,,,,,,,,,,,,,,,,,,,,,,,,,,,,,,,,,,,,,114,159562,24,Male,1,2024/03/22_10:16:36,YZ,None,
,,,,,,test,1,9,1,1472,6,F,1,left,0.44204857999284286,1,0,,,,,,,,,,,,,,,,,,,,,1,,,,,,,,,,,,,,,,,,,,,,,,,,,,,,,,,,,,,,,,,,,,,,114,159562,24,Male,1,2024/03/22_10:16:36,YZ,None,
,,,,,,test,1,9,1,1472,7,S,0,right,0.6583879840036388,1,0,,,,,,,,,,,,,,,,,,,,,1,,,,,,,,,,,,,,,,,,,,,,,,,,,,,,,,,,,,,,,,,,,,,,114,159562,24,Male,1,2024/03/22_10:16:36,YZ,None,
,,,,,,test,1,9,1,1472,8,S,1,left,0.512184598002932,1,0,,,,,,,,,,,,,,,,,,,,,1,,,,,,,,,,,,,,,,,,,,,,,,,,,,,,,,,,,,,,,,,,,,,,114,159562,24,Male,1,2024/03/22_10:16:36,YZ,None,
,,,,,,test,1,9,1,1472,9,J,0,right,0.415557197004091,1,0,,,,,,,,,,,,,,,,,,,,,1,,,,,,,,,,,,,,,,,,,,,,,,,,,,,,,,,,,,,,,,,,,,,,114,159562,24,Male,1,2024/03/22_10:16:36,YZ,None,
,,,,,,Test,1,9,1,1472,,,,,,,,0.9166666666666666,0.6666666666666666,0.0,1.0,0.0,1.0,0.5967418861093594,2,0,0,0,0,6,8,3,6,0,,,,1,,,,,,,,,,,,,,,,,,,,,,,,,,,,,,,,,,,,,,,,,,,,,,114,159562,24,Male,1,2024/03/22_10:16:36,YZ,None,
,,,,,240322_110339,TEST,1,9,1,1472,,,,,,,,,,,,,,,,,,,,,,,,,,,,1,9,10,9,cue2.png,easy,B,47,0.8190296980028506,0,1215.086627073004,1215.9203348810115,,,,,,,,,,,,,,,,,,,,,,,,,,,,,,,,,,,114,159562,24,Male,1,2024/03/22_10:16:36,YZ,None,
,,,,,,test,1,10,3,1472,1,Q,0,right,0.3738110090052942,1,0,,,,,,,,,,,,,,,,,,,,,1,,,,,,,,,,,,,,,,,,,,,,,,,,,,,,,,,,,,,,,,,,,,,,114,159562,24,Male,1,2024/03/22_10:16:36,YZ,None,
,,,,,,test,1,10,3,1472,2,V,0,right,0.31238830801157746,1,0,,,,,,,,,,,,,,,,,,,,,1,,,,,,,,,,,,,,,,,,,,,,,,,,,,,,,,,,,,,,,,,,,,,,114,159562,24,Male,1,2024/03/22_10:16:36,YZ,None,
,,,,,,test,1,10,3,1472,3,V,0,right,0.24022598800365813,1,0,,,,,,,,,,,,,,,,,,,,,1,,,,,,,,,,,,,,,,,,,,,,,,,,,,,,,,,,,,,,,,,,,,,,114,159562,24,Male,1,2024/03/22_10:16:36,YZ,None,
,,,,,,test,1,10,3,1472,4,Q,1,left,0.4647474469966255,1,0,,,,,,,,,,,,,,,,,,,,,1,,,,,,,,,,,,,,,,,,,,,,,,,,,,,,,,,,,,,,,,,,,,,,114,159562,24,Male,1,2024/03/22_10:16:36,YZ,None,
,,,,,,test,1,10,3,1472,5,N,0,right,0.5353395589918364,1,0,,,,,,,,,,,,,,,,,,,,,1,,,,,,,,,,,,,,,,,,,,,,,,,,,,,,,,,,,,,,,,,,,,,,114,159562,24,Male,1,2024/03/22_10:16:36,YZ,None,
,,,,,,test,1,10,3,1472,6,X,0,right,0.44238620800024364,1,0,,,,,,,,,,,,,,,,,,,,,1,,,,,,,,,,,,,,,,,,,,,,,,,,,,,,,,,,,,,,,,,,,,,,114,159562,24,Male,1,2024/03/22_10:16:36,YZ,None,
,,,,,,test,1,10,3,1472,7,Q,1,right,0.7737777959991945,0,0,,,,,,,,,,,,,,,,,,,,,1,,,,,,,,,,,,,,,,,,,,,,,,,,,,,,,,,,,,,,,,,,,,,,114,159562,24,Male,1,2024/03/22_10:16:36,YZ,None,
,,,,,,test,1,10,3,1472,8,Q,0,left,0.4390421400021296,0,0,,,,,,,,,,,,,,,,,,,,,1,,,,,,,,,,,,,,,,,,,,,,,,,,,,,,,,,,,,,,,,,,,,,,114,159562,24,Male,1,2024/03/22_10:16:36,YZ,None,
,,,,,,test,1,10,3,1472,9,X,1,right,0.3449605930072721,0,0,,,,,,,,,,,,,,,,,,,,,1,,,,,,,,,,,,,,,,,,,,,,,,,,,,,,,,,,,,,,,,,,,,,,114,159562,24,Male,1,2024/03/22_10:16:36,YZ,None,
,,,,,,Test,1,10,3,1472,,,,,,,,0.6666666666666666,0.3333333333333333,0.16666666666666666,0.8333333333333334,0.0,0.8333333333333334,0.4362976720019813,1,1,0,0,0,5,6,3,6,0,,,,1,,,,,,,,,,,,,,,,,,,,,,,,,,,,,,,,,,,,,,,,,,,,,,114,159562,24,Male,1,2024/03/22_10:16:36,YZ,None,
,,,,,240322_110358,TEST,1,10,3,1472,,,,,,,,,,,,,,,,,,,,,,,,,,,,1,10,11,10,cue1.png,hard,B,46,0.7949562809953932,0,1235.1445937180106,1235.9519389630004,,,,,,,,,,,,,,,,,,,,,,,,,,,,,,,,,,,114,159562,24,Male,1,2024/03/22_10:16:36,YZ,None,
,,,,,,test,1,11,1,1472,1,S,0,right,0.4261719359928975,1,0,,,,,,,,,,,,,,,,,,,,,1,,,,,,,,,,,,,,,,,,,,,,,,,,,,,,,,,,,,,,,,,,,,,,114,159562,24,Male,1,2024/03/22_10:16:36,YZ,None,
,,,,,,test,1,11,1,1472,2,X,0,right,0.3208529039984569,1,0,,,,,,,,,,,,,,,,,,,,,1,,,,,,,,,,,,,,,,,,,,,,,,,,,,,,,,,,,,,,,,,,,,,,114,159562,24,Male,1,2024/03/22_10:16:36,YZ,None,
,,,,,,test,1,11,1,1472,3,N,0,right,0.37352730199927464,1,0,,,,,,,,,,,,,,,,,,,,,1,,,,,,,,,,,,,,,,,,,,,,,,,,,,,,,,,,,,,,,,,,,,,,114,159562,24,Male,1,2024/03/22_10:16:36,YZ,None,
,,,,,,test,1,11,1,1472,4,N,1,left,0.370557356000063,1,0,,,,,,,,,,,,,,,,,,,,,1,,,,,,,,,,,,,,,,,,,,,,,,,,,,,,,,,,,,,,,,,,,,,,114,159562,24,Male,1,2024/03/22_10:16:36,YZ,None,
,,,,,,test,1,11,1,1472,5,V,0,right,0.3836799440032337,1,0,,,,,,,,,,,,,,,,,,,,,1,,,,,,,,,,,,,,,,,,,,,,,,,,,,,,,,,,,,,,,,,,,,,,114,159562,24,Male,1,2024/03/22_10:16:36,YZ,None,
,,,,,,test,1,11,1,1472,6,S,0,right,0.683674896004959,1,0,,,,,,,,,,,,,,,,,,,,,1,,,,,,,,,,,,,,,,,,,,,,,,,,,,,,,,,,,,,,,,,,,,,,114,159562,24,Male,1,2024/03/22_10:16:36,YZ,None,
