Instruction,Stimulus,Key,RT,START,END,Phase,Block,TrialN,NbackLevel,ISI,LetterN,Letter,Letter_isSame,Letter_Resp,Letter_RT,Letter_Accuracy,Letter_Timeout,Trial_A_measure,Trial_HR,Trial_FAR,Trial_CDR,Trial_MSR,Trial_ACC,Trial_RT,Trial_HitsCount,Trial_FAsCount,Trial_SameNoRespCount,Trial_DiffNoRespCount,Trial_NoRespCount,Trial_CDsCount,Trial_CorrectRespCount,Trial_SameLetterCount,Trial_DiffLetterCount,Trial_InvalidLetterCount,TrialCountCali,CaliEnd_A_measure,ISI_calibrated,Run,TrialIndex,TrialNumber_total,TrialNumber_valid,CueLearning,TrialDemandLearning,CueMapping,OnlineRating,OnlineRatingRT,OnlineRatingTimeOut,CueSTART,RatingSTART,OfflineRatingTimePoint,OfflineRatingQuesIndex,CueFigure,TrialDemand,OfflineRating,OfflineRatingRT,CueStart,OfflineRatingStart,PhaseType,CueLeft,CueDemandLeft,CueRight,CueDemandRight,Choice,ChoiceDemand,TaskDemand,ChoiceRT,ChoiceTimeOut,ChoiceSTART,CueCheck,CueDemandCheck,CorrectAnswer,Answer,AnswerDemand,AnswerRT,AnswerACC,AnswerTimeOut,CheckSTART,DemandRatingQuesIndex,QuesTLX,DemandLevel,DemandRating,DemandRatingRT,QuesStart,PID,SONA,Age,Gender,Run,TIME,EXPERIMENTER,frameRate,
1,./instructions/inst_begin/Slide2.png,right,120.72604014800163,0.11536506099946564,120.8414052090011,,,,,,,,,,,,,,,,,,,,,,,,,,,,,,,,,1,,,,,,,,,,,,,,,,,,,,,,,,,,,,,,,,,,,,,,,,,,,,,,60,154750,21,Female,1,2024/02/15_14:41:00,JV,None,
2,./instructions/inst_begin/Slide3.png,right,9.402414456999395,120.87103878099879,130.27345323799818,,,,,,,,,,,,,,,,,,,,,,,,,,,,,,,,,1,,,,,,,,,,,,,,,,,,,,,,,,,,,,,,,,,,,,,,,,,,,,,,60,154750,21,Female,1,2024/02/15_14:41:00,JV,None,
3,./instructions/inst_begin/Slide4.png,right,9.106605428001785,130.30281142799868,139.40941685600046,,,,,,,,,,,,,,,,,,,,,,,,,,,,,,,,,1,,,,,,,,,,,,,,,,,,,,,,,,,,,,,,,,,,,,,,,,,,,,,,60,154750,21,Female,1,2024/02/15_14:41:00,JV,None,
1,./instructions/inst_prac_2/Slide6.png,right,13.41440312800114,139.44300097499945,152.8574041030006,,,,,,,,,,,,,,,,,,,,,,,,,,,,,,,,,1,,,,,,,,,,,,,,,,,,,,,,,,,,,,,,,,,,,,,,,,,,,,,,60,154750,21,Female,1,2024/02/15_14:41:00,JV,None,
2,./instructions/inst_prac_2/Slide7.png,right,40.48252546400181,152.88698899099836,193.36951445500017,,,,,,,,,,,,,,,,,,,,,,,,,,,,,,,,,1,,,,,,,,,,,,,,,,,,,,,,,,,,,,,,,,,,,,,,,,,,,,,,60,154750,21,Female,1,2024/02/15_14:41:00,JV,None,
3,./instructions/inst_prac_2/Slide8.png,right,8.826636210000288,193.39873913100018,202.22537534100047,,,,,,,,,,,,,,,,,,,,,,,,,,,,,,,,,1,,,,,,,,,,,,,,,,,,,,,,,,,,,,,,,,,,,,,,,,,,,,,,60,154750,21,Female,1,2024/02/15_14:41:00,JV,None,
4,./instructions/inst_prac_2/Slide9.png,right,6.665878250001697,202.25527779799813,208.92115604799983,,,,,,,,,,,,,,,,,,,,,,,,,,,,,,,,,1,,,,,,,,,,,,,,,,,,,,,,,,,,,,,,,,,,,,,,,,,,,,,,60,154750,21,Female,1,2024/02/15_14:41:00,JV,None,
5,./instructions/inst_prac_2/Slide10.png,right,2.1023592060009832,208.9469354719986,211.04929467799957,,,,,,,,,,,,,,,,,,,,,,,,,,,,,,,,,1,,,,,,,,,,,,,,,,,,,,,,,,,,,,,,,,,,,,,,,,,,,,,,60,154750,21,Female,1,2024/02/15_14:41:00,JV,None,
6,./instructions/inst_prac_2/Slide11.png,right,1.8829542790008418,211.0783649699988,212.96131924899964,,,,,,,,,,,,,,,,,,,,,,,,,,,,,,,,,1,,,,,,,,,,,,,,,,,,,,,,,,,,,,,,,,,,,,,,,,,,,,,,60,154750,21,Female,1,2024/02/15_14:41:00,JV,None,
7,./instructions/inst_prac_2/Slide12.png,right,1.3949476950001554,212.99029751999842,214.38524521499858,,,,,,,,,,,,,,,,,,,,,,,,,,,,,,,,,1,,,,,,,,,,,,,,,,,,,,,,,,,,,,,,,,,,,,,,,,,,,,,,60,154750,21,Female,1,2024/02/15_14:41:00,JV,None,
8,./instructions/inst_prac_2/Slide13.png,right,3.003118890999758,214.41421034000086,217.41732923100062,,,,,,,,,,,,,,,,,,,,,,,,,,,,,,,,,1,,,,,,,,,,,,,,,,,,,,,,,,,,,,,,,,,,,,,,,,,,,,,,60,154750,21,Female,1,2024/02/15_14:41:00,JV,None,
9,./instructions/inst_prac_2/Slide14.png,right,14.178921209997497,217.44635448700137,231.62527569699887,,,,,,,,,,,,,,,,,,,,,,,,,,,,,,,,,1,,,,,,,,,,,,,,,,,,,,,,,,,,,,,,,,,,,,,,,,,,,,,,60,154750,21,Female,1,2024/02/15_14:41:00,JV,None,
10,./instructions/inst_prac_2/Slide15.png,right,15.858184373999393,231.65524604999882,247.51343042399822,,,,,,,,,,,,,,,,,,,,,,,,,,,,,,,,,1,,,,,,,,,,,,,,,,,,,,,,,,,,,,,,,,,,,,,,,,,,,,,,60,154750,21,Female,1,2024/02/15_14:41:00,JV,None,
,,,,,,practice,0,9,2,2583,1,C,0,right,2.4730323099975067,1,0,,,,,,,,,,,,,,,,,,,,,1,,,,,,,,,,,,,,,,,,,,,,,,,,,,,,,,,,,,,,,,,,,,,,60,154750,21,Female,1,2024/02/15_14:41:00,JV,None,
,,,,,,practice,0,9,2,2583,2,F,0,right,2.562875006999093,1,0,,,,,,,,,,,,,,,,,,,,,1,,,,,,,,,,,,,,,,,,,,,,,,,,,,,,,,,,,,,,,,,,,,,,60,154750,21,Female,1,2024/02/15_14:41:00,JV,None,
,,,,,,practice,0,9,2,2583,3,C,1,left,1.2851260319985158,1,0,,,,,,,,,,,,,,,,,,,,,1,,,,,,,,,,,,,,,,,,,,,,,,,,,,,,,,,,,,,,,,,,,,,,60,154750,21,Female,1,2024/02/15_14:41:00,JV,None,
,,,,,,practice,0,9,2,2583,4,Q,0,right,1.3766545110011066,1,0,,,,,,,,,,,,,,,,,,,,,1,,,,,,,,,,,,,,,,,,,,,,,,,,,,,,,,,,,,,,,,,,,,,,60,154750,21,Female,1,2024/02/15_14:41:00,JV,None,
,,,,,,practice,0,9,2,2583,5,N,0,right,1.5932301769971673,1,0,,,,,,,,,,,,,,,,,,,,,1,,,,,,,,,,,,,,,,,,,,,,,,,,,,,,,,,,,,,,,,,,,,,,60,154750,21,Female,1,2024/02/15_14:41:00,JV,None,
,,,,,,practice,0,9,2,2583,6,Q,1,left,0.8603725770008168,1,0,,,,,,,,,,,,,,,,,,,,,1,,,,,,,,,,,,,,,,,,,,,,,,,,,,,,,,,,,,,,,,,,,,,,60,154750,21,Female,1,2024/02/15_14:41:00,JV,None,
,,,,,,practice,0,9,2,2583,,,,,,,,1.0,1.0,0.0,1.0,0.0,1.0,1.6918817689990344,2,0,0,0,0,4,6,2,4,0,,,,1,,,,,,,,,,,,,,,,,,,,,,,,,,,,,,,,,,,,,,,,,,,,,,60,154750,21,Female,1,2024/02/15_14:41:00,JV,None,
1,./instructions/inst_to_cali/Slide20.png,right,5.352563533000648,264.00873387699903,269.3612974099997,,,,,,,,,,,,,,,,,,,,,,,,,,,,,,,,,1,,,,,,,,,,,,,,,,,,,,,,,,,,,,,,,,,,,,,,,,,,,,,,60,154750,21,Female,1,2024/02/15_14:41:00,JV,None,
1,./instructions/inst_cali/Slide22.png,right,4.294078044000344,269.3952038690004,273.68928191300074,,,,,,,,,,,,,,,,,,,,,,,,,,,,,,,,,1,,,,,,,,,,,,,,,,,,,,,,,,,,,,,,,,,,,,,,,,,,,,,,60,154750,21,Female,1,2024/02/15_14:41:00,JV,None,
,,,,,,calibration,0,21,2,583,1,X,0,right,1.9275220580020687,1,0,,,,,,,,,,,,,,,,,,,,,1,,,,,,,,,,,,,,,,,,,,,,,,,,,,,,,,,,,,,,,,,,,,,,60,154750,21,Female,1,2024/02/15_14:41:00,JV,None,
,,,,,,calibration,0,21,2,583,2,J,0,right,0.8738088060017617,1,0,,,,,,,,,,,,,,,,,,,,,1,,,,,,,,,,,,,,,,,,,,,,,,,,,,,,,,,,,,,,,,,,,,,,60,154750,21,Female,1,2024/02/15_14:41:00,JV,None,
,,,,,,calibration,0,21,2,583,3,X,1,left,0.8944814720016439,1,0,,,,,,,,,,,,,,,,,,,,,1,,,,,,,,,,,,,,,,,,,,,,,,,,,,,,,,,,,,,,,,,,,,,,60,154750,21,Female,1,2024/02/15_14:41:00,JV,None,
,,,,,,calibration,0,21,2,583,4,C,0,right,0.9279687950001971,1,0,,,,,,,,,,,,,,,,,,,,,1,,,,,,,,,,,,,,,,,,,,,,,,,,,,,,,,,,,,,,,,,,,,,,60,154750,21,Female,1,2024/02/15_14:41:00,JV,None,
,,,,,,calibration,0,21,2,583,5,F,0,right,1.1273350860028586,1,0,,,,,,,,,,,,,,,,,,,,,1,,,,,,,,,,,,,,,,,,,,,,,,,,,,,,,,,,,,,,,,,,,,,,60,154750,21,Female,1,2024/02/15_14:41:00,JV,None,
,,,,,,calibration,0,21,2,583,6,N,0,right,1.4162010760010162,1,0,,,,,,,,,,,,,,,,,,,,,1,,,,,,,,,,,,,,,,,,,,,,,,,,,,,,,,,,,,,,,,,,,,,,60,154750,21,Female,1,2024/02/15_14:41:00,JV,None,
,,,,,,calibration,0,21,2,583,7,F,1,left,0.9111400529982348,1,0,,,,,,,,,,,,,,,,,,,,,1,,,,,,,,,,,,,,,,,,,,,,,,,,,,,,,,,,,,,,,,,,,,,,60,154750,21,Female,1,2024/02/15_14:41:00,JV,None,
,,,,,,calibration,0,21,2,583,8,N,1,left,1.589030511000601,1,0,,,,,,,,,,,,,,,,,,,,,1,,,,,,,,,,,,,,,,,,,,,,,,,,,,,,,,,,,,,,,,,,,,,,60,154750,21,Female,1,2024/02/15_14:41:00,JV,None,
,,,,,,calibration,0,21,2,583,9,C,0,right,1.32360283700109,1,0,,,,,,,,,,,,,,,,,,,,,1,,,,,,,,,,,,,,,,,,,,,,,,,,,,,,,,,,,,,,,,,,,,,,60,154750,21,Female,1,2024/02/15_14:41:00,JV,None,
,,,,,,calibration,0,21,2,583,10,J,0,right,1.1749852629982342,1,0,,,,,,,,,,,,,,,,,,,,,1,,,,,,,,,,,,,,,,,,,,,,,,,,,,,,,,,,,,,,,,,,,,,,60,154750,21,Female,1,2024/02/15_14:41:00,JV,None,
,,,,,,calibration,0,21,2,583,11,Q,0,right,1.3147739970008843,1,0,,,,,,,,,,,,,,,,,,,,,1,,,,,,,,,,,,,,,,,,,,,,,,,,,,,,,,,,,,,,,,,,,,,,60,154750,21,Female,1,2024/02/15_14:41:00,JV,None,
,,,,,,calibration,0,21,2,583,12,J,1,left,0.9760349230018619,1,0,,,,,,,,,,,,,,,,,,,,,1,,,,,,,,,,,,,,,,,,,,,,,,,,,,,,,,,,,,,,,,,,,,,,60,154750,21,Female,1,2024/02/15_14:41:00,JV,None,
,,,,,,calibration,0,21,2,583,13,V,0,right,1.101280147999205,1,0,,,,,,,,,,,,,,,,,,,,,1,,,,,,,,,,,,,,,,,,,,,,,,,,,,,,,,,,,,,,,,,,,,,,60,154750,21,Female,1,2024/02/15_14:41:00,JV,None,
,,,,,,calibration,0,21,2,583,14,N,0,left,1.0887850880026235,0,0,,,,,,,,,,,,,,,,,,,,,1,,,,,,,,,,,,,,,,,,,,,,,,,,,,,,,,,,,,,,,,,,,,,,60,154750,21,Female,1,2024/02/15_14:41:00,JV,None,
,,,,,,calibration,0,21,2,583,15,S,0,right,0.9559454500013089,1,0,,,,,,,,,,,,,,,,,,,,,1,,,,,,,,,,,,,,,,,,,,,,,,,,,,,,,,,,,,,,,,,,,,,,60,154750,21,Female,1,2024/02/15_14:41:00,JV,None,
,,,,,,calibration,0,21,2,583,,,,,,,,0.9772727272727273,1.0,0.09090909090909091,0.9090909090909091,0.0,0.9090909090909091,1.1735263708675727,4,1,0,0,0,10,14,4,11,0,,,,1,,,,,,,,,,,,,,,,,,,,,,,,,,,,,,,,,,,,,,,,,,,,,,60,154750,21,Female,1,2024/02/15_14:41:00,JV,None,
,,,,,,Calibration,0,,2,583,,,,,,,,,,,,,,,,,,,,,,,,,1,,,1,,,,,,,,,,,,,,,,,,,,,,,,,,,,,,,,,,,,,,,,,,,,,,60,154750,21,Female,1,2024/02/15_14:41:00,JV,None,
,,,,,,calibration,0,7,2,500,1,N,0,None,nan,0,1,,,,,,,,,,,,,,,,,,,,,1,,,,,,,,,,,,,,,,,,,,,,,,,,,,,,,,,,,,,,,,,,,,,,60,154750,21,Female,1,2024/02/15_14:41:00,JV,None,
,,,,,,calibration,0,7,2,500,2,C,0,None,nan,0,1,,,,,,,,,,,,,,,,,,,,,1,,,,,,,,,,,,,,,,,,,,,,,,,,,,,,,,,,,,,,,,,,,,,,60,154750,21,Female,1,2024/02/15_14:41:00,JV,None,
,,,,,,calibration,0,7,2,500,3,V,0,None,nan,0,1,,,,,,,,,,,,,,,,,,,,,1,,,,,,,,,,,,,,,,,,,,,,,,,,,,,,,,,,,,,,,,,,,,,,60,154750,21,Female,1,2024/02/15_14:41:00,JV,None,
,,,,,,calibration,0,7,2,500,4,F,0,None,nan,0,1,,,,,,,,,,,,,,,,,,,,,1,,,,,,,,,,,,,,,,,,,,,,,,,,,,,,,,,,,,,,,,,,,,,,60,154750,21,Female,1,2024/02/15_14:41:00,JV,None,
,,,,,,calibration,0,7,2,500,5,V,1,left,0.9429633390027448,1,0,,,,,,,,,,,,,,,,,,,,,1,,,,,,,,,,,,,,,,,,,,,,,,,,,,,,,,,,,,,,,,,,,,,,60,154750,21,Female,1,2024/02/15_14:41:00,JV,None,
,,,,,,calibration,0,7,2,500,6,J,0,right,0.3257448910007952,1,0,,,,,,,,,,,,,,,,,,,,,1,,,,,,,,,,,,,,,,,,,,,,,,,,,,,,,,,,,,,,,,,,,,,,60,154750,21,Female,1,2024/02/15_14:41:00,JV,None,
,,,,,,calibration,0,7,2,500,7,N,0,right,nan,0,1,,,,,,,,,,,,,,,,,,,,,1,,,,,,,,,,,,,,,,,,,,,,,,,,,,,,,,,,,,,,,,,,,,,,60,154750,21,Female,1,2024/02/15_14:41:00,JV,None,
,,,,,,calibration,0,7,2,500,8,J,1,left,0.0653860780003015,1,0,,,,,,,,,,,,,,,,,,,,,1,,,,,,,,,,,,,,,,,,,,,,,,,,,,,,,,,,,,,,,,,,,,,,60,154750,21,Female,1,2024/02/15_14:41:00,JV,None,
,,,,,,calibration,0,7,2,500,9,N,1,left,nan,0,1,,,,,,,,,,,,,,,,,,,,,1,,,,,,,,,,,,,,,,,,,,,,,,,,,,,,,,,,,,,,,,,,,,,,60,154750,21,Female,1,2024/02/15_14:41:00,JV,None,
,,,,,,calibration,0,7,2,500,10,Q,0,left,nan,0,1,,,,,,,,,,,,,,,,,,,,,1,,,,,,,,,,,,,,,,,,,,,,,,,,,,,,,,,,,,,,,,,,,,,,60,154750,21,Female,1,2024/02/15_14:41:00,JV,None,
,,,,,,calibration,0,7,2,500,11,V,0,left,0.8817392290002317,0,0,,,,,,,,,,,,,,,,,,,,,1,,,,,,,,,,,,,,,,,,,,,,,,,,,,,,,,,,,,,,,,,,,,,,60,154750,21,Female,1,2024/02/15_14:41:00,JV,None,
,,,,,,calibration,0,7,2,500,12,Q,1,right,0.43727477900029044,0,0,,,,,,,,,,,,,,,,,,,,,1,,,,,,,,,,,,,,,,,,,,,,,,,,,,,,,,,,,,,,,,,,,,,,60,154750,21,Female,1,2024/02/15_14:41:00,JV,None,
,,,,,,calibration,0,7,2,500,13,N,0,left,0.0,0,0,,,,,,,,,,,,,,,,,,,,,1,,,,,,,,,,,,,,,,,,,,,,,,,,,,,,,,,,,,,,,,,,,,,,60,154750,21,Female,1,2024/02/15_14:41:00,JV,None,
,,,,,,calibration,0,7,2,500,14,Q,1,left,nan,0,1,,,,,,,,,,,,,,,,,,,,,1,,,,,,,,,,,,,,,,,,,,,,,,,,,,,,,,,,,,,,,,,,,,,,60,154750,21,Female,1,2024/02/15_14:41:00,JV,None,
,,,,,,calibration,0,7,2,500,15,J,0,left,nan,0,1,,,,,,,,,,,,,,,,,,,,,1,,,,,,,,,,,,,,,,,,,,,,,,,,,,,,,,,,,,,,,,,,,,,,60,154750,21,Female,1,2024/02/15_14:41:00,JV,None,
,,,,,,calibration,0,7,2,500,16,S,0,right,0.9580091469979379,1,0,,,,,,,,,,,,,,,,,,,,,1,,,,,,,,,,,,,,,,,,,,,,,,,,,,,,,,,,,,,,,,,,,,,,60,154750,21,Female,1,2024/02/15_14:41:00,JV,None,
,,,,,,calibration,0,7,2,500,,,,,,,,0.6909090909090909,0.4,0.18181818181818182,0.5,0.5625,0.2556818181818181,0.5158739232860431,2,2,2,7,9,2,4,5,11,0,,,,1,,,,,,,,,,,,,,,,,,,,,,,,,,,,,,,,,,,,,,,,,,,,,,60,154750,21,Female,1,2024/02/15_14:41:00,JV,None,
,,,,,,Calibration,0,,2,500,,,,,,,,,,,,,,,,,,,,,,,,,2,,,1,,,,,,,,,,,,,,,,,,,,,,,,,,,,,,,,,,,,,,,,,,,,,,60,154750,21,Female,1,2024/02/15_14:41:00,JV,None,
,,,,,,calibration,0,35,2,583,1,J,0,right,0.8932212130021071,1,0,,,,,,,,,,,,,,,,,,,,,1,,,,,,,,,,,,,,,,,,,,,,,,,,,,,,,,,,,,,,,,,,,,,,60,154750,21,Female,1,2024/02/15_14:41:00,JV,None,
,,,,,,calibration,0,35,2,583,2,Q,0,right,1.4567986570000357,1,0,,,,,,,,,,,,,,,,,,,,,1,,,,,,,,,,,,,,,,,,,,,,,,,,,,,,,,,,,,,,,,,,,,,,60,154750,21,Female,1,2024/02/15_14:41:00,JV,None,
,,,,,,calibration,0,35,2,583,3,S,0,right,0.9347067399976368,1,0,,,,,,,,,,,,,,,,,,,,,1,,,,,,,,,,,,,,,,,,,,,,,,,,,,,,,,,,,,,,,,,,,,,,60,154750,21,Female,1,2024/02/15_14:41:00,JV,None,
,,,,,,calibration,0,35,2,583,4,Q,1,left,0.8119526619993849,1,0,,,,,,,,,,,,,,,,,,,,,1,,,,,,,,,,,,,,,,,,,,,,,,,,,,,,,,,,,,,,,,,,,,,,60,154750,21,Female,1,2024/02/15_14:41:00,JV,None,
,,,,,,calibration,0,35,2,583,5,J,0,right,1.1643693299993174,1,0,,,,,,,,,,,,,,,,,,,,,1,,,,,,,,,,,,,,,,,,,,,,,,,,,,,,,,,,,,,,,,,,,,,,60,154750,21,Female,1,2024/02/15_14:41:00,JV,None,
,,,,,,calibration,0,35,2,583,6,N,0,left,1.075788629001181,0,0,,,,,,,,,,,,,,,,,,,,,1,,,,,,,,,,,,,,,,,,,,,,,,,,,,,,,,,,,,,,,,,,,,,,60,154750,21,Female,1,2024/02/15_14:41:00,JV,None,
,,,,,,calibration,0,35,2,583,7,Q,0,right,1.0564492749981582,1,0,,,,,,,,,,,,,,,,,,,,,1,,,,,,,,,,,,,,,,,,,,,,,,,,,,,,,,,,,,,,,,,,,,,,60,154750,21,Female,1,2024/02/15_14:41:00,JV,None,
,,,,,,calibration,0,35,2,583,8,N,1,left,1.6943902540006093,1,0,,,,,,,,,,,,,,,,,,,,,1,,,,,,,,,,,,,,,,,,,,,,,,,,,,,,,,,,,,,,,,,,,,,,60,154750,21,Female,1,2024/02/15_14:41:00,JV,None,
,,,,,,calibration,0,35,2,583,9,Q,1,left,1.5829525839981216,1,0,,,,,,,,,,,,,,,,,,,,,1,,,,,,,,,,,,,,,,,,,,,,,,,,,,,,,,,,,,,,,,,,,,,,60,154750,21,Female,1,2024/02/15_14:41:00,JV,None,
,,,,,,calibration,0,35,2,583,10,F,0,right,0.9480336400010856,1,0,,,,,,,,,,,,,,,,,,,,,1,,,,,,,,,,,,,,,,,,,,,,,,,,,,,,,,,,,,,,,,,,,,,,60,154750,21,Female,1,2024/02/15_14:41:00,JV,None,
,,,,,,calibration,0,35,2,583,11,S,0,right,0.9427277089998825,1,0,,,,,,,,,,,,,,,,,,,,,1,,,,,,,,,,,,,,,,,,,,,,,,,,,,,,,,,,,,,,,,,,,,,,60,154750,21,Female,1,2024/02/15_14:41:00,JV,None,
,,,,,,calibration,0,35,2,583,12,Q,0,right,0.9525507529979222,1,0,,,,,,,,,,,,,,,,,,,,,1,,,,,,,,,,,,,,,,,,,,,,,,,,,,,,,,,,,,,,,,,,,,,,60,154750,21,Female,1,2024/02/15_14:41:00,JV,None,
,,,,,,calibration,0,35,2,583,13,S,1,left,0.8387996900019061,1,0,,,,,,,,,,,,,,,,,,,,,1,,,,,,,,,,,,,,,,,,,,,,,,,,,,,,,,,,,,,,,,,,,,,,60,154750,21,Female,1,2024/02/15_14:41:00,JV,None,
,,,,,,calibration,0,35,2,583,14,C,0,right,0.7876630999999179,1,0,,,,,,,,,,,,,,,,,,,,,1,,,,,,,,,,,,,,,,,,,,,,,,,,,,,,,,,,,,,,,,,,,,,,60,154750,21,Female,1,2024/02/15_14:41:00,JV,None,
,,,,,,calibration,0,35,2,583,15,X,0,right,0.9300695979982265,1,0,,,,,,,,,,,,,,,,,,,,,1,,,,,,,,,,,,,,,,,,,,,,,,,,,,,,,,,,,,,,,,,,,,,,60,154750,21,Female,1,2024/02/15_14:41:00,JV,None,
,,,,,,calibration,0,35,2,583,,,,,,,,0.9772727272727273,1.0,0.09090909090909091,0.9090909090909091,0.0,0.9090909090909091,1.0713649222663661,4,1,0,0,0,10,14,4,11,0,,,,1,,,,,,,,,,,,,,,,,,,,,,,,,,,,,,,,,,,,,,,,,,,,,,60,154750,21,Female,1,2024/02/15_14:41:00,JV,None,
,,,,,,Calibration,0,,2,583,,,,,,,,,,,,,,,,,,,,,,,,,3,,,1,,,,,,,,,,,,,,,,,,,,,,,,,,,,,,,,,,,,,,,,,,,,,,60,154750,21,Female,1,2024/02/15_14:41:00,JV,None,
,,,,,,calibration,0,33,2,500,1,X,0,right,0.8300946309973369,1,0,,,,,,,,,,,,,,,,,,,,,1,,,,,,,,,,,,,,,,,,,,,,,,,,,,,,,,,,,,,,,,,,,,,,60,154750,21,Female,1,2024/02/15_14:41:00,JV,None,
,,,,,,calibration,0,33,2,500,2,F,0,right,0.6902283859999443,1,0,,,,,,,,,,,,,,,,,,,,,1,,,,,,,,,,,,,,,,,,,,,,,,,,,,,,,,,,,,,,,,,,,,,,60,154750,21,Female,1,2024/02/15_14:41:00,JV,None,
,,,,,,calibration,0,33,2,500,3,X,1,left,0.7092661289971147,1,0,,,,,,,,,,,,,,,,,,,,,1,,,,,,,,,,,,,,,,,,,,,,,,,,,,,,,,,,,,,,,,,,,,,,60,154750,21,Female,1,2024/02/15_14:41:00,JV,None,
,,,,,,calibration,0,33,2,500,4,F,1,left,0.9917450829998415,1,0,,,,,,,,,,,,,,,,,,,,,1,,,,,,,,,,,,,,,,,,,,,,,,,,,,,,,,,,,,,,,,,,,,,,60,154750,21,Female,1,2024/02/15_14:41:00,JV,None,
,,,,,,calibration,0,33,2,500,5,N,0,right,0.4909874420009146,1,0,,,,,,,,,,,,,,,,,,,,,1,,,,,,,,,,,,,,,,,,,,,,,,,,,,,,,,,,,,,,,,,,,,,,60,154750,21,Female,1,2024/02/15_14:41:00,JV,None,
,,,,,,calibration,0,33,2,500,6,Q,0,right,0.7102620900004695,1,0,,,,,,,,,,,,,,,,,,,,,1,,,,,,,,,,,,,,,,,,,,,,,,,,,,,,,,,,,,,,,,,,,,,,60,154750,21,Female,1,2024/02/15_14:41:00,JV,None,
,,,,,,calibration,0,33,2,500,7,S,0,right,nan,0,1,,,,,,,,,,,,,,,,,,,,,1,,,,,,,,,,,,,,,,,,,,,,,,,,,,,,,,,,,,,,,,,,,,,,60,154750,21,Female,1,2024/02/15_14:41:00,JV,None,
,,,,,,calibration,0,33,2,500,8,Q,1,left,0.6578950199982501,1,0,,,,,,,,,,,,,,,,,,,,,1,,,,,,,,,,,,,,,,,,,,,,,,,,,,,,,,,,,,,,,,,,,,,,60,154750,21,Female,1,2024/02/15_14:41:00,JV,None,
,,,,,,calibration,0,33,2,500,9,N,0,right,0.779101621999871,1,0,,,,,,,,,,,,,,,,,,,,,1,,,,,,,,,,,,,,,,,,,,,,,,,,,,,,,,,,,,,,,,,,,,,,60,154750,21,Female,1,2024/02/15_14:41:00,JV,None,
,,,,,,calibration,0,33,2,500,10,V,0,right,0.7422113419997913,1,0,,,,,,,,,,,,,,,,,,,,,1,,,,,,,,,,,,,,,,,,,,,,,,,,,,,,,,,,,,,,,,,,,,,,60,154750,21,Female,1,2024/02/15_14:41:00,JV,None,
,,,,,,calibration,0,33,2,500,11,F,0,right,nan,0,1,,,,,,,,,,,,,,,,,,,,,1,,,,,,,,,,,,,,,,,,,,,,,,,,,,,,,,,,,,,,,,,,,,,,60,154750,21,Female,1,2024/02/15_14:41:00,JV,None,
,,,,,,calibration,0,33,2,500,12,N,0,right,nan,0,1,,,,,,,,,,,,,,,,,,,,,1,,,,,,,,,,,,,,,,,,,,,,,,,,,,,,,,,,,,,,,,,,,,,,60,154750,21,Female,1,2024/02/15_14:41:00,JV,None,
,,,,,,calibration,0,33,2,500,13,S,0,right,0.9490494979982032,1,0,,,,,,,,,,,,,,,,,,,,,1,,,,,,,,,,,,,,,,,,,,,,,,,,,,,,,,,,,,,,,,,,,,,,60,154750,21,Female,1,2024/02/15_14:41:00,JV,None,
,,,,,,calibration,0,33,2,500,14,J,0,right,0.6589322299987543,1,0,,,,,,,,,,,,,,,,,,,,,1,,,,,,,,,,,,,,,,,,,,,,,,,,,,,,,,,,,,,,,,,,,,,,60,154750,21,Female,1,2024/02/15_14:41:00,JV,None,
,,,,,,calibration,0,33,2,500,15,S,1,left,0.6361464289984724,1,0,,,,,,,,,,,,,,,,,,,,,1,,,,,,,,,,,,,,,,,,,,,,,,,,,,,,,,,,,,,,,,,,,,,,60,154750,21,Female,1,2024/02/15_14:41:00,JV,None,
,,,,,,calibration,0,33,2,500,16,J,1,right,0.9545509250019677,0,0,,,,,,,,,,,,,,,,,,,,,1,,,,,,,,,,,,,,,,,,,,,,,,,,,,,,,,,,,,,,,,,,,,,,60,154750,21,Female,1,2024/02/15_14:41:00,JV,None,
,,,,,,calibration,0,33,2,500,,,,,,,,0.95,0.8,0.0,1.0,0.1875,0.8125,0.7538823713069948,4,0,0,3,3,8,12,5,11,0,,,,1,,,,,,,,,,,,,,,,,,,,,,,,,,,,,,,,,,,,,,,,,,,,,,60,154750,21,Female,1,2024/02/15_14:41:00,JV,None,
,,,,,,Calibration,0,,2,500,,,,,,,,,,,,,,,,,,,,,,,,,4,,,1,,,,,,,,,,,,,,,,,,,,,,,,,,,,,,,,,,,,,,,,,,,,,,60,154750,21,Female,1,2024/02/15_14:41:00,JV,None,
,,,,,,calibration,0,11,2,426,1,J,0,None,nan,0,1,,,,,,,,,,,,,,,,,,,,,1,,,,,,,,,,,,,,,,,,,,,,,,,,,,,,,,,,,,,,,,,,,,,,60,154750,21,Female,1,2024/02/15_14:41:00,JV,None,
,,,,,,calibration,0,11,2,426,2,Q,0,None,nan,0,1,,,,,,,,,,,,,,,,,,,,,1,,,,,,,,,,,,,,,,,,,,,,,,,,,,,,,,,,,,,,,,,,,,,,60,154750,21,Female,1,2024/02/15_14:41:00,JV,None,
,,,,,,calibration,0,11,2,426,3,J,1,left,0.7422432679995836,1,0,,,,,,,,,,,,,,,,,,,,,1,,,,,,,,,,,,,,,,,,,,,,,,,,,,,,,,,,,,,,,,,,,,,,60,154750,21,Female,1,2024/02/15_14:41:00,JV,None,
,,,,,,calibration,0,11,2,426,4,F,0,right,0.6743396540005051,1,0,,,,,,,,,,,,,,,,,,,,,1,,,,,,,,,,,,,,,,,,,,,,,,,,,,,,,,,,,,,,,,,,,,,,60,154750,21,Female,1,2024/02/15_14:41:00,JV,None,
,,,,,,calibration,0,11,2,426,5,X,0,right,0.5411906219997036,1,0,,,,,,,,,,,,,,,,,,,,,1,,,,,,,,,,,,,,,,,,,,,,,,,,,,,,,,,,,,,,,,,,,,,,60,154750,21,Female,1,2024/02/15_14:41:00,JV,None,
,,,,,,calibration,0,11,2,426,6,F,1,left,0.46923369800060755,1,0,,,,,,,,,,,,,,,,,,,,,1,,,,,,,,,,,,,,,,,,,,,,,,,,,,,,,,,,,,,,,,,,,,,,60,154750,21,Female,1,2024/02/15_14:41:00,JV,None,
,,,,,,calibration,0,11,2,426,7,V,0,right,0.5247862949981936,1,0,,,,,,,,,,,,,,,,,,,,,1,,,,,,,,,,,,,,,,,,,,,,,,,,,,,,,,,,,,,,,,,,,,,,60,154750,21,Female,1,2024/02/15_14:41:00,JV,None,
,,,,,,calibration,0,11,2,426,8,F,1,left,0.6483216000015091,1,0,,,,,,,,,,,,,,,,,,,,,1,,,,,,,,,,,,,,,,,,,,,,,,,,,,,,,,,,,,,,,,,,,,,,60,154750,21,Female,1,2024/02/15_14:41:00,JV,None,
,,,,,,calibration,0,11,2,426,9,J,0,right,0.33217964800132904,1,0,,,,,,,,,,,,,,,,,,,,,1,,,,,,,,,,,,,,,,,,,,,,,,,,,,,,,,,,,,,,,,,,,,,,60,154750,21,Female,1,2024/02/15_14:41:00,JV,None,
,,,,,,calibration,0,11,2,426,10,X,0,right,0.5889177140015818,1,0,,,,,,,,,,,,,,,,,,,,,1,,,,,,,,,,,,,,,,,,,,,,,,,,,,,,,,,,,,,,,,,,,,,,60,154750,21,Female,1,2024/02/15_14:41:00,JV,None,
,,,,,,calibration,0,11,2,426,11,C,0,right,0.7432983940016129,1,0,,,,,,,,,,,,,,,,,,,,,1,,,,,,,,,,,,,,,,,,,,,,,,,,,,,,,,,,,,,,,,,,,,,,60,154750,21,Female,1,2024/02/15_14:41:00,JV,None,
,,,,,,calibration,0,11,2,426,12,S,0,right,0.7101475839990599,1,0,,,,,,,,,,,,,,,,,,,,,1,,,,,,,,,,,,,,,,,,,,,,,,,,,,,,,,,,,,,,,,,,,,,,60,154750,21,Female,1,2024/02/15_14:41:00,JV,None,
,,,,,,calibration,0,11,2,426,13,X,0,left,0.9150966550005251,0,0,,,,,,,,,,,,,,,,,,,,,1,,,,,,,,,,,,,,,,,,,,,,,,,,,,,,,,,,,,,,,,,,,,,,60,154750,21,Female,1,2024/02/15_14:41:00,JV,None,
,,,,,,calibration,0,11,2,426,14,S,1,right,0.4572307560010813,0,0,,,,,,,,,,,,,,,,,,,,,1,,,,,,,,,,,,,,,,,,,,,,,,,,,,,,,,,,,,,,,,,,,,,,60,154750,21,Female,1,2024/02/15_14:41:00,JV,None,
,,,,,,calibration,0,11,2,426,15,J,0,right,0.6140353640003013,1,0,,,,,,,,,,,,,,,,,,,,,1,,,,,,,,,,,,,,,,,,,,,,,,,,,,,,,,,,,,,,,,,,,,,,60,154750,21,Female,1,2024/02/15_14:41:00,JV,None,
,,,,,,calibration,0,11,2,426,16,V,0,right,0.49868078399958904,1,0,,,,,,,,,,,,,,,,,,,,,1,,,,,,,,,,,,,,,,,,,,,,,,,,,,,,,,,,,,,,,,,,,,,,60,154750,21,Female,1,2024/02/15_14:41:00,JV,None,
,,,,,,calibration,0,11,2,426,17,J,1,left,0.7739202580014535,1,0,,,,,,,,,,,,,,,,,,,,,1,,,,,,,,,,,,,,,,,,,,,,,,,,,,,,,,,,,,,,,,,,,,,,60,154750,21,Female,1,2024/02/15_14:41:00,JV,None,
,,,,,,calibration,0,11,2,426,,,,,,,,0.9125000000000001,0.8,0.08333333333333333,0.9,0.11764705882352941,0.7990196078431372,0.6155748196004425,4,1,0,2,2,9,13,5,12,0,,,,1,,,,,,,,,,,,,,,,,,,,,,,,,,,,,,,,,,,,,,,,,,,,,,60,154750,21,Female,1,2024/02/15_14:41:00,JV,None,
,,,,,,Calibration,0,,2,426,,,,,,,,,,,,,,,,,,,,,,,,,5,,,1,,,,,,,,,,,,,,,,,,,,,,,,,,,,,,,,,,,,,,,,,,,,,,60,154750,21,Female,1,2024/02/15_14:41:00,JV,None,
,,,,,,calibration,0,22,2,361,1,C,0,None,nan,0,1,,,,,,,,,,,,,,,,,,,,,1,,,,,,,,,,,,,,,,,,,,,,,,,,,,,,,,,,,,,,,,,,,,,,60,154750,21,Female,1,2024/02/15_14:41:00,JV,None,
,,,,,,calibration,0,22,2,361,2,J,0,right,0.38434367000081693,1,0,,,,,,,,,,,,,,,,,,,,,1,,,,,,,,,,,,,,,,,,,,,,,,,,,,,,,,,,,,,,,,,,,,,,60,154750,21,Female,1,2024/02/15_14:41:00,JV,None,
,,,,,,calibration,0,22,2,361,3,C,1,left,0.4902344720030669,1,0,,,,,,,,,,,,,,,,,,,,,1,,,,,,,,,,,,,,,,,,,,,,,,,,,,,,,,,,,,,,,,,,,,,,60,154750,21,Female,1,2024/02/15_14:41:00,JV,None,
,,,,,,calibration,0,22,2,361,4,J,1,left,0.6757048750005197,1,0,,,,,,,,,,,,,,,,,,,,,1,,,,,,,,,,,,,,,,,,,,,,,,,,,,,,,,,,,,,,,,,,,,,,60,154750,21,Female,1,2024/02/15_14:41:00,JV,None,
,,,,,,calibration,0,22,2,361,5,X,0,right,0.3255371820014261,1,0,,,,,,,,,,,,,,,,,,,,,1,,,,,,,,,,,,,,,,,,,,,,,,,,,,,,,,,,,,,,,,,,,,,,60,154750,21,Female,1,2024/02/15_14:41:00,JV,None,
,,,,,,calibration,0,22,2,361,6,J,1,left,0.6092681210029696,1,0,,,,,,,,,,,,,,,,,,,,,1,,,,,,,,,,,,,,,,,,,,,,,,,,,,,,,,,,,,,,,,,,,,,,60,154750,21,Female,1,2024/02/15_14:41:00,JV,None,
,,,,,,calibration,0,22,2,361,7,S,0,right,0.3228129670023918,1,0,,,,,,,,,,,,,,,,,,,,,1,,,,,,,,,,,,,,,,,,,,,,,,,,,,,,,,,,,,,,,,,,,,,,60,154750,21,Female,1,2024/02/15_14:41:00,JV,None,
,,,,,,calibration,0,22,2,361,8,Q,0,right,0.6158498660006444,1,0,,,,,,,,,,,,,,,,,,,,,1,,,,,,,,,,,,,,,,,,,,,,,,,,,,,,,,,,,,,,,,,,,,,,60,154750,21,Female,1,2024/02/15_14:41:00,JV,None,
,,,,,,calibration,0,22,2,361,9,S,1,left,0.6742152830011037,1,0,,,,,,,,,,,,,,,,,,,,,1,,,,,,,,,,,,,,,,,,,,,,,,,,,,,,,,,,,,,,,,,,,,,,60,154750,21,Female,1,2024/02/15_14:41:00,JV,None,
,,,,,,calibration,0,22,2,361,10,F,0,right,0.4912828400010767,1,0,,,,,,,,,,,,,,,,,,,,,1,,,,,,,,,,,,,,,,,,,,,,,,,,,,,,,,,,,,,,,,,,,,,,60,154750,21,Female,1,2024/02/15_14:41:00,JV,None,
,,,,,,calibration,0,22,2,361,11,J,0,right,0.7110595699996338,1,0,,,,,,,,,,,,,,,,,,,,,1,,,,,,,,,,,,,,,,,,,,,,,,,,,,,,,,,,,,,,,,,,,,,,60,154750,21,Female,1,2024/02/15_14:41:00,JV,None,
,,,,,,calibration,0,22,2,361,12,V,0,right,0.55563555900153,1,0,,,,,,,,,,,,,,,,,,,,,1,,,,,,,,,,,,,,,,,,,,,,,,,,,,,,,,,,,,,,,,,,,,,,60,154750,21,Female,1,2024/02/15_14:41:00,JV,None,
,,,,,,calibration,0,22,2,361,13,J,1,left,0.48879380300058983,1,0,,,,,,,,,,,,,,,,,,,,,1,,,,,,,,,,,,,,,,,,,,,,,,,,,,,,,,,,,,,,,,,,,,,,60,154750,21,Female,1,2024/02/15_14:41:00,JV,None,
,,,,,,calibration,0,22,2,361,14,F,0,left,0.6801417870010482,0,0,,,,,,,,,,,,,,,,,,,,,1,,,,,,,,,,,,,,,,,,,,,,,,,,,,,,,,,,,,,,,,,,,,,,60,154750,21,Female,1,2024/02/15_14:41:00,JV,None,
,,,,,,calibration,0,22,2,361,15,Q,0,right,0.31293120800182805,1,0,,,,,,,,,,,,,,,,,,,,,1,,,,,,,,,,,,,,,,,,,,,,,,,,,,,,,,,,,,,,,,,,,,,,60,154750,21,Female,1,2024/02/15_14:41:00,JV,None,
,,,,,,calibration,0,22,2,361,16,V,0,right,0.37273925399858854,1,0,,,,,,,,,,,,,,,,,,,,,1,,,,,,,,,,,,,,,,,,,,,,,,,,,,,,,,,,,,,,,,,,,,,,60,154750,21,Female,1,2024/02/15_14:41:00,JV,None,
,,,,,,calibration,0,22,2,361,17,J,0,right,0.6137835949994042,1,0,,,,,,,,,,,,,,,,,,,,,1,,,,,,,,,,,,,,,,,,,,,,,,,,,,,,,,,,,,,,,,,,,,,,60,154750,21,Female,1,2024/02/15_14:41:00,JV,None,
,,,,,,calibration,0,22,2,361,18,F,0,right,0.7247043850002228,1,0,,,,,,,,,,,,,,,,,,,,,1,,,,,,,,,,,,,,,,,,,,,,,,,,,,,,,,,,,,,,,,,,,,,,60,154750,21,Female,1,2024/02/15_14:41:00,JV,None,
,,,,,,calibration,0,22,2,361,,,,,,,,0.9807692307692308,1.0,0.07692307692307693,0.9166666666666666,0.05555555555555555,0.8675213675213675,0.5322963786480507,5,1,0,1,1,11,16,5,13,0,,,,1,,,,,,,,,,,,,,,,,,,,,,,,,,,,,,,,,,,,,,,,,,,,,,60,154750,21,Female,1,2024/02/15_14:41:00,JV,None,
,,,,,,Calibration,0,,2,361,,,,,,,,,,,,,,,,,,,,,,,,,6,,,1,,,,,,,,,,,,,,,,,,,,,,,,,,,,,,,,,,,,,,,,,,,,,,60,154750,21,Female,1,2024/02/15_14:41:00,JV,None,
,,,,,,calibration,0,21,2,303,1,N,0,right,0.5122945450020779,1,0,,,,,,,,,,,,,,,,,,,,,1,,,,,,,,,,,,,,,,,,,,,,,,,,,,,,,,,,,,,,,,,,,,,,60,154750,21,Female,1,2024/02/15_14:41:00,JV,None,
,,,,,,calibration,0,21,2,303,2,S,0,right,0.5123609609981941,1,0,,,,,,,,,,,,,,,,,,,,,1,,,,,,,,,,,,,,,,,,,,,,,,,,,,,,,,,,,,,,,,,,,,,,60,154750,21,Female,1,2024/02/15_14:41:00,JV,None,
,,,,,,calibration,0,21,2,303,3,N,1,left,0.3736164750007447,1,0,,,,,,,,,,,,,,,,,,,,,1,,,,,,,,,,,,,,,,,,,,,,,,,,,,,,,,,,,,,,,,,,,,,,60,154750,21,Female,1,2024/02/15_14:41:00,JV,None,
,,,,,,calibration,0,21,2,303,4,J,0,right,0.28908630599835305,1,0,,,,,,,,,,,,,,,,,,,,,1,,,,,,,,,,,,,,,,,,,,,,,,,,,,,,,,,,,,,,,,,,,,,,60,154750,21,Female,1,2024/02/15_14:41:00,JV,None,
,,,,,,calibration,0,21,2,303,5,Q,0,right,0.36021424299906357,1,0,,,,,,,,,,,,,,,,,,,,,1,,,,,,,,,,,,,,,,,,,,,,,,,,,,,,,,,,,,,,,,,,,,,,60,154750,21,Female,1,2024/02/15_14:41:00,JV,None,
,,,,,,calibration,0,21,2,303,6,X,0,right,0.39418295299765305,1,0,,,,,,,,,,,,,,,,,,,,,1,,,,,,,,,,,,,,,,,,,,,,,,,,,,,,,,,,,,,,,,,,,,,,60,154750,21,Female,1,2024/02/15_14:41:00,JV,None,
,,,,,,calibration,0,21,2,303,7,N,0,right,0.4851057949999813,1,0,,,,,,,,,,,,,,,,,,,,,1,,,,,,,,,,,,,,,,,,,,,,,,,,,,,,,,,,,,,,,,,,,,,,60,154750,21,Female,1,2024/02/15_14:41:00,JV,None,
,,,,,,calibration,0,21,2,303,8,F,0,right,0.6857164809989627,1,0,,,,,,,,,,,,,,,,,,,,,1,,,,,,,,,,,,,,,,,,,,,,,,,,,,,,,,,,,,,,,,,,,,,,60,154750,21,Female,1,2024/02/15_14:41:00,JV,None,
,,,,,,calibration,0,21,2,303,9,V,0,right,0.3944768350011145,1,0,,,,,,,,,,,,,,,,,,,,,1,,,,,,,,,,,,,,,,,,,,,,,,,,,,,,,,,,,,,,,,,,,,,,60,154750,21,Female,1,2024/02/15_14:41:00,JV,None,
,,,,,,calibration,0,21,2,303,10,F,1,left,0.8486240380007075,1,0,,,,,,,,,,,,,,,,,,,,,1,,,,,,,,,,,,,,,,,,,,,,,,,,,,,,,,,,,,,,,,,,,,,,60,154750,21,Female,1,2024/02/15_14:41:00,JV,None,
,,,,,,calibration,0,21,2,303,11,N,0,right,0.2843239360008738,1,0,,,,,,,,,,,,,,,,,,,,,1,,,,,,,,,,,,,,,,,,,,,,,,,,,,,,,,,,,,,,,,,,,,,,60,154750,21,Female,1,2024/02/15_14:41:00,JV,None,
,,,,,,calibration,0,21,2,303,12,X,0,right,0.5959415220022493,1,0,,,,,,,,,,,,,,,,,,,,,1,,,,,,,,,,,,,,,,,,,,,,,,,,,,,,,,,,,,,,,,,,,,,,60,154750,21,Female,1,2024/02/15_14:41:00,JV,None,
,,,,,,calibration,0,21,2,303,13,N,1,left,0.6801247420007712,1,0,,,,,,,,,,,,,,,,,,,,,1,,,,,,,,,,,,,,,,,,,,,,,,,,,,,,,,,,,,,,,,,,,,,,60,154750,21,Female,1,2024/02/15_14:41:00,JV,None,
,,,,,,calibration,0,21,2,303,14,X,1,right,0.23539710699697025,0,0,,,,,,,,,,,,,,,,,,,,,1,,,,,,,,,,,,,,,,,,,,,,,,,,,,,,,,,,,,,,,,,,,,,,60,154750,21,Female,1,2024/02/15_14:41:00,JV,None,
,,,,,,calibration,0,21,2,303,15,C,0,right,nan,0,1,,,,,,,,,,,,,,,,,,,,,1,,,,,,,,,,,,,,,,,,,,,,,,,,,,,,,,,,,,,,,,,,,,,,60,154750,21,Female,1,2024/02/15_14:41:00,JV,None,
,,,,,,calibration,0,21,2,303,16,X,1,right,0.37050596900007804,0,0,,,,,,,,,,,,,,,,,,,,,1,,,,,,,,,,,,,,,,,,,,,,,,,,,,,,,,,,,,,,,,,,,,,,60,154750,21,Female,1,2024/02/15_14:41:00,JV,None,
,,,,,,calibration,0,21,2,303,17,V,0,right,0.4903754000006302,1,0,,,,,,,,,,,,,,,,,,,,,1,,,,,,,,,,,,,,,,,,,,,,,,,,,,,,,,,,,,,,,,,,,,,,60,154750,21,Female,1,2024/02/15_14:41:00,JV,None,
,,,,,,calibration,0,21,2,303,18,Q,0,right,0.4807594590020017,1,0,,,,,,,,,,,,,,,,,,,,,1,,,,,,,,,,,,,,,,,,,,,,,,,,,,,,,,,,,,,,,,,,,,,,60,154750,21,Female,1,2024/02/15_14:41:00,JV,None,
,,,,,,calibration,0,21,2,303,19,V,1,left,0.5255983130009554,1,0,,,,,,,,,,,,,,,,,,,,,1,,,,,,,,,,,,,,,,,,,,,,,,,,,,,,,,,,,,,,,,,,,,,,60,154750,21,Female,1,2024/02/15_14:41:00,JV,None,
,,,,,,calibration,0,21,2,303,,,,,,,,0.9166666666666666,0.6666666666666666,0.0,1.0,0.05263157894736842,0.9473684210526316,0.4732613933334101,4,0,0,1,1,12,16,6,13,0,,,,1,,,,,,,,,,,,,,,,,,,,,,,,,,,,,,,,,,,,,,,,,,,,,,60,154750,21,Female,1,2024/02/15_14:41:00,JV,None,
,,,,,,Calibration,0,,2,303,,,,,,,,,,,,,,,,,,,,,,,,,7,,,1,,,,,,,,,,,,,,,,,,,,,,,,,,,,,,,,,,,,,,,,,,,,,,60,154750,21,Female,1,2024/02/15_14:41:00,JV,None,
,,,,,,calibration,0,28,2,250,1,S,0,right,0.9312882049998734,1,0,,,,,,,,,,,,,,,,,,,,,1,,,,,,,,,,,,,,,,,,,,,,,,,,,,,,,,,,,,,,,,,,,,,,60,154750,21,Female,1,2024/02/15_14:41:00,JV,None,
,,,,,,calibration,0,28,2,250,2,J,0,right,0.3273518170026364,1,0,,,,,,,,,,,,,,,,,,,,,1,,,,,,,,,,,,,,,,,,,,,,,,,,,,,,,,,,,,,,,,,,,,,,60,154750,21,Female,1,2024/02/15_14:41:00,JV,None,
,,,,,,calibration,0,28,2,250,3,C,0,right,0.5600761319983576,1,0,,,,,,,,,,,,,,,,,,,,,1,,,,,,,,,,,,,,,,,,,,,,,,,,,,,,,,,,,,,,,,,,,,,,60,154750,21,Female,1,2024/02/15_14:41:00,JV,None,
,,,,,,calibration,0,28,2,250,4,J,1,left,0.4511958520015469,1,0,,,,,,,,,,,,,,,,,,,,,1,,,,,,,,,,,,,,,,,,,,,,,,,,,,,,,,,,,,,,,,,,,,,,60,154750,21,Female,1,2024/02/15_14:41:00,JV,None,
,,,,,,calibration,0,28,2,250,5,X,0,right,0.32776260300306603,1,0,,,,,,,,,,,,,,,,,,,,,1,,,,,,,,,,,,,,,,,,,,,,,,,,,,,,,,,,,,,,,,,,,,,,60,154750,21,Female,1,2024/02/15_14:41:00,JV,None,
,,,,,,calibration,0,28,2,250,6,J,1,right,0.29639668299932964,0,0,,,,,,,,,,,,,,,,,,,,,1,,,,,,,,,,,,,,,,,,,,,,,,,,,,,,,,,,,,,,,,,,,,,,60,154750,21,Female,1,2024/02/15_14:41:00,JV,None,
,,,,,,calibration,0,28,2,250,7,X,1,left,0.8223932949986192,1,0,,,,,,,,,,,,,,,,,,,,,1,,,,,,,,,,,,,,,,,,,,,,,,,,,,,,,,,,,,,,,,,,,,,,60,154750,21,Female,1,2024/02/15_14:41:00,JV,None,
,,,,,,calibration,0,28,2,250,8,S,0,right,0.2289164880021417,1,0,,,,,,,,,,,,,,,,,,,,,1,,,,,,,,,,,,,,,,,,,,,,,,,,,,,,,,,,,,,,,,,,,,,,60,154750,21,Female,1,2024/02/15_14:41:00,JV,None,
,,,,,,calibration,0,28,2,250,9,Q,0,right,0.5566825450005126,1,0,,,,,,,,,,,,,,,,,,,,,1,,,,,,,,,,,,,,,,,,,,,,,,,,,,,,,,,,,,,,,,,,,,,,60,154750,21,Female,1,2024/02/15_14:41:00,JV,None,
,,,,,,calibration,0,28,2,250,10,S,1,left,0.5571100560009654,1,0,,,,,,,,,,,,,,,,,,,,,1,,,,,,,,,,,,,,,,,,,,,,,,,,,,,,,,,,,,,,,,,,,,,,60,154750,21,Female,1,2024/02/15_14:41:00,JV,None,
,,,,,,calibration,0,28,2,250,11,J,0,right,0.21598683500269544,1,0,,,,,,,,,,,,,,,,,,,,,1,,,,,,,,,,,,,,,,,,,,,,,,,,,,,,,,,,,,,,,,,,,,,,60,154750,21,Female,1,2024/02/15_14:41:00,JV,None,
,,,,,,calibration,0,28,2,250,12,C,0,right,0.5659989529995073,1,0,,,,,,,,,,,,,,,,,,,,,1,,,,,,,,,,,,,,,,,,,,,,,,,,,,,,,,,,,,,,,,,,,,,,60,154750,21,Female,1,2024/02/15_14:41:00,JV,None,
,,,,,,calibration,0,28,2,250,13,S,0,right,0.7214186869969126,1,0,,,,,,,,,,,,,,,,,,,,,1,,,,,,,,,,,,,,,,,,,,,,,,,,,,,,,,,,,,,,,,,,,,,,60,154750,21,Female,1,2024/02/15_14:41:00,JV,None,
,,,,,,calibration,0,28,2,250,14,F,0,right,0.5203887629977544,1,0,,,,,,,,,,,,,,,,,,,,,1,,,,,,,,,,,,,,,,,,,,,,,,,,,,,,,,,,,,,,,,,,,,,,60,154750,21,Female,1,2024/02/15_14:41:00,JV,None,
,,,,,,calibration,0,28,2,250,15,C,0,left,0.5980463079977199,0,0,,,,,,,,,,,,,,,,,,,,,1,,,,,,,,,,,,,,,,,,,,,,,,,,,,,,,,,,,,,,,,,,,,,,60,154750,21,Female,1,2024/02/15_14:41:00,JV,None,
,,,,,,calibration,0,28,2,250,16,S,0,right,0.250425656002335,1,0,,,,,,,,,,,,,,,,,,,,,1,,,,,,,,,,,,,,,,,,,,,,,,,,,,,,,,,,,,,,,,,,,,,,60,154750,21,Female,1,2024/02/15_14:41:00,JV,None,
,,,,,,calibration,0,28,2,250,17,C,1,left,0.008800654999504331,1,0,,,,,,,,,,,,,,,,,,,,,1,,,,,,,,,,,,,,,,,,,,,,,,,,,,,,,,,,,,,,,,,,,,,,60,154750,21,Female,1,2024/02/15_14:41:00,JV,None,
,,,,,,calibration,0,28,2,250,18,J,0,right,0.9117568750007194,1,0,,,,,,,,,,,,,,,,,,,,,1,,,,,,,,,,,,,,,,,,,,,,,,,,,,,,,,,,,,,,,,,,,,,,60,154750,21,Female,1,2024/02/15_14:41:00,JV,None,
,,,,,,calibration,0,28,2,250,19,C,1,right,nan,0,1,,,,,,,,,,,,,,,,,,,,,1,,,,,,,,,,,,,,,,,,,,,,,,,,,,,,,,,,,,,,,,,,,,,,60,154750,21,Female,1,2024/02/15_14:41:00,JV,None,
,,,,,,calibration,0,28,2,250,20,V,0,right,0.3476561919997039,1,0,,,,,,,,,,,,,,,,,,,,,1,,,,,,,,,,,,,,,,,,,,,,,,,,,,,,,,,,,,,,,,,,,,,,60,154750,21,Female,1,2024/02/15_14:41:00,JV,None,
,,,,,,calibration,0,28,2,250,,,,,,,,0.875,0.6666666666666666,0.07142857142857142,0.9285714285714286,0.05,0.8785714285714286,0.48419224210546846,4,1,1,0,1,13,17,6,14,0,,,,1,,,,,,,,,,,,,,,,,,,,,,,,,,,,,,,,,,,,,,,,,,,,,,60,154750,21,Female,1,2024/02/15_14:41:00,JV,None,
,,,,,,Calibration,0,,2,250,,,,,,,,,,,,,,,,,,,,,,,,,8,,,1,,,,,,,,,,,,,,,,,,,,,,,,,,,,,,,,,,,,,,,,,,,,,,60,154750,21,Female,1,2024/02/15_14:41:00,JV,None,
,,,,,,calibration,0,20,2,202,1,F,0,right,0.475386972000706,1,0,,,,,,,,,,,,,,,,,,,,,1,,,,,,,,,,,,,,,,,,,,,,,,,,,,,,,,,,,,,,,,,,,,,,60,154750,21,Female,1,2024/02/15_14:41:00,JV,None,
,,,,,,calibration,0,20,2,202,2,S,0,right,0.5123295769990364,1,0,,,,,,,,,,,,,,,,,,,,,1,,,,,,,,,,,,,,,,,,,,,,,,,,,,,,,,,,,,,,,,,,,,,,60,154750,21,Female,1,2024/02/15_14:41:00,JV,None,
,,,,,,calibration,0,20,2,202,3,C,0,left,0.7154019449990301,0,0,,,,,,,,,,,,,,,,,,,,,1,,,,,,,,,,,,,,,,,,,,,,,,,,,,,,,,,,,,,,,,,,,,,,60,154750,21,Female,1,2024/02/15_14:41:00,JV,None,
,,,,,,calibration,0,20,2,202,4,Q,0,right,0.37055007299932186,1,0,,,,,,,,,,,,,,,,,,,,,1,,,,,,,,,,,,,,,,,,,,,,,,,,,,,,,,,,,,,,,,,,,,,,60,154750,21,Female,1,2024/02/15_14:41:00,JV,None,
,,,,,,calibration,0,20,2,202,5,J,0,right,0.3999383250011306,1,0,,,,,,,,,,,,,,,,,,,,,1,,,,,,,,,,,,,,,,,,,,,,,,,,,,,,,,,,,,,,,,,,,,,,60,154750,21,Female,1,2024/02/15_14:41:00,JV,None,
,,,,,,calibration,0,20,2,202,6,F,0,right,0.4589455149980495,1,0,,,,,,,,,,,,,,,,,,,,,1,,,,,,,,,,,,,,,,,,,,,,,,,,,,,,,,,,,,,,,,,,,,,,60,154750,21,Female,1,2024/02/15_14:41:00,JV,None,
,,,,,,calibration,0,20,2,202,7,J,1,right,0.7015305980021367,0,0,,,,,,,,,,,,,,,,,,,,,1,,,,,,,,,,,,,,,,,,,,,,,,,,,,,,,,,,,,,,,,,,,,,,60,154750,21,Female,1,2024/02/15_14:41:00,JV,None,
,,,,,,calibration,0,20,2,202,8,C,0,right,0.575122330999875,1,0,,,,,,,,,,,,,,,,,,,,,1,,,,,,,,,,,,,,,,,,,,,,,,,,,,,,,,,,,,,,,,,,,,,,60,154750,21,Female,1,2024/02/15_14:41:00,JV,None,
,,,,,,calibration,0,20,2,202,9,Q,0,right,0.43130071199993836,1,0,,,,,,,,,,,,,,,,,,,,,1,,,,,,,,,,,,,,,,,,,,,,,,,,,,,,,,,,,,,,,,,,,,,,60,154750,21,Female,1,2024/02/15_14:41:00,JV,None,
,,,,,,calibration,0,20,2,202,10,F,0,right,0.6313351420030813,1,0,,,,,,,,,,,,,,,,,,,,,1,,,,,,,,,,,,,,,,,,,,,,,,,,,,,,,,,,,,,,,,,,,,,,60,154750,21,Female,1,2024/02/15_14:41:00,JV,None,
,,,,,,calibration,0,20,2,202,11,Q,1,left,0.8717655620021105,1,0,,,,,,,,,,,,,,,,,,,,,1,,,,,,,,,,,,,,,,,,,,,,,,,,,,,,,,,,,,,,,,,,,,,,60,154750,21,Female,1,2024/02/15_14:41:00,JV,None,
,,,,,,calibration,0,20,2,202,12,F,1,right,0.28201217300011194,0,0,,,,,,,,,,,,,,,,,,,,,1,,,,,,,,,,,,,,,,,,,,,,,,,,,,,,,,,,,,,,,,,,,,,,60,154750,21,Female,1,2024/02/15_14:41:00,JV,None,
,,,,,,calibration,0,20,2,202,13,X,0,right,0.6510893539998506,1,0,,,,,,,,,,,,,,,,,,,,,1,,,,,,,,,,,,,,,,,,,,,,,,,,,,,,,,,,,,,,,,,,,,,,60,154750,21,Female,1,2024/02/15_14:41:00,JV,None,
,,,,,,calibration,0,20,2,202,14,F,1,left,0.945428876002552,1,0,,,,,,,,,,,,,,,,,,,,,1,,,,,,,,,,,,,,,,,,,,,,,,,,,,,,,,,,,,,,,,,,,,,,60,154750,21,Female,1,2024/02/15_14:41:00,JV,None,
,,,,,,calibration,0,20,2,202,15,J,0,left,nan,0,1,,,,,,,,,,,,,,,,,,,,,1,,,,,,,,,,,,,,,,,,,,,,,,,,,,,,,,,,,,,,,,,,,,,,60,154750,21,Female,1,2024/02/15_14:41:00,JV,None,
,,,,,,calibration,0,20,2,202,16,F,1,right,0.14305200300077558,0,0,,,,,,,,,,,,,,,,,,,,,1,,,,,,,,,,,,,,,,,,,,,,,,,,,,,,,,,,,,,,,,,,,,,,60,154750,21,Female,1,2024/02/15_14:41:00,JV,None,
,,,,,,calibration,0,20,2,202,17,J,1,right,nan,0,1,,,,,,,,,,,,,,,,,,,,,1,,,,,,,,,,,,,,,,,,,,,,,,,,,,,,,,,,,,,,,,,,,,,,60,154750,21,Female,1,2024/02/15_14:41:00,JV,None,
,,,,,,calibration,0,20,2,202,18,N,0,right,0.2456973750013276,1,0,,,,,,,,,,,,,,,,,,,,,1,,,,,,,,,,,,,,,,,,,,,,,,,,,,,,,,,,,,,,,,,,,,,,60,154750,21,Female,1,2024/02/15_14:41:00,JV,None,
,,,,,,calibration,0,20,2,202,19,J,1,right,0.4604821590000938,0,0,,,,,,,,,,,,,,,,,,,,,1,,,,,,,,,,,,,,,,,,,,,,,,,,,,,,,,,,,,,,,,,,,,,,60,154750,21,Female,1,2024/02/15_14:41:00,JV,None,
,,,,,,calibration,0,20,2,202,20,S,0,right,0.8296051050019742,1,0,,,,,,,,,,,,,,,,,,,,,1,,,,,,,,,,,,,,,,,,,,,,,,,,,,,,,,,,,,,,,,,,,,,,60,154750,21,Female,1,2024/02/15_14:41:00,JV,None,
,,,,,,calibration,0,20,2,202,21,Q,0,right,0.6655444620009803,1,0,,,,,,,,,,,,,,,,,,,,,1,,,,,,,,,,,,,,,,,,,,,,,,,,,,,,,,,,,,,,,,,,,,,,60,154750,21,Female,1,2024/02/15_14:41:00,JV,None,
,,,,,,calibration,0,20,2,202,,,,,,,,0.7410714285714286,0.2857142857142857,0.07142857142857142,0.9230769230769231,0.09523809523809523,0.8333333333333334,0.5456062241585307,2,1,1,1,2,12,14,7,14,0,,,,1,,,,,,,,,,,,,,,,,,,,,,,,,,,,,,,,,,,,,,,,,,,,,,60,154750,21,Female,1,2024/02/15_14:41:00,JV,None,
,,,,,,Calibration,0,,2,202,,,,,,,,,,,,,,,,,,,,,,,,,9,,,1,,,,,,,,,,,,,,,,,,,,,,,,,,,,,,,,,,,,,,,,,,,,,,60,154750,21,Female,1,2024/02/15_14:41:00,JV,None,
,,,,,,calibration,0,9,2,250,1,V,0,right,0.46914514400123153,1,0,,,,,,,,,,,,,,,,,,,,,1,,,,,,,,,,,,,,,,,,,,,,,,,,,,,,,,,,,,,,,,,,,,,,60,154750,21,Female,1,2024/02/15_14:41:00,JV,None,
,,,,,,calibration,0,9,2,250,2,Q,0,right,0.5743559039983666,1,0,,,,,,,,,,,,,,,,,,,,,1,,,,,,,,,,,,,,,,,,,,,,,,,,,,,,,,,,,,,,,,,,,,,,60,154750,21,Female,1,2024/02/15_14:41:00,JV,None,
,,,,,,calibration,0,9,2,250,3,V,1,left,0.47130766400005086,1,0,,,,,,,,,,,,,,,,,,,,,1,,,,,,,,,,,,,,,,,,,,,,,,,,,,,,,,,,,,,,,,,,,,,,60,154750,21,Female,1,2024/02/15_14:41:00,JV,None,
,,,,,,calibration,0,9,2,250,4,C,0,right,0.40115116800006945,1,0,,,,,,,,,,,,,,,,,,,,,1,,,,,,,,,,,,,,,,,,,,,,,,,,,,,,,,,,,,,,,,,,,,,,60,154750,21,Female,1,2024/02/15_14:41:00,JV,None,
,,,,,,calibration,0,9,2,250,5,V,1,left,0.6538049549999414,1,0,,,,,,,,,,,,,,,,,,,,,1,,,,,,,,,,,,,,,,,,,,,,,,,,,,,,,,,,,,,,,,,,,,,,60,154750,21,Female,1,2024/02/15_14:41:00,JV,None,
,,,,,,calibration,0,9,2,250,6,X,0,right,0.0029427990011754446,1,0,,,,,,,,,,,,,,,,,,,,,1,,,,,,,,,,,,,,,,,,,,,,,,,,,,,,,,,,,,,,,,,,,,,,60,154750,21,Female,1,2024/02/15_14:41:00,JV,None,
,,,,,,calibration,0,9,2,250,7,N,0,right,nan,0,1,,,,,,,,,,,,,,,,,,,,,1,,,,,,,,,,,,,,,,,,,,,,,,,,,,,,,,,,,,,,,,,,,,,,60,154750,21,Female,1,2024/02/15_14:41:00,JV,None,
,,,,,,calibration,0,9,2,250,8,X,1,right,0.40414235000207555,0,0,,,,,,,,,,,,,,,,,,,,,1,,,,,,,,,,,,,,,,,,,,,,,,,,,,,,,,,,,,,,,,,,,,,,60,154750,21,Female,1,2024/02/15_14:41:00,JV,None,
,,,,,,calibration,0,9,2,250,9,J,0,right,nan,0,1,,,,,,,,,,,,,,,,,,,,,1,,,,,,,,,,,,,,,,,,,,,,,,,,,,,,,,,,,,,,,,,,,,,,60,154750,21,Female,1,2024/02/15_14:41:00,JV,None,
,,,,,,calibration,0,9,2,250,10,Q,0,right,0.4996083700025338,1,0,,,,,,,,,,,,,,,,,,,,,1,,,,,,,,,,,,,,,,,,,,,,,,,,,,,,,,,,,,,,,,,,,,,,60,154750,21,Female,1,2024/02/15_14:41:00,JV,None,
,,,,,,calibration,0,9,2,250,11,N,0,right,nan,0,1,,,,,,,,,,,,,,,,,,,,,1,,,,,,,,,,,,,,,,,,,,,,,,,,,,,,,,,,,,,,,,,,,,,,60,154750,21,Female,1,2024/02/15_14:41:00,JV,None,
,,,,,,calibration,0,9,2,250,12,Q,1,right,0.5120459870013292,0,0,,,,,,,,,,,,,,,,,,,,,1,,,,,,,,,,,,,,,,,,,,,,,,,,,,,,,,,,,,,,,,,,,,,,60,154750,21,Female,1,2024/02/15_14:41:00,JV,None,
,,,,,,calibration,0,9,2,250,13,N,1,right,nan,0,1,,,,,,,,,,,,,,,,,,,,,1,,,,,,,,,,,,,,,,,,,,,,,,,,,,,,,,,,,,,,,,,,,,,,60,154750,21,Female,1,2024/02/15_14:41:00,JV,None,
,,,,,,calibration,0,9,2,250,14,J,0,right,0.3136717130000761,1,0,,,,,,,,,,,,,,,,,,,,,1,,,,,,,,,,,,,,,,,,,,,,,,,,,,,,,,,,,,,,,,,,,,,,60,154750,21,Female,1,2024/02/15_14:41:00,JV,None,
,,,,,,calibration,0,9,2,250,15,X,0,right,0.6792377390011097,1,0,,,,,,,,,,,,,,,,,,,,,1,,,,,,,,,,,,,,,,,,,,,,,,,,,,,,,,,,,,,,,,,,,,,,60,154750,21,Female,1,2024/02/15_14:41:00,JV,None,
,,,,,,calibration,0,9,2,250,16,J,1,right,nan,0,1,,,,,,,,,,,,,,,,,,,,,1,,,,,,,,,,,,,,,,,,,,,,,,,,,,,,,,,,,,,,,,,,,,,,60,154750,21,Female,1,2024/02/15_14:41:00,JV,None,
,,,,,,calibration,0,9,2,250,17,F,0,right,0.4315026650001528,1,0,,,,,,,,,,,,,,,,,,,,,1,,,,,,,,,,,,,,,,,,,,,,,,,,,,,,,,,,,,,,,,,,,,,,60,154750,21,Female,1,2024/02/15_14:41:00,JV,None,
,,,,,,calibration,0,9,2,250,18,Q,0,right,0.30613580699719023,1,0,,,,,,,,,,,,,,,,,,,,,1,,,,,,,,,,,,,,,,,,,,,,,,,,,,,,,,,,,,,,,,,,,,,,60,154750,21,Female,1,2024/02/15_14:41:00,JV,None,
,,,,,,calibration,0,9,2,250,19,V,0,right,0.6048342300018703,1,0,,,,,,,,,,,,,,,,,,,,,1,,,,,,,,,,,,,,,,,,,,,,,,,,,,,,,,,,,,,,,,,,,,,,60,154750,21,Female,1,2024/02/15_14:41:00,JV,None,
,,,,,,calibration,0,9,2,250,20,F,0,right,0.4965989010015619,1,0,,,,,,,,,,,,,,,,,,,,,1,,,,,,,,,,,,,,,,,,,,,,,,,,,,,,,,,,,,,,,,,,,,,,60,154750,21,Female,1,2024/02/15_14:41:00,JV,None,
,,,,,,calibration,0,9,2,250,,,,,,,,0.8333333333333334,0.3333333333333333,0.0,1.0,0.25,0.75,0.4546990264005823,2,0,2,3,5,11,13,6,14,0,,,,1,,,,,,,,,,,,,,,,,,,,,,,,,,,,,,,,,,,,,,,,,,,,,,60,154750,21,Female,1,2024/02/15_14:41:00,JV,None,
,,,,,,Calibration,0,,2,250,,,,,,,,,,,,,,,,,,,,,,,,,10,,,1,,,,,,,,,,,,,,,,,,,,,,,,,,,,,,,,,,,,,,,,,,,,,,60,154750,21,Female,1,2024/02/15_14:41:00,JV,None,
,,,,,,calibration,0,13,2,250,1,V,0,right,0.5656836829984968,1,0,,,,,,,,,,,,,,,,,,,,,1,,,,,,,,,,,,,,,,,,,,,,,,,,,,,,,,,,,,,,,,,,,,,,60,154750,21,Female,1,2024/02/15_14:41:00,JV,None,
,,,,,,calibration,0,13,2,250,2,Q,0,right,0.3552591600018786,1,0,,,,,,,,,,,,,,,,,,,,,1,,,,,,,,,,,,,,,,,,,,,,,,,,,,,,,,,,,,,,,,,,,,,,60,154750,21,Female,1,2024/02/15_14:41:00,JV,None,
,,,,,,calibration,0,13,2,250,3,F,0,right,0.48084464899875456,1,0,,,,,,,,,,,,,,,,,,,,,1,,,,,,,,,,,,,,,,,,,,,,,,,,,,,,,,,,,,,,,,,,,,,,60,154750,21,Female,1,2024/02/15_14:41:00,JV,None,
,,,,,,calibration,0,13,2,250,4,Q,1,left,0.5395553019989165,1,0,,,,,,,,,,,,,,,,,,,,,1,,,,,,,,,,,,,,,,,,,,,,,,,,,,,,,,,,,,,,,,,,,,,,60,154750,21,Female,1,2024/02/15_14:41:00,JV,None,
,,,,,,calibration,0,13,2,250,5,S,0,right,0.20123651500034612,1,0,,,,,,,,,,,,,,,,,,,,,1,,,,,,,,,,,,,,,,,,,,,,,,,,,,,,,,,,,,,,,,,,,,,,60,154750,21,Female,1,2024/02/15_14:41:00,JV,None,
,,,,,,calibration,0,13,2,250,6,Q,1,left,0.6102968229970429,1,0,,,,,,,,,,,,,,,,,,,,,1,,,,,,,,,,,,,,,,,,,,,,,,,,,,,,,,,,,,,,,,,,,,,,60,154750,21,Female,1,2024/02/15_14:41:00,JV,None,
,,,,,,calibration,0,13,2,250,7,N,0,right,0.10111329100254807,1,0,,,,,,,,,,,,,,,,,,,,,1,,,,,,,,,,,,,,,,,,,,,,,,,,,,,,,,,,,,,,,,,,,,,,60,154750,21,Female,1,2024/02/15_14:41:00,JV,None,
,,,,,,calibration,0,13,2,250,8,X,0,right,0.8341719589989225,1,0,,,,,,,,,,,,,,,,,,,,,1,,,,,,,,,,,,,,,,,,,,,,,,,,,,,,,,,,,,,,,,,,,,,,60,154750,21,Female,1,2024/02/15_14:41:00,JV,None,
,,,,,,calibration,0,13,2,250,9,N,1,left,0.7816276990015467,1,0,,,,,,,,,,,,,,,,,,,,,1,,,,,,,,,,,,,,,,,,,,,,,,,,,,,,,,,,,,,,,,,,,,,,60,154750,21,Female,1,2024/02/15_14:41:00,JV,None,
,,,,,,calibration,0,13,2,250,10,V,0,right,0.46056708000105573,1,0,,,,,,,,,,,,,,,,,,,,,1,,,,,,,,,,,,,,,,,,,,,,,,,,,,,,,,,,,,,,,,,,,,,,60,154750,21,Female,1,2024/02/15_14:41:00,JV,None,
,,,,,,calibration,0,13,2,250,11,X,0,left,0.9427695180020237,0,0,,,,,,,,,,,,,,,,,,,,,1,,,,,,,,,,,,,,,,,,,,,,,,,,,,,,,,,,,,,,,,,,,,,,60,154750,21,Female,1,2024/02/15_14:41:00,JV,None,
,,,,,,calibration,0,13,2,250,12,Q,0,right,0.2998524569993606,1,0,,,,,,,,,,,,,,,,,,,,,1,,,,,,,,,,,,,,,,,,,,,,,,,,,,,,,,,,,,,,,,,,,,,,60,154750,21,Female,1,2024/02/15_14:41:00,JV,None,
,,,,,,calibration,0,13,2,250,13,F,0,left,0.6217157999999472,0,0,,,,,,,,,,,,,,,,,,,,,1,,,,,,,,,,,,,,,,,,,,,,,,,,,,,,,,,,,,,,,,,,,,,,60,154750,21,Female,1,2024/02/15_14:41:00,JV,None,
,,,,,,calibration,0,13,2,250,14,J,0,right,0.29902053200203227,1,0,,,,,,,,,,,,,,,,,,,,,1,,,,,,,,,,,,,,,,,,,,,,,,,,,,,,,,,,,,,,,,,,,,,,60,154750,21,Female,1,2024/02/15_14:41:00,JV,None,
,,,,,,calibration,0,13,2,250,15,S,0,right,nan,0,1,,,,,,,,,,,,,,,,,,,,,1,,,,,,,,,,,,,,,,,,,,,,,,,,,,,,,,,,,,,,,,,,,,,,60,154750,21,Female,1,2024/02/15_14:41:00,JV,None,
,,,,,,calibration,0,13,2,250,16,X,0,right,0.8733551040022576,1,0,,,,,,,,,,,,,,,,,,,,,1,,,,,,,,,,,,,,,,,,,,,,,,,,,,,,,,,,,,,,,,,,,,,,60,154750,21,Female,1,2024/02/15_14:41:00,JV,None,
,,,,,,calibration,0,13,2,250,17,Q,0,right,nan,0,1,,,,,,,,,,,,,,,,,,,,,1,,,,,,,,,,,,,,,,,,,,,,,,,,,,,,,,,,,,,,,,,,,,,,60,154750,21,Female,1,2024/02/15_14:41:00,JV,None,
,,,,,,calibration,0,13,2,250,18,X,1,right,0.0037471109972102568,0,0,,,,,,,,,,,,,,,,,,,,,1,,,,,,,,,,,,,,,,,,,,,,,,,,,,,,,,,,,,,,,,,,,,,,60,154750,21,Female,1,2024/02/15_14:41:00,JV,None,
,,,,,,calibration,0,13,2,250,19,Q,1,right,0.5924969459993008,0,0,,,,,,,,,,,,,,,,,,,,,1,,,,,,,,,,,,,,,,,,,,,,,,,,,,,,,,,,,,,,,,,,,,,,60,154750,21,Female,1,2024/02/15_14:41:00,JV,None,
,,,,,,calibration,0,13,2,250,20,J,0,right,0.38232153200078756,1,0,,,,,,,,,,,,,,,,,,,,,1,,,,,,,,,,,,,,,,,,,,,,,,,,,,,,,,,,,,,,,,,,,,,,60,154750,21,Female,1,2024/02/15_14:41:00,JV,None,
,,,,,,calibration,0,13,2,250,,,,,,,,0.8133333333333334,0.6,0.13333333333333333,0.8461538461538461,0.1,0.7666666666666667,0.4969797311668016,3,2,0,2,2,11,14,5,15,0,,,,1,,,,,,,,,,,,,,,,,,,,,,,,,,,,,,,,,,,,,,,,,,,,,,60,154750,21,Female,1,2024/02/15_14:41:00,JV,None,
,,,,,,Calibration,0,,2,250,,,,,,,,,,,,,,,,,,,,,,,,,11,,,1,,,,,,,,,,,,,,,,,,,,,,,,,,,,,,,,,,,,,,,,,,,,,,60,154750,21,Female,1,2024/02/15_14:41:00,JV,None,
,,,,,,calibration,0,3,2,250,1,N,0,right,0.41920605300038005,1,0,,,,,,,,,,,,,,,,,,,,,1,,,,,,,,,,,,,,,,,,,,,,,,,,,,,,,,,,,,,,,,,,,,,,60,154750,21,Female,1,2024/02/15_14:41:00,JV,None,
,,,,,,calibration,0,3,2,250,2,F,0,right,0.36004348099959316,1,0,,,,,,,,,,,,,,,,,,,,,1,,,,,,,,,,,,,,,,,,,,,,,,,,,,,,,,,,,,,,,,,,,,,,60,154750,21,Female,1,2024/02/15_14:41:00,JV,None,
,,,,,,calibration,0,3,2,250,3,S,0,right,0.4577458480016503,1,0,,,,,,,,,,,,,,,,,,,,,1,,,,,,,,,,,,,,,,,,,,,,,,,,,,,,,,,,,,,,,,,,,,,,60,154750,21,Female,1,2024/02/15_14:41:00,JV,None,
,,,,,,calibration,0,3,2,250,4,F,1,left,0.5488808490008523,1,0,,,,,,,,,,,,,,,,,,,,,1,,,,,,,,,,,,,,,,,,,,,,,,,,,,,,,,,,,,,,,,,,,,,,60,154750,21,Female,1,2024/02/15_14:41:00,JV,None,
,,,,,,calibration,0,3,2,250,5,C,0,right,0.21404963099848828,1,0,,,,,,,,,,,,,,,,,,,,,1,,,,,,,,,,,,,,,,,,,,,,,,,,,,,,,,,,,,,,,,,,,,,,60,154750,21,Female,1,2024/02/15_14:41:00,JV,None,
,,,,,,calibration,0,3,2,250,6,S,0,left,0.603826137001306,0,0,,,,,,,,,,,,,,,,,,,,,1,,,,,,,,,,,,,,,,,,,,,,,,,,,,,,,,,,,,,,,,,,,,,,60,154750,21,Female,1,2024/02/15_14:41:00,JV,None,
,,,,,,calibration,0,3,2,250,7,C,1,right,0.1513207939970016,0,0,,,,,,,,,,,,,,,,,,,,,1,,,,,,,,,,,,,,,,,,,,,,,,,,,,,,,,,,,,,,,,,,,,,,60,154750,21,Female,1,2024/02/15_14:41:00,JV,None,
,,,,,,calibration,0,3,2,250,8,N,0,right,0.7922127050005656,1,0,,,,,,,,,,,,,,,,,,,,,1,,,,,,,,,,,,,,,,,,,,,,,,,,,,,,,,,,,,,,,,,,,,,,60,154750,21,Female,1,2024/02/15_14:41:00,JV,None,
,,,,,,calibration,0,3,2,250,9,C,1,left,0.7085572100004356,1,0,,,,,,,,,,,,,,,,,,,,,1,,,,,,,,,,,,,,,,,,,,,,,,,,,,,,,,,,,,,,,,,,,,,,60,154750,21,Female,1,2024/02/15_14:41:00,JV,None,
,,,,,,calibration,0,3,2,250,10,X,0,right,0.2276749349985039,1,0,,,,,,,,,,,,,,,,,,,,,1,,,,,,,,,,,,,,,,,,,,,,,,,,,,,,,,,,,,,,,,,,,,,,60,154750,21,Female,1,2024/02/15_14:41:00,JV,None,
,,,,,,calibration,0,3,2,250,11,S,0,right,0.4047565010005201,1,0,,,,,,,,,,,,,,,,,,,,,1,,,,,,,,,,,,,,,,,,,,,,,,,,,,,,,,,,,,,,,,,,,,,,60,154750,21,Female,1,2024/02/15_14:41:00,JV,None,
,,,,,,calibration,0,3,2,250,12,Q,0,right,0.9410924590010836,1,0,,,,,,,,,,,,,,,,,,,,,1,,,,,,,,,,,,,,,,,,,,,,,,,,,,,,,,,,,,,,,,,,,,,,60,154750,21,Female,1,2024/02/15_14:41:00,JV,None,
,,,,,,calibration,0,3,2,250,13,J,0,right,0.8235561089968542,1,0,,,,,,,,,,,,,,,,,,,,,1,,,,,,,,,,,,,,,,,,,,,,,,,,,,,,,,,,,,,,,,,,,,,,60,154750,21,Female,1,2024/02/15_14:41:00,JV,None,
,,,,,,calibration,0,3,2,250,14,N,0,right,0.4824362130020745,1,0,,,,,,,,,,,,,,,,,,,,,1,,,,,,,,,,,,,,,,,,,,,,,,,,,,,,,,,,,,,,,,,,,,,,60,154750,21,Female,1,2024/02/15_14:41:00,JV,None,
,,,,,,calibration,0,3,2,250,15,C,0,right,0.9435092010025983,1,0,,,,,,,,,,,,,,,,,,,,,1,,,,,,,,,,,,,,,,,,,,,,,,,,,,,,,,,,,,,,,,,,,,,,60,154750,21,Female,1,2024/02/15_14:41:00,JV,None,
,,,,,,calibration,0,3,2,250,16,N,1,left,0.9539182519984024,1,0,,,,,,,,,,,,,,,,,,,,,1,,,,,,,,,,,,,,,,,,,,,,,,,,,,,,,,,,,,,,,,,,,,,,60,154750,21,Female,1,2024/02/15_14:41:00,JV,None,
,,,,,,calibration,0,3,2,250,17,C,1,right,0.0,0,0,,,,,,,,,,,,,,,,,,,,,1,,,,,,,,,,,,,,,,,,,,,,,,,,,,,,,,,,,,,,,,,,,,,,60,154750,21,Female,1,2024/02/15_14:41:00,JV,None,
,,,,,,calibration,0,3,2,250,18,X,0,left,0.18708727099874523,0,0,,,,,,,,,,,,,,,,,,,,,1,,,,,,,,,,,,,,,,,,,,,,,,,,,,,,,,,,,,,,,,,,,,,,60,154750,21,Female,1,2024/02/15_14:41:00,JV,None,
,,,,,,calibration,0,3,2,250,19,J,0,left,nan,0,1,,,,,,,,,,,,,,,,,,,,,1,,,,,,,,,,,,,,,,,,,,,,,,,,,,,,,,,,,,,,,,,,,,,,60,154750,21,Female,1,2024/02/15_14:41:00,JV,None,
,,,,,,calibration,0,3,2,250,20,S,0,right,0.7974637810002605,1,0,,,,,,,,,,,,,,,,,,,,,1,,,,,,,,,,,,,,,,,,,,,,,,,,,,,,,,,,,,,,,,,,,,,,60,154750,21,Female,1,2024/02/15_14:41:00,JV,None,
,,,,,,calibration,0,3,2,250,,,,,,,,0.8133333333333334,0.6,0.13333333333333333,0.8571428571428571,0.05,0.8166666666666667,0.5272282857894377,3,2,0,1,1,12,15,5,15,0,,,,1,,,,,,,,,,,,,,,,,,,,,,,,,,,,,,,,,,,,,,,,,,,,,,60,154750,21,Female,1,2024/02/15_14:41:00,JV,None,
,,,,,,Calibration,0,,2,250,,,,,,,,,,,,,,,,,,,,,,,,,12,,,1,,,,,,,,,,,,,,,,,,,,,,,,,,,,,,,,,,,,,,,,,,,,,,60,154750,21,Female,1,2024/02/15_14:41:00,JV,None,
,,,,,,calibration,0,13,2,250,1,V,0,right,0.43809966499975417,1,0,,,,,,,,,,,,,,,,,,,,,1,,,,,,,,,,,,,,,,,,,,,,,,,,,,,,,,,,,,,,,,,,,,,,60,154750,21,Female,1,2024/02/15_14:41:00,JV,None,
,,,,,,calibration,0,13,2,250,2,Q,0,right,0.4339993100002175,1,0,,,,,,,,,,,,,,,,,,,,,1,,,,,,,,,,,,,,,,,,,,,,,,,,,,,,,,,,,,,,,,,,,,,,60,154750,21,Female,1,2024/02/15_14:41:00,JV,None,
,,,,,,calibration,0,13,2,250,3,F,0,right,0.8911028500006068,1,0,,,,,,,,,,,,,,,,,,,,,1,,,,,,,,,,,,,,,,,,,,,,,,,,,,,,,,,,,,,,,,,,,,,,60,154750,21,Female,1,2024/02/15_14:41:00,JV,None,
,,,,,,calibration,0,13,2,250,4,Q,1,left,0.5734749879993615,1,0,,,,,,,,,,,,,,,,,,,,,1,,,,,,,,,,,,,,,,,,,,,,,,,,,,,,,,,,,,,,,,,,,,,,60,154750,21,Female,1,2024/02/15_14:41:00,JV,None,
,,,,,,calibration,0,13,2,250,5,S,0,right,0.33389411000098335,1,0,,,,,,,,,,,,,,,,,,,,,1,,,,,,,,,,,,,,,,,,,,,,,,,,,,,,,,,,,,,,,,,,,,,,60,154750,21,Female,1,2024/02/15_14:41:00,JV,None,
,,,,,,calibration,0,13,2,250,6,Q,1,left,0.7664911579995533,1,0,,,,,,,,,,,,,,,,,,,,,1,,,,,,,,,,,,,,,,,,,,,,,,,,,,,,,,,,,,,,,,,,,,,,60,154750,21,Female,1,2024/02/15_14:41:00,JV,None,
,,,,,,calibration,0,13,2,250,7,N,0,right,0.29820564400142757,1,0,,,,,,,,,,,,,,,,,,,,,1,,,,,,,,,,,,,,,,,,,,,,,,,,,,,,,,,,,,,,,,,,,,,,60,154750,21,Female,1,2024/02/15_14:41:00,JV,None,
,,,,,,calibration,0,13,2,250,8,X,0,right,0.6901108329984709,1,0,,,,,,,,,,,,,,,,,,,,,1,,,,,,,,,,,,,,,,,,,,,,,,,,,,,,,,,,,,,,,,,,,,,,60,154750,21,Female,1,2024/02/15_14:41:00,JV,None,
,,,,,,calibration,0,13,2,250,9,N,1,left,0.9469388910001726,1,0,,,,,,,,,,,,,,,,,,,,,1,,,,,,,,,,,,,,,,,,,,,,,,,,,,,,,,,,,,,,,,,,,,,,60,154750,21,Female,1,2024/02/15_14:41:00,JV,None,
,,,,,,calibration,0,13,2,250,10,V,0,right,0.0668034810005338,1,0,,,,,,,,,,,,,,,,,,,,,1,,,,,,,,,,,,,,,,,,,,,,,,,,,,,,,,,,,,,,,,,,,,,,60,154750,21,Female,1,2024/02/15_14:41:00,JV,None,
,,,,,,calibration,0,13,2,250,11,X,0,right,0.6476920269997208,1,0,,,,,,,,,,,,,,,,,,,,,1,,,,,,,,,,,,,,,,,,,,,,,,,,,,,,,,,,,,,,,,,,,,,,60,154750,21,Female,1,2024/02/15_14:41:00,JV,None,
,,,,,,calibration,0,13,2,250,12,Q,0,right,0.4480273080007464,1,0,,,,,,,,,,,,,,,,,,,,,1,,,,,,,,,,,,,,,,,,,,,,,,,,,,,,,,,,,,,,,,,,,,,,60,154750,21,Female,1,2024/02/15_14:41:00,JV,None,
,,,,,,calibration,0,13,2,250,13,F,0,left,0.9540287799973157,0,0,,,,,,,,,,,,,,,,,,,,,1,,,,,,,,,,,,,,,,,,,,,,,,,,,,,,,,,,,,,,,,,,,,,,60,154750,21,Female,1,2024/02/15_14:41:00,JV,None,
,,,,,,calibration,0,13,2,250,14,J,0,right,0.4218969270004891,1,0,,,,,,,,,,,,,,,,,,,,,1,,,,,,,,,,,,,,,,,,,,,,,,,,,,,,,,,,,,,,,,,,,,,,60,154750,21,Female,1,2024/02/15_14:41:00,JV,None,
,,,,,,calibration,0,13,2,250,15,S,0,right,0.965741613003047,1,0,,,,,,,,,,,,,,,,,,,,,1,,,,,,,,,,,,,,,,,,,,,,,,,,,,,,,,,,,,,,,,,,,,,,60,154750,21,Female,1,2024/02/15_14:41:00,JV,None,
,,,,,,calibration,0,13,2,250,16,X,0,right,0.9307058949998464,1,0,,,,,,,,,,,,,,,,,,,,,1,,,,,,,,,,,,,,,,,,,,,,,,,,,,,,,,,,,,,,,,,,,,,,60,154750,21,Female,1,2024/02/15_14:41:00,JV,None,
,,,,,,calibration,0,13,2,250,17,Q,0,right,0.7829287880012998,1,0,,,,,,,,,,,,,,,,,,,,,1,,,,,,,,,,,,,,,,,,,,,,,,,,,,,,,,,,,,,,,,,,,,,,60,154750,21,Female,1,2024/02/15_14:41:00,JV,None,
,,,,,,calibration,0,13,2,250,18,X,1,right,0.8034999550000066,0,0,,,,,,,,,,,,,,,,,,,,,1,,,,,,,,,,,,,,,,,,,,,,,,,,,,,,,,,,,,,,,,,,,,,,60,154750,21,Female,1,2024/02/15_14:41:00,JV,None,
,,,,,,calibration,0,13,2,250,19,Q,1,left,0.9943320700003824,1,0,,,,,,,,,,,,,,,,,,,,,1,,,,,,,,,,,,,,,,,,,,,,,,,,,,,,,,,,,,,,,,,,,,,,60,154750,21,Female,1,2024/02/15_14:41:00,JV,None,
,,,,,,calibration,0,13,2,250,20,J,0,right,0.523972800001502,1,0,,,,,,,,,,,,,,,,,,,,,1,,,,,,,,,,,,,,,,,,,,,,,,,,,,,,,,,,,,,,,,,,,,,,60,154750,21,Female,1,2024/02/15_14:41:00,JV,None,
,,,,,,calibration,0,13,2,250,,,,,,,,0.92,0.8,0.06666666666666667,0.9333333333333333,0.0,0.9333333333333333,0.6455973546502719,4,1,0,0,0,14,18,5,15,0,,,,1,,,,,,,,,,,,,,,,,,,,,,,,,,,,,,,,,,,,,,,,,,,,,,60,154750,21,Female,1,2024/02/15_14:41:00,JV,None,
,,,,,,Calibration,0,,2,250,,,,,,,,,,,,,,,,,,,,,,,,,13,,,1,,,,,,,,,,,,,,,,,,,,,,,,,,,,,,,,,,,,,,,,,,,,,,60,154750,21,Female,1,2024/02/15_14:41:00,JV,None,
,,,,,,calibration,0,22,2,202,1,V,0,None,nan,0,1,,,,,,,,,,,,,,,,,,,,,1,,,,,,,,,,,,,,,,,,,,,,,,,,,,,,,,,,,,,,,,,,,,,,60,154750,21,Female,1,2024/02/15_14:41:00,JV,None,
,,,,,,calibration,0,22,2,202,2,J,0,right,0.29008487000101013,1,0,,,,,,,,,,,,,,,,,,,,,1,,,,,,,,,,,,,,,,,,,,,,,,,,,,,,,,,,,,,,,,,,,,,,60,154750,21,Female,1,2024/02/15_14:41:00,JV,None,
,,,,,,calibration,0,22,2,202,3,V,1,right,0.9484824979990663,0,0,,,,,,,,,,,,,,,,,,,,,1,,,,,,,,,,,,,,,,,,,,,,,,,,,,,,,,,,,,,,,,,,,,,,60,154750,21,Female,1,2024/02/15_14:41:00,JV,None,
,,,,,,calibration,0,22,2,202,4,N,0,right,0.42182616100035375,1,0,,,,,,,,,,,,,,,,,,,,,1,,,,,,,,,,,,,,,,,,,,,,,,,,,,,,,,,,,,,,,,,,,,,,60,154750,21,Female,1,2024/02/15_14:41:00,JV,None,
,,,,,,calibration,0,22,2,202,5,J,0,left,0.6761311410009512,0,0,,,,,,,,,,,,,,,,,,,,,1,,,,,,,,,,,,,,,,,,,,,,,,,,,,,,,,,,,,,,,,,,,,,,60,154750,21,Female,1,2024/02/15_14:41:00,JV,None,
,,,,,,calibration,0,22,2,202,6,N,1,right,0.0,0,0,,,,,,,,,,,,,,,,,,,,,1,,,,,,,,,,,,,,,,,,,,,,,,,,,,,,,,,,,,,,,,,,,,,,60,154750,21,Female,1,2024/02/15_14:41:00,JV,None,
,,,,,,calibration,0,22,2,202,7,C,0,left,0.10166569499779143,0,0,,,,,,,,,,,,,,,,,,,,,1,,,,,,,,,,,,,,,,,,,,,,,,,,,,,,,,,,,,,,,,,,,,,,60,154750,21,Female,1,2024/02/15_14:41:00,JV,None,
,,,,,,calibration,0,22,2,202,8,N,1,left,0.6936171750021458,1,0,,,,,,,,,,,,,,,,,,,,,1,,,,,,,,,,,,,,,,,,,,,,,,,,,,,,,,,,,,,,,,,,,,,,60,154750,21,Female,1,2024/02/15_14:41:00,JV,None,
,,,,,,calibration,0,22,2,202,9,V,0,right,0.722938779003016,1,0,,,,,,,,,,,,,,,,,,,,,1,,,,,,,,,,,,,,,,,,,,,,,,,,,,,,,,,,,,,,,,,,,,,,60,154750,21,Female,1,2024/02/15_14:41:00,JV,None,
,,,,,,calibration,0,22,2,202,10,N,1,left,0.6556607729980897,1,0,,,,,,,,,,,,,,,,,,,,,1,,,,,,,,,,,,,,,,,,,,,,,,,,,,,,,,,,,,,,,,,,,,,,60,154750,21,Female,1,2024/02/15_14:41:00,JV,None,
,,,,,,calibration,0,22,2,202,11,C,0,right,0.7794274009975197,1,0,,,,,,,,,,,,,,,,,,,,,1,,,,,,,,,,,,,,,,,,,,,,,,,,,,,,,,,,,,,,,,,,,,,,60,154750,21,Female,1,2024/02/15_14:41:00,JV,None,
,,,,,,calibration,0,22,2,202,12,V,0,right,0.5423605100004352,1,0,,,,,,,,,,,,,,,,,,,,,1,,,,,,,,,,,,,,,,,,,,,,,,,,,,,,,,,,,,,,,,,,,,,,60,154750,21,Female,1,2024/02/15_14:41:00,JV,None,
,,,,,,calibration,0,22,2,202,13,X,0,right,nan,0,1,,,,,,,,,,,,,,,,,,,,,1,,,,,,,,,,,,,,,,,,,,,,,,,,,,,,,,,,,,,,,,,,,,,,60,154750,21,Female,1,2024/02/15_14:41:00,JV,None,
,,,,,,calibration,0,22,2,202,14,J,0,right,0.8641411079988757,1,0,,,,,,,,,,,,,,,,,,,,,1,,,,,,,,,,,,,,,,,,,,,,,,,,,,,,,,,,,,,,,,,,,,,,60,154750,21,Female,1,2024/02/15_14:41:00,JV,None,
,,,,,,calibration,0,22,2,202,15,X,1,right,0.9075999240012607,0,0,,,,,,,,,,,,,,,,,,,,,1,,,,,,,,,,,,,,,,,,,,,,,,,,,,,,,,,,,,,,,,,,,,,,60,154750,21,Female,1,2024/02/15_14:41:00,JV,None,
,,,,,,calibration,0,22,2,202,16,N,0,right,0.6633145900013915,1,0,,,,,,,,,,,,,,,,,,,,,1,,,,,,,,,,,,,,,,,,,,,,,,,,,,,,,,,,,,,,,,,,,,,,60,154750,21,Female,1,2024/02/15_14:41:00,JV,None,
,,,,,,calibration,0,22,2,202,17,J,0,left,0.864660780000122,0,0,,,,,,,,,,,,,,,,,,,,,1,,,,,,,,,,,,,,,,,,,,,,,,,,,,,,,,,,,,,,,,,,,,,,60,154750,21,Female,1,2024/02/15_14:41:00,JV,None,
,,,,,,calibration,0,22,2,202,18,X,0,left,nan,0,1,,,,,,,,,,,,,,,,,,,,,1,,,,,,,,,,,,,,,,,,,,,,,,,,,,,,,,,,,,,,,,,,,,,,60,154750,21,Female,1,2024/02/15_14:41:00,JV,None,
,,,,,,calibration,0,22,2,202,19,S,0,right,0.6161865780013613,1,0,,,,,,,,,,,,,,,,,,,,,1,,,,,,,,,,,,,,,,,,,,,,,,,,,,,,,,,,,,,,,,,,,,,,60,154750,21,Female,1,2024/02/15_14:41:00,JV,None,
,,,,,,calibration,0,22,2,202,20,C,0,right,0.9361740530002862,1,0,,,,,,,,,,,,,,,,,,,,,1,,,,,,,,,,,,,,,,,,,,,,,,,,,,,,,,,,,,,,,,,,,,,,60,154750,21,Female,1,2024/02/15_14:41:00,JV,None,
,,,,,,calibration,0,22,2,202,21,S,1,right,0.46706250100032776,0,0,,,,,,,,,,,,,,,,,,,,,1,,,,,,,,,,,,,,,,,,,,,,,,,,,,,,,,,,,,,,,,,,,,,,60,154750,21,Female,1,2024/02/15_14:41:00,JV,None,
,,,,,,calibration,0,22,2,202,,,,,,,,0.6333333333333333,0.3333333333333333,0.2,0.75,0.14285714285714285,0.6571428571428573,0.6195185853891113,2,3,0,3,3,9,11,6,15,0,,,,1,,,,,,,,,,,,,,,,,,,,,,,,,,,,,,,,,,,,,,,,,,,,,,60,154750,21,Female,1,2024/02/15_14:41:00,JV,None,
,,,,,,Calibration,0,,2,202,,,,,,,,,,,,,,,,,,,,,,,,,14,,,1,,,,,,,,,,,,,,,,,,,,,,,,,,,,,,,,,,,,,,,,,,,,,,60,154750,21,Female,1,2024/02/15_14:41:00,JV,None,
,,,,,,calibration,0,11,2,250,1,C,0,right,0.4510355399979744,1,0,,,,,,,,,,,,,,,,,,,,,1,,,,,,,,,,,,,,,,,,,,,,,,,,,,,,,,,,,,,,,,,,,,,,60,154750,21,Female,1,2024/02/15_14:41:00,JV,None,
,,,,,,calibration,0,11,2,250,2,S,0,right,0.7769026339992706,1,0,,,,,,,,,,,,,,,,,,,,,1,,,,,,,,,,,,,,,,,,,,,,,,,,,,,,,,,,,,,,,,,,,,,,60,154750,21,Female,1,2024/02/15_14:41:00,JV,None,
,,,,,,calibration,0,11,2,250,3,F,0,right,nan,0,1,,,,,,,,,,,,,,,,,,,,,1,,,,,,,,,,,,,,,,,,,,,,,,,,,,,,,,,,,,,,,,,,,,,,60,154750,21,Female,1,2024/02/15_14:41:00,JV,None,
,,,,,,calibration,0,11,2,250,4,Q,0,right,0.5244580630023847,1,0,,,,,,,,,,,,,,,,,,,,,1,,,,,,,,,,,,,,,,,,,,,,,,,,,,,,,,,,,,,,,,,,,,,,60,154750,21,Female,1,2024/02/15_14:41:00,JV,None,
,,,,,,calibration,0,11,2,250,5,F,1,left,0.6090823969971098,1,0,,,,,,,,,,,,,,,,,,,,,1,,,,,,,,,,,,,,,,,,,,,,,,,,,,,,,,,,,,,,,,,,,,,,60,154750,21,Female,1,2024/02/15_14:41:00,JV,None,
,,,,,,calibration,0,11,2,250,6,V,0,right,0.459701554998901,1,0,,,,,,,,,,,,,,,,,,,,,1,,,,,,,,,,,,,,,,,,,,,,,,,,,,,,,,,,,,,,,,,,,,,,60,154750,21,Female,1,2024/02/15_14:41:00,JV,None,
,,,,,,calibration,0,11,2,250,7,C,0,right,0.8668305310020514,1,0,,,,,,,,,,,,,,,,,,,,,1,,,,,,,,,,,,,,,,,,,,,,,,,,,,,,,,,,,,,,,,,,,,,,60,154750,21,Female,1,2024/02/15_14:41:00,JV,None,
,,,,,,calibration,0,11,2,250,8,F,0,left,0.7283518039985211,0,0,,,,,,,,,,,,,,,,,,,,,1,,,,,,,,,,,,,,,,,,,,,,,,,,,,,,,,,,,,,,,,,,,,,,60,154750,21,Female,1,2024/02/15_14:41:00,JV,None,
,,,,,,calibration,0,11,2,250,9,S,0,right,0.4212718290000339,1,0,,,,,,,,,,,,,,,,,,,,,1,,,,,,,,,,,,,,,,,,,,,,,,,,,,,,,,,,,,,,,,,,,,,,60,154750,21,Female,1,2024/02/15_14:41:00,JV,None,
,,,,,,calibration,0,11,2,250,10,C,0,left,0.2001590089967067,0,0,,,,,,,,,,,,,,,,,,,,,1,,,,,,,,,,,,,,,,,,,,,,,,,,,,,,,,,,,,,,,,,,,,,,60,154750,21,Female,1,2024/02/15_14:41:00,JV,None,
,,,,,,calibration,0,11,2,250,11,X,0,left,0.1711110779979208,0,0,,,,,,,,,,,,,,,,,,,,,1,,,,,,,,,,,,,,,,,,,,,,,,,,,,,,,,,,,,,,,,,,,,,,60,154750,21,Female,1,2024/02/15_14:41:00,JV,None,
,,,,,,calibration,0,11,2,250,12,C,1,left,nan,0,1,,,,,,,,,,,,,,,,,,,,,1,,,,,,,,,,,,,,,,,,,,,,,,,,,,,,,,,,,,,,,,,,,,,,60,154750,21,Female,1,2024/02/15_14:41:00,JV,None,
,,,,,,calibration,0,11,2,250,13,S,0,left,0.6907085820021166,0,0,,,,,,,,,,,,,,,,,,,,,1,,,,,,,,,,,,,,,,,,,,,,,,,,,,,,,,,,,,,,,,,,,,,,60,154750,21,Female,1,2024/02/15_14:41:00,JV,None,
,,,,,,calibration,0,11,2,250,14,J,0,right,0.7573600830000942,1,0,,,,,,,,,,,,,,,,,,,,,1,,,,,,,,,,,,,,,,,,,,,,,,,,,,,,,,,,,,,,,,,,,,,,60,154750,21,Female,1,2024/02/15_14:41:00,JV,None,
,,,,,,calibration,0,11,2,250,15,S,1,left,0.721246657998563,1,0,,,,,,,,,,,,,,,,,,,,,1,,,,,,,,,,,,,,,,,,,,,,,,,,,,,,,,,,,,,,,,,,,,,,60,154750,21,Female,1,2024/02/15_14:41:00,JV,None,
,,,,,,calibration,0,11,2,250,16,N,0,right,0.40971700999944005,1,0,,,,,,,,,,,,,,,,,,,,,1,,,,,,,,,,,,,,,,,,,,,,,,,,,,,,,,,,,,,,,,,,,,,,60,154750,21,Female,1,2024/02/15_14:41:00,JV,None,
,,,,,,calibration,0,11,2,250,17,F,0,right,0.9886297970006126,1,0,,,,,,,,,,,,,,,,,,,,,1,,,,,,,,,,,,,,,,,,,,,,,,,,,,,,,,,,,,,,,,,,,,,,60,154750,21,Female,1,2024/02/15_14:41:00,JV,None,
,,,,,,calibration,0,11,2,250,18,V,0,right,0.5903013309980452,1,0,,,,,,,,,,,,,,,,,,,,,1,,,,,,,,,,,,,,,,,,,,,,,,,,,,,,,,,,,,,,,,,,,,,,60,154750,21,Female,1,2024/02/15_14:41:00,JV,None,
,,,,,,calibration,0,11,2,250,19,F,1,left,0.6418188009993173,1,0,,,,,,,,,,,,,,,,,,,,,1,,,,,,,,,,,,,,,,,,,,,,,,,,,,,,,,,,,,,,,,,,,,,,60,154750,21,Female,1,2024/02/15_14:41:00,JV,None,
,,,,,,calibration,0,11,2,250,20,V,1,left,0.6979051929993147,1,0,,,,,,,,,,,,,,,,,,,,,1,,,,,,,,,,,,,,,,,,,,,,,,,,,,,,,,,,,,,,,,,,,,,,60,154750,21,Female,1,2024/02/15_14:41:00,JV,None,
,,,,,,calibration,0,11,2,250,,,,,,,,0.83,0.8,0.26666666666666666,0.7142857142857143,0.1,0.6333333333333334,0.5948106608326876,4,4,1,1,2,10,14,5,15,0,,,,1,,,,,,,,,,,,,,,,,,,,,,,,,,,,,,,,,,,,,,,,,,,,,,60,154750,21,Female,1,2024/02/15_14:41:00,JV,None,
,,,,,,Calibration,0,,2,250,,,,,,,,,,,,,,,,,,,,,,,,,15,,,1,,,,,,,,,,,,,,,,,,,,,,,,,,,,,,,,,,,,,,,,,,,,,,60,154750,21,Female,1,2024/02/15_14:41:00,JV,None,
,,,,,,CALIBRATION,0,,,,,,,,,,,,,,,,,,,,,,,,,,,,15,0.83,250,1,,,,,,,,,,,,,,,,,,,,,,,,,,,,,,,,,,,,,,,,,,,,,,60,154750,21,Female,1,2024/02/15_14:41:00,JV,None,
1,./instructions/inst_prac_1/Slide24.png,right,11.339217201002612,647.0621475689986,658.4013647700012,,,,,,,,,,,,,,,,,,,,,,,,,,,,,,,,,1,,,,,,,,,,,,,,,,,,,,,,,,,,,,,,,,,,,,,,,,,,,,,,60,154750,21,Female,1,2024/02/15_14:41:00,JV,None,
2,./instructions/inst_prac_1/Slide25.png,right,2.0750689240012434,658.4302260289987,660.505294953,,,,,,,,,,,,,,,,,,,,,,,,,,,,,,,,,1,,,,,,,,,,,,,,,,,,,,,,,,,,,,,,,,,,,,,,,,,,,,,,60,154750,21,Female,1,2024/02/15_14:41:00,JV,None,
3,./instructions/inst_prac_1/Slide26.png,right,1.5873113820016442,660.5338969299992,662.1212083120008,,,,,,,,,,,,,,,,,,,,,,,,,,,,,,,,,1,,,,,,,,,,,,,,,,,,,,,,,,,,,,,,,,,,,,,,,,,,,,,,60,154750,21,Female,1,2024/02/15_14:41:00,JV,None,
4,./instructions/inst_prac_1/Slide27.png,right,1.0033162619984068,662.1499962369999,663.1533124989983,,,,,,,,,,,,,,,,,,,,,,,,,,,,,,,,,1,,,,,,,,,,,,,,,,,,,,,,,,,,,,,,,,,,,,,,,,,,,,,,60,154750,21,Female,1,2024/02/15_14:41:00,JV,None,
5,./instructions/inst_prac_1/Slide28.png,right,0.6671255660003226,663.182162006,663.8492875720003,,,,,,,,,,,,,,,,,,,,,,,,,,,,,,,,,1,,,,,,,,,,,,,,,,,,,,,,,,,,,,,,,,,,,,,,,,,,,,,,60,154750,21,Female,1,2024/02/15_14:41:00,JV,None,
6,./instructions/inst_prac_1/Slide29.png,right,1.477006741999503,663.8762578610003,665.3532646029998,,,,,,,,,,,,,,,,,,,,,,,,,,,,,,,,,1,,,,,,,,,,,,,,,,,,,,,,,,,,,,,,,,,,,,,,,,,,,,,,60,154750,21,Female,1,2024/02/15_14:41:00,JV,None,
7,./instructions/inst_prac_1/Slide30.png,right,15.126473849999456,665.3788000589993,680.5052739089988,,,,,,,,,,,,,,,,,,,,,,,,,,,,,,,,,1,,,,,,,,,,,,,,,,,,,,,,,,,,,,,,,,,,,,,,,,,,,,,,60,154750,21,Female,1,2024/02/15_14:41:00,JV,None,
,,,,,,practice,0,17,1,1250,1,X,0,right,1.5432690039997397,1,0,,,,,,,,,,,,,,,,,,,,,1,,,,,,,,,,,,,,,,,,,,,,,,,,,,,,,,,,,,,,,,,,,,,,60,154750,21,Female,1,2024/02/15_14:41:00,JV,None,
,,,,,,practice,0,17,1,1250,2,V,0,right,0.8439287039982446,1,0,,,,,,,,,,,,,,,,,,,,,1,,,,,,,,,,,,,,,,,,,,,,,,,,,,,,,,,,,,,,,,,,,,,,60,154750,21,Female,1,2024/02/15_14:41:00,JV,None,
,,,,,,practice,0,17,1,1250,3,F,0,right,0.6582049339995137,1,0,,,,,,,,,,,,,,,,,,,,,1,,,,,,,,,,,,,,,,,,,,,,,,,,,,,,,,,,,,,,,,,,,,,,60,154750,21,Female,1,2024/02/15_14:41:00,JV,None,
,,,,,,practice,0,17,1,1250,4,S,0,right,0.5810649809973256,1,0,,,,,,,,,,,,,,,,,,,,,1,,,,,,,,,,,,,,,,,,,,,,,,,,,,,,,,,,,,,,,,,,,,,,60,154750,21,Female,1,2024/02/15_14:41:00,JV,None,
,,,,,,practice,0,17,1,1250,5,N,0,right,0.9321736349993444,1,0,,,,,,,,,,,,,,,,,,,,,1,,,,,,,,,,,,,,,,,,,,,,,,,,,,,,,,,,,,,,,,,,,,,,60,154750,21,Female,1,2024/02/15_14:41:00,JV,None,
,,,,,,practice,0,17,1,1250,6,N,1,left,0.6975918130010541,1,0,,,,,,,,,,,,,,,,,,,,,1,,,,,,,,,,,,,,,,,,,,,,,,,,,,,,,,,,,,,,,,,,,,,,60,154750,21,Female,1,2024/02/15_14:41:00,JV,None,
,,,,,,practice,0,17,1,1250,7,X,0,right,0.9668217020007432,1,0,,,,,,,,,,,,,,,,,,,,,1,,,,,,,,,,,,,,,,,,,,,,,,,,,,,,,,,,,,,,,,,,,,,,60,154750,21,Female,1,2024/02/15_14:41:00,JV,None,
,,,,,,practice,0,17,1,1250,8,X,1,left,0.7785406779985351,1,0,,,,,,,,,,,,,,,,,,,,,1,,,,,,,,,,,,,,,,,,,,,,,,,,,,,,,,,,,,,,,,,,,,,,60,154750,21,Female,1,2024/02/15_14:41:00,JV,None,
,,,,,,practice,0,17,1,1250,9,F,0,right,0.9248105309998209,1,0,,,,,,,,,,,,,,,,,,,,,1,,,,,,,,,,,,,,,,,,,,,,,,,,,,,,,,,,,,,,,,,,,,,,60,154750,21,Female,1,2024/02/15_14:41:00,JV,None,
,,,,,,practice,0,17,1,1250,10,F,1,right,0.5156742530016345,0,0,,,,,,,,,,,,,,,,,,,,,1,,,,,,,,,,,,,,,,,,,,,,,,,,,,,,,,,,,,,,,,,,,,,,60,154750,21,Female,1,2024/02/15_14:41:00,JV,None,
,,,,,,practice,0,17,1,1250,,,,,,,,0.9166666666666666,0.6666666666666666,0.0,1.0,0.0,1.0,0.8442080234995956,2,0,0,0,0,7,9,3,7,0,,,,1,,,,,,,,,,,,,,,,,,,,,,,,,,,,,,,,,,,,,,,,,,,,,,60,154750,21,Female,1,2024/02/15_14:41:00,JV,None,
1,./instructions/inst_prac_1_next/Slide35.png,right,2.2077583749996847,699.9616144610009,702.1693728360005,,,,,,,,,,,,,,,,,,,,,,,,,,,,,,,,,1,,,,,,,,,,,,,,,,,,,,,,,,,,,,,,,,,,,,,,,,,,,,,,60,154750,21,Female,1,2024/02/15_14:41:00,JV,None,
,,,,,,practice,0,33,1,250,1,V,0,right,1.0712126170001284,1,0,,,,,,,,,,,,,,,,,,,,,1,,,,,,,,,,,,,,,,,,,,,,,,,,,,,,,,,,,,,,,,,,,,,,60,154750,21,Female,1,2024/02/15_14:41:00,JV,None,
,,,,,,practice,0,33,1,250,2,V,1,left,0.9649611210006697,1,0,,,,,,,,,,,,,,,,,,,,,1,,,,,,,,,,,,,,,,,,,,,,,,,,,,,,,,,,,,,,,,,,,,,,60,154750,21,Female,1,2024/02/15_14:41:00,JV,None,
,,,,,,practice,0,33,1,250,3,S,0,right,1.0821915000014997,1,0,,,,,,,,,,,,,,,,,,,,,1,,,,,,,,,,,,,,,,,,,,,,,,,,,,,,,,,,,,,,,,,,,,,,60,154750,21,Female,1,2024/02/15_14:41:00,JV,None,
,,,,,,practice,0,33,1,250,4,C,0,right,0.9198596439964604,1,0,,,,,,,,,,,,,,,,,,,,,1,,,,,,,,,,,,,,,,,,,,,,,,,,,,,,,,,,,,,,,,,,,,,,60,154750,21,Female,1,2024/02/15_14:41:00,JV,None,
,,,,,,practice,0,33,1,250,5,F,0,right,0.8418754319973232,1,0,,,,,,,,,,,,,,,,,,,,,1,,,,,,,,,,,,,,,,,,,,,,,,,,,,,,,,,,,,,,,,,,,,,,60,154750,21,Female,1,2024/02/15_14:41:00,JV,None,
,,,,,,practice,0,33,1,250,6,F,1,left,0.4928110890032258,1,0,,,,,,,,,,,,,,,,,,,,,1,,,,,,,,,,,,,,,,,,,,,,,,,,,,,,,,,,,,,,,,,,,,,,60,154750,21,Female,1,2024/02/15_14:41:00,JV,None,
,,,,,,practice,0,33,1,250,7,S,0,right,0.850352921999729,1,0,,,,,,,,,,,,,,,,,,,,,1,,,,,,,,,,,,,,,,,,,,,,,,,,,,,,,,,,,,,,,,,,,,,,60,154750,21,Female,1,2024/02/15_14:41:00,JV,None,
,,,,,,practice,0,33,1,250,8,N,0,right,0.5267765610005881,1,0,,,,,,,,,,,,,,,,,,,,,1,,,,,,,,,,,,,,,,,,,,,,,,,,,,,,,,,,,,,,,,,,,,,,60,154750,21,Female,1,2024/02/15_14:41:00,JV,None,
,,,,,,practice,0,33,1,250,9,N,1,left,0.705028421998577,1,0,,,,,,,,,,,,,,,,,,,,,1,,,,,,,,,,,,,,,,,,,,,,,,,,,,,,,,,,,,,,,,,,,,,,60,154750,21,Female,1,2024/02/15_14:41:00,JV,None,
,,,,,,practice,0,33,1,250,10,V,0,right,0.4714813630016579,1,0,,,,,,,,,,,,,,,,,,,,,1,,,,,,,,,,,,,,,,,,,,,,,,,,,,,,,,,,,,,,,,,,,,,,60,154750,21,Female,1,2024/02/15_14:41:00,JV,None,
,,,,,,practice,0,33,1,250,11,V,1,left,0.7127597950020572,1,0,,,,,,,,,,,,,,,,,,,,,1,,,,,,,,,,,,,,,,,,,,,,,,,,,,,,,,,,,,,,,,,,,,,,60,154750,21,Female,1,2024/02/15_14:41:00,JV,None,
,,,,,,practice,0,33,1,250,12,Q,0,right,0.7144184420030797,1,0,,,,,,,,,,,,,,,,,,,,,1,,,,,,,,,,,,,,,,,,,,,,,,,,,,,,,,,,,,,,,,,,,,,,60,154750,21,Female,1,2024/02/15_14:41:00,JV,None,
,,,,,,practice,0,33,1,250,13,X,0,right,0.6992962910007918,1,0,,,,,,,,,,,,,,,,,,,,,1,,,,,,,,,,,,,,,,,,,,,,,,,,,,,,,,,,,,,,,,,,,,,,60,154750,21,Female,1,2024/02/15_14:41:00,JV,None,
,,,,,,practice,0,33,1,250,14,X,1,left,0.8005266420004773,1,0,,,,,,,,,,,,,,,,,,,,,1,,,,,,,,,,,,,,,,,,,,,,,,,,,,,,,,,,,,,,,,,,,,,,60,154750,21,Female,1,2024/02/15_14:41:00,JV,None,
,,,,,,practice,0,33,1,250,15,N,0,right,0.6260952620032185,1,0,,,,,,,,,,,,,,,,,,,,,1,,,,,,,,,,,,,,,,,,,,,,,,,,,,,,,,,,,,,,,,,,,,,,60,154750,21,Female,1,2024/02/15_14:41:00,JV,None,
,,,,,,practice,0,33,1,250,16,X,0,right,1.0894885399975465,1,0,,,,,,,,,,,,,,,,,,,,,1,,,,,,,,,,,,,,,,,,,,,,,,,,,,,,,,,,,,,,,,,,,,,,60,154750,21,Female,1,2024/02/15_14:41:00,JV,None,
,,,,,,practice,0,33,1,250,17,J,0,right,0.7793633439978294,1,0,,,,,,,,,,,,,,,,,,,,,1,,,,,,,,,,,,,,,,,,,,,,,,,,,,,,,,,,,,,,,,,,,,,,60,154750,21,Female,1,2024/02/15_14:41:00,JV,None,
,,,,,,practice,0,33,1,250,18,J,1,left,0.6003177069978847,1,0,,,,,,,,,,,,,,,,,,,,,1,,,,,,,,,,,,,,,,,,,,,,,,,,,,,,,,,,,,,,,,,,,,,,60,154750,21,Female,1,2024/02/15_14:41:00,JV,None,
,,,,,,practice,0,33,1,250,19,C,0,right,0.5012682859996858,1,0,,,,,,,,,,,,,,,,,,,,,1,,,,,,,,,,,,,,,,,,,,,,,,,,,,,,,,,,,,,,,,,,,,,,60,154750,21,Female,1,2024/02/15_14:41:00,JV,None,
,,,,,,practice,0,33,1,250,20,S,0,right,1.0242989430007583,1,0,,,,,,,,,,,,,,,,,,,,,1,,,,,,,,,,,,,,,,,,,,,,,,,,,,,,,,,,,,,,,,,,,,,,60,154750,21,Female,1,2024/02/15_14:41:00,JV,None,
,,,,,,practice,0,33,1,250,,,,,,,,1.0,1.0,0.0,1.0,0.0,1.0,0.7737191961501594,6,0,0,0,0,14,20,6,14,0,,,,1,,,,,,,,,,,,,,,,,,,,,,,,,,,,,,,,,,,,,,,,,,,,,,60,154750,21,Female,1,2024/02/15_14:41:00,JV,None,
,,,,,,practice,0,16,1,250,1,F,0,right,1.1203028509989963,1,0,,,,,,,,,,,,,,,,,,,,,1,,,,,,,,,,,,,,,,,,,,,,,,,,,,,,,,,,,,,,,,,,,,,,60,154750,21,Female,1,2024/02/15_14:41:00,JV,None,
,,,,,,practice,0,16,1,250,2,F,1,left,0.765146747999097,1,0,,,,,,,,,,,,,,,,,,,,,1,,,,,,,,,,,,,,,,,,,,,,,,,,,,,,,,,,,,,,,,,,,,,,60,154750,21,Female,1,2024/02/15_14:41:00,JV,None,
,,,,,,practice,0,16,1,250,3,Q,0,right,0.492284693998954,1,0,,,,,,,,,,,,,,,,,,,,,1,,,,,,,,,,,,,,,,,,,,,,,,,,,,,,,,,,,,,,,,,,,,,,60,154750,21,Female,1,2024/02/15_14:41:00,JV,None,
,,,,,,practice,0,16,1,250,4,Q,1,left,0.7010905429997365,1,0,,,,,,,,,,,,,,,,,,,,,1,,,,,,,,,,,,,,,,,,,,,,,,,,,,,,,,,,,,,,,,,,,,,,60,154750,21,Female,1,2024/02/15_14:41:00,JV,None,
,,,,,,practice,0,16,1,250,5,N,0,right,0.7835572809999576,1,0,,,,,,,,,,,,,,,,,,,,,1,,,,,,,,,,,,,,,,,,,,,,,,,,,,,,,,,,,,,,,,,,,,,,60,154750,21,Female,1,2024/02/15_14:41:00,JV,None,
,,,,,,practice,0,16,1,250,6,V,0,right,0.9890174870015471,1,0,,,,,,,,,,,,,,,,,,,,,1,,,,,,,,,,,,,,,,,,,,,,,,,,,,,,,,,,,,,,,,,,,,,,60,154750,21,Female,1,2024/02/15_14:41:00,JV,None,
,,,,,,practice,0,16,1,250,7,N,0,right,1.4169383299995388,1,0,,,,,,,,,,,,,,,,,,,,,1,,,,,,,,,,,,,,,,,,,,,,,,,,,,,,,,,,,,,,,,,,,,,,60,154750,21,Female,1,2024/02/15_14:41:00,JV,None,
,,,,,,practice,0,16,1,250,8,C,0,right,0.6736314699992363,1,0,,,,,,,,,,,,,,,,,,,,,1,,,,,,,,,,,,,,,,,,,,,,,,,,,,,,,,,,,,,,,,,,,,,,60,154750,21,Female,1,2024/02/15_14:41:00,JV,None,
,,,,,,practice,0,16,1,250,9,N,0,right,1.5546236890004366,1,0,,,,,,,,,,,,,,,,,,,,,1,,,,,,,,,,,,,,,,,,,,,,,,,,,,,,,,,,,,,,,,,,,,,,60,154750,21,Female,1,2024/02/15_14:41:00,JV,None,
,,,,,,practice,0,16,1,250,10,F,0,right,0.876305270998273,1,0,,,,,,,,,,,,,,,,,,,,,1,,,,,,,,,,,,,,,,,,,,,,,,,,,,,,,,,,,,,,,,,,,,,,60,154750,21,Female,1,2024/02/15_14:41:00,JV,None,
,,,,,,practice,0,16,1,250,11,F,1,left,0.6607602200019755,1,0,,,,,,,,,,,,,,,,,,,,,1,,,,,,,,,,,,,,,,,,,,,,,,,,,,,,,,,,,,,,,,,,,,,,60,154750,21,Female,1,2024/02/15_14:41:00,JV,None,
,,,,,,practice,0,16,1,250,12,S,0,right,0.7725893420029024,1,0,,,,,,,,,,,,,,,,,,,,,1,,,,,,,,,,,,,,,,,,,,,,,,,,,,,,,,,,,,,,,,,,,,,,60,154750,21,Female,1,2024/02/15_14:41:00,JV,None,
,,,,,,practice,0,16,1,250,13,C,0,right,0.6642267090028326,1,0,,,,,,,,,,,,,,,,,,,,,1,,,,,,,,,,,,,,,,,,,,,,,,,,,,,,,,,,,,,,,,,,,,,,60,154750,21,Female,1,2024/02/15_14:41:00,JV,None,
,,,,,,practice,0,16,1,250,14,C,1,left,0.4926927289998275,1,0,,,,,,,,,,,,,,,,,,,,,1,,,,,,,,,,,,,,,,,,,,,,,,,,,,,,,,,,,,,,,,,,,,,,60,154750,21,Female,1,2024/02/15_14:41:00,JV,None,
,,,,,,practice,0,16,1,250,15,S,0,right,0.628183621000062,1,0,,,,,,,,,,,,,,,,,,,,,1,,,,,,,,,,,,,,,,,,,,,,,,,,,,,,,,,,,,,,,,,,,,,,60,154750,21,Female,1,2024/02/15_14:41:00,JV,None,
,,,,,,practice,0,16,1,250,16,S,1,left,0.6213212980001117,1,0,,,,,,,,,,,,,,,,,,,,,1,,,,,,,,,,,,,,,,,,,,,,,,,,,,,,,,,,,,,,,,,,,,,,60,154750,21,Female,1,2024/02/15_14:41:00,JV,None,
,,,,,,practice,0,16,1,250,17,X,0,right,0.6962374200011254,1,0,,,,,,,,,,,,,,,,,,,,,1,,,,,,,,,,,,,,,,,,,,,,,,,,,,,,,,,,,,,,,,,,,,,,60,154750,21,Female,1,2024/02/15_14:41:00,JV,None,
,,,,,,practice,0,16,1,250,18,C,0,right,1.6772377790002793,1,0,,,,,,,,,,,,,,,,,,,,,1,,,,,,,,,,,,,,,,,,,,,,,,,,,,,,,,,,,,,,,,,,,,,,60,154750,21,Female,1,2024/02/15_14:41:00,JV,None,
,,,,,,practice,0,16,1,250,19,S,0,right,0.9162104559982254,1,0,,,,,,,,,,,,,,,,,,,,,1,,,,,,,,,,,,,,,,,,,,,,,,,,,,,,,,,,,,,,,,,,,,,,60,154750,21,Female,1,2024/02/15_14:41:00,JV,None,
,,,,,,practice,0,16,1,250,20,S,1,left,0.4748693949986773,1,0,,,,,,,,,,,,,,,,,,,,,1,,,,,,,,,,,,,,,,,,,,,,,,,,,,,,,,,,,,,,,,,,,,,,60,154750,21,Female,1,2024/02/15_14:41:00,JV,None,
,,,,,,practice,0,16,1,250,,,,,,,,1.0,1.0,0.0,1.0,0.0,1.0,0.8488613666500896,6,0,0,0,0,14,20,6,14,0,,,,1,,,,,,,,,,,,,,,,,,,,,,,,,,,,,,,,,,,,,,,,,,,,,,60,154750,21,Female,1,2024/02/15_14:41:00,JV,None,
1,./instructions/inst_prac_3/Slide37.png,right,6.32921793299829,759.7046443580002,766.0338622909985,,,,,,,,,,,,,,,,,,,,,,,,,,,,,,,,,1,,,,,,,,,,,,,,,,,,,,,,,,,,,,,,,,,,,,,,,,,,,,,,60,154750,21,Female,1,2024/02/15_14:41:00,JV,None,
2,./instructions/inst_prac_3/Slide38.png,right,0.7304952000013145,766.0628598049989,766.7933550050002,,,,,,,,,,,,,,,,,,,,,,,,,,,,,,,,,1,,,,,,,,,,,,,,,,,,,,,,,,,,,,,,,,,,,,,,,,,,,,,,60,154750,21,Female,1,2024/02/15_14:41:00,JV,None,
3,./instructions/inst_prac_3/Slide39.png,right,0.7502223480005341,766.8190870219987,767.5693093699992,,,,,,,,,,,,,,,,,,,,,,,,,,,,,,,,,1,,,,,,,,,,,,,,,,,,,,,,,,,,,,,,,,,,,,,,,,,,,,,,60,154750,21,Female,1,2024/02/15_14:41:00,JV,None,
4,./instructions/inst_prac_3/Slide40.png,right,0.7632131760001357,767.5979873739998,768.3612005499999,,,,,,,,,,,,,,,,,,,,,,,,,,,,,,,,,1,,,,,,,,,,,,,,,,,,,,,,,,,,,,,,,,,,,,,,,,,,,,,,60,154750,21,Female,1,2024/02/15_14:41:00,JV,None,
5,./instructions/inst_prac_3/Slide41.png,right,1.046315024002979,768.3868928429983,769.4332078670013,,,,,,,,,,,,,,,,,,,,,,,,,,,,,,,,,1,,,,,,,,,,,,,,,,,,,,,,,,,,,,,,,,,,,,,,,,,,,,,,60,154750,21,Female,1,2024/02/15_14:41:00,JV,None,
6,./instructions/inst_prac_3/Slide42.png,right,1.163447126000392,769.4618927560005,770.6253398820008,,,,,,,,,,,,,,,,,,,,,,,,,,,,,,,,,1,,,,,,,,,,,,,,,,,,,,,,,,,,,,,,,,,,,,,,,,,,,,,,60,154750,21,Female,1,2024/02/15_14:41:00,JV,None,
7,./instructions/inst_prac_3/Slide43.png,right,1.0516687519993866,770.6535133319994,771.7051820839988,,,,,,,,,,,,,,,,,,,,,,,,,,,,,,,,,1,,,,,,,,,,,,,,,,,,,,,,,,,,,,,,,,,,,,,,,,,,,,,,60,154750,21,Female,1,2024/02/15_14:41:00,JV,None,
8,./instructions/inst_prac_3/Slide44.png,right,1.78729312899668,771.7340483010012,773.5213414299978,,,,,,,,,,,,,,,,,,,,,,,,,,,,,,,,,1,,,,,,,,,,,,,,,,,,,,,,,,,,,,,,,,,,,,,,,,,,,,,,60,154750,21,Female,1,2024/02/15_14:41:00,JV,None,
,,,,,,practice,0,21,3,788,1,X,0,right,1.5751498140016338,1,0,,,,,,,,,,,,,,,,,,,,,1,,,,,,,,,,,,,,,,,,,,,,,,,,,,,,,,,,,,,,,,,,,,,,60,154750,21,Female,1,2024/02/15_14:41:00,JV,None,
,,,,,,practice,0,21,3,788,2,J,0,right,0.7161012870019476,1,0,,,,,,,,,,,,,,,,,,,,,1,,,,,,,,,,,,,,,,,,,,,,,,,,,,,,,,,,,,,,,,,,,,,,60,154750,21,Female,1,2024/02/15_14:41:00,JV,None,
,,,,,,practice,0,21,3,788,3,S,0,right,0.46032472199658514,1,0,,,,,,,,,,,,,,,,,,,,,1,,,,,,,,,,,,,,,,,,,,,,,,,,,,,,,,,,,,,,,,,,,,,,60,154750,21,Female,1,2024/02/15_14:41:00,JV,None,
,,,,,,practice,0,21,3,788,4,Q,0,right,0.7110442209996108,1,0,,,,,,,,,,,,,,,,,,,,,1,,,,,,,,,,,,,,,,,,,,,,,,,,,,,,,,,,,,,,,,,,,,,,60,154750,21,Female,1,2024/02/15_14:41:00,JV,None,
,,,,,,practice,0,21,3,788,5,J,1,left,0.9733551780009293,1,0,,,,,,,,,,,,,,,,,,,,,1,,,,,,,,,,,,,,,,,,,,,,,,,,,,,,,,,,,,,,,,,,,,,,60,154750,21,Female,1,2024/02/15_14:41:00,JV,None,
,,,,,,practice,0,21,3,788,6,S,1,left,2.091919157999655,1,0,,,,,,,,,,,,,,,,,,,,,1,,,,,,,,,,,,,,,,,,,,,,,,,,,,,,,,,,,,,,,,,,,,,,60,154750,21,Female,1,2024/02/15_14:41:00,JV,None,
,,,,,,practice,0,21,3,788,7,S,0,right,1.3216577129969664,1,0,,,,,,,,,,,,,,,,,,,,,1,,,,,,,,,,,,,,,,,,,,,,,,,,,,,,,,,,,,,,,,,,,,,,60,154750,21,Female,1,2024/02/15_14:41:00,JV,None,
,,,,,,practice,0,21,3,788,8,N,0,right,0.8837679070020386,1,0,,,,,,,,,,,,,,,,,,,,,1,,,,,,,,,,,,,,,,,,,,,,,,,,,,,,,,,,,,,,,,,,,,,,60,154750,21,Female,1,2024/02/15_14:41:00,JV,None,
,,,,,,practice,0,21,3,788,9,C,0,right,0.7212372049980331,1,0,,,,,,,,,,,,,,,,,,,,,1,,,,,,,,,,,,,,,,,,,,,,,,,,,,,,,,,,,,,,,,,,,,,,60,154750,21,Female,1,2024/02/15_14:41:00,JV,None,
,,,,,,practice,0,21,3,788,10,S,1,left,0.8214019620027102,1,0,,,,,,,,,,,,,,,,,,,,,1,,,,,,,,,,,,,,,,,,,,,,,,,,,,,,,,,,,,,,,,,,,,,,60,154750,21,Female,1,2024/02/15_14:41:00,JV,None,
,,,,,,practice,0,21,3,788,11,Q,0,right,0.8181091180013027,1,0,,,,,,,,,,,,,,,,,,,,,1,,,,,,,,,,,,,,,,,,,,,,,,,,,,,,,,,,,,,,,,,,,,,,60,154750,21,Female,1,2024/02/15_14:41:00,JV,None,
,,,,,,practice,0,21,3,788,12,F,0,right,0.6013175309999497,1,0,,,,,,,,,,,,,,,,,,,,,1,,,,,,,,,,,,,,,,,,,,,,,,,,,,,,,,,,,,,,,,,,,,,,60,154750,21,Female,1,2024/02/15_14:41:00,JV,None,
,,,,,,practice,0,21,3,788,13,S,1,left,0.708803211000486,1,0,,,,,,,,,,,,,,,,,,,,,1,,,,,,,,,,,,,,,,,,,,,,,,,,,,,,,,,,,,,,,,,,,,,,60,154750,21,Female,1,2024/02/15_14:41:00,JV,None,
,,,,,,practice,0,21,3,788,,,,,,,,1.0,1.0,0.0,1.0,0.0,1.0,0.9541683866924499,4,0,0,0,0,9,13,4,9,0,,,,1,,,,,,,,,,,,,,,,,,,,,,,,,,,,,,,,,,,,,,,,,,,,,,60,154750,21,Female,1,2024/02/15_14:41:00,JV,None,
1,./instructions/inst_prac_3_next/Slide49.png,right,1.1789595689988346,799.5743088939998,800.7532684629987,,,,,,,,,,,,,,,,,,,,,,,,,,,,,,,,,1,,,,,,,,,,,,,,,,,,,,,,,,,,,,,,,,,,,,,,,,,,,,,,60,154750,21,Female,1,2024/02/15_14:41:00,JV,None,
,,,,,,practice,0,25,3,250,1,N,0,right,0.8480689349999011,1,0,,,,,,,,,,,,,,,,,,,,,1,,,,,,,,,,,,,,,,,,,,,,,,,,,,,,,,,,,,,,,,,,,,,,60,154750,21,Female,1,2024/02/15_14:41:00,JV,None,
,,,,,,practice,0,25,3,250,2,J,0,right,0.33023559800130897,1,0,,,,,,,,,,,,,,,,,,,,,1,,,,,,,,,,,,,,,,,,,,,,,,,,,,,,,,,,,,,,,,,,,,,,60,154750,21,Female,1,2024/02/15_14:41:00,JV,None,
,,,,,,practice,0,25,3,250,3,S,0,right,0.8159576069992909,1,0,,,,,,,,,,,,,,,,,,,,,1,,,,,,,,,,,,,,,,,,,,,,,,,,,,,,,,,,,,,,,,,,,,,,60,154750,21,Female,1,2024/02/15_14:41:00,JV,None,
,,,,,,practice,0,25,3,250,4,C,0,right,1.2767778289999114,1,0,,,,,,,,,,,,,,,,,,,,,1,,,,,,,,,,,,,,,,,,,,,,,,,,,,,,,,,,,,,,,,,,,,,,60,154750,21,Female,1,2024/02/15_14:41:00,JV,None,
,,,,,,practice,0,25,3,250,5,Q,0,right,1.3007451039993612,1,0,,,,,,,,,,,,,,,,,,,,,1,,,,,,,,,,,,,,,,,,,,,,,,,,,,,,,,,,,,,,,,,,,,,,60,154750,21,Female,1,2024/02/15_14:41:00,JV,None,
,,,,,,practice,0,25,3,250,6,J,0,left,1.2641682470020896,0,0,,,,,,,,,,,,,,,,,,,,,1,,,,,,,,,,,,,,,,,,,,,,,,,,,,,,,,,,,,,,,,,,,,,,60,154750,21,Female,1,2024/02/15_14:41:00,JV,None,
,,,,,,practice,0,25,3,250,7,C,1,left,1.9540152570007194,1,0,,,,,,,,,,,,,,,,,,,,,1,,,,,,,,,,,,,,,,,,,,,,,,,,,,,,,,,,,,,,,,,,,,,,60,154750,21,Female,1,2024/02/15_14:41:00,JV,None,
,,,,,,practice,0,25,3,250,8,Q,1,left,1.8414997399995627,1,0,,,,,,,,,,,,,,,,,,,,,1,,,,,,,,,,,,,,,,,,,,,,,,,,,,,,,,,,,,,,,,,,,,,,60,154750,21,Female,1,2024/02/15_14:41:00,JV,None,
,,,,,,practice,0,25,3,250,9,N,0,right,0.801551748001657,1,0,,,,,,,,,,,,,,,,,,,,,1,,,,,,,,,,,,,,,,,,,,,,,,,,,,,,,,,,,,,,,,,,,,,,60,154750,21,Female,1,2024/02/15_14:41:00,JV,None,
,,,,,,practice,0,25,3,250,10,J,0,left,1.3530432139996265,0,0,,,,,,,,,,,,,,,,,,,,,1,,,,,,,,,,,,,,,,,,,,,,,,,,,,,,,,,,,,,,,,,,,,,,60,154750,21,Female,1,2024/02/15_14:41:00,JV,None,
,,,,,,practice,0,25,3,250,11,F,0,right,0.9858843100009835,1,0,,,,,,,,,,,,,,,,,,,,,1,,,,,,,,,,,,,,,,,,,,,,,,,,,,,,,,,,,,,,,,,,,,,,60,154750,21,Female,1,2024/02/15_14:41:00,JV,None,
,,,,,,practice,0,25,3,250,12,S,0,left,1.2170237930004077,0,0,,,,,,,,,,,,,,,,,,,,,1,,,,,,,,,,,,,,,,,,,,,,,,,,,,,,,,,,,,,,,,,,,,,,60,154750,21,Female,1,2024/02/15_14:41:00,JV,None,
,,,,,,practice,0,25,3,250,13,C,0,left,1.7615637880007853,0,0,,,,,,,,,,,,,,,,,,,,,1,,,,,,,,,,,,,,,,,,,,,,,,,,,,,,,,,,,,,,,,,,,,,,60,154750,21,Female,1,2024/02/15_14:41:00,JV,None,
,,,,,,practice,0,25,3,250,14,J,0,left,1.3462243180001678,0,0,,,,,,,,,,,,,,,,,,,,,1,,,,,,,,,,,,,,,,,,,,,,,,,,,,,,,,,,,,,,,,,,,,,,60,154750,21,Female,1,2024/02/15_14:41:00,JV,None,
,,,,,,practice,0,25,3,250,15,S,1,right,1.5060663420008495,0,0,,,,,,,,,,,,,,,,,,,,,1,,,,,,,,,,,,,,,,,,,,,,,,,,,,,,,,,,,,,,,,,,,,,,60,154750,21,Female,1,2024/02/15_14:41:00,JV,None,
,,,,,,practice,0,25,3,250,16,X,0,right,0.7819342479997431,1,0,,,,,,,,,,,,,,,,,,,,,1,,,,,,,,,,,,,,,,,,,,,,,,,,,,,,,,,,,,,,,,,,,,,,60,154750,21,Female,1,2024/02/15_14:41:00,JV,None,
,,,,,,practice,0,25,3,250,17,J,1,left,1.4037185029992543,1,0,,,,,,,,,,,,,,,,,,,,,1,,,,,,,,,,,,,,,,,,,,,,,,,,,,,,,,,,,,,,,,,,,,,,60,154750,21,Female,1,2024/02/15_14:41:00,JV,None,
,,,,,,practice,0,25,3,250,18,J,0,right,1.4731962170008046,1,0,,,,,,,,,,,,,,,,,,,,,1,,,,,,,,,,,,,,,,,,,,,,,,,,,,,,,,,,,,,,,,,,,,,,60,154750,21,Female,1,2024/02/15_14:41:00,JV,None,
,,,,,,practice,0,25,3,250,19,V,0,right,2.2025702809987706,1,0,,,,,,,,,,,,,,,,,,,,,1,,,,,,,,,,,,,,,,,,,,,,,,,,,,,,,,,,,,,,,,,,,,,,60,154750,21,Female,1,2024/02/15_14:41:00,JV,None,
,,,,,,practice,0,25,3,250,20,J,1,left,1.9056757540020044,1,0,,,,,,,,,,,,,,,,,,,,,1,,,,,,,,,,,,,,,,,,,,,,,,,,,,,,,,,,,,,,,,,,,,,,60,154750,21,Female,1,2024/02/15_14:41:00,JV,None,
,,,,,,practice,0,25,3,250,,,,,,,,0.8,0.8,0.3333333333333333,0.6666666666666666,0.0,0.6666666666666667,1.31849604165036,4,5,0,0,0,10,14,5,15,0,,,,1,,,,,,,,,,,,,,,,,,,,,,,,,,,,,,,,,,,,,,,,,,,,,,60,154750,21,Female,1,2024/02/15_14:41:00,JV,None,
,,,,,,practice,0,36,3,250,1,J,0,right,1.2443403329998546,1,0,,,,,,,,,,,,,,,,,,,,,1,,,,,,,,,,,,,,,,,,,,,,,,,,,,,,,,,,,,,,,,,,,,,,60,154750,21,Female,1,2024/02/15_14:41:00,JV,None,
,,,,,,practice,0,36,3,250,2,F,0,right,0.8165346019995923,1,0,,,,,,,,,,,,,,,,,,,,,1,,,,,,,,,,,,,,,,,,,,,,,,,,,,,,,,,,,,,,,,,,,,,,60,154750,21,Female,1,2024/02/15_14:41:00,JV,None,
,,,,,,practice,0,36,3,250,3,F,0,right,0.9695061359998363,1,0,,,,,,,,,,,,,,,,,,,,,1,,,,,,,,,,,,,,,,,,,,,,,,,,,,,,,,,,,,,,,,,,,,,,60,154750,21,Female,1,2024/02/15_14:41:00,JV,None,
,,,,,,practice,0,36,3,250,4,N,0,right,1.8128818740005954,1,0,,,,,,,,,,,,,,,,,,,,,1,,,,,,,,,,,,,,,,,,,,,,,,,,,,,,,,,,,,,,,,,,,,,,60,154750,21,Female,1,2024/02/15_14:41:00,JV,None,
,,,,,,practice,0,36,3,250,5,N,0,right,1.3329325960003189,1,0,,,,,,,,,,,,,,,,,,,,,1,,,,,,,,,,,,,,,,,,,,,,,,,,,,,,,,,,,,,,,,,,,,,,60,154750,21,Female,1,2024/02/15_14:41:00,JV,None,
,,,,,,practice,0,36,3,250,6,F,1,left,2.5046824529999867,1,0,,,,,,,,,,,,,,,,,,,,,1,,,,,,,,,,,,,,,,,,,,,,,,,,,,,,,,,,,,,,,,,,,,,,60,154750,21,Female,1,2024/02/15_14:41:00,JV,None,
,,,,,,practice,0,36,3,250,7,C,0,right,1.4735972410016984,1,0,,,,,,,,,,,,,,,,,,,,,1,,,,,,,,,,,,,,,,,,,,,,,,,,,,,,,,,,,,,,,,,,,,,,60,154750,21,Female,1,2024/02/15_14:41:00,JV,None,
,,,,,,practice,0,36,3,250,8,C,0,right,0.9198764860011579,1,0,,,,,,,,,,,,,,,,,,,,,1,,,,,,,,,,,,,,,,,,,,,,,,,,,,,,,,,,,,,,,,,,,,,,60,154750,21,Female,1,2024/02/15_14:41:00,JV,None,
,,,,,,practice,0,36,3,250,9,J,0,right,1.7202991529993596,1,0,,,,,,,,,,,,,,,,,,,,,1,,,,,,,,,,,,,,,,,,,,,,,,,,,,,,,,,,,,,,,,,,,,,,60,154750,21,Female,1,2024/02/15_14:41:00,JV,None,
,,,,,,practice,0,36,3,250,10,F,0,left,1.1151792849996127,0,0,,,,,,,,,,,,,,,,,,,,,1,,,,,,,,,,,,,,,,,,,,,,,,,,,,,,,,,,,,,,,,,,,,,,60,154750,21,Female,1,2024/02/15_14:41:00,JV,None,
,,,,,,practice,0,36,3,250,11,C,1,left,1.5864708710032573,1,0,,,,,,,,,,,,,,,,,,,,,1,,,,,,,,,,,,,,,,,,,,,,,,,,,,,,,,,,,,,,,,,,,,,,60,154750,21,Female,1,2024/02/15_14:41:00,JV,None,
,,,,,,practice,0,36,3,250,12,X,0,right,0.9133484039994073,1,0,,,,,,,,,,,,,,,,,,,,,1,,,,,,,,,,,,,,,,,,,,,,,,,,,,,,,,,,,,,,,,,,,,,,60,154750,21,Female,1,2024/02/15_14:41:00,JV,None,
,,,,,,practice,0,36,3,250,13,Q,0,right,1.0160013639979297,1,0,,,,,,,,,,,,,,,,,,,,,1,,,,,,,,,,,,,,,,,,,,,,,,,,,,,,,,,,,,,,,,,,,,,,60,154750,21,Female,1,2024/02/15_14:41:00,JV,None,
,,,,,,practice,0,36,3,250,14,C,1,right,0.3484323990014673,0,0,,,,,,,,,,,,,,,,,,,,,1,,,,,,,,,,,,,,,,,,,,,,,,,,,,,,,,,,,,,,,,,,,,,,60,154750,21,Female,1,2024/02/15_14:41:00,JV,None,
,,,,,,practice,0,36,3,250,15,J,0,right,3.167968944999302,1,0,,,,,,,,,,,,,,,,,,,,,1,,,,,,,,,,,,,,,,,,,,,,,,,,,,,,,,,,,,,,,,,,,,,,60,154750,21,Female,1,2024/02/15_14:41:00,JV,None,
,,,,,,practice,0,36,3,250,16,N,0,right,0.868625492999854,1,0,,,,,,,,,,,,,,,,,,,,,1,,,,,,,,,,,,,,,,,,,,,,,,,,,,,,,,,,,,,,,,,,,,,,60,154750,21,Female,1,2024/02/15_14:41:00,JV,None,
,,,,,,practice,0,36,3,250,17,C,1,left,1.1277760379998654,1,0,,,,,,,,,,,,,,,,,,,,,1,,,,,,,,,,,,,,,,,,,,,,,,,,,,,,,,,,,,,,,,,,,,,,60,154750,21,Female,1,2024/02/15_14:41:00,JV,None,
,,,,,,practice,0,36,3,250,18,V,0,right,1.0418948359983915,1,0,,,,,,,,,,,,,,,,,,,,,1,,,,,,,,,,,,,,,,,,,,,,,,,,,,,,,,,,,,,,,,,,,,,,60,154750,21,Female,1,2024/02/15_14:41:00,JV,None,
,,,,,,practice,0,36,3,250,19,N,1,left,1.7466455700014194,1,0,,,,,,,,,,,,,,,,,,,,,1,,,,,,,,,,,,,,,,,,,,,,,,,,,,,,,,,,,,,,,,,,,,,,60,154750,21,Female,1,2024/02/15_14:41:00,JV,None,
,,,,,,practice,0,36,3,250,20,Q,0,right,1.753799311001785,1,0,,,,,,,,,,,,,,,,,,,,,1,,,,,,,,,,,,,,,,,,,,,,,,,,,,,,,,,,,,,,,,,,,,,,60,154750,21,Female,1,2024/02/15_14:41:00,JV,None,
,,,,,,practice,0,36,3,250,,,,,,,,0.92,0.8,0.06666666666666667,0.9333333333333333,0.0,0.9333333333333333,1.3740396695002346,4,1,0,0,0,14,18,5,15,0,,,,1,,,,,,,,,,,,,,,,,,,,,,,,,,,,,,,,,,,,,,,,,,,,,,60,154750,21,Female,1,2024/02/15_14:41:00,JV,None,
1,./instructions/inst_prac_main/Slide51.png,right,3.0377802059992973,879.6114925969996,882.6492728029989,,,,,,,,,,,,,,,,,,,,,,,,,,,,,,,,,1,,,,,,,,,,,,,,,,,,,,,,,,,,,,,,,,,,,,,,,,,,,,,,60,154750,21,Female,1,2024/02/15_14:41:00,JV,None,
2,./instructions/inst_prac_main/Slide52.png,right,12.387337698997726,882.6782017580008,895.0655394569985,,,,,,,,,,,,,,,,,,,,,,,,,,,,,,,,,1,,,,,,,,,,,,,,,,,,,,,,,,,,,,,,,,,,,,,,,,,,,,,,60,154750,21,Female,1,2024/02/15_14:41:00,JV,None,
3,./instructions/inst_prac_main/Slide53.png,right,1.7467048059988883,895.0944905489996,896.8411953549985,,,,,,,,,,,,,,,,,,,,,,,,,,,,,,,,,1,,,,,,,,,,,,,,,,,,,,,,,,,,,,,,,,,,,,,,,,,,,,,,60,154750,21,Female,1,2024/02/15_14:41:00,JV,None,
4,./instructions/inst_prac_main/Slide54.png,right,4.60305172599692,896.8702503220011,901.473302047998,,,,,,,,,,,,,,,,,,,,,,,,,,,,,,,,,1,,,,,,,,,,,,,,,,,,,,,,,,,,,,,,,,,,,,,,,,,,,,,,60,154750,21,Female,1,2024/02/15_14:41:00,JV,None,
,,,,,,practice_main,0,1,1,250,1,Q,0,None,nan,0,1,,,,,,,,,,,,,,,,,,,,,1,,,,,,,,,,,,,,,,,,,,,,,,,,,,,,,,,,,,,,,,,,,,,,60,154750,21,Female,1,2024/02/15_14:41:00,JV,None,
,,,,,,practice_main,0,1,1,250,2,X,0,right,0.7570985929996823,1,0,,,,,,,,,,,,,,,,,,,,,1,,,,,,,,,,,,,,,,,,,,,,,,,,,,,,,,,,,,,,,,,,,,,,60,154750,21,Female,1,2024/02/15_14:41:00,JV,None,
,,,,,,practice_main,0,1,1,250,3,Q,0,left,0.6760465520019352,0,0,,,,,,,,,,,,,,,,,,,,,1,,,,,,,,,,,,,,,,,,,,,,,,,,,,,,,,,,,,,,,,,,,,,,60,154750,21,Female,1,2024/02/15_14:41:00,JV,None,
,,,,,,practice_main,0,1,1,250,4,N,0,right,0.6078543939984229,1,0,,,,,,,,,,,,,,,,,,,,,1,,,,,,,,,,,,,,,,,,,,,,,,,,,,,,,,,,,,,,,,,,,,,,60,154750,21,Female,1,2024/02/15_14:41:00,JV,None,
,,,,,,practice_main,0,1,1,250,5,S,0,right,0.40979517300002044,1,0,,,,,,,,,,,,,,,,,,,,,1,,,,,,,,,,,,,,,,,,,,,,,,,,,,,,,,,,,,,,,,,,,,,,60,154750,21,Female,1,2024/02/15_14:41:00,JV,None,
,,,,,,practice_main,0,1,1,250,6,S,1,left,0.5920082369993906,1,0,,,,,,,,,,,,,,,,,,,,,1,,,,,,,,,,,,,,,,,,,,,,,,,,,,,,,,,,,,,,,,,,,,,,60,154750,21,Female,1,2024/02/15_14:41:00,JV,None,
,,,,,,practice_main,0,1,1,250,7,X,0,right,0.5567536039998231,1,0,,,,,,,,,,,,,,,,,,,,,1,,,,,,,,,,,,,,,,,,,,,,,,,,,,,,,,,,,,,,,,,,,,,,60,154750,21,Female,1,2024/02/15_14:41:00,JV,None,
,,,,,,practice_main,0,1,1,250,8,S,0,right,0.6027878259992576,1,0,,,,,,,,,,,,,,,,,,,,,1,,,,,,,,,,,,,,,,,,,,,,,,,,,,,,,,,,,,,,,,,,,,,,60,154750,21,Female,1,2024/02/15_14:41:00,JV,None,
,,,,,,practice_main,0,1,1,250,9,F,0,right,0.5423367610019341,1,0,,,,,,,,,,,,,,,,,,,,,1,,,,,,,,,,,,,,,,,,,,,,,,,,,,,,,,,,,,,,,,,,,,,,60,154750,21,Female,1,2024/02/15_14:41:00,JV,None,
,,,,,,practice_main,0,1,1,250,10,N,0,right,0.6783863839991682,1,0,,,,,,,,,,,,,,,,,,,,,1,,,,,,,,,,,,,,,,,,,,,,,,,,,,,,,,,,,,,,,,,,,,,,60,154750,21,Female,1,2024/02/15_14:41:00,JV,None,
,,,,,,practice_main,0,1,1,250,11,N,1,left,0.7830384139997477,1,0,,,,,,,,,,,,,,,,,,,,,1,,,,,,,,,,,,,,,,,,,,,,,,,,,,,,,,,,,,,,,,,,,,,,60,154750,21,Female,1,2024/02/15_14:41:00,JV,None,
,,,,,,practice_main,0,1,1,250,12,X,0,right,0.4965002720018674,1,0,,,,,,,,,,,,,,,,,,,,,1,,,,,,,,,,,,,,,,,,,,,,,,,,,,,,,,,,,,,,,,,,,,,,60,154750,21,Female,1,2024/02/15_14:41:00,JV,None,
,,,,,,practice_main,0,1,1,250,13,V,0,right,0.4977120500007004,1,0,,,,,,,,,,,,,,,,,,,,,1,,,,,,,,,,,,,,,,,,,,,,,,,,,,,,,,,,,,,,,,,,,,,,60,154750,21,Female,1,2024/02/15_14:41:00,JV,None,
,,,,,,practice_main,0,1,1,250,14,V,1,left,0.6175724319982692,1,0,,,,,,,,,,,,,,,,,,,,,1,,,,,,,,,,,,,,,,,,,,,,,,,,,,,,,,,,,,,,,,,,,,,,60,154750,21,Female,1,2024/02/15_14:41:00,JV,None,
,,,,,,practice_main,0,1,1,250,15,Q,0,right,0.2462241549983446,1,0,,,,,,,,,,,,,,,,,,,,,1,,,,,,,,,,,,,,,,,,,,,,,,,,,,,,,,,,,,,,,,,,,,,,60,154750,21,Female,1,2024/02/15_14:41:00,JV,None,
,,,,,,practice_main,0,1,1,250,16,C,0,right,0.6039889979983855,1,0,,,,,,,,,,,,,,,,,,,,,1,,,,,,,,,,,,,,,,,,,,,,,,,,,,,,,,,,,,,,,,,,,,,,60,154750,21,Female,1,2024/02/15_14:41:00,JV,None,
,,,,,,practice_main,0,1,1,250,17,Q,0,right,0.6550264779980353,1,0,,,,,,,,,,,,,,,,,,,,,1,,,,,,,,,,,,,,,,,,,,,,,,,,,,,,,,,,,,,,,,,,,,,,60,154750,21,Female,1,2024/02/15_14:41:00,JV,None,
,,,,,,practice_main,0,1,1,250,18,Q,1,left,0.6540783239979646,1,0,,,,,,,,,,,,,,,,,,,,,1,,,,,,,,,,,,,,,,,,,,,,,,,,,,,,,,,,,,,,,,,,,,,,60,154750,21,Female,1,2024/02/15_14:41:00,JV,None,
,,,,,,practice_main,0,1,1,250,19,F,0,right,0.33390252200115356,1,0,,,,,,,,,,,,,,,,,,,,,1,,,,,,,,,,,,,,,,,,,,,,,,,,,,,,,,,,,,,,,,,,,,,,60,154750,21,Female,1,2024/02/15_14:41:00,JV,None,
,,,,,,practice_main,0,1,1,250,20,F,1,left,0.6669895269988046,1,0,,,,,,,,,,,,,,,,,,,,,1,,,,,,,,,,,,,,,,,,,,,,,,,,,,,,,,,,,,,,,,,,,,,,60,154750,21,Female,1,2024/02/15_14:41:00,JV,None,
,,,,,,practice_main,0,1,1,250,,,,,,,,0.9833333333333334,1.0,0.06666666666666667,0.9285714285714286,0.05,0.8833333333333333,0.5777947734733109,5,1,0,1,1,13,18,5,15,0,,,,1,,,,,,,,,,,,,,,,,,,,,,,,,,,,,,,,,,,,,,,,,,,,,,60,154750,21,Female,1,2024/02/15_14:41:00,JV,None,
,,,,,240215_150848,PRACTICE,0,1,1,250,,,,,,,,,,,,,,,,,,,,,,,,,,,,1,30,1,1,cue2.png,easy,B,4,1.8300091210003302,0,904.5383931659999,906.4052540909979,,,,,,,,,,,,,,,,,,,,,,,,,,,,,,,,,,,60,154750,21,Female,1,2024/02/15_14:41:00,JV,None,
,,,,,,practice_main,0,2,3,250,1,Q,0,None,nan,0,1,,,,,,,,,,,,,,,,,,,,,1,,,,,,,,,,,,,,,,,,,,,,,,,,,,,,,,,,,,,,,,,,,,,,60,154750,21,Female,1,2024/02/15_14:41:00,JV,None,
,,,,,,practice_main,0,2,3,250,2,N,0,None,nan,0,1,,,,,,,,,,,,,,,,,,,,,1,,,,,,,,,,,,,,,,,,,,,,,,,,,,,,,,,,,,,,,,,,,,,,60,154750,21,Female,1,2024/02/15_14:41:00,JV,None,
,,,,,,practice_main,0,2,3,250,3,N,0,right,0.3617145360003633,1,0,,,,,,,,,,,,,,,,,,,,,1,,,,,,,,,,,,,,,,,,,,,,,,,,,,,,,,,,,,,,,,,,,,,,60,154750,21,Female,1,2024/02/15_14:41:00,JV,None,
,,,,,,practice_main,0,2,3,250,4,Q,1,left,0.7580971870011126,1,0,,,,,,,,,,,,,,,,,,,,,1,,,,,,,,,,,,,,,,,,,,,,,,,,,,,,,,,,,,,,,,,,,,,,60,154750,21,Female,1,2024/02/15_14:41:00,JV,None,
,,,,,,practice_main,0,2,3,250,5,C,0,right,0.6198358489964448,1,0,,,,,,,,,,,,,,,,,,,,,1,,,,,,,,,,,,,,,,,,,,,,,,,,,,,,,,,,,,,,,,,,,,,,60,154750,21,Female,1,2024/02/15_14:41:00,JV,None,
,,,,,,practice_main,0,2,3,250,6,C,0,right,0.7222481359967787,1,0,,,,,,,,,,,,,,,,,,,,,1,,,,,,,,,,,,,,,,,,,,,,,,,,,,,,,,,,,,,,,,,,,,,,60,154750,21,Female,1,2024/02/15_14:41:00,JV,None,
,,,,,,practice_main,0,2,3,250,7,S,0,right,0.5949658830031694,1,0,,,,,,,,,,,,,,,,,,,,,1,,,,,,,,,,,,,,,,,,,,,,,,,,,,,,,,,,,,,,,,,,,,,,60,154750,21,Female,1,2024/02/15_14:41:00,JV,None,
,,,,,,practice_main,0,2,3,250,8,S,0,right,0.6092807899985928,1,0,,,,,,,,,,,,,,,,,,,,,1,,,,,,,,,,,,,,,,,,,,,,,,,,,,,,,,,,,,,,,,,,,,,,60,154750,21,Female,1,2024/02/15_14:41:00,JV,None,
,,,,,,practice_main,0,2,3,250,9,N,0,right,0.6428249060008966,1,0,,,,,,,,,,,,,,,,,,,,,1,,,,,,,,,,,,,,,,,,,,,,,,,,,,,,,,,,,,,,,,,,,,,,60,154750,21,Female,1,2024/02/15_14:41:00,JV,None,
,,,,,,practice_main,0,2,3,250,10,S,1,right,0.6248643040016759,0,0,,,,,,,,,,,,,,,,,,,,,1,,,,,,,,,,,,,,,,,,,,,,,,,,,,,,,,,,,,,,,,,,,,,,60,154750,21,Female,1,2024/02/15_14:41:00,JV,None,
,,,,,,practice_main,0,2,3,250,11,Q,0,left,0.19473494699923322,0,0,,,,,,,,,,,,,,,,,,,,,1,,,,,,,,,,,,,,,,,,,,,,,,,,,,,,,,,,,,,,,,,,,,,,60,154750,21,Female,1,2024/02/15_14:41:00,JV,None,
,,,,,,practice_main,0,2,3,250,12,S,0,left,0.7893915530003142,0,0,,,,,,,,,,,,,,,,,,,,,1,,,,,,,,,,,,,,,,,,,,,,,,,,,,,,,,,,,,,,,,,,,,,,60,154750,21,Female,1,2024/02/15_14:41:00,JV,None,
,,,,,,practice_main,0,2,3,250,13,S,1,left,0.7589881189996959,1,0,,,,,,,,,,,,,,,,,,,,,1,,,,,,,,,,,,,,,,,,,,,,,,,,,,,,,,,,,,,,,,,,,,,,60,154750,21,Female,1,2024/02/15_14:41:00,JV,None,
,,,,,,practice_main,0,2,3,250,14,V,0,right,0.6117063250021602,1,0,,,,,,,,,,,,,,,,,,,,,1,,,,,,,,,,,,,,,,,,,,,,,,,,,,,,,,,,,,,,,,,,,,,,60,154750,21,Female,1,2024/02/15_14:41:00,JV,None,
,,,,,,practice_main,0,2,3,250,15,Q,0,right,0.6916747570030566,1,0,,,,,,,,,,,,,,,,,,,,,1,,,,,,,,,,,,,,,,,,,,,,,,,,,,,,,,,,,,,,,,,,,,,,60,154750,21,Female,1,2024/02/15_14:41:00,JV,None,
,,,,,,practice_main,0,2,3,250,16,S,1,right,0.9068585879977036,0,0,,,,,,,,,,,,,,,,,,,,,1,,,,,,,,,,,,,,,,,,,,,,,,,,,,,,,,,,,,,,,,,,,,,,60,154750,21,Female,1,2024/02/15_14:41:00,JV,None,
,,,,,,practice_main,0,2,3,250,17,V,1,right,0.596216142999765,0,0,,,,,,,,,,,,,,,,,,,,,1,,,,,,,,,,,,,,,,,,,,,,,,,,,,,,,,,,,,,,,,,,,,,,60,154750,21,Female,1,2024/02/15_14:41:00,JV,None,
,,,,,,practice_main,0,2,3,250,18,N,0,right,0.6914433519996237,1,0,,,,,,,,,,,,,,,,,,,,,1,,,,,,,,,,,,,,,,,,,,,,,,,,,,,,,,,,,,,,,,,,,,,,60,154750,21,Female,1,2024/02/15_14:41:00,JV,None,
,,,,,,practice_main,0,2,3,250,19,J,0,right,0.5853015030006645,1,0,,,,,,,,,,,,,,,,,,,,,1,,,,,,,,,,,,,,,,,,,,,,,,,,,,,,,,,,,,,,,,,,,,,,60,154750,21,Female,1,2024/02/15_14:41:00,JV,None,
,,,,,,practice_main,0,2,3,250,20,S,0,left,0.5955722660000902,0,0,,,,,,,,,,,,,,,,,,,,,1,,,,,,,,,,,,,,,,,,,,,,,,,,,,,,,,,,,,,,,,,,,,,,60,154750,21,Female,1,2024/02/15_14:41:00,JV,None,
,,,,,,practice_main,0,2,3,250,,,,,,,,0.675,0.4,0.2,0.7692307692307693,0.1,0.7000000000000001,0.6308732857778523,2,3,0,2,2,10,12,5,15,0,,,,1,,,,,,,,,,,,,,,,,,,,,,,,,,,,,,,,,,,,,,,,,,,,,,60,154750,21,Female,1,2024/02/15_14:41:00,JV,None,
,,,,,240215_150922,PRACTICE,0,2,3,250,,,,,,,,,,,,,,,,,,,,,,,,,,,,1,35,2,2,cue1.png,hard,B,12,1.672158365996438,0,938.0799354580013,939.7686754120004,,,,,,,,,,,,,,,,,,,,,,,,,,,,,,,,,,,60,154750,21,Female,1,2024/02/15_14:41:00,JV,None,
,,,,,,practice_main,0,3,3,250,1,N,0,None,nan,0,1,,,,,,,,,,,,,,,,,,,,,1,,,,,,,,,,,,,,,,,,,,,,,,,,,,,,,,,,,,,,,,,,,,,,60,154750,21,Female,1,2024/02/15_14:41:00,JV,None,
,,,,,,practice_main,0,3,3,250,2,S,0,right,0.5121172799990745,1,0,,,,,,,,,,,,,,,,,,,,,1,,,,,,,,,,,,,,,,,,,,,,,,,,,,,,,,,,,,,,,,,,,,,,60,154750,21,Female,1,2024/02/15_14:41:00,JV,None,
,,,,,,practice_main,0,3,3,250,3,N,0,right,0.3663815899999463,1,0,,,,,,,,,,,,,,,,,,,,,1,,,,,,,,,,,,,,,,,,,,,,,,,,,,,,,,,,,,,,,,,,,,,,60,154750,21,Female,1,2024/02/15_14:41:00,JV,None,
,,,,,,practice_main,0,3,3,250,4,Q,0,right,0.4566554080010974,1,0,,,,,,,,,,,,,,,,,,,,,1,,,,,,,,,,,,,,,,,,,,,,,,,,,,,,,,,,,,,,,,,,,,,,60,154750,21,Female,1,2024/02/15_14:41:00,JV,None,
,,,,,,practice_main,0,3,3,250,5,F,0,right,0.44209463999868603,1,0,,,,,,,,,,,,,,,,,,,,,1,,,,,,,,,,,,,,,,,,,,,,,,,,,,,,,,,,,,,,,,,,,,,,60,154750,21,Female,1,2024/02/15_14:41:00,JV,None,
,,,,,,practice_main,0,3,3,250,6,S,0,left,0.6063193780028087,0,0,,,,,,,,,,,,,,,,,,,,,1,,,,,,,,,,,,,,,,,,,,,,,,,,,,,,,,,,,,,,,,,,,,,,60,154750,21,Female,1,2024/02/15_14:41:00,JV,None,
,,,,,,practice_main,0,3,3,250,7,N,0,right,0.5240984750016651,1,0,,,,,,,,,,,,,,,,,,,,,1,,,,,,,,,,,,,,,,,,,,,,,,,,,,,,,,,,,,,,,,,,,,,,60,154750,21,Female,1,2024/02/15_14:41:00,JV,None,
,,,,,,practice_main,0,3,3,250,8,Q,0,right,nan,0,1,,,,,,,,,,,,,,,,,,,,,1,,,,,,,,,,,,,,,,,,,,,,,,,,,,,,,,,,,,,,,,,,,,,,60,154750,21,Female,1,2024/02/15_14:41:00,JV,None,
,,,,,,practice_main,0,3,3,250,9,J,0,right,nan,0,1,,,,,,,,,,,,,,,,,,,,,1,,,,,,,,,,,,,,,,,,,,,,,,,,,,,,,,,,,,,,,,,,,,,,60,154750,21,Female,1,2024/02/15_14:41:00,JV,None,
,,,,,,practice_main,0,3,3,250,10,N,1,right,nan,0,1,,,,,,,,,,,,,,,,,,,,,1,,,,,,,,,,,,,,,,,,,,,,,,,,,,,,,,,,,,,,,,,,,,,,60,154750,21,Female,1,2024/02/15_14:41:00,JV,None,
,,,,,,practice_main,0,3,3,250,11,Q,1,left,0.5580529619983281,1,0,,,,,,,,,,,,,,,,,,,,,1,,,,,,,,,,,,,,,,,,,,,,,,,,,,,,,,,,,,,,,,,,,,,,60,154750,21,Female,1,2024/02/15_14:41:00,JV,None,
,,,,,,practice_main,0,3,3,250,12,Q,0,right,0.7550393789970258,1,0,,,,,,,,,,,,,,,,,,,,,1,,,,,,,,,,,,,,,,,,,,,,,,,,,,,,,,,,,,,,,,,,,,,,60,154750,21,Female,1,2024/02/15_14:41:00,JV,None,
,,,,,,practice_main,0,3,3,250,13,N,1,right,0.4751463330030674,0,0,,,,,,,,,,,,,,,,,,,,,1,,,,,,,,,,,,,,,,,,,,,,,,,,,,,,,,,,,,,,,,,,,,,,60,154750,21,Female,1,2024/02/15_14:41:00,JV,None,
,,,,,,practice_main,0,3,3,250,14,Q,1,left,0.7262836829977459,1,0,,,,,,,,,,,,,,,,,,,,,1,,,,,,,,,,,,,,,,,,,,,,,,,,,,,,,,,,,,,,,,,,,,,,60,154750,21,Female,1,2024/02/15_14:41:00,JV,None,
,,,,,,practice_main,0,3,3,250,15,J,0,right,0.6104470789978222,1,0,,,,,,,,,,,,,,,,,,,,,1,,,,,,,,,,,,,,,,,,,,,,,,,,,,,,,,,,,,,,,,,,,,,,60,154750,21,Female,1,2024/02/15_14:41:00,JV,None,
,,,,,,practice_main,0,3,3,250,16,N,1,right,0.6574997479983722,0,0,,,,,,,,,,,,,,,,,,,,,1,,,,,,,,,,,,,,,,,,,,,,,,,,,,,,,,,,,,,,,,,,,,,,60,154750,21,Female,1,2024/02/15_14:41:00,JV,None,
,,,,,,practice_main,0,3,3,250,17,C,0,right,0.30484762499690987,1,0,,,,,,,,,,,,,,,,,,,,,1,,,,,,,,,,,,,,,,,,,,,,,,,,,,,,,,,,,,,,,,,,,,,,60,154750,21,Female,1,2024/02/15_14:41:00,JV,None,
,,,,,,practice_main,0,3,3,250,18,S,0,left,0.4163959450015682,0,0,,,,,,,,,,,,,,,,,,,,,1,,,,,,,,,,,,,,,,,,,,,,,,,,,,,,,,,,,,,,,,,,,,,,60,154750,21,Female,1,2024/02/15_14:41:00,JV,None,
,,,,,,practice_main,0,3,3,250,19,J,0,right,0.4727516019993345,1,0,,,,,,,,,,,,,,,,,,,,,1,,,,,,,,,,,,,,,,,,,,,,,,,,,,,,,,,,,,,,,,,,,,,,60,154750,21,Female,1,2024/02/15_14:41:00,JV,None,
,,,,,,practice_main,0,3,3,250,20,Q,0,right,0.5999460800012457,1,0,,,,,,,,,,,,,,,,,,,,,1,,,,,,,,,,,,,,,,,,,,,,,,,,,,,,,,,,,,,,,,,,,,,,60,154750,21,Female,1,2024/02/15_14:41:00,JV,None,
,,,,,,practice_main,0,3,3,250,,,,,,,,0.7333333333333333,0.4,0.13333333333333333,0.8333333333333334,0.2,0.6666666666666667,0.5302548254371686,2,2,1,3,4,10,12,5,15,0,,,,1,,,,,,,,,,,,,,,,,,,,,,,,,,,,,,,,,,,,,,,,,,,,,,60,154750,21,Female,1,2024/02/15_14:41:00,JV,None,
,,,,,240215_150956,PRACTICE,0,3,3,250,,,,,,,,,,,,,,,,,,,,,,,,,,,,1,41,3,3,cue1.png,hard,B,17,1.5047725069998705,0,972.8220685980014,974.3438618449982,,,,,,,,,,,,,,,,,,,,,,,,,,,,,,,,,,,60,154750,21,Female,1,2024/02/15_14:41:00,JV,None,
-1,./instructions/inst_prac_end/Slide56.png,left,93.01326015200175,1005.052280685999,1098.0655408380007,,,,,,,,,,,,,,,,,,,,,,,,,,,,,,,,,1,,,,,,,,,,,,,,,,,,,,,,,,,,,,,,,,,,,,,,,,,,,,,,60,154750,21,Female,1,2024/02/15_14:41:00,JV,None,
1,./instructions/inst_test/Slide57.png,right,40.238364258999354,1098.0990091880012,1138.3373734470006,,,,,,,,,,,,,,,,,,,,,,,,,,,,,,,,,1,,,,,,,,,,,,,,,,,,,,,,,,,,,,,,,,,,,,,,,,,,,,,,60,154750,21,Female,1,2024/02/15_14:41:00,JV,None,
,,,,,,test,1,1,1,250,1,F,0,right,0.8822907680005301,1,0,,,,,,,,,,,,,,,,,,,,,1,,,,,,,,,,,,,,,,,,,,,,,,,,,,,,,,,,,,,,,,,,,,,,60,154750,21,Female,1,2024/02/15_14:41:00,JV,None,
