Instruction,Stimulus,Key,RT,START,END,Phase,Block,TrialN,NbackLevel,ISI,LetterN,Letter,Letter_isSame,Letter_Resp,Letter_RT,Letter_Accuracy,Letter_Timeout,Trial_A_measure,Trial_HR,Trial_FAR,Trial_CDR,Trial_MSR,Trial_ACC,Trial_RT,Trial_HitsCount,Trial_FAsCount,Trial_SameNoRespCount,Trial_DiffNoRespCount,Trial_NoRespCount,Trial_CDsCount,Trial_CorrectRespCount,Trial_SameLetterCount,Trial_DiffLetterCount,Trial_InvalidLetterCount,TrialCountCali,CaliEnd_A_measure,ISI_calibrated,Run,TrialIndex,TrialNumber_total,TrialNumber_valid,CueLearning,TrialDemandLearning,CueMapping,OnlineRating,OnlineRatingRT,OnlineRatingTimeOut,CueSTART,RatingSTART,OfflineRatingTimePoint,OfflineRatingQuesIndex,CueFigure,TrialDemand,OfflineRating,OfflineRatingRT,CueStart,OfflineRatingStart,PhaseType,CueLeft,CueDemandLeft,CueRight,CueDemandRight,Choice,ChoiceDemand,TaskDemand,ChoiceRT,ChoiceTimeOut,ChoiceSTART,CueCheck,CueDemandCheck,CorrectAnswer,Answer,AnswerDemand,AnswerRT,AnswerACC,AnswerTimeOut,CheckSTART,DemandRatingQuesIndex,QuesTLX,DemandLevel,DemandRating,DemandRatingRT,QuesStart,PID,SONA,Age,Gender,Run,TIME,EXPERIMENTER,frameRate,
1,./instructions/inst_begin/Slide2.png,right,30.581839985999977,0.12136760499561206,30.70320759099559,,,,,,,,,,,,,,,,,,,,,,,,,,,,,,,,,1,,,,,,,,,,,,,,,,,,,,,,,,,,,,,,,,,,,,,,,,,,,,,,94,148246,21,Female,1,2024/03/15_12:54:45,YZ,None,
2,./instructions/inst_begin/Slide3.png,right,9.14555843299604,30.733443676988827,39.87900210998487,,,,,,,,,,,,,,,,,,,,,,,,,,,,,,,,,1,,,,,,,,,,,,,,,,,,,,,,,,,,,,,,,,,,,,,,,,,,,,,,94,148246,21,Female,1,2024/03/15_12:54:45,YZ,None,
3,./instructions/inst_begin/Slide4.png,right,4.210970453976188,39.907725127006415,44.1186955809826,,,,,,,,,,,,,,,,,,,,,,,,,,,,,,,,,1,,,,,,,,,,,,,,,,,,,,,,,,,,,,,,,,,,,,,,,,,,,,,,94,148246,21,Female,1,2024/03/15_12:54:45,YZ,None,
1,./instructions/inst_prac_2/Slide6.png,right,0.20077153100282885,44.154468257998815,44.355239789001644,,,,,,,,,,,,,,,,,,,,,,,,,,,,,,,,,1,,,,,,,,,,,,,,,,,,,,,,,,,,,,,,,,,,,,,,,,,,,,,,94,148246,21,Female,1,2024/03/15_12:54:45,YZ,None,
2,./instructions/inst_prac_2/Slide7.png,right,0.20043917899602093,44.378147365991026,44.57858654498705,,,,,,,,,,,,,,,,,,,,,,,,,,,,,,,,,1,,,,,,,,,,,,,,,,,,,,,,,,,,,,,,,,,,,,,,,,,,,,,,94,148246,21,Female,1,2024/03/15_12:54:45,YZ,None,
1,./instructions/inst_prac_2/Slide8.png,left,2.0138219659856986,44.60117709400947,46.61499905999517,,,,,,,,,,,,,,,,,,,,,,,,,,,,,,,,,1,,,,,,,,,,,,,,,,,,,,,,,,,,,,,,,,,,,,,,,,,,,,,,94,148246,21,Female,1,2024/03/15_12:54:45,YZ,None,
2,./instructions/inst_prac_2/Slide7.png,right,18.39317228499567,46.638004064996494,65.03117634999217,,,,,,,,,,,,,,,,,,,,,,,,,,,,,,,,,1,,,,,,,,,,,,,,,,,,,,,,,,,,,,,,,,,,,,,,,,,,,,,,94,148246,21,Female,1,2024/03/15_12:54:45,YZ,None,
3,./instructions/inst_prac_2/Slide8.png,right,9.058836281008553,65.06020917999558,74.11904546100413,,,,,,,,,,,,,,,,,,,,,,,,,,,,,,,,,1,,,,,,,,,,,,,,,,,,,,,,,,,,,,,,,,,,,,,,,,,,,,,,94,148246,21,Female,1,2024/03/15_12:54:45,YZ,None,
4,./instructions/inst_prac_2/Slide9.png,right,6.906132358999457,74.14870812598383,81.05484048498329,,,,,,,,,,,,,,,,,,,,,,,,,,,,,,,,,1,,,,,,,,,,,,,,,,,,,,,,,,,,,,,,,,,,,,,,,,,,,,,,94,148246,21,Female,1,2024/03/15_12:54:45,YZ,None,
5,./instructions/inst_prac_2/Slide10.png,right,1.8534969829779584,81.08139690200915,82.9348938849871,,,,,,,,,,,,,,,,,,,,,,,,,,,,,,,,,1,,,,,,,,,,,,,,,,,,,,,,,,,,,,,,,,,,,,,,,,,,,,,,94,148246,21,Female,1,2024/03/15_12:54:45,YZ,None,
6,./instructions/inst_prac_2/Slide11.png,right,2.1552488509914838,82.96358209999744,85.11883095098892,,,,,,,,,,,,,,,,,,,,,,,,,,,,,,,,,1,,,,,,,,,,,,,,,,,,,,,,,,,,,,,,,,,,,,,,,,,,,,,,94,148246,21,Female,1,2024/03/15_12:54:45,YZ,None,
7,./instructions/inst_prac_2/Slide12.png,right,1.0436691899958532,85.14724580099573,86.19091499099159,,,,,,,,,,,,,,,,,,,,,,,,,,,,,,,,,1,,,,,,,,,,,,,,,,,,,,,,,,,,,,,,,,,,,,,,,,,,,,,,94,148246,21,Female,1,2024/03/15_12:54:45,YZ,None,
8,./instructions/inst_prac_2/Slide13.png,right,1.1090596389840357,86.21783715300262,87.32689679198666,,,,,,,,,,,,,,,,,,,,,,,,,,,,,,,,,1,,,,,,,,,,,,,,,,,,,,,,,,,,,,,,,,,,,,,,,,,,,,,,94,148246,21,Female,1,2024/03/15_12:54:45,YZ,None,
9,./instructions/inst_prac_2/Slide14.png,right,6.4938239339971915,87.35309624500223,93.84692017899943,,,,,,,,,,,,,,,,,,,,,,,,,,,,,,,,,1,,,,,,,,,,,,,,,,,,,,,,,,,,,,,,,,,,,,,,,,,,,,,,94,148246,21,Female,1,2024/03/15_12:54:45,YZ,None,
10,./instructions/inst_prac_2/Slide15.png,right,8.900987588014686,93.87389352198807,102.77488111000275,,,,,,,,,,,,,,,,,,,,,,,,,,,,,,,,,1,,,,,,,,,,,,,,,,,,,,,,,,,,,,,,,,,,,,,,,,,,,,,,94,148246,21,Female,1,2024/03/15_12:54:45,YZ,None,
,,,,,,practice,0,36,2,2583,1,X,0,left,1.7767794840037823,0,0,,,,,,,,,,,,,,,,,,,,,1,,,,,,,,,,,,,,,,,,,,,,,,,,,,,,,,,,,,,,,,,,,,,,94,148246,21,Female,1,2024/03/15_12:54:45,YZ,None,
,,,,,,practice,0,36,2,2583,2,V,0,right,4.950711807003245,1,0,,,,,,,,,,,,,,,,,,,,,1,,,,,,,,,,,,,,,,,,,,,,,,,,,,,,,,,,,,,,,,,,,,,,94,148246,21,Female,1,2024/03/15_12:54:45,YZ,None,
,,,,,,practice,0,36,2,2583,3,X,1,left,1.9794506129983347,1,0,,,,,,,,,,,,,,,,,,,,,1,,,,,,,,,,,,,,,,,,,,,,,,,,,,,,,,,,,,,,,,,,,,,,94,148246,21,Female,1,2024/03/15_12:54:45,YZ,None,
,,,,,,practice,0,36,2,2583,4,V,1,right,2.050693147990387,0,0,,,,,,,,,,,,,,,,,,,,,1,,,,,,,,,,,,,,,,,,,,,,,,,,,,,,,,,,,,,,,,,,,,,,94,148246,21,Female,1,2024/03/15_12:54:45,YZ,None,
,,,,,,practice,0,36,2,2583,5,N,0,right,5.409417281975038,1,0,,,,,,,,,,,,,,,,,,,,,1,,,,,,,,,,,,,,,,,,,,,,,,,,,,,,,,,,,,,,,,,,,,,,94,148246,21,Female,1,2024/03/15_12:54:45,YZ,None,
,,,,,,practice,0,36,2,2583,6,F,0,right,3.418163452995941,1,0,,,,,,,,,,,,,,,,,,,,,1,,,,,,,,,,,,,,,,,,,,,,,,,,,,,,,,,,,,,,,,,,,,,,94,148246,21,Female,1,2024/03/15_12:54:45,YZ,None,
,,,,,,practice,0,36,2,2583,,,,,,,,0.6875,0.5,0.25,0.75,0.0,0.75,3.264202631161121,1,1,0,0,0,3,4,2,4,0,,,,1,,,,,,,,,,,,,,,,,,,,,,,,,,,,,,,,,,,,,,,,,,,,,,94,148246,21,Female,1,2024/03/15_12:54:45,YZ,None,
1,./instructions/inst_redo_2/Slide18.png,right,3.1400836470129434,129.74674997798866,132.8868336250016,,,,,,,,,,,,,,,,,,,,,,,,,,,,,,,,,1,,,,,,,,,,,,,,,,,,,,,,,,,,,,,,,,,,,,,,,,,,,,,,94,148246,21,Female,1,2024/03/15_12:54:45,YZ,None,
,,,,,,practice,0,1,2,2583,1,Q,0,left,1.467179457016755,0,0,,,,,,,,,,,,,,,,,,,,,1,,,,,,,,,,,,,,,,,,,,,,,,,,,,,,,,,,,,,,,,,,,,,,94,148246,21,Female,1,2024/03/15_12:54:45,YZ,None,
,,,,,,practice,0,1,2,2583,2,S,0,right,5.075220275000902,1,0,,,,,,,,,,,,,,,,,,,,,1,,,,,,,,,,,,,,,,,,,,,,,,,,,,,,,,,,,,,,,,,,,,,,94,148246,21,Female,1,2024/03/15_12:54:45,YZ,None,
,,,,,,practice,0,1,2,2583,3,X,0,right,4.247546735015931,1,0,,,,,,,,,,,,,,,,,,,,,1,,,,,,,,,,,,,,,,,,,,,,,,,,,,,,,,,,,,,,,,,,,,,,94,148246,21,Female,1,2024/03/15_12:54:45,YZ,None,
,,,,,,practice,0,1,2,2583,4,S,1,left,1.3968790919752792,1,0,,,,,,,,,,,,,,,,,,,,,1,,,,,,,,,,,,,,,,,,,,,,,,,,,,,,,,,,,,,,,,,,,,,,94,148246,21,Female,1,2024/03/15_12:54:45,YZ,None,
,,,,,,practice,0,1,2,2583,5,C,0,right,1.3219390090089291,1,0,,,,,,,,,,,,,,,,,,,,,1,,,,,,,,,,,,,,,,,,,,,,,,,,,,,,,,,,,,,,,,,,,,,,94,148246,21,Female,1,2024/03/15_12:54:45,YZ,None,
,,,,,,practice,0,1,2,2583,6,S,1,left,1.221988572011469,1,0,,,,,,,,,,,,,,,,,,,,,1,,,,,,,,,,,,,,,,,,,,,,,,,,,,,,,,,,,,,,,,,,,,,,94,148246,21,Female,1,2024/03/15_12:54:45,YZ,None,
,,,,,,practice,0,1,2,2583,,,,,,,,0.9375,1.0,0.25,0.75,0.0,0.75,2.4551255233382108,2,1,0,0,0,3,5,2,4,0,,,,1,,,,,,,,,,,,,,,,,,,,,,,,,,,,,,,,,,,,,,,,,,,,,,94,148246,21,Female,1,2024/03/15_12:54:45,YZ,None,
1,./instructions/inst_to_cali/Slide20.png,right,3.2572982129931916,155.4694914520078,158.72678966500098,,,,,,,,,,,,,,,,,,,,,,,,,,,,,,,,,1,,,,,,,,,,,,,,,,,,,,,,,,,,,,,,,,,,,,,,,,,,,,,,94,148246,21,Female,1,2024/03/15_12:54:45,YZ,None,
1,./instructions/inst_cali/Slide22.png,right,2.9423625910130795,158.76053491298808,161.70289750400116,,,,,,,,,,,,,,,,,,,,,,,,,,,,,,,,,1,,,,,,,,,,,,,,,,,,,,,,,,,,,,,,,,,,,,,,,,,,,,,,94,148246,21,Female,1,2024/03/15_12:54:45,YZ,None,
,,,,,,calibration,0,3,2,583,1,F,0,left,1.101016525994055,0,0,,,,,,,,,,,,,,,,,,,,,1,,,,,,,,,,,,,,,,,,,,,,,,,,,,,,,,,,,,,,,,,,,,,,94,148246,21,Female,1,2024/03/15_12:54:45,YZ,None,
,,,,,,calibration,0,3,2,583,2,S,0,left,0.884375899011502,0,0,,,,,,,,,,,,,,,,,,,,,1,,,,,,,,,,,,,,,,,,,,,,,,,,,,,,,,,,,,,,,,,,,,,,94,148246,21,Female,1,2024/03/15_12:54:45,YZ,None,
,,,,,,calibration,0,3,2,583,3,V,0,left,0.5715902350202668,0,0,,,,,,,,,,,,,,,,,,,,,1,,,,,,,,,,,,,,,,,,,,,,,,,,,,,,,,,,,,,,,,,,,,,,94,148246,21,Female,1,2024/03/15_12:54:45,YZ,None,
,,,,,,calibration,0,3,2,583,4,S,1,right,0.7400691929797176,0,0,,,,,,,,,,,,,,,,,,,,,1,,,,,,,,,,,,,,,,,,,,,,,,,,,,,,,,,,,,,,,,,,,,,,94,148246,21,Female,1,2024/03/15_12:54:45,YZ,None,
,,,,,,calibration,0,3,2,583,5,F,0,left,0.471715266990941,0,0,,,,,,,,,,,,,,,,,,,,,1,,,,,,,,,,,,,,,,,,,,,,,,,,,,,,,,,,,,,,,,,,,,,,94,148246,21,Female,1,2024/03/15_12:54:45,YZ,None,
,,,,,,calibration,0,3,2,583,6,C,0,left,0.9245621290174313,0,0,,,,,,,,,,,,,,,,,,,,,1,,,,,,,,,,,,,,,,,,,,,,,,,,,,,,,,,,,,,,,,,,,,,,94,148246,21,Female,1,2024/03/15_12:54:45,YZ,None,
,,,,,,calibration,0,3,2,583,7,Q,0,left,0.841840337991016,0,0,,,,,,,,,,,,,,,,,,,,,1,,,,,,,,,,,,,,,,,,,,,,,,,,,,,,,,,,,,,,,,,,,,,,94,148246,21,Female,1,2024/03/15_12:54:45,YZ,None,
,,,,,,calibration,0,3,2,583,8,C,1,right,0.8425318539957516,0,0,,,,,,,,,,,,,,,,,,,,,1,,,,,,,,,,,,,,,,,,,,,,,,,,,,,,,,,,,,,,,,,,,,,,94,148246,21,Female,1,2024/03/15_12:54:45,YZ,None,
,,,,,,calibration,0,3,2,583,9,V,0,left,0.4838962240028195,0,0,,,,,,,,,,,,,,,,,,,,,1,,,,,,,,,,,,,,,,,,,,,,,,,,,,,,,,,,,,,,,,,,,,,,94,148246,21,Female,1,2024/03/15_12:54:45,YZ,None,
,,,,,,calibration,0,3,2,583,10,C,1,left,0.8927627170050982,1,0,,,,,,,,,,,,,,,,,,,,,1,,,,,,,,,,,,,,,,,,,,,,,,,,,,,,,,,,,,,,,,,,,,,,94,148246,21,Female,1,2024/03/15_12:54:45,YZ,None,
,,,,,,calibration,0,3,2,583,11,V,1,right,0.6214666050218511,0,0,,,,,,,,,,,,,,,,,,,,,1,,,,,,,,,,,,,,,,,,,,,,,,,,,,,,,,,,,,,,,,,,,,,,94,148246,21,Female,1,2024/03/15_12:54:45,YZ,None,
,,,,,,calibration,0,3,2,583,12,J,0,left,0.3558023320219945,0,0,,,,,,,,,,,,,,,,,,,,,1,,,,,,,,,,,,,,,,,,,,,,,,,,,,,,,,,,,,,,,,,,,,,,94,148246,21,Female,1,2024/03/15_12:54:45,YZ,None,
,,,,,,calibration,0,3,2,583,13,Q,0,left,0.7591733220033348,0,0,,,,,,,,,,,,,,,,,,,,,1,,,,,,,,,,,,,,,,,,,,,,,,,,,,,,,,,,,,,,,,,,,,,,94,148246,21,Female,1,2024/03/15_12:54:45,YZ,None,
,,,,,,calibration,0,3,2,583,14,F,0,right,0.5896168010076508,1,0,,,,,,,,,,,,,,,,,,,,,1,,,,,,,,,,,,,,,,,,,,,,,,,,,,,,,,,,,,,,,,,,,,,,94,148246,21,Female,1,2024/03/15_12:54:45,YZ,None,
,,,,,,calibration,0,3,2,583,15,C,0,left,0.15327053298824467,0,0,,,,,,,,,,,,,,,,,,,,,1,,,,,,,,,,,,,,,,,,,,,,,,,,,,,,,,,,,,,,,,,,,,,,94,148246,21,Female,1,2024/03/15_12:54:45,YZ,None,
,,,,,,calibration,0,3,2,583,,,,,,,,0.0625,0.25,0.9090909090909091,0.09090909090909091,0.0,0.09090909090909094,0.6822459983367783,1,10,0,0,0,1,2,4,11,0,,,,1,,,,,,,,,,,,,,,,,,,,,,,,,,,,,,,,,,,,,,,,,,,,,,94,148246,21,Female,1,2024/03/15_12:54:45,YZ,None,
,,,,,,Calibration,0,,2,583,,,,,,,,,,,,,,,,,,,,,,,,,1,,,1,,,,,,,,,,,,,,,,,,,,,,,,,,,,,,,,,,,,,,,,,,,,,,94,148246,21,Female,1,2024/03/15_12:54:45,YZ,None,
,,,,,,calibration,0,32,2,679,1,N,0,left,0.4572824820061214,0,0,,,,,,,,,,,,,,,,,,,,,1,,,,,,,,,,,,,,,,,,,,,,,,,,,,,,,,,,,,,,,,,,,,,,94,148246,21,Female,1,2024/03/15_12:54:45,YZ,None,
,,,,,,calibration,0,32,2,679,2,N,0,right,0.6626910310005769,1,0,,,,,,,,,,,,,,,,,,,,,1,,,,,,,,,,,,,,,,,,,,,,,,,,,,,,,,,,,,,,,,,,,,,,94,148246,21,Female,1,2024/03/15_12:54:45,YZ,None,
,,,,,,calibration,0,32,2,679,3,C,0,left,0.3981514209881425,0,0,,,,,,,,,,,,,,,,,,,,,1,,,,,,,,,,,,,,,,,,,,,,,,,,,,,,,,,,,,,,,,,,,,,,94,148246,21,Female,1,2024/03/15_12:54:45,YZ,None,
,,,,,,calibration,0,32,2,679,4,N,1,right,0.6367929579864722,0,0,,,,,,,,,,,,,,,,,,,,,1,,,,,,,,,,,,,,,,,,,,,,,,,,,,,,,,,,,,,,,,,,,,,,94,148246,21,Female,1,2024/03/15_12:54:45,YZ,None,
,,,,,,calibration,0,32,2,679,5,F,0,left,0.4030118439986836,0,0,,,,,,,,,,,,,,,,,,,,,1,,,,,,,,,,,,,,,,,,,,,,,,,,,,,,,,,,,,,,,,,,,,,,94,148246,21,Female,1,2024/03/15_12:54:45,YZ,None,
,,,,,,calibration,0,32,2,679,6,N,1,left,0.4920150589896366,1,0,,,,,,,,,,,,,,,,,,,,,1,,,,,,,,,,,,,,,,,,,,,,,,,,,,,,,,,,,,,,,,,,,,,,94,148246,21,Female,1,2024/03/15_12:54:45,YZ,None,
,,,,,,calibration,0,32,2,679,7,F,1,left,0.7480812580033671,1,0,,,,,,,,,,,,,,,,,,,,,1,,,,,,,,,,,,,,,,,,,,,,,,,,,,,,,,,,,,,,,,,,,,,,94,148246,21,Female,1,2024/03/15_12:54:45,YZ,None,
,,,,,,calibration,0,32,2,679,8,J,0,left,nan,0,1,,,,,,,,,,,,,,,,,,,,,1,,,,,,,,,,,,,,,,,,,,,,,,,,,,,,,,,,,,,,,,,,,,,,94,148246,21,Female,1,2024/03/15_12:54:45,YZ,None,
,,,,,,calibration,0,32,2,679,9,F,1,left,0.8648894570069388,1,0,,,,,,,,,,,,,,,,,,,,,1,,,,,,,,,,,,,,,,,,,,,,,,,,,,,,,,,,,,,,,,,,,,,,94,148246,21,Female,1,2024/03/15_12:54:45,YZ,None,
,,,,,,calibration,0,32,2,679,10,S,0,right,0.5304760850267485,1,0,,,,,,,,,,,,,,,,,,,,,1,,,,,,,,,,,,,,,,,,,,,,,,,,,,,,,,,,,,,,,,,,,,,,94,148246,21,Female,1,2024/03/15_12:54:45,YZ,None,
,,,,,,calibration,0,32,2,679,11,Q,0,left,0.21801600899198093,0,0,,,,,,,,,,,,,,,,,,,,,1,,,,,,,,,,,,,,,,,,,,,,,,,,,,,,,,,,,,,,,,,,,,,,94,148246,21,Female,1,2024/03/15_12:54:45,YZ,None,
,,,,,,calibration,0,32,2,679,12,F,0,right,0.5534199709945824,1,0,,,,,,,,,,,,,,,,,,,,,1,,,,,,,,,,,,,,,,,,,,,,,,,,,,,,,,,,,,,,,,,,,,,,94,148246,21,Female,1,2024/03/15_12:54:45,YZ,None,
,,,,,,calibration,0,32,2,679,13,V,0,right,0.5251594050205313,1,0,,,,,,,,,,,,,,,,,,,,,1,,,,,,,,,,,,,,,,,,,,,,,,,,,,,,,,,,,,,,,,,,,,,,94,148246,21,Female,1,2024/03/15_12:54:45,YZ,None,
,,,,,,calibration,0,32,2,679,14,J,0,right,0.5574955730116926,1,0,,,,,,,,,,,,,,,,,,,,,1,,,,,,,,,,,,,,,,,,,,,,,,,,,,,,,,,,,,,,,,,,,,,,94,148246,21,Female,1,2024/03/15_12:54:45,YZ,None,
,,,,,,calibration,0,32,2,679,,,,,,,,0.7375,0.75,0.4,0.5555555555555556,0.07142857142857142,0.5285714285714286,0.5421140425404212,3,4,0,1,1,5,8,4,10,0,,,,1,,,,,,,,,,,,,,,,,,,,,,,,,,,,,,,,,,,,,,,,,,,,,,94,148246,21,Female,1,2024/03/15_12:54:45,YZ,None,
,,,,,,Calibration,0,,2,679,,,,,,,,,,,,,,,,,,,,,,,,,2,,,1,,,,,,,,,,,,,,,,,,,,,,,,,,,,,,,,,,,,,,,,,,,,,,94,148246,21,Female,1,2024/03/15_12:54:45,YZ,None,
,,,,,,calibration,0,30,2,788,1,Q,0,right,0.38716575800208375,1,0,,,,,,,,,,,,,,,,,,,,,1,,,,,,,,,,,,,,,,,,,,,,,,,,,,,,,,,,,,,,,,,,,,,,94,148246,21,Female,1,2024/03/15_12:54:45,YZ,None,
,,,,,,calibration,0,30,2,788,2,S,0,right,0.38328574801562354,1,0,,,,,,,,,,,,,,,,,,,,,1,,,,,,,,,,,,,,,,,,,,,,,,,,,,,,,,,,,,,,,,,,,,,,94,148246,21,Female,1,2024/03/15_12:54:45,YZ,None,
,,,,,,calibration,0,30,2,788,3,F,0,right,0.47719519698875956,1,0,,,,,,,,,,,,,,,,,,,,,1,,,,,,,,,,,,,,,,,,,,,,,,,,,,,,,,,,,,,,,,,,,,,,94,148246,21,Female,1,2024/03/15_12:54:45,YZ,None,
,,,,,,calibration,0,30,2,788,4,S,1,left,0.555459700000938,1,0,,,,,,,,,,,,,,,,,,,,,1,,,,,,,,,,,,,,,,,,,,,,,,,,,,,,,,,,,,,,,,,,,,,,94,148246,21,Female,1,2024/03/15_12:54:45,YZ,None,
,,,,,,calibration,0,30,2,788,5,J,0,right,0.47204997899825685,1,0,,,,,,,,,,,,,,,,,,,,,1,,,,,,,,,,,,,,,,,,,,,,,,,,,,,,,,,,,,,,,,,,,,,,94,148246,21,Female,1,2024/03/15_12:54:45,YZ,None,
,,,,,,calibration,0,30,2,788,6,S,1,right,0.5242345790029503,0,0,,,,,,,,,,,,,,,,,,,,,1,,,,,,,,,,,,,,,,,,,,,,,,,,,,,,,,,,,,,,,,,,,,,,94,148246,21,Female,1,2024/03/15_12:54:45,YZ,None,
,,,,,,calibration,0,30,2,788,7,V,0,right,0.4358693329850212,1,0,,,,,,,,,,,,,,,,,,,,,1,,,,,,,,,,,,,,,,,,,,,,,,,,,,,,,,,,,,,,,,,,,,,,94,148246,21,Female,1,2024/03/15_12:54:45,YZ,None,
,,,,,,calibration,0,30,2,788,8,S,1,left,0.3448393489816226,1,0,,,,,,,,,,,,,,,,,,,,,1,,,,,,,,,,,,,,,,,,,,,,,,,,,,,,,,,,,,,,,,,,,,,,94,148246,21,Female,1,2024/03/15_12:54:45,YZ,None,
,,,,,,calibration,0,30,2,788,9,J,0,right,0.38122812600340694,1,0,,,,,,,,,,,,,,,,,,,,,1,,,,,,,,,,,,,,,,,,,,,,,,,,,,,,,,,,,,,,,,,,,,,,94,148246,21,Female,1,2024/03/15_12:54:45,YZ,None,
,,,,,,calibration,0,30,2,788,10,F,0,right,0.5200084329990204,1,0,,,,,,,,,,,,,,,,,,,,,1,,,,,,,,,,,,,,,,,,,,,,,,,,,,,,,,,,,,,,,,,,,,,,94,148246,21,Female,1,2024/03/15_12:54:45,YZ,None,
,,,,,,calibration,0,30,2,788,11,J,1,right,0.6666401929978747,0,0,,,,,,,,,,,,,,,,,,,,,1,,,,,,,,,,,,,,,,,,,,,,,,,,,,,,,,,,,,,,,,,,,,,,94,148246,21,Female,1,2024/03/15_12:54:45,YZ,None,
,,,,,,calibration,0,30,2,788,12,Q,0,left,0.41118652699515224,0,0,,,,,,,,,,,,,,,,,,,,,1,,,,,,,,,,,,,,,,,,,,,,,,,,,,,,,,,,,,,,,,,,,,,,94,148246,21,Female,1,2024/03/15_12:54:45,YZ,None,
,,,,,,calibration,0,30,2,788,13,F,0,right,0.4759532570024021,1,0,,,,,,,,,,,,,,,,,,,,,1,,,,,,,,,,,,,,,,,,,,,,,,,,,,,,,,,,,,,,,,,,,,,,94,148246,21,Female,1,2024/03/15_12:54:45,YZ,None,
,,,,,,calibration,0,30,2,788,,,,,,,,0.7916666666666666,0.5,0.1111111111111111,0.8888888888888888,0.0,0.8888888888888888,0.46423970607485476,2,1,0,0,0,8,10,4,9,0,,,,1,,,,,,,,,,,,,,,,,,,,,,,,,,,,,,,,,,,,,,,,,,,,,,94,148246,21,Female,1,2024/03/15_12:54:45,YZ,None,
,,,,,,Calibration,0,,2,788,,,,,,,,,,,,,,,,,,,,,,,,,3,,,1,,,,,,,,,,,,,,,,,,,,,,,,,,,,,,,,,,,,,,,,,,,,,,94,148246,21,Female,1,2024/03/15_12:54:45,YZ,None,
,,,,,,calibration,0,10,2,788,1,N,0,right,0.511911968991626,1,0,,,,,,,,,,,,,,,,,,,,,1,,,,,,,,,,,,,,,,,,,,,,,,,,,,,,,,,,,,,,,,,,,,,,94,148246,21,Female,1,2024/03/15_12:54:45,YZ,None,
,,,,,,calibration,0,10,2,788,2,S,0,right,0.7833315510069951,1,0,,,,,,,,,,,,,,,,,,,,,1,,,,,,,,,,,,,,,,,,,,,,,,,,,,,,,,,,,,,,,,,,,,,,94,148246,21,Female,1,2024/03/15_12:54:45,YZ,None,
,,,,,,calibration,0,10,2,788,3,N,1,left,0.6810174289857969,1,0,,,,,,,,,,,,,,,,,,,,,1,,,,,,,,,,,,,,,,,,,,,,,,,,,,,,,,,,,,,,,,,,,,,,94,148246,21,Female,1,2024/03/15_12:54:45,YZ,None,
,,,,,,calibration,0,10,2,788,4,J,0,right,0.4760398759972304,1,0,,,,,,,,,,,,,,,,,,,,,1,,,,,,,,,,,,,,,,,,,,,,,,,,,,,,,,,,,,,,,,,,,,,,94,148246,21,Female,1,2024/03/15_12:54:45,YZ,None,
,,,,,,calibration,0,10,2,788,5,N,1,left,0.8935923769895453,1,0,,,,,,,,,,,,,,,,,,,,,1,,,,,,,,,,,,,,,,,,,,,,,,,,,,,,,,,,,,,,,,,,,,,,94,148246,21,Female,1,2024/03/15_12:54:45,YZ,None,
,,,,,,calibration,0,10,2,788,6,S,0,right,0.3822943580162246,1,0,,,,,,,,,,,,,,,,,,,,,1,,,,,,,,,,,,,,,,,,,,,,,,,,,,,,,,,,,,,,,,,,,,,,94,148246,21,Female,1,2024/03/15_12:54:45,YZ,None,
,,,,,,calibration,0,10,2,788,7,V,0,left,0.5257652059954125,0,0,,,,,,,,,,,,,,,,,,,,,1,,,,,,,,,,,,,,,,,,,,,,,,,,,,,,,,,,,,,,,,,,,,,,94,148246,21,Female,1,2024/03/15_12:54:45,YZ,None,
,,,,,,calibration,0,10,2,788,8,S,1,right,1.294627659022808,0,0,,,,,,,,,,,,,,,,,,,,,1,,,,,,,,,,,,,,,,,,,,,,,,,,,,,,,,,,,,,,,,,,,,,,94,148246,21,Female,1,2024/03/15_12:54:45,YZ,None,
,,,,,,calibration,0,10,2,788,9,N,0,left,1.5528994069900364,0,0,,,,,,,,,,,,,,,,,,,,,1,,,,,,,,,,,,,,,,,,,,,,,,,,,,,,,,,,,,,,,,,,,,,,94,148246,21,Female,1,2024/03/15_12:54:45,YZ,None,
,,,,,,calibration,0,10,2,788,10,C,0,right,1.9947359440266155,1,0,,,,,,,,,,,,,,,,,,,,,1,,,,,,,,,,,,,,,,,,,,,,,,,,,,,,,,,,,,,,,,,,,,,,94,148246,21,Female,1,2024/03/15_12:54:45,YZ,None,
,,,,,,calibration,0,10,2,788,11,F,0,right,1.0995590199891012,1,0,,,,,,,,,,,,,,,,,,,,,1,,,,,,,,,,,,,,,,,,,,,,,,,,,,,,,,,,,,,,,,,,,,,,94,148246,21,Female,1,2024/03/15_12:54:45,YZ,None,
,,,,,,calibration,0,10,2,788,12,C,1,left,0.9588061149988789,1,0,,,,,,,,,,,,,,,,,,,,,1,,,,,,,,,,,,,,,,,,,,,,,,,,,,,,,,,,,,,,,,,,,,,,94,148246,21,Female,1,2024/03/15_12:54:45,YZ,None,
,,,,,,calibration,0,10,2,788,13,J,0,right,0.5127778919995762,1,0,,,,,,,,,,,,,,,,,,,,,1,,,,,,,,,,,,,,,,,,,,,,,,,,,,,,,,,,,,,,,,,,,,,,94,148246,21,Female,1,2024/03/15_12:54:45,YZ,None,
,,,,,,calibration,0,10,2,788,,,,,,,,0.8263888888888888,0.75,0.2222222222222222,0.7777777777777778,0.0,0.7777777777777778,0.8974891386930651,3,2,0,0,0,7,10,4,9,0,,,,1,,,,,,,,,,,,,,,,,,,,,,,,,,,,,,,,,,,,,,,,,,,,,,94,148246,21,Female,1,2024/03/15_12:54:45,YZ,None,
,,,,,,Calibration,0,,2,788,,,,,,,,,,,,,,,,,,,,,,,,,4,,,1,,,,,,,,,,,,,,,,,,,,,,,,,,,,,,,,,,,,,,,,,,,,,,94,148246,21,Female,1,2024/03/15_12:54:45,YZ,None,
,,,,,,calibration,0,28,2,788,1,V,0,left,1.0374641130038071,0,0,,,,,,,,,,,,,,,,,,,,,1,,,,,,,,,,,,,,,,,,,,,,,,,,,,,,,,,,,,,,,,,,,,,,94,148246,21,Female,1,2024/03/15_12:54:45,YZ,None,
,,,,,,calibration,0,28,2,788,2,V,0,right,1.6832965680223424,1,0,,,,,,,,,,,,,,,,,,,,,1,,,,,,,,,,,,,,,,,,,,,,,,,,,,,,,,,,,,,,,,,,,,,,94,148246,21,Female,1,2024/03/15_12:54:45,YZ,None,
,,,,,,calibration,0,28,2,788,3,F,0,right,1.775600808992749,1,0,,,,,,,,,,,,,,,,,,,,,1,,,,,,,,,,,,,,,,,,,,,,,,,,,,,,,,,,,,,,,,,,,,,,94,148246,21,Female,1,2024/03/15_12:54:45,YZ,None,
,,,,,,calibration,0,28,2,788,4,X,0,right,0.89319359100773,1,0,,,,,,,,,,,,,,,,,,,,,1,,,,,,,,,,,,,,,,,,,,,,,,,,,,,,,,,,,,,,,,,,,,,,94,148246,21,Female,1,2024/03/15_12:54:45,YZ,None,
,,,,,,calibration,0,28,2,788,5,F,1,left,0.7261778740212321,1,0,,,,,,,,,,,,,,,,,,,,,1,,,,,,,,,,,,,,,,,,,,,,,,,,,,,,,,,,,,,,,,,,,,,,94,148246,21,Female,1,2024/03/15_12:54:45,YZ,None,
,,,,,,calibration,0,28,2,788,6,V,0,right,0.5520104030147195,1,0,,,,,,,,,,,,,,,,,,,,,1,,,,,,,,,,,,,,,,,,,,,,,,,,,,,,,,,,,,,,,,,,,,,,94,148246,21,Female,1,2024/03/15_12:54:45,YZ,None,
,,,,,,calibration,0,28,2,788,7,F,1,left,1.1368491530010942,1,0,,,,,,,,,,,,,,,,,,,,,1,,,,,,,,,,,,,,,,,,,,,,,,,,,,,,,,,,,,,,,,,,,,,,94,148246,21,Female,1,2024/03/15_12:54:45,YZ,None,
,,,,,,calibration,0,28,2,788,8,Q,0,right,0.4182579460029956,1,0,,,,,,,,,,,,,,,,,,,,,1,,,,,,,,,,,,,,,,,,,,,,,,,,,,,,,,,,,,,,,,,,,,,,94,148246,21,Female,1,2024/03/15_12:54:45,YZ,None,
,,,,,,calibration,0,28,2,788,9,S,0,right,0.9278157810040284,1,0,,,,,,,,,,,,,,,,,,,,,1,,,,,,,,,,,,,,,,,,,,,,,,,,,,,,,,,,,,,,,,,,,,,,94,148246,21,Female,1,2024/03/15_12:54:45,YZ,None,
,,,,,,calibration,0,28,2,788,10,Q,1,left,0.9988107999961358,1,0,,,,,,,,,,,,,,,,,,,,,1,,,,,,,,,,,,,,,,,,,,,,,,,,,,,,,,,,,,,,,,,,,,,,94,148246,21,Female,1,2024/03/15_12:54:45,YZ,None,
,,,,,,calibration,0,28,2,788,11,F,0,right,0.39539330801926553,1,0,,,,,,,,,,,,,,,,,,,,,1,,,,,,,,,,,,,,,,,,,,,,,,,,,,,,,,,,,,,,,,,,,,,,94,148246,21,Female,1,2024/03/15_12:54:45,YZ,None,
,,,,,,calibration,0,28,2,788,12,Q,1,left,0.7895510579983238,1,0,,,,,,,,,,,,,,,,,,,,,1,,,,,,,,,,,,,,,,,,,,,,,,,,,,,,,,,,,,,,,,,,,,,,94,148246,21,Female,1,2024/03/15_12:54:45,YZ,None,
,,,,,,calibration,0,28,2,788,13,J,0,right,0.05423473901464604,1,0,,,,,,,,,,,,,,,,,,,,,1,,,,,,,,,,,,,,,,,,,,,,,,,,,,,,,,,,,,,,,,,,,,,,94,148246,21,Female,1,2024/03/15_12:54:45,YZ,None,
,,,,,,calibration,0,28,2,788,,,,,,,,0.9722222222222222,1.0,0.1111111111111111,0.8888888888888888,0.0,0.8888888888888888,0.8760504725460823,4,1,0,0,0,8,12,4,9,0,,,,1,,,,,,,,,,,,,,,,,,,,,,,,,,,,,,,,,,,,,,,,,,,,,,94,148246,21,Female,1,2024/03/15_12:54:45,YZ,None,
,,,,,,Calibration,0,,2,788,,,,,,,,,,,,,,,,,,,,,,,,,5,,,1,,,,,,,,,,,,,,,,,,,,,,,,,,,,,,,,,,,,,,,,,,,,,,94,148246,21,Female,1,2024/03/15_12:54:45,YZ,None,
,,,,,,calibration,0,36,2,679,1,F,0,right,1.5126052949926816,1,0,,,,,,,,,,,,,,,,,,,,,1,,,,,,,,,,,,,,,,,,,,,,,,,,,,,,,,,,,,,,,,,,,,,,94,148246,21,Female,1,2024/03/15_12:54:45,YZ,None,
,,,,,,calibration,0,36,2,679,2,V,0,right,0.9739785080018919,1,0,,,,,,,,,,,,,,,,,,,,,1,,,,,,,,,,,,,,,,,,,,,,,,,,,,,,,,,,,,,,,,,,,,,,94,148246,21,Female,1,2024/03/15_12:54:45,YZ,None,
,,,,,,calibration,0,36,2,679,3,S,0,right,0.5938744729792234,1,0,,,,,,,,,,,,,,,,,,,,,1,,,,,,,,,,,,,,,,,,,,,,,,,,,,,,,,,,,,,,,,,,,,,,94,148246,21,Female,1,2024/03/15_12:54:45,YZ,None,
,,,,,,calibration,0,36,2,679,4,F,0,left,1.1318313210213091,0,0,,,,,,,,,,,,,,,,,,,,,1,,,,,,,,,,,,,,,,,,,,,,,,,,,,,,,,,,,,,,,,,,,,,,94,148246,21,Female,1,2024/03/15_12:54:45,YZ,None,
,,,,,,calibration,0,36,2,679,5,V,0,left,0.8635494099871721,0,0,,,,,,,,,,,,,,,,,,,,,1,,,,,,,,,,,,,,,,,,,,,,,,,,,,,,,,,,,,,,,,,,,,,,94,148246,21,Female,1,2024/03/15_12:54:45,YZ,None,
,,,,,,calibration,0,36,2,679,6,F,1,right,1.2752073049778119,0,0,,,,,,,,,,,,,,,,,,,,,1,,,,,,,,,,,,,,,,,,,,,,,,,,,,,,,,,,,,,,,,,,,,,,94,148246,21,Female,1,2024/03/15_12:54:45,YZ,None,
,,,,,,calibration,0,36,2,679,7,V,1,left,1.2712489079858642,1,0,,,,,,,,,,,,,,,,,,,,,1,,,,,,,,,,,,,,,,,,,,,,,,,,,,,,,,,,,,,,,,,,,,,,94,148246,21,Female,1,2024/03/15_12:54:45,YZ,None,
,,,,,,calibration,0,36,2,679,8,C,0,right,0.829931882006349,1,0,,,,,,,,,,,,,,,,,,,,,1,,,,,,,,,,,,,,,,,,,,,,,,,,,,,,,,,,,,,,,,,,,,,,94,148246,21,Female,1,2024/03/15_12:54:45,YZ,None,
,,,,,,calibration,0,36,2,679,9,N,0,right,0.6751567119790707,1,0,,,,,,,,,,,,,,,,,,,,,1,,,,,,,,,,,,,,,,,,,,,,,,,,,,,,,,,,,,,,,,,,,,,,94,148246,21,Female,1,2024/03/15_12:54:45,YZ,None,
,,,,,,calibration,0,36,2,679,10,V,0,right,1.1436579510045704,1,0,,,,,,,,,,,,,,,,,,,,,1,,,,,,,,,,,,,,,,,,,,,,,,,,,,,,,,,,,,,,,,,,,,,,94,148246,21,Female,1,2024/03/15_12:54:45,YZ,None,
,,,,,,calibration,0,36,2,679,11,X,0,right,1.1313129079935607,1,0,,,,,,,,,,,,,,,,,,,,,1,,,,,,,,,,,,,,,,,,,,,,,,,,,,,,,,,,,,,,,,,,,,,,94,148246,21,Female,1,2024/03/15_12:54:45,YZ,None,
,,,,,,calibration,0,36,2,679,12,V,1,left,0.9660756279772613,1,0,,,,,,,,,,,,,,,,,,,,,1,,,,,,,,,,,,,,,,,,,,,,,,,,,,,,,,,,,,,,,,,,,,,,94,148246,21,Female,1,2024/03/15_12:54:45,YZ,None,
,,,,,,calibration,0,36,2,679,13,C,0,right,0.891888309008209,1,0,,,,,,,,,,,,,,,,,,,,,1,,,,,,,,,,,,,,,,,,,,,,,,,,,,,,,,,,,,,,,,,,,,,,94,148246,21,Female,1,2024/03/15_12:54:45,YZ,None,
,,,,,,calibration,0,36,2,679,14,V,1,left,0.9863150820019655,1,0,,,,,,,,,,,,,,,,,,,,,1,,,,,,,,,,,,,,,,,,,,,,,,,,,,,,,,,,,,,,,,,,,,,,94,148246,21,Female,1,2024/03/15_12:54:45,YZ,None,
,,,,,,calibration,0,36,2,679,,,,,,,,0.8374999999999999,0.75,0.2,0.8,0.0,0.8,1.0176166922797816,3,2,0,0,0,8,11,4,10,0,,,,1,,,,,,,,,,,,,,,,,,,,,,,,,,,,,,,,,,,,,,,,,,,,,,94,148246,21,Female,1,2024/03/15_12:54:45,YZ,None,
,,,,,,Calibration,0,,2,679,,,,,,,,,,,,,,,,,,,,,,,,,6,,,1,,,,,,,,,,,,,,,,,,,,,,,,,,,,,,,,,,,,,,,,,,,,,,94,148246,21,Female,1,2024/03/15_12:54:45,YZ,None,
,,,,,,calibration,0,21,2,679,1,F,0,right,1.6505167440045625,1,0,,,,,,,,,,,,,,,,,,,,,1,,,,,,,,,,,,,,,,,,,,,,,,,,,,,,,,,,,,,,,,,,,,,,94,148246,21,Female,1,2024/03/15_12:54:45,YZ,None,
,,,,,,calibration,0,21,2,679,2,C,0,right,0.647350891988026,1,0,,,,,,,,,,,,,,,,,,,,,1,,,,,,,,,,,,,,,,,,,,,,,,,,,,,,,,,,,,,,,,,,,,,,94,148246,21,Female,1,2024/03/15_12:54:45,YZ,None,
,,,,,,calibration,0,21,2,679,3,V,0,right,0.5427469580026809,1,0,,,,,,,,,,,,,,,,,,,,,1,,,,,,,,,,,,,,,,,,,,,,,,,,,,,,,,,,,,,,,,,,,,,,94,148246,21,Female,1,2024/03/15_12:54:45,YZ,None,
,,,,,,calibration,0,21,2,679,4,C,1,left,0.798274618020514,1,0,,,,,,,,,,,,,,,,,,,,,1,,,,,,,,,,,,,,,,,,,,,,,,,,,,,,,,,,,,,,,,,,,,,,94,148246,21,Female,1,2024/03/15_12:54:45,YZ,None,
,,,,,,calibration,0,21,2,679,5,V,1,left,1.4645615740155336,1,0,,,,,,,,,,,,,,,,,,,,,1,,,,,,,,,,,,,,,,,,,,,,,,,,,,,,,,,,,,,,,,,,,,,,94,148246,21,Female,1,2024/03/15_12:54:45,YZ,None,
,,,,,,calibration,0,21,2,679,6,S,0,right,0.8600349609914701,1,0,,,,,,,,,,,,,,,,,,,,,1,,,,,,,,,,,,,,,,,,,,,,,,,,,,,,,,,,,,,,,,,,,,,,94,148246,21,Female,1,2024/03/15_12:54:45,YZ,None,
,,,,,,calibration,0,21,2,679,7,J,0,right,0.7358686270017643,1,0,,,,,,,,,,,,,,,,,,,,,1,,,,,,,,,,,,,,,,,,,,,,,,,,,,,,,,,,,,,,,,,,,,,,94,148246,21,Female,1,2024/03/15_12:54:45,YZ,None,
,,,,,,calibration,0,21,2,679,8,Q,0,right,0.803520996007137,1,0,,,,,,,,,,,,,,,,,,,,,1,,,,,,,,,,,,,,,,,,,,,,,,,,,,,,,,,,,,,,,,,,,,,,94,148246,21,Female,1,2024/03/15_12:54:45,YZ,None,
,,,,,,calibration,0,21,2,679,9,X,0,right,0.8546311009849887,1,0,,,,,,,,,,,,,,,,,,,,,1,,,,,,,,,,,,,,,,,,,,,,,,,,,,,,,,,,,,,,,,,,,,,,94,148246,21,Female,1,2024/03/15_12:54:45,YZ,None,
,,,,,,calibration,0,21,2,679,10,N,0,right,0.897455419995822,1,0,,,,,,,,,,,,,,,,,,,,,1,,,,,,,,,,,,,,,,,,,,,,,,,,,,,,,,,,,,,,,,,,,,,,94,148246,21,Female,1,2024/03/15_12:54:45,YZ,None,
,,,,,,calibration,0,21,2,679,11,X,1,left,0.8084954569931142,1,0,,,,,,,,,,,,,,,,,,,,,1,,,,,,,,,,,,,,,,,,,,,,,,,,,,,,,,,,,,,,,,,,,,,,94,148246,21,Female,1,2024/03/15_12:54:45,YZ,None,
,,,,,,calibration,0,21,2,679,12,N,1,left,0.95972076599719,1,0,,,,,,,,,,,,,,,,,,,,,1,,,,,,,,,,,,,,,,,,,,,,,,,,,,,,,,,,,,,,,,,,,,,,94,148246,21,Female,1,2024/03/15_12:54:45,YZ,None,
,,,,,,calibration,0,21,2,679,13,F,0,right,0.7156392619945109,1,0,,,,,,,,,,,,,,,,,,,,,1,,,,,,,,,,,,,,,,,,,,,,,,,,,,,,,,,,,,,,,,,,,,,,94,148246,21,Female,1,2024/03/15_12:54:45,YZ,None,
,,,,,,calibration,0,21,2,679,14,C,0,right,0.741662294982234,1,0,,,,,,,,,,,,,,,,,,,,,1,,,,,,,,,,,,,,,,,,,,,,,,,,,,,,,,,,,,,,,,,,,,,,94,148246,21,Female,1,2024/03/15_12:54:45,YZ,None,
,,,,,,calibration,0,21,2,679,,,,,,,,1.0,1.0,0.0,1.0,0.0,1.0,0.8914628336413963,4,0,0,0,0,10,14,4,10,0,,,,1,,,,,,,,,,,,,,,,,,,,,,,,,,,,,,,,,,,,,,,,,,,,,,94,148246,21,Female,1,2024/03/15_12:54:45,YZ,None,
,,,,,,Calibration,0,,2,679,,,,,,,,,,,,,,,,,,,,,,,,,7,,,1,,,,,,,,,,,,,,,,,,,,,,,,,,,,,,,,,,,,,,,,,,,,,,94,148246,21,Female,1,2024/03/15_12:54:45,YZ,None,
,,,,,,calibration,0,14,2,583,1,X,0,right,1.292607533017872,1,0,,,,,,,,,,,,,,,,,,,,,1,,,,,,,,,,,,,,,,,,,,,,,,,,,,,,,,,,,,,,,,,,,,,,94,148246,21,Female,1,2024/03/15_12:54:45,YZ,None,
,,,,,,calibration,0,14,2,583,2,Q,0,right,0.9677703530178405,1,0,,,,,,,,,,,,,,,,,,,,,1,,,,,,,,,,,,,,,,,,,,,,,,,,,,,,,,,,,,,,,,,,,,,,94,148246,21,Female,1,2024/03/15_12:54:45,YZ,None,
,,,,,,calibration,0,14,2,583,3,S,0,right,0.7250549440213945,1,0,,,,,,,,,,,,,,,,,,,,,1,,,,,,,,,,,,,,,,,,,,,,,,,,,,,,,,,,,,,,,,,,,,,,94,148246,21,Female,1,2024/03/15_12:54:45,YZ,None,
,,,,,,calibration,0,14,2,583,4,Q,1,left,0.7074990810069721,1,0,,,,,,,,,,,,,,,,,,,,,1,,,,,,,,,,,,,,,,,,,,,,,,,,,,,,,,,,,,,,,,,,,,,,94,148246,21,Female,1,2024/03/15_12:54:45,YZ,None,
,,,,,,calibration,0,14,2,583,5,V,0,right,1.0144628979905974,1,0,,,,,,,,,,,,,,,,,,,,,1,,,,,,,,,,,,,,,,,,,,,,,,,,,,,,,,,,,,,,,,,,,,,,94,148246,21,Female,1,2024/03/15_12:54:45,YZ,None,
,,,,,,calibration,0,14,2,583,6,Q,1,left,1.3649228530121036,1,0,,,,,,,,,,,,,,,,,,,,,1,,,,,,,,,,,,,,,,,,,,,,,,,,,,,,,,,,,,,,,,,,,,,,94,148246,21,Female,1,2024/03/15_12:54:45,YZ,None,
,,,,,,calibration,0,14,2,583,7,C,0,right,0.7236700630164705,1,0,,,,,,,,,,,,,,,,,,,,,1,,,,,,,,,,,,,,,,,,,,,,,,,,,,,,,,,,,,,,,,,,,,,,94,148246,21,Female,1,2024/03/15_12:54:45,YZ,None,
,,,,,,calibration,0,14,2,583,8,Q,1,left,0.7913443139987066,1,0,,,,,,,,,,,,,,,,,,,,,1,,,,,,,,,,,,,,,,,,,,,,,,,,,,,,,,,,,,,,,,,,,,,,94,148246,21,Female,1,2024/03/15_12:54:45,YZ,None,
,,,,,,calibration,0,14,2,583,9,V,0,right,0.9084096489823423,1,0,,,,,,,,,,,,,,,,,,,,,1,,,,,,,,,,,,,,,,,,,,,,,,,,,,,,,,,,,,,,,,,,,,,,94,148246,21,Female,1,2024/03/15_12:54:45,YZ,None,
,,,,,,calibration,0,14,2,583,10,Q,1,left,0.7811104150023311,1,0,,,,,,,,,,,,,,,,,,,,,1,,,,,,,,,,,,,,,,,,,,,,,,,,,,,,,,,,,,,,,,,,,,,,94,148246,21,Female,1,2024/03/15_12:54:45,YZ,None,
,,,,,,calibration,0,14,2,583,11,V,1,left,1.160086941003101,1,0,,,,,,,,,,,,,,,,,,,,,1,,,,,,,,,,,,,,,,,,,,,,,,,,,,,,,,,,,,,,,,,,,,,,94,148246,21,Female,1,2024/03/15_12:54:45,YZ,None,
,,,,,,calibration,0,14,2,583,12,S,0,left,nan,0,1,,,,,,,,,,,,,,,,,,,,,1,,,,,,,,,,,,,,,,,,,,,,,,,,,,,,,,,,,,,,,,,,,,,,94,148246,21,Female,1,2024/03/15_12:54:45,YZ,None,
,,,,,,calibration,0,14,2,583,13,Q,0,right,0.25418195099337026,1,0,,,,,,,,,,,,,,,,,,,,,1,,,,,,,,,,,,,,,,,,,,,,,,,,,,,,,,,,,,,,,,,,,,,,94,148246,21,Female,1,2024/03/15_12:54:45,YZ,None,
,,,,,,calibration,0,14,2,583,14,J,0,left,0.0,0,0,,,,,,,,,,,,,,,,,,,,,1,,,,,,,,,,,,,,,,,,,,,,,,,,,,,,,,,,,,,,,,,,,,,,94,148246,21,Female,1,2024/03/15_12:54:45,YZ,None,
,,,,,,calibration,0,14,2,583,15,V,0,left,nan,0,1,,,,,,,,,,,,,,,,,,,,,1,,,,,,,,,,,,,,,,,,,,,,,,,,,,,,,,,,,,,,,,,,,,,,94,148246,21,Female,1,2024/03/15_12:54:45,YZ,None,
,,,,,,calibration,0,14,2,583,,,,,,,,0.975,1.0,0.1,0.875,0.13333333333333333,0.7666666666666667,0.8223939226971617,5,1,0,2,2,7,12,5,10,0,,,,1,,,,,,,,,,,,,,,,,,,,,,,,,,,,,,,,,,,,,,,,,,,,,,94,148246,21,Female,1,2024/03/15_12:54:45,YZ,None,
,,,,,,Calibration,0,,2,583,,,,,,,,,,,,,,,,,,,,,,,,,8,,,1,,,,,,,,,,,,,,,,,,,,,,,,,,,,,,,,,,,,,,,,,,,,,,94,148246,21,Female,1,2024/03/15_12:54:45,YZ,None,
,,,,,,calibration,0,36,2,500,1,N,0,left,0.7152616459934507,0,0,,,,,,,,,,,,,,,,,,,,,1,,,,,,,,,,,,,,,,,,,,,,,,,,,,,,,,,,,,,,,,,,,,,,94,148246,21,Female,1,2024/03/15_12:54:45,YZ,None,
,,,,,,calibration,0,36,2,500,2,V,0,left,nan,0,1,,,,,,,,,,,,,,,,,,,,,1,,,,,,,,,,,,,,,,,,,,,,,,,,,,,,,,,,,,,,,,,,,,,,94,148246,21,Female,1,2024/03/15_12:54:45,YZ,None,
,,,,,,calibration,0,36,2,500,3,N,1,left,nan,0,1,,,,,,,,,,,,,,,,,,,,,1,,,,,,,,,,,,,,,,,,,,,,,,,,,,,,,,,,,,,,,,,,,,,,94,148246,21,Female,1,2024/03/15_12:54:45,YZ,None,
,,,,,,calibration,0,36,2,500,4,F,0,right,0.0,1,0,,,,,,,,,,,,,,,,,,,,,1,,,,,,,,,,,,,,,,,,,,,,,,,,,,,,,,,,,,,,,,,,,,,,94,148246,21,Female,1,2024/03/15_12:54:45,YZ,None,
,,,,,,calibration,0,36,2,500,5,J,0,right,0.8054381119727623,1,0,,,,,,,,,,,,,,,,,,,,,1,,,,,,,,,,,,,,,,,,,,,,,,,,,,,,,,,,,,,,,,,,,,,,94,148246,21,Female,1,2024/03/15_12:54:45,YZ,None,
,,,,,,calibration,0,36,2,500,6,F,1,right,nan,0,1,,,,,,,,,,,,,,,,,,,,,1,,,,,,,,,,,,,,,,,,,,,,,,,,,,,,,,,,,,,,,,,,,,,,94,148246,21,Female,1,2024/03/15_12:54:45,YZ,None,
,,,,,,calibration,0,36,2,500,7,J,1,right,0.2734981619869359,0,0,,,,,,,,,,,,,,,,,,,,,1,,,,,,,,,,,,,,,,,,,,,,,,,,,,,,,,,,,,,,,,,,,,,,94,148246,21,Female,1,2024/03/15_12:54:45,YZ,None,
,,,,,,calibration,0,36,2,500,8,N,0,right,0.7475883070146665,1,0,,,,,,,,,,,,,,,,,,,,,1,,,,,,,,,,,,,,,,,,,,,,,,,,,,,,,,,,,,,,,,,,,,,,94,148246,21,Female,1,2024/03/15_12:54:45,YZ,None,
,,,,,,calibration,0,36,2,500,9,J,1,left,0.7092524149920791,1,0,,,,,,,,,,,,,,,,,,,,,1,,,,,,,,,,,,,,,,,,,,,,,,,,,,,,,,,,,,,,,,,,,,,,94,148246,21,Female,1,2024/03/15_12:54:45,YZ,None,
,,,,,,calibration,0,36,2,500,10,F,0,right,0.4913919900136534,1,0,,,,,,,,,,,,,,,,,,,,,1,,,,,,,,,,,,,,,,,,,,,,,,,,,,,,,,,,,,,,,,,,,,,,94,148246,21,Female,1,2024/03/15_12:54:45,YZ,None,
,,,,,,calibration,0,36,2,500,11,Q,0,right,0.5859868400148116,1,0,,,,,,,,,,,,,,,,,,,,,1,,,,,,,,,,,,,,,,,,,,,,,,,,,,,,,,,,,,,,,,,,,,,,94,148246,21,Female,1,2024/03/15_12:54:45,YZ,None,
,,,,,,calibration,0,36,2,500,12,X,0,right,0.577835980016971,1,0,,,,,,,,,,,,,,,,,,,,,1,,,,,,,,,,,,,,,,,,,,,,,,,,,,,,,,,,,,,,,,,,,,,,94,148246,21,Female,1,2024/03/15_12:54:45,YZ,None,
,,,,,,calibration,0,36,2,500,13,J,0,right,0.5909328069828916,1,0,,,,,,,,,,,,,,,,,,,,,1,,,,,,,,,,,,,,,,,,,,,,,,,,,,,,,,,,,,,,,,,,,,,,94,148246,21,Female,1,2024/03/15_12:54:45,YZ,None,
,,,,,,calibration,0,36,2,500,14,F,0,right,nan,0,1,,,,,,,,,,,,,,,,,,,,,1,,,,,,,,,,,,,,,,,,,,,,,,,,,,,,,,,,,,,,,,,,,,,,94,148246,21,Female,1,2024/03/15_12:54:45,YZ,None,
,,,,,,calibration,0,36,2,500,15,S,0,right,0.642037486017216,1,0,,,,,,,,,,,,,,,,,,,,,1,,,,,,,,,,,,,,,,,,,,,,,,,,,,,,,,,,,,,,,,,,,,,,94,148246,21,Female,1,2024/03/15_12:54:45,YZ,None,
,,,,,,calibration,0,36,2,500,16,X,0,right,0.5682562440051697,1,0,,,,,,,,,,,,,,,,,,,,,1,,,,,,,,,,,,,,,,,,,,,,,,,,,,,,,,,,,,,,,,,,,,,,94,148246,21,Female,1,2024/03/15_12:54:45,YZ,None,
,,,,,,calibration,0,36,2,500,,,,,,,,0.7083333333333333,0.25,0.08333333333333333,0.9,0.25,0.6666666666666666,0.558956665750884,1,1,2,2,4,9,10,4,12,0,,,,1,,,,,,,,,,,,,,,,,,,,,,,,,,,,,,,,,,,,,,,,,,,,,,94,148246,21,Female,1,2024/03/15_12:54:45,YZ,None,
,,,,,,Calibration,0,,2,500,,,,,,,,,,,,,,,,,,,,,,,,,9,,,1,,,,,,,,,,,,,,,,,,,,,,,,,,,,,,,,,,,,,,,,,,,,,,94,148246,21,Female,1,2024/03/15_12:54:45,YZ,None,
,,,,,,calibration,0,33,2,583,1,V,0,right,0.47824160000891425,1,0,,,,,,,,,,,,,,,,,,,,,1,,,,,,,,,,,,,,,,,,,,,,,,,,,,,,,,,,,,,,,,,,,,,,94,148246,21,Female,1,2024/03/15_12:54:45,YZ,None,
,,,,,,calibration,0,33,2,583,2,Q,0,right,0.520269956003176,1,0,,,,,,,,,,,,,,,,,,,,,1,,,,,,,,,,,,,,,,,,,,,,,,,,,,,,,,,,,,,,,,,,,,,,94,148246,21,Female,1,2024/03/15_12:54:45,YZ,None,
,,,,,,calibration,0,33,2,583,3,C,0,right,0.47661338900798,1,0,,,,,,,,,,,,,,,,,,,,,1,,,,,,,,,,,,,,,,,,,,,,,,,,,,,,,,,,,,,,,,,,,,,,94,148246,21,Female,1,2024/03/15_12:54:45,YZ,None,
,,,,,,calibration,0,33,2,583,4,Q,1,left,0.6316281360050198,1,0,,,,,,,,,,,,,,,,,,,,,1,,,,,,,,,,,,,,,,,,,,,,,,,,,,,,,,,,,,,,,,,,,,,,94,148246,21,Female,1,2024/03/15_12:54:45,YZ,None,
,,,,,,calibration,0,33,2,583,5,F,0,right,0.47379863800597377,1,0,,,,,,,,,,,,,,,,,,,,,1,,,,,,,,,,,,,,,,,,,,,,,,,,,,,,,,,,,,,,,,,,,,,,94,148246,21,Female,1,2024/03/15_12:54:45,YZ,None,
,,,,,,calibration,0,33,2,583,6,X,0,right,0.4975783370027784,1,0,,,,,,,,,,,,,,,,,,,,,1,,,,,,,,,,,,,,,,,,,,,,,,,,,,,,,,,,,,,,,,,,,,,,94,148246,21,Female,1,2024/03/15_12:54:45,YZ,None,
,,,,,,calibration,0,33,2,583,7,F,1,left,0.7416779990016948,1,0,,,,,,,,,,,,,,,,,,,,,1,,,,,,,,,,,,,,,,,,,,,,,,,,,,,,,,,,,,,,,,,,,,,,94,148246,21,Female,1,2024/03/15_12:54:45,YZ,None,
,,,,,,calibration,0,33,2,583,8,C,0,right,0.4599791220098268,1,0,,,,,,,,,,,,,,,,,,,,,1,,,,,,,,,,,,,,,,,,,,,,,,,,,,,,,,,,,,,,,,,,,,,,94,148246,21,Female,1,2024/03/15_12:54:45,YZ,None,
,,,,,,calibration,0,33,2,583,9,X,0,right,0.6656612919759937,1,0,,,,,,,,,,,,,,,,,,,,,1,,,,,,,,,,,,,,,,,,,,,,,,,,,,,,,,,,,,,,,,,,,,,,94,148246,21,Female,1,2024/03/15_12:54:45,YZ,None,
,,,,,,calibration,0,33,2,583,10,Q,0,left,0.3233021199994255,0,0,,,,,,,,,,,,,,,,,,,,,1,,,,,,,,,,,,,,,,,,,,,,,,,,,,,,,,,,,,,,,,,,,,,,94,148246,21,Female,1,2024/03/15_12:54:45,YZ,None,
,,,,,,calibration,0,33,2,583,11,V,0,right,0.37681948399404064,1,0,,,,,,,,,,,,,,,,,,,,,1,,,,,,,,,,,,,,,,,,,,,,,,,,,,,,,,,,,,,,,,,,,,,,94,148246,21,Female,1,2024/03/15_12:54:45,YZ,None,
,,,,,,calibration,0,33,2,583,12,F,0,right,0.4695687759958673,1,0,,,,,,,,,,,,,,,,,,,,,1,,,,,,,,,,,,,,,,,,,,,,,,,,,,,,,,,,,,,,,,,,,,,,94,148246,21,Female,1,2024/03/15_12:54:45,YZ,None,
,,,,,,calibration,0,33,2,583,13,V,1,right,0.5123351259971969,0,0,,,,,,,,,,,,,,,,,,,,,1,,,,,,,,,,,,,,,,,,,,,,,,,,,,,,,,,,,,,,,,,,,,,,94,148246,21,Female,1,2024/03/15_12:54:45,YZ,None,
,,,,,,calibration,0,33,2,583,14,J,0,right,0.4663014529796783,1,0,,,,,,,,,,,,,,,,,,,,,1,,,,,,,,,,,,,,,,,,,,,,,,,,,,,,,,,,,,,,,,,,,,,,94,148246,21,Female,1,2024/03/15_12:54:45,YZ,None,
,,,,,,calibration,0,33,2,583,15,V,1,left,0.75206632699701,1,0,,,,,,,,,,,,,,,,,,,,,1,,,,,,,,,,,,,,,,,,,,,,,,,,,,,,,,,,,,,,,,,,,,,,94,148246,21,Female,1,2024/03/15_12:54:45,YZ,None,
,,,,,,calibration,0,33,2,583,,,,,,,,0.8920454545454546,0.75,0.09090909090909091,0.9090909090909091,0.0,0.9090909090909091,0.5230561169989717,3,1,0,0,0,10,13,4,11,0,,,,1,,,,,,,,,,,,,,,,,,,,,,,,,,,,,,,,,,,,,,,,,,,,,,94,148246,21,Female,1,2024/03/15_12:54:45,YZ,None,
,,,,,,Calibration,0,,2,583,,,,,,,,,,,,,,,,,,,,,,,,,10,,,1,,,,,,,,,,,,,,,,,,,,,,,,,,,,,,,,,,,,,,,,,,,,,,94,148246,21,Female,1,2024/03/15_12:54:45,YZ,None,
,,,,,,calibration,0,2,2,500,1,N,0,right,0.8915575909777544,1,0,,,,,,,,,,,,,,,,,,,,,1,,,,,,,,,,,,,,,,,,,,,,,,,,,,,,,,,,,,,,,,,,,,,,94,148246,21,Female,1,2024/03/15_12:54:45,YZ,None,
,,,,,,calibration,0,2,2,500,2,V,0,right,0.4204176779894624,1,0,,,,,,,,,,,,,,,,,,,,,1,,,,,,,,,,,,,,,,,,,,,,,,,,,,,,,,,,,,,,,,,,,,,,94,148246,21,Female,1,2024/03/15_12:54:45,YZ,None,
,,,,,,calibration,0,2,2,500,3,S,0,right,0.5419224679935724,1,0,,,,,,,,,,,,,,,,,,,,,1,,,,,,,,,,,,,,,,,,,,,,,,,,,,,,,,,,,,,,,,,,,,,,94,148246,21,Female,1,2024/03/15_12:54:45,YZ,None,
,,,,,,calibration,0,2,2,500,4,F,0,right,0.7580523070064373,1,0,,,,,,,,,,,,,,,,,,,,,1,,,,,,,,,,,,,,,,,,,,,,,,,,,,,,,,,,,,,,,,,,,,,,94,148246,21,Female,1,2024/03/15_12:54:45,YZ,None,
,,,,,,calibration,0,2,2,500,5,X,0,right,0.5989370799798053,1,0,,,,,,,,,,,,,,,,,,,,,1,,,,,,,,,,,,,,,,,,,,,,,,,,,,,,,,,,,,,,,,,,,,,,94,148246,21,Female,1,2024/03/15_12:54:45,YZ,None,
,,,,,,calibration,0,2,2,500,6,F,1,left,0.7154856210108846,1,0,,,,,,,,,,,,,,,,,,,,,1,,,,,,,,,,,,,,,,,,,,,,,,,,,,,,,,,,,,,,,,,,,,,,94,148246,21,Female,1,2024/03/15_12:54:45,YZ,None,
,,,,,,calibration,0,2,2,500,7,X,1,right,0.5242015229887329,0,0,,,,,,,,,,,,,,,,,,,,,1,,,,,,,,,,,,,,,,,,,,,,,,,,,,,,,,,,,,,,,,,,,,,,94,148246,21,Female,1,2024/03/15_12:54:45,YZ,None,
,,,,,,calibration,0,2,2,500,8,N,0,right,0.5719352340092883,1,0,,,,,,,,,,,,,,,,,,,,,1,,,,,,,,,,,,,,,,,,,,,,,,,,,,,,,,,,,,,,,,,,,,,,94,148246,21,Female,1,2024/03/15_12:54:45,YZ,None,
,,,,,,calibration,0,2,2,500,9,X,1,left,0.4974871060112491,1,0,,,,,,,,,,,,,,,,,,,,,1,,,,,,,,,,,,,,,,,,,,,,,,,,,,,,,,,,,,,,,,,,,,,,94,148246,21,Female,1,2024/03/15_12:54:45,YZ,None,
,,,,,,calibration,0,2,2,500,10,V,0,right,0.4088264890015125,1,0,,,,,,,,,,,,,,,,,,,,,1,,,,,,,,,,,,,,,,,,,,,,,,,,,,,,,,,,,,,,,,,,,,,,94,148246,21,Female,1,2024/03/15_12:54:45,YZ,None,
,,,,,,calibration,0,2,2,500,11,J,0,right,0.4318622059945483,1,0,,,,,,,,,,,,,,,,,,,,,1,,,,,,,,,,,,,,,,,,,,,,,,,,,,,,,,,,,,,,,,,,,,,,94,148246,21,Female,1,2024/03/15_12:54:45,YZ,None,
,,,,,,calibration,0,2,2,500,12,F,0,right,0.914650757011259,1,0,,,,,,,,,,,,,,,,,,,,,1,,,,,,,,,,,,,,,,,,,,,,,,,,,,,,,,,,,,,,,,,,,,,,94,148246,21,Female,1,2024/03/15_12:54:45,YZ,None,
,,,,,,calibration,0,2,2,500,13,S,0,right,0.5743081620021258,1,0,,,,,,,,,,,,,,,,,,,,,1,,,,,,,,,,,,,,,,,,,,,,,,,,,,,,,,,,,,,,,,,,,,,,94,148246,21,Female,1,2024/03/15_12:54:45,YZ,None,
,,,,,,calibration,0,2,2,500,14,F,1,left,0.763921545993071,1,0,,,,,,,,,,,,,,,,,,,,,1,,,,,,,,,,,,,,,,,,,,,,,,,,,,,,,,,,,,,,,,,,,,,,94,148246,21,Female,1,2024/03/15_12:54:45,YZ,None,
,,,,,,calibration,0,2,2,500,15,V,0,right,0.2955088120070286,1,0,,,,,,,,,,,,,,,,,,,,,1,,,,,,,,,,,,,,,,,,,,,,,,,,,,,,,,,,,,,,,,,,,,,,94,148246,21,Female,1,2024/03/15_12:54:45,YZ,None,
,,,,,,calibration,0,2,2,500,16,N,0,right,0.36432105497806333,1,0,,,,,,,,,,,,,,,,,,,,,1,,,,,,,,,,,,,,,,,,,,,,,,,,,,,,,,,,,,,,,,,,,,,,94,148246,21,Female,1,2024/03/15_12:54:45,YZ,None,
,,,,,,calibration,0,2,2,500,,,,,,,,0.9375,0.75,0.0,1.0,0.0,1.0,0.5795872271846747,3,0,0,0,0,12,15,4,12,0,,,,1,,,,,,,,,,,,,,,,,,,,,,,,,,,,,,,,,,,,,,,,,,,,,,94,148246,21,Female,1,2024/03/15_12:54:45,YZ,None,
,,,,,,Calibration,0,,2,500,,,,,,,,,,,,,,,,,,,,,,,,,11,,,1,,,,,,,,,,,,,,,,,,,,,,,,,,,,,,,,,,,,,,,,,,,,,,94,148246,21,Female,1,2024/03/15_12:54:45,YZ,None,
,,,,,,calibration,0,22,2,426,1,F,0,right,0.43486005198792554,1,0,,,,,,,,,,,,,,,,,,,,,1,,,,,,,,,,,,,,,,,,,,,,,,,,,,,,,,,,,,,,,,,,,,,,94,148246,21,Female,1,2024/03/15_12:54:45,YZ,None,
,,,,,,calibration,0,22,2,426,2,Q,0,right,0.3997403559915256,1,0,,,,,,,,,,,,,,,,,,,,,1,,,,,,,,,,,,,,,,,,,,,,,,,,,,,,,,,,,,,,,,,,,,,,94,148246,21,Female,1,2024/03/15_12:54:45,YZ,None,
,,,,,,calibration,0,22,2,426,3,N,0,right,0.4687579099845607,1,0,,,,,,,,,,,,,,,,,,,,,1,,,,,,,,,,,,,,,,,,,,,,,,,,,,,,,,,,,,,,,,,,,,,,94,148246,21,Female,1,2024/03/15_12:54:45,YZ,None,
,,,,,,calibration,0,22,2,426,4,Q,1,left,0.5929062270151917,1,0,,,,,,,,,,,,,,,,,,,,,1,,,,,,,,,,,,,,,,,,,,,,,,,,,,,,,,,,,,,,,,,,,,,,94,148246,21,Female,1,2024/03/15_12:54:45,YZ,None,
,,,,,,calibration,0,22,2,426,5,V,0,right,0.3819917280052323,1,0,,,,,,,,,,,,,,,,,,,,,1,,,,,,,,,,,,,,,,,,,,,,,,,,,,,,,,,,,,,,,,,,,,,,94,148246,21,Female,1,2024/03/15_12:54:45,YZ,None,
,,,,,,calibration,0,22,2,426,6,Q,1,left,0.8034152789914515,1,0,,,,,,,,,,,,,,,,,,,,,1,,,,,,,,,,,,,,,,,,,,,,,,,,,,,,,,,,,,,,,,,,,,,,94,148246,21,Female,1,2024/03/15_12:54:45,YZ,None,
,,,,,,calibration,0,22,2,426,7,C,0,right,0.1809024300018791,1,0,,,,,,,,,,,,,,,,,,,,,1,,,,,,,,,,,,,,,,,,,,,,,,,,,,,,,,,,,,,,,,,,,,,,94,148246,21,Female,1,2024/03/15_12:54:45,YZ,None,
,,,,,,calibration,0,22,2,426,8,N,0,left,0.40950840499135666,0,0,,,,,,,,,,,,,,,,,,,,,1,,,,,,,,,,,,,,,,,,,,,,,,,,,,,,,,,,,,,,,,,,,,,,94,148246,21,Female,1,2024/03/15_12:54:45,YZ,None,
,,,,,,calibration,0,22,2,426,9,V,0,right,0.29680203401949257,1,0,,,,,,,,,,,,,,,,,,,,,1,,,,,,,,,,,,,,,,,,,,,,,,,,,,,,,,,,,,,,,,,,,,,,94,148246,21,Female,1,2024/03/15_12:54:45,YZ,None,
,,,,,,calibration,0,22,2,426,10,X,0,right,0.841170209023403,1,0,,,,,,,,,,,,,,,,,,,,,1,,,,,,,,,,,,,,,,,,,,,,,,,,,,,,,,,,,,,,,,,,,,,,94,148246,21,Female,1,2024/03/15_12:54:45,YZ,None,
,,,,,,calibration,0,22,2,426,11,S,0,right,0.45445659800316207,1,0,,,,,,,,,,,,,,,,,,,,,1,,,,,,,,,,,,,,,,,,,,,,,,,,,,,,,,,,,,,,,,,,,,,,94,148246,21,Female,1,2024/03/15_12:54:45,YZ,None,
,,,,,,calibration,0,22,2,426,12,X,1,right,0.5306012320215814,0,0,,,,,,,,,,,,,,,,,,,,,1,,,,,,,,,,,,,,,,,,,,,,,,,,,,,,,,,,,,,,,,,,,,,,94,148246,21,Female,1,2024/03/15_12:54:45,YZ,None,
,,,,,,calibration,0,22,2,426,13,S,1,right,0.6149174690071959,0,0,,,,,,,,,,,,,,,,,,,,,1,,,,,,,,,,,,,,,,,,,,,,,,,,,,,,,,,,,,,,,,,,,,,,94,148246,21,Female,1,2024/03/15_12:54:45,YZ,None,
,,,,,,calibration,0,22,2,426,14,V,0,right,0.4945706439903006,1,0,,,,,,,,,,,,,,,,,,,,,1,,,,,,,,,,,,,,,,,,,,,,,,,,,,,,,,,,,,,,,,,,,,,,94,148246,21,Female,1,2024/03/15_12:54:45,YZ,None,
,,,,,,calibration,0,22,2,426,15,J,0,right,0.5120021940092556,1,0,,,,,,,,,,,,,,,,,,,,,1,,,,,,,,,,,,,,,,,,,,,,,,,,,,,,,,,,,,,,,,,,,,,,94,148246,21,Female,1,2024/03/15_12:54:45,YZ,None,
,,,,,,calibration,0,22,2,426,16,V,1,left,0.6421239909832366,1,0,,,,,,,,,,,,,,,,,,,,,1,,,,,,,,,,,,,,,,,,,,,,,,,,,,,,,,,,,,,,,,,,,,,,94,148246,21,Female,1,2024/03/15_12:54:45,YZ,None,
,,,,,,calibration,0,22,2,426,17,S,0,right,0.3498463849828113,1,0,,,,,,,,,,,,,,,,,,,,,1,,,,,,,,,,,,,,,,,,,,,,,,,,,,,,,,,,,,,,,,,,,,,,94,148246,21,Female,1,2024/03/15_12:54:45,YZ,None,
,,,,,,calibration,0,22,2,426,,,,,,,,0.8458333333333333,0.6,0.08333333333333333,0.9166666666666666,0.0,0.9166666666666666,0.4946219495887978,3,1,0,0,0,11,14,5,12,0,,,,1,,,,,,,,,,,,,,,,,,,,,,,,,,,,,,,,,,,,,,,,,,,,,,94,148246,21,Female,1,2024/03/15_12:54:45,YZ,None,
,,,,,,Calibration,0,,2,426,,,,,,,,,,,,,,,,,,,,,,,,,12,,,1,,,,,,,,,,,,,,,,,,,,,,,,,,,,,,,,,,,,,,,,,,,,,,94,148246,21,Female,1,2024/03/15_12:54:45,YZ,None,
,,,,,,calibration,0,1,2,426,1,S,0,None,nan,0,1,,,,,,,,,,,,,,,,,,,,,1,,,,,,,,,,,,,,,,,,,,,,,,,,,,,,,,,,,,,,,,,,,,,,94,148246,21,Female,1,2024/03/15_12:54:45,YZ,None,
,,,,,,calibration,0,1,2,426,2,C,0,right,0.7426630170084536,1,0,,,,,,,,,,,,,,,,,,,,,1,,,,,,,,,,,,,,,,,,,,,,,,,,,,,,,,,,,,,,,,,,,,,,94,148246,21,Female,1,2024/03/15_12:54:45,YZ,None,
,,,,,,calibration,0,1,2,426,3,S,1,right,0.3900404270098079,0,0,,,,,,,,,,,,,,,,,,,,,1,,,,,,,,,,,,,,,,,,,,,,,,,,,,,,,,,,,,,,,,,,,,,,94,148246,21,Female,1,2024/03/15_12:54:45,YZ,None,
,,,,,,calibration,0,1,2,426,4,X,0,left,0.0,0,0,,,,,,,,,,,,,,,,,,,,,1,,,,,,,,,,,,,,,,,,,,,,,,,,,,,,,,,,,,,,,,,,,,,,94,148246,21,Female,1,2024/03/15_12:54:45,YZ,None,
,,,,,,calibration,0,1,2,426,5,V,0,left,nan,0,1,,,,,,,,,,,,,,,,,,,,,1,,,,,,,,,,,,,,,,,,,,,,,,,,,,,,,,,,,,,,,,,,,,,,94,148246,21,Female,1,2024/03/15_12:54:45,YZ,None,
,,,,,,calibration,0,1,2,426,6,Q,0,right,0.3960637090203818,1,0,,,,,,,,,,,,,,,,,,,,,1,,,,,,,,,,,,,,,,,,,,,,,,,,,,,,,,,,,,,,,,,,,,,,94,148246,21,Female,1,2024/03/15_12:54:45,YZ,None,
,,,,,,calibration,0,1,2,426,7,J,0,right,nan,0,1,,,,,,,,,,,,,,,,,,,,,1,,,,,,,,,,,,,,,,,,,,,,,,,,,,,,,,,,,,,,,,,,,,,,94,148246,21,Female,1,2024/03/15_12:54:45,YZ,None,
,,,,,,calibration,0,1,2,426,8,Q,1,right,nan,0,1,,,,,,,,,,,,,,,,,,,,,1,,,,,,,,,,,,,,,,,,,,,,,,,,,,,,,,,,,,,,,,,,,,,,94,148246,21,Female,1,2024/03/15_12:54:45,YZ,None,
,,,,,,calibration,0,1,2,426,9,F,0,left,0.08268633400439285,0,0,,,,,,,,,,,,,,,,,,,,,1,,,,,,,,,,,,,,,,,,,,,,,,,,,,,,,,,,,,,,,,,,,,,,94,148246,21,Female,1,2024/03/15_12:54:45,YZ,None,
,,,,,,calibration,0,1,2,426,10,S,0,right,0.1050319829955697,1,0,,,,,,,,,,,,,,,,,,,,,1,,,,,,,,,,,,,,,,,,,,,,,,,,,,,,,,,,,,,,,,,,,,,,94,148246,21,Female,1,2024/03/15_12:54:45,YZ,None,
,,,,,,calibration,0,1,2,426,11,F,1,right,nan,0,1,,,,,,,,,,,,,,,,,,,,,1,,,,,,,,,,,,,,,,,,,,,,,,,,,,,,,,,,,,,,,,,,,,,,94,148246,21,Female,1,2024/03/15_12:54:45,YZ,None,
,,,,,,calibration,0,1,2,426,12,S,1,left,0.581299974990543,1,0,,,,,,,,,,,,,,,,,,,,,1,,,,,,,,,,,,,,,,,,,,,,,,,,,,,,,,,,,,,,,,,,,,,,94,148246,21,Female,1,2024/03/15_12:54:45,YZ,None,
,,,,,,calibration,0,1,2,426,13,X,0,right,0.0,1,0,,,,,,,,,,,,,,,,,,,,,1,,,,,,,,,,,,,,,,,,,,,,,,,,,,,,,,,,,,,,,,,,,,,,94,148246,21,Female,1,2024/03/15_12:54:45,YZ,None,
,,,,,,calibration,0,1,2,426,14,Q,0,right,0.49369092797860503,1,0,,,,,,,,,,,,,,,,,,,,,1,,,,,,,,,,,,,,,,,,,,,,,,,,,,,,,,,,,,,,,,,,,,,,94,148246,21,Female,1,2024/03/15_12:54:45,YZ,None,
,,,,,,calibration,0,1,2,426,15,N,0,right,0.9457625000213739,1,0,,,,,,,,,,,,,,,,,,,,,1,,,,,,,,,,,,,,,,,,,,,,,,,,,,,,,,,,,,,,,,,,,,,,94,148246,21,Female,1,2024/03/15_12:54:45,YZ,None,
,,,,,,calibration,0,1,2,426,16,S,0,right,0.8353957200015429,1,0,,,,,,,,,,,,,,,,,,,,,1,,,,,,,,,,,,,,,,,,,,,,,,,,,,,,,,,,,,,,,,,,,,,,94,148246,21,Female,1,2024/03/15_12:54:45,YZ,None,
,,,,,,calibration,0,1,2,426,17,N,1,left,0.7860328050155658,1,0,,,,,,,,,,,,,,,,,,,,,1,,,,,,,,,,,,,,,,,,,,,,,,,,,,,,,,,,,,,,,,,,,,,,94,148246,21,Female,1,2024/03/15_12:54:45,YZ,None,
,,,,,,calibration,0,1,2,426,,,,,,,,0.7041666666666667,0.4,0.16666666666666666,0.7777777777777778,0.29411764705882354,0.5392156862745099,0.44655561650385306,2,2,2,3,5,7,9,5,12,0,,,,1,,,,,,,,,,,,,,,,,,,,,,,,,,,,,,,,,,,,,,,,,,,,,,94,148246,21,Female,1,2024/03/15_12:54:45,YZ,None,
,,,,,,Calibration,0,,2,426,,,,,,,,,,,,,,,,,,,,,,,,,13,,,1,,,,,,,,,,,,,,,,,,,,,,,,,,,,,,,,,,,,,,,,,,,,,,94,148246,21,Female,1,2024/03/15_12:54:45,YZ,None,
,,,,,,calibration,0,7,2,500,1,N,0,right,0.983829525008332,1,0,,,,,,,,,,,,,,,,,,,,,1,,,,,,,,,,,,,,,,,,,,,,,,,,,,,,,,,,,,,,,,,,,,,,94,148246,21,Female,1,2024/03/15_12:54:45,YZ,None,
,,,,,,calibration,0,7,2,500,2,C,0,right,nan,0,1,,,,,,,,,,,,,,,,,,,,,1,,,,,,,,,,,,,,,,,,,,,,,,,,,,,,,,,,,,,,,,,,,,,,94,148246,21,Female,1,2024/03/15_12:54:45,YZ,None,
,,,,,,calibration,0,7,2,500,3,V,0,right,0.9761609180131927,1,0,,,,,,,,,,,,,,,,,,,,,1,,,,,,,,,,,,,,,,,,,,,,,,,,,,,,,,,,,,,,,,,,,,,,94,148246,21,Female,1,2024/03/15_12:54:45,YZ,None,
,,,,,,calibration,0,7,2,500,4,F,0,right,0.3655837640108075,1,0,,,,,,,,,,,,,,,,,,,,,1,,,,,,,,,,,,,,,,,,,,,,,,,,,,,,,,,,,,,,,,,,,,,,94,148246,21,Female,1,2024/03/15_12:54:45,YZ,None,
,,,,,,calibration,0,7,2,500,5,V,1,right,0.549223660986172,0,0,,,,,,,,,,,,,,,,,,,,,1,,,,,,,,,,,,,,,,,,,,,,,,,,,,,,,,,,,,,,,,,,,,,,94,148246,21,Female,1,2024/03/15_12:54:45,YZ,None,
,,,,,,calibration,0,7,2,500,6,J,0,right,0.21870933601167053,1,0,,,,,,,,,,,,,,,,,,,,,1,,,,,,,,,,,,,,,,,,,,,,,,,,,,,,,,,,,,,,,,,,,,,,94,148246,21,Female,1,2024/03/15_12:54:45,YZ,None,
,,,,,,calibration,0,7,2,500,7,N,0,left,0.6779693119751755,0,0,,,,,,,,,,,,,,,,,,,,,1,,,,,,,,,,,,,,,,,,,,,,,,,,,,,,,,,,,,,,,,,,,,,,94,148246,21,Female,1,2024/03/15_12:54:45,YZ,None,
,,,,,,calibration,0,7,2,500,8,J,1,right,0.2095897589751985,0,0,,,,,,,,,,,,,,,,,,,,,1,,,,,,,,,,,,,,,,,,,,,,,,,,,,,,,,,,,,,,,,,,,,,,94,148246,21,Female,1,2024/03/15_12:54:45,YZ,None,
,,,,,,calibration,0,7,2,500,9,N,1,left,0.6308014849782921,1,0,,,,,,,,,,,,,,,,,,,,,1,,,,,,,,,,,,,,,,,,,,,,,,,,,,,,,,,,,,,,,,,,,,,,94,148246,21,Female,1,2024/03/15_12:54:45,YZ,None,
,,,,,,calibration,0,7,2,500,10,Q,0,right,0.08587606201763265,1,0,,,,,,,,,,,,,,,,,,,,,1,,,,,,,,,,,,,,,,,,,,,,,,,,,,,,,,,,,,,,,,,,,,,,94,148246,21,Female,1,2024/03/15_12:54:45,YZ,None,
,,,,,,calibration,0,7,2,500,11,V,0,right,0.4568778829998337,1,0,,,,,,,,,,,,,,,,,,,,,1,,,,,,,,,,,,,,,,,,,,,,,,,,,,,,,,,,,,,,,,,,,,,,94,148246,21,Female,1,2024/03/15_12:54:45,YZ,None,
,,,,,,calibration,0,7,2,500,12,Q,1,right,0.817711955984123,0,0,,,,,,,,,,,,,,,,,,,,,1,,,,,,,,,,,,,,,,,,,,,,,,,,,,,,,,,,,,,,,,,,,,,,94,148246,21,Female,1,2024/03/15_12:54:45,YZ,None,
,,,,,,calibration,0,7,2,500,13,N,0,left,0.8756039300060365,0,0,,,,,,,,,,,,,,,,,,,,,1,,,,,,,,,,,,,,,,,,,,,,,,,,,,,,,,,,,,,,,,,,,,,,94,148246,21,Female,1,2024/03/15_12:54:45,YZ,None,
,,,,,,calibration,0,7,2,500,14,Q,1,right,0.26406197698088363,0,0,,,,,,,,,,,,,,,,,,,,,1,,,,,,,,,,,,,,,,,,,,,,,,,,,,,,,,,,,,,,,,,,,,,,94,148246,21,Female,1,2024/03/15_12:54:45,YZ,None,
,,,,,,calibration,0,7,2,500,15,J,0,right,0.33606281198444776,1,0,,,,,,,,,,,,,,,,,,,,,1,,,,,,,,,,,,,,,,,,,,,,,,,,,,,,,,,,,,,,,,,,,,,,94,148246,21,Female,1,2024/03/15_12:54:45,YZ,None,
,,,,,,calibration,0,7,2,500,16,S,0,right,0.5184273420018144,1,0,,,,,,,,,,,,,,,,,,,,,1,,,,,,,,,,,,,,,,,,,,,,,,,,,,,,,,,,,,,,,,,,,,,,94,148246,21,Female,1,2024/03/15_12:54:45,YZ,None,
,,,,,,calibration,0,7,2,500,,,,,,,,0.5272727272727272,0.2,0.18181818181818182,0.8,0.0625,0.7556818181818181,0.5310993147955742,1,2,0,1,1,8,9,5,11,0,,,,1,,,,,,,,,,,,,,,,,,,,,,,,,,,,,,,,,,,,,,,,,,,,,,94,148246,21,Female,1,2024/03/15_12:54:45,YZ,None,
,,,,,,Calibration,0,,2,500,,,,,,,,,,,,,,,,,,,,,,,,,14,,,1,,,,,,,,,,,,,,,,,,,,,,,,,,,,,,,,,,,,,,,,,,,,,,94,148246,21,Female,1,2024/03/15_12:54:45,YZ,None,
,,,,,,calibration,0,18,2,583,1,X,0,right,1.2479762400034815,1,0,,,,,,,,,,,,,,,,,,,,,1,,,,,,,,,,,,,,,,,,,,,,,,,,,,,,,,,,,,,,,,,,,,,,94,148246,21,Female,1,2024/03/15_12:54:45,YZ,None,
,,,,,,calibration,0,18,2,583,2,C,0,right,0.6385411929804832,1,0,,,,,,,,,,,,,,,,,,,,,1,,,,,,,,,,,,,,,,,,,,,,,,,,,,,,,,,,,,,,,,,,,,,,94,148246,21,Female,1,2024/03/15_12:54:45,YZ,None,
,,,,,,calibration,0,18,2,583,3,S,0,right,0.45342972499202006,1,0,,,,,,,,,,,,,,,,,,,,,1,,,,,,,,,,,,,,,,,,,,,,,,,,,,,,,,,,,,,,,,,,,,,,94,148246,21,Female,1,2024/03/15_12:54:45,YZ,None,
,,,,,,calibration,0,18,2,583,4,V,0,right,0.531363993010018,1,0,,,,,,,,,,,,,,,,,,,,,1,,,,,,,,,,,,,,,,,,,,,,,,,,,,,,,,,,,,,,,,,,,,,,94,148246,21,Female,1,2024/03/15_12:54:45,YZ,None,
,,,,,,calibration,0,18,2,583,5,X,0,right,0.4275908600247931,1,0,,,,,,,,,,,,,,,,,,,,,1,,,,,,,,,,,,,,,,,,,,,,,,,,,,,,,,,,,,,,,,,,,,,,94,148246,21,Female,1,2024/03/15_12:54:45,YZ,None,
,,,,,,calibration,0,18,2,583,6,J,0,right,0.5564584970124997,1,0,,,,,,,,,,,,,,,,,,,,,1,,,,,,,,,,,,,,,,,,,,,,,,,,,,,,,,,,,,,,,,,,,,,,94,148246,21,Female,1,2024/03/15_12:54:45,YZ,None,
,,,,,,calibration,0,18,2,583,7,X,1,left,0.8374400739849079,1,0,,,,,,,,,,,,,,,,,,,,,1,,,,,,,,,,,,,,,,,,,,,,,,,,,,,,,,,,,,,,,,,,,,,,94,148246,21,Female,1,2024/03/15_12:54:45,YZ,None,
,,,,,,calibration,0,18,2,583,8,J,1,right,0.8812280929996632,0,0,,,,,,,,,,,,,,,,,,,,,1,,,,,,,,,,,,,,,,,,,,,,,,,,,,,,,,,,,,,,,,,,,,,,94,148246,21,Female,1,2024/03/15_12:54:45,YZ,None,
,,,,,,calibration,0,18,2,583,9,V,0,right,nan,0,1,,,,,,,,,,,,,,,,,,,,,1,,,,,,,,,,,,,,,,,,,,,,,,,,,,,,,,,,,,,,,,,,,,,,94,148246,21,Female,1,2024/03/15_12:54:45,YZ,None,
,,,,,,calibration,0,18,2,583,10,J,1,right,0.26499388401862234,0,0,,,,,,,,,,,,,,,,,,,,,1,,,,,,,,,,,,,,,,,,,,,,,,,,,,,,,,,,,,,,,,,,,,,,94,148246,21,Female,1,2024/03/15_12:54:45,YZ,None,
,,,,,,calibration,0,18,2,583,11,Q,0,right,0.3703068510221783,1,0,,,,,,,,,,,,,,,,,,,,,1,,,,,,,,,,,,,,,,,,,,,,,,,,,,,,,,,,,,,,,,,,,,,,94,148246,21,Female,1,2024/03/15_12:54:45,YZ,None,
,,,,,,calibration,0,18,2,583,12,F,0,right,0.4365989920042921,1,0,,,,,,,,,,,,,,,,,,,,,1,,,,,,,,,,,,,,,,,,,,,,,,,,,,,,,,,,,,,,,,,,,,,,94,148246,21,Female,1,2024/03/15_12:54:45,YZ,None,
,,,,,,calibration,0,18,2,583,13,Q,1,left,0.6787080479844008,1,0,,,,,,,,,,,,,,,,,,,,,1,,,,,,,,,,,,,,,,,,,,,,,,,,,,,,,,,,,,,,,,,,,,,,94,148246,21,Female,1,2024/03/15_12:54:45,YZ,None,
,,,,,,calibration,0,18,2,583,14,N,0,right,0.5364920459978748,1,0,,,,,,,,,,,,,,,,,,,,,1,,,,,,,,,,,,,,,,,,,,,,,,,,,,,,,,,,,,,,,,,,,,,,94,148246,21,Female,1,2024/03/15_12:54:45,YZ,None,
,,,,,,calibration,0,18,2,583,15,J,0,right,0.5618844389973674,1,0,,,,,,,,,,,,,,,,,,,,,1,,,,,,,,,,,,,,,,,,,,,,,,,,,,,,,,,,,,,,,,,,,,,,94,148246,21,Female,1,2024/03/15_12:54:45,YZ,None,
,,,,,,calibration,0,18,2,583,,,,,,,,0.875,0.5,0.0,1.0,0.06666666666666667,0.9333333333333333,0.6016437810737573,2,0,0,1,1,10,12,4,11,0,,,,1,,,,,,,,,,,,,,,,,,,,,,,,,,,,,,,,,,,,,,,,,,,,,,94,148246,21,Female,1,2024/03/15_12:54:45,YZ,None,
,,,,,,Calibration,0,,2,583,,,,,,,,,,,,,,,,,,,,,,,,,15,,,1,,,,,,,,,,,,,,,,,,,,,,,,,,,,,,,,,,,,,,,,,,,,,,94,148246,21,Female,1,2024/03/15_12:54:45,YZ,None,
,,,,,,CALIBRATION,0,,,,,,,,,,,,,,,,,,,,,,,,,,,,15,0.875,583,1,,,,,,,,,,,,,,,,,,,,,,,,,,,,,,,,,,,,,,,,,,,,,,94,148246,21,Female,1,2024/03/15_12:54:45,YZ,None,
1,./instructions/inst_prac_1/Slide24.png,right,8.997465090011247,475.8333804709837,484.83084556099493,,,,,,,,,,,,,,,,,,,,,,,,,,,,,,,,,1,,,,,,,,,,,,,,,,,,,,,,,,,,,,,,,,,,,,,,,,,,,,,,94,148246,21,Female,1,2024/03/15_12:54:45,YZ,None,
2,./instructions/inst_prac_1/Slide25.png,right,0.2006118750141468,484.85885839999537,485.0594702750095,,,,,,,,,,,,,,,,,,,,,,,,,,,,,,,,,1,,,,,,,,,,,,,,,,,,,,,,,,,,,,,,,,,,,,,,,,,,,,,,94,148246,21,Female,1,2024/03/15_12:54:45,YZ,None,
3,./instructions/inst_prac_1/Slide26.png,right,2.036377637006808,485.0822929569986,487.1186705940054,,,,,,,,,,,,,,,,,,,,,,,,,,,,,,,,,1,,,,,,,,,,,,,,,,,,,,,,,,,,,,,,,,,,,,,,,,,,,,,,94,148246,21,Female,1,2024/03/15_12:54:45,YZ,None,
4,./instructions/inst_prac_1/Slide27.png,right,0.8774712180020288,487.14529078500345,488.0227620030055,,,,,,,,,,,,,,,,,,,,,,,,,,,,,,,,,1,,,,,,,,,,,,,,,,,,,,,,,,,,,,,,,,,,,,,,,,,,,,,,94,148246,21,Female,1,2024/03/15_12:54:45,YZ,None,
5,./instructions/inst_prac_1/Slide28.png,right,1.2185178340005223,488.0522663570009,489.27078419100144,,,,,,,,,,,,,,,,,,,,,,,,,,,,,,,,,1,,,,,,,,,,,,,,,,,,,,,,,,,,,,,,,,,,,,,,,,,,,,,,94,148246,21,Female,1,2024/03/15_12:54:45,YZ,None,
6,./instructions/inst_prac_1/Slide29.png,right,0.35022983598173596,489.296614633,489.6468444689817,,,,,,,,,,,,,,,,,,,,,,,,,,,,,,,,,1,,,,,,,,,,,,,,,,,,,,,,,,,,,,,,,,,,,,,,,,,,,,,,94,148246,21,Female,1,2024/03/15_12:54:45,YZ,None,
7,./instructions/inst_prac_1/Slide30.png,right,1.7074760860123206,489.67555236199405,491.38302844800637,,,,,,,,,,,,,,,,,,,,,,,,,,,,,,,,,1,,,,,,,,,,,,,,,,,,,,,,,,,,,,,,,,,,,,,,,,,,,,,,94,148246,21,Female,1,2024/03/15_12:54:45,YZ,None,
,,,,,,practice,0,36,1,1250,1,C,0,right,2.1955464880156796,1,0,,,,,,,,,,,,,,,,,,,,,1,,,,,,,,,,,,,,,,,,,,,,,,,,,,,,,,,,,,,,,,,,,,,,94,148246,21,Female,1,2024/03/15_12:54:45,YZ,None,
,,,,,,practice,0,36,1,1250,2,F,0,right,1.6365382010117173,1,0,,,,,,,,,,,,,,,,,,,,,1,,,,,,,,,,,,,,,,,,,,,,,,,,,,,,,,,,,,,,,,,,,,,,94,148246,21,Female,1,2024/03/15_12:54:45,YZ,None,
,,,,,,practice,0,36,1,1250,3,F,1,left,0.6777257009816822,1,0,,,,,,,,,,,,,,,,,,,,,1,,,,,,,,,,,,,,,,,,,,,,,,,,,,,,,,,,,,,,,,,,,,,,94,148246,21,Female,1,2024/03/15_12:54:45,YZ,None,
,,,,,,practice,0,36,1,1250,4,Q,0,right,0.7405353680078406,1,0,,,,,,,,,,,,,,,,,,,,,1,,,,,,,,,,,,,,,,,,,,,,,,,,,,,,,,,,,,,,,,,,,,,,94,148246,21,Female,1,2024/03/15_12:54:45,YZ,None,
,,,,,,practice,0,36,1,1250,5,Q,1,left,0.70232203300111,1,0,,,,,,,,,,,,,,,,,,,,,1,,,,,,,,,,,,,,,,,,,,,,,,,,,,,,,,,,,,,,,,,,,,,,94,148246,21,Female,1,2024/03/15_12:54:45,YZ,None,
,,,,,,practice,0,36,1,1250,6,X,0,right,0.774700670997845,1,0,,,,,,,,,,,,,,,,,,,,,1,,,,,,,,,,,,,,,,,,,,,,,,,,,,,,,,,,,,,,,,,,,,,,94,148246,21,Female,1,2024/03/15_12:54:45,YZ,None,
,,,,,,practice,0,36,1,1250,7,V,0,right,2.5407532259996515,1,0,,,,,,,,,,,,,,,,,,,,,1,,,,,,,,,,,,,,,,,,,,,,,,,,,,,,,,,,,,,,,,,,,,,,94,148246,21,Female,1,2024/03/15_12:54:45,YZ,None,
,,,,,,practice,0,36,1,1250,8,V,1,left,0.6842449889809359,1,0,,,,,,,,,,,,,,,,,,,,,1,,,,,,,,,,,,,,,,,,,,,,,,,,,,,,,,,,,,,,,,,,,,,,94,148246,21,Female,1,2024/03/15_12:54:45,YZ,None,
,,,,,,practice,0,36,1,1250,9,X,0,right,1.548942867986625,1,0,,,,,,,,,,,,,,,,,,,,,1,,,,,,,,,,,,,,,,,,,,,,,,,,,,,,,,,,,,,,,,,,,,,,94,148246,21,Female,1,2024/03/15_12:54:45,YZ,None,
,,,,,,practice,0,36,1,1250,10,V,0,right,1.6688253600150347,1,0,,,,,,,,,,,,,,,,,,,,,1,,,,,,,,,,,,,,,,,,,,,,,,,,,,,,,,,,,,,,,,,,,,,,94,148246,21,Female,1,2024/03/15_12:54:45,YZ,None,
,,,,,,practice,0,36,1,1250,,,,,,,,1.0,1.0,0.0,1.0,0.0,1.0,1.317013490499812,3,0,0,0,0,7,10,3,7,0,,,,1,,,,,,,,,,,,,,,,,,,,,,,,,,,,,,,,,,,,,,,,,,,,,,94,148246,21,Female,1,2024/03/15_12:54:45,YZ,None,
1,./instructions/inst_prac_1_next/Slide35.png,right,1.6165167760045733,515.0943856060039,516.7109023820085,,,,,,,,,,,,,,,,,,,,,,,,,,,,,,,,,1,,,,,,,,,,,,,,,,,,,,,,,,,,,,,,,,,,,,,,,,,,,,,,94,148246,21,Female,1,2024/03/15_12:54:45,YZ,None,
,,,,,,practice,0,29,1,583,1,X,0,left,1.1487706659827381,0,0,,,,,,,,,,,,,,,,,,,,,1,,,,,,,,,,,,,,,,,,,,,,,,,,,,,,,,,,,,,,,,,,,,,,94,148246,21,Female,1,2024/03/15_12:54:45,YZ,None,
,,,,,,practice,0,29,1,583,2,X,1,right,0.5807388070097659,0,0,,,,,,,,,,,,,,,,,,,,,1,,,,,,,,,,,,,,,,,,,,,,,,,,,,,,,,,,,,,,,,,,,,,,94,148246,21,Female,1,2024/03/15_12:54:45,YZ,None,
,,,,,,practice,0,29,1,583,3,V,0,left,0.7377258150081616,0,0,,,,,,,,,,,,,,,,,,,,,1,,,,,,,,,,,,,,,,,,,,,,,,,,,,,,,,,,,,,,,,,,,,,,94,148246,21,Female,1,2024/03/15_12:54:45,YZ,None,
,,,,,,practice,0,29,1,583,4,N,0,left,0.6236555850191507,0,0,,,,,,,,,,,,,,,,,,,,,1,,,,,,,,,,,,,,,,,,,,,,,,,,,,,,,,,,,,,,,,,,,,,,94,148246,21,Female,1,2024/03/15_12:54:45,YZ,None,
,,,,,,practice,0,29,1,583,5,N,1,right,0.597110447997693,0,0,,,,,,,,,,,,,,,,,,,,,1,,,,,,,,,,,,,,,,,,,,,,,,,,,,,,,,,,,,,,,,,,,,,,94,148246,21,Female,1,2024/03/15_12:54:45,YZ,None,
,,,,,,practice,0,29,1,583,6,C,0,left,0.6732456620084122,0,0,,,,,,,,,,,,,,,,,,,,,1,,,,,,,,,,,,,,,,,,,,,,,,,,,,,,,,,,,,,,,,,,,,,,94,148246,21,Female,1,2024/03/15_12:54:45,YZ,None,
,,,,,,practice,0,29,1,583,7,C,1,right,0.5845690749993082,0,0,,,,,,,,,,,,,,,,,,,,,1,,,,,,,,,,,,,,,,,,,,,,,,,,,,,,,,,,,,,,,,,,,,,,94,148246,21,Female,1,2024/03/15_12:54:45,YZ,None,
,,,,,,practice,0,29,1,583,8,X,0,left,0.5756649569957517,0,0,,,,,,,,,,,,,,,,,,,,,1,,,,,,,,,,,,,,,,,,,,,,,,,,,,,,,,,,,,,,,,,,,,,,94,148246,21,Female,1,2024/03/15_12:54:45,YZ,None,
,,,,,,practice,0,29,1,583,9,X,1,right,0.7114769309991971,0,0,,,,,,,,,,,,,,,,,,,,,1,,,,,,,,,,,,,,,,,,,,,,,,,,,,,,,,,,,,,,,,,,,,,,94,148246,21,Female,1,2024/03/15_12:54:45,YZ,None,
,,,,,,practice,0,29,1,583,10,Q,0,left,0.9403405449993443,0,0,,,,,,,,,,,,,,,,,,,,,1,,,,,,,,,,,,,,,,,,,,,,,,,,,,,,,,,,,,,,,,,,,,,,94,148246,21,Female,1,2024/03/15_12:54:45,YZ,None,
,,,,,,practice,0,29,1,583,11,X,0,right,0.6093896560196299,1,0,,,,,,,,,,,,,,,,,,,,,1,,,,,,,,,,,,,,,,,,,,,,,,,,,,,,,,,,,,,,,,,,,,,,94,148246,21,Female,1,2024/03/15_12:54:45,YZ,None,
,,,,,,practice,0,29,1,583,12,X,1,right,0.7860041880048811,0,0,,,,,,,,,,,,,,,,,,,,,1,,,,,,,,,,,,,,,,,,,,,,,,,,,,,,,,,,,,,,,,,,,,,,94,148246,21,Female,1,2024/03/15_12:54:45,YZ,None,
,,,,,,practice,0,29,1,583,13,V,0,right,1.3441647890140302,1,0,,,,,,,,,,,,,,,,,,,,,1,,,,,,,,,,,,,,,,,,,,,,,,,,,,,,,,,,,,,,,,,,,,,,94,148246,21,Female,1,2024/03/15_12:54:45,YZ,None,
,,,,,,practice,0,29,1,583,14,S,0,right,0.43294694600626826,1,0,,,,,,,,,,,,,,,,,,,,,1,,,,,,,,,,,,,,,,,,,,,,,,,,,,,,,,,,,,,,,,,,,,,,94,148246,21,Female,1,2024/03/15_12:54:45,YZ,None,
,,,,,,practice,0,29,1,583,15,Q,0,right,0.6176954389957245,1,0,,,,,,,,,,,,,,,,,,,,,1,,,,,,,,,,,,,,,,,,,,,,,,,,,,,,,,,,,,,,,,,,,,,,94,148246,21,Female,1,2024/03/15_12:54:45,YZ,None,
,,,,,,practice,0,29,1,583,,,,,,,,0.1,0.0,0.6,0.4,0.0,0.4,0.7308999672706704,0,6,0,0,0,4,4,5,10,0,,,,1,,,,,,,,,,,,,,,,,,,,,,,,,,,,,,,,,,,,,,,,,,,,,,94,148246,21,Female,1,2024/03/15_12:54:45,YZ,None,
,,,,,,practice,0,1,1,583,1,C,0,right,0.7768730469979346,1,0,,,,,,,,,,,,,,,,,,,,,1,,,,,,,,,,,,,,,,,,,,,,,,,,,,,,,,,,,,,,,,,,,,,,94,148246,21,Female,1,2024/03/15_12:54:45,YZ,None,
,,,,,,practice,0,1,1,583,2,J,0,right,0.6720431899884716,1,0,,,,,,,,,,,,,,,,,,,,,1,,,,,,,,,,,,,,,,,,,,,,,,,,,,,,,,,,,,,,,,,,,,,,94,148246,21,Female,1,2024/03/15_12:54:45,YZ,None,
,,,,,,practice,0,1,1,583,3,J,1,left,0.6729735030094162,1,0,,,,,,,,,,,,,,,,,,,,,1,,,,,,,,,,,,,,,,,,,,,,,,,,,,,,,,,,,,,,,,,,,,,,94,148246,21,Female,1,2024/03/15_12:54:45,YZ,None,
,,,,,,practice,0,1,1,583,4,N,0,right,0.48835883801802993,1,0,,,,,,,,,,,,,,,,,,,,,1,,,,,,,,,,,,,,,,,,,,,,,,,,,,,,,,,,,,,,,,,,,,,,94,148246,21,Female,1,2024/03/15_12:54:45,YZ,None,
,,,,,,practice,0,1,1,583,5,N,1,left,0.5446075640211347,1,0,,,,,,,,,,,,,,,,,,,,,1,,,,,,,,,,,,,,,,,,,,,,,,,,,,,,,,,,,,,,,,,,,,,,94,148246,21,Female,1,2024/03/15_12:54:45,YZ,None,
,,,,,,practice,0,1,1,583,6,X,0,right,0.4734043900098186,1,0,,,,,,,,,,,,,,,,,,,,,1,,,,,,,,,,,,,,,,,,,,,,,,,,,,,,,,,,,,,,,,,,,,,,94,148246,21,Female,1,2024/03/15_12:54:45,YZ,None,
,,,,,,practice,0,1,1,583,7,F,0,right,0.4808817070152145,1,0,,,,,,,,,,,,,,,,,,,,,1,,,,,,,,,,,,,,,,,,,,,,,,,,,,,,,,,,,,,,,,,,,,,,94,148246,21,Female,1,2024/03/15_12:54:45,YZ,None,
,,,,,,practice,0,1,1,583,8,Q,0,right,0.5015189929981716,1,0,,,,,,,,,,,,,,,,,,,,,1,,,,,,,,,,,,,,,,,,,,,,,,,,,,,,,,,,,,,,,,,,,,,,94,148246,21,Female,1,2024/03/15_12:54:45,YZ,None,
,,,,,,practice,0,1,1,583,9,J,0,right,0.7762001449882519,1,0,,,,,,,,,,,,,,,,,,,,,1,,,,,,,,,,,,,,,,,,,,,,,,,,,,,,,,,,,,,,,,,,,,,,94,148246,21,Female,1,2024/03/15_12:54:45,YZ,None,
,,,,,,practice,0,1,1,583,10,J,1,left,0.7213725430192426,1,0,,,,,,,,,,,,,,,,,,,,,1,,,,,,,,,,,,,,,,,,,,,,,,,,,,,,,,,,,,,,,,,,,,,,94,148246,21,Female,1,2024/03/15_12:54:45,YZ,None,
,,,,,,practice,0,1,1,583,11,F,0,right,0.4293044160003774,1,0,,,,,,,,,,,,,,,,,,,,,1,,,,,,,,,,,,,,,,,,,,,,,,,,,,,,,,,,,,,,,,,,,,,,94,148246,21,Female,1,2024/03/15_12:54:45,YZ,None,
,,,,,,practice,0,1,1,583,12,F,1,left,0.5690320790163241,1,0,,,,,,,,,,,,,,,,,,,,,1,,,,,,,,,,,,,,,,,,,,,,,,,,,,,,,,,,,,,,,,,,,,,,94,148246,21,Female,1,2024/03/15_12:54:45,YZ,None,
,,,,,,practice,0,1,1,583,13,X,0,right,0.4961400720058009,1,0,,,,,,,,,,,,,,,,,,,,,1,,,,,,,,,,,,,,,,,,,,,,,,,,,,,,,,,,,,,,,,,,,,,,94,148246,21,Female,1,2024/03/15_12:54:45,YZ,None,
,,,,,,practice,0,1,1,583,14,F,0,right,1.3134133220009971,1,0,,,,,,,,,,,,,,,,,,,,,1,,,,,,,,,,,,,,,,,,,,,,,,,,,,,,,,,,,,,,,,,,,,,,94,148246,21,Female,1,2024/03/15_12:54:45,YZ,None,
,,,,,,practice,0,1,1,583,15,Q,0,right,0.8048620820045471,1,0,,,,,,,,,,,,,,,,,,,,,1,,,,,,,,,,,,,,,,,,,,,,,,,,,,,,,,,,,,,,,,,,,,,,94,148246,21,Female,1,2024/03/15_12:54:45,YZ,None,
,,,,,,practice,0,1,1,583,,,,,,,,1.0,1.0,0.0,1.0,0.0,1.0,0.6480657260729156,4,0,0,0,0,11,15,4,11,0,,,,1,,,,,,,,,,,,,,,,,,,,,,,,,,,,,,,,,,,,,,,,,,,,,,94,148246,21,Female,1,2024/03/15_12:54:45,YZ,None,
1,./instructions/inst_prac_3/Slide37.png,right,5.913939456018852,557.2609726119845,563.1749120680033,,,,,,,,,,,,,,,,,,,,,,,,,,,,,,,,,1,,,,,,,,,,,,,,,,,,,,,,,,,,,,,,,,,,,,,,,,,,,,,,94,148246,21,Female,1,2024/03/15_12:54:45,YZ,None,
2,./instructions/inst_prac_3/Slide38.png,right,1.366336640989175,563.2005242040032,564.5668608449923,,,,,,,,,,,,,,,,,,,,,,,,,,,,,,,,,1,,,,,,,,,,,,,,,,,,,,,,,,,,,,,,,,,,,,,,,,,,,,,,94,148246,21,Female,1,2024/03/15_12:54:45,YZ,None,
3,./instructions/inst_prac_3/Slide39.png,right,0.5148593630001415,564.5959436740086,565.1108030370087,,,,,,,,,,,,,,,,,,,,,,,,,,,,,,,,,1,,,,,,,,,,,,,,,,,,,,,,,,,,,,,,,,,,,,,,,,,,,,,,94,148246,21,Female,1,2024/03/15_12:54:45,YZ,None,
4,./instructions/inst_prac_3/Slide40.png,right,1.6833797809958924,565.1395377549925,566.8229175359884,,,,,,,,,,,,,,,,,,,,,,,,,,,,,,,,,1,,,,,,,,,,,,,,,,,,,,,,,,,,,,,,,,,,,,,,,,,,,,,,94,148246,21,Female,1,2024/03/15_12:54:45,YZ,None,
5,./instructions/inst_prac_3/Slide41.png,right,1.219795698998496,566.851224530983,568.0710202299815,,,,,,,,,,,,,,,,,,,,,,,,,,,,,,,,,1,,,,,,,,,,,,,,,,,,,,,,,,,,,,,,,,,,,,,,,,,,,,,,94,148246,21,Female,1,2024/03/15_12:54:45,YZ,None,
6,./instructions/inst_prac_3/Slide42.png,right,0.8030406280013267,568.0997857799812,568.9028264079825,,,,,,,,,,,,,,,,,,,,,,,,,,,,,,,,,1,,,,,,,,,,,,,,,,,,,,,,,,,,,,,,,,,,,,,,,,,,,,,,94,148246,21,Female,1,2024/03/15_12:54:45,YZ,None,
7,./instructions/inst_prac_3/Slide43.png,right,1.090337711997563,568.9323924309865,570.0227301429841,,,,,,,,,,,,,,,,,,,,,,,,,,,,,,,,,1,,,,,,,,,,,,,,,,,,,,,,,,,,,,,,,,,,,,,,,,,,,,,,94,148246,21,Female,1,2024/03/15_12:54:45,YZ,None,
8,./instructions/inst_prac_3/Slide44.png,right,0.7635545899975114,570.0514092019876,570.8149637919851,,,,,,,,,,,,,,,,,,,,,,,,,,,,,,,,,1,,,,,,,,,,,,,,,,,,,,,,,,,,,,,,,,,,,,,,,,,,,,,,94,148246,21,Female,1,2024/03/15_12:54:45,YZ,None,
,,,,,,practice,0,15,3,788,1,S,0,right,2.0656120589992497,1,0,,,,,,,,,,,,,,,,,,,,,1,,,,,,,,,,,,,,,,,,,,,,,,,,,,,,,,,,,,,,,,,,,,,,94,148246,21,Female,1,2024/03/15_12:54:45,YZ,None,
,,,,,,practice,0,15,3,788,2,F,0,right,0.6763438780035358,1,0,,,,,,,,,,,,,,,,,,,,,1,,,,,,,,,,,,,,,,,,,,,,,,,,,,,,,,,,,,,,,,,,,,,,94,148246,21,Female,1,2024/03/15_12:54:45,YZ,None,
,,,,,,practice,0,15,3,788,3,Q,0,right,0.296994121017633,1,0,,,,,,,,,,,,,,,,,,,,,1,,,,,,,,,,,,,,,,,,,,,,,,,,,,,,,,,,,,,,,,,,,,,,94,148246,21,Female,1,2024/03/15_12:54:45,YZ,None,
,,,,,,practice,0,15,3,788,4,S,1,left,0.8851655589824077,1,0,,,,,,,,,,,,,,,,,,,,,1,,,,,,,,,,,,,,,,,,,,,,,,,,,,,,,,,,,,,,,,,,,,,,94,148246,21,Female,1,2024/03/15_12:54:45,YZ,None,
,,,,,,practice,0,15,3,788,5,Q,0,right,0.5797512140125036,1,0,,,,,,,,,,,,,,,,,,,,,1,,,,,,,,,,,,,,,,,,,,,,,,,,,,,,,,,,,,,,,,,,,,,,94,148246,21,Female,1,2024/03/15_12:54:45,YZ,None,
,,,,,,practice,0,15,3,788,6,J,0,right,0.6529154729796574,1,0,,,,,,,,,,,,,,,,,,,,,1,,,,,,,,,,,,,,,,,,,,,,,,,,,,,,,,,,,,,,,,,,,,,,94,148246,21,Female,1,2024/03/15_12:54:45,YZ,None,
,,,,,,practice,0,15,3,788,7,X,0,right,0.7321478740195744,1,0,,,,,,,,,,,,,,,,,,,,,1,,,,,,,,,,,,,,,,,,,,,,,,,,,,,,,,,,,,,,,,,,,,,,94,148246,21,Female,1,2024/03/15_12:54:45,YZ,None,
,,,,,,practice,0,15,3,788,8,S,0,right,0.6366182700148784,1,0,,,,,,,,,,,,,,,,,,,,,1,,,,,,,,,,,,,,,,,,,,,,,,,,,,,,,,,,,,,,,,,,,,,,94,148246,21,Female,1,2024/03/15_12:54:45,YZ,None,
,,,,,,practice,0,15,3,788,9,J,1,left,0.6546009900048375,1,0,,,,,,,,,,,,,,,,,,,,,1,,,,,,,,,,,,,,,,,,,,,,,,,,,,,,,,,,,,,,,,,,,,,,94,148246,21,Female,1,2024/03/15_12:54:45,YZ,None,
,,,,,,practice,0,15,3,788,10,C,0,right,0.5367592049879022,1,0,,,,,,,,,,,,,,,,,,,,,1,,,,,,,,,,,,,,,,,,,,,,,,,,,,,,,,,,,,,,,,,,,,,,94,148246,21,Female,1,2024/03/15_12:54:45,YZ,None,
,,,,,,practice,0,15,3,788,11,S,1,left,0.6881719249940943,1,0,,,,,,,,,,,,,,,,,,,,,1,,,,,,,,,,,,,,,,,,,,,,,,,,,,,,,,,,,,,,,,,,,,,,94,148246,21,Female,1,2024/03/15_12:54:45,YZ,None,
,,,,,,practice,0,15,3,788,12,J,1,left,0.6972554409876466,1,0,,,,,,,,,,,,,,,,,,,,,1,,,,,,,,,,,,,,,,,,,,,,,,,,,,,,,,,,,,,,,,,,,,,,94,148246,21,Female,1,2024/03/15_12:54:45,YZ,None,
,,,,,,practice,0,15,3,788,13,J,0,left,0.7962579849991016,0,0,,,,,,,,,,,,,,,,,,,,,1,,,,,,,,,,,,,,,,,,,,,,,,,,,,,,,,,,,,,,,,,,,,,,94,148246,21,Female,1,2024/03/15_12:54:45,YZ,None,
,,,,,,practice,0,15,3,788,,,,,,,,0.9722222222222222,1.0,0.1111111111111111,0.8888888888888888,0.0,0.8888888888888888,0.7614303072310017,4,1,0,0,0,8,12,4,9,0,,,,1,,,,,,,,,,,,,,,,,,,,,,,,,,,,,,,,,,,,,,,,,,,,,,94,148246,21,Female,1,2024/03/15_12:54:45,YZ,None,
1,./instructions/inst_prac_3_next/Slide49.png,right,2.0638864590146113,594.9109804979817,596.9748669569963,,,,,,,,,,,,,,,,,,,,,,,,,,,,,,,,,1,,,,,,,,,,,,,,,,,,,,,,,,,,,,,,,,,,,,,,,,,,,,,,94,148246,21,Female,1,2024/03/15_12:54:45,YZ,None,
,,,,,,practice,0,10,3,583,1,Q,0,right,1.3310589699831326,1,0,,,,,,,,,,,,,,,,,,,,,1,,,,,,,,,,,,,,,,,,,,,,,,,,,,,,,,,,,,,,,,,,,,,,94,148246,21,Female,1,2024/03/15_12:54:45,YZ,None,
,,,,,,practice,0,10,3,583,2,S,0,right,0.4216391629888676,1,0,,,,,,,,,,,,,,,,,,,,,1,,,,,,,,,,,,,,,,,,,,,,,,,,,,,,,,,,,,,,,,,,,,,,94,148246,21,Female,1,2024/03/15_12:54:45,YZ,None,
,,,,,,practice,0,10,3,583,3,N,0,right,0.36929191899253055,1,0,,,,,,,,,,,,,,,,,,,,,1,,,,,,,,,,,,,,,,,,,,,,,,,,,,,,,,,,,,,,,,,,,,,,94,148246,21,Female,1,2024/03/15_12:54:45,YZ,None,
,,,,,,practice,0,10,3,583,4,Q,1,left,0.8581029860069975,1,0,,,,,,,,,,,,,,,,,,,,,1,,,,,,,,,,,,,,,,,,,,,,,,,,,,,,,,,,,,,,,,,,,,,,94,148246,21,Female,1,2024/03/15_12:54:45,YZ,None,
,,,,,,practice,0,10,3,583,5,J,0,right,0.5543079499911983,1,0,,,,,,,,,,,,,,,,,,,,,1,,,,,,,,,,,,,,,,,,,,,,,,,,,,,,,,,,,,,,,,,,,,,,94,148246,21,Female,1,2024/03/15_12:54:45,YZ,None,
,,,,,,practice,0,10,3,583,6,V,0,right,0.40460921998601407,1,0,,,,,,,,,,,,,,,,,,,,,1,,,,,,,,,,,,,,,,,,,,,,,,,,,,,,,,,,,,,,,,,,,,,,94,148246,21,Female,1,2024/03/15_12:54:45,YZ,None,
,,,,,,practice,0,10,3,583,7,N,0,right,0.536254985985579,1,0,,,,,,,,,,,,,,,,,,,,,1,,,,,,,,,,,,,,,,,,,,,,,,,,,,,,,,,,,,,,,,,,,,,,94,148246,21,Female,1,2024/03/15_12:54:45,YZ,None,
,,,,,,practice,0,10,3,583,8,S,0,right,0.6070311259827577,1,0,,,,,,,,,,,,,,,,,,,,,1,,,,,,,,,,,,,,,,,,,,,,,,,,,,,,,,,,,,,,,,,,,,,,94,148246,21,Female,1,2024/03/15_12:54:45,YZ,None,
,,,,,,practice,0,10,3,583,9,J,0,left,0.7519833609985653,0,0,,,,,,,,,,,,,,,,,,,,,1,,,,,,,,,,,,,,,,,,,,,,,,,,,,,,,,,,,,,,,,,,,,,,94,148246,21,Female,1,2024/03/15_12:54:45,YZ,None,
,,,,,,practice,0,10,3,583,10,V,0,right,0.34536018199287355,1,0,,,,,,,,,,,,,,,,,,,,,1,,,,,,,,,,,,,,,,,,,,,,,,,,,,,,,,,,,,,,,,,,,,,,94,148246,21,Female,1,2024/03/15_12:54:45,YZ,None,
,,,,,,practice,0,10,3,583,11,N,0,right,0.46439135598484427,1,0,,,,,,,,,,,,,,,,,,,,,1,,,,,,,,,,,,,,,,,,,,,,,,,,,,,,,,,,,,,,,,,,,,,,94,148246,21,Female,1,2024/03/15_12:54:45,YZ,None,
,,,,,,practice,0,10,3,583,12,J,1,right,0.5167100630060304,0,0,,,,,,,,,,,,,,,,,,,,,1,,,,,,,,,,,,,,,,,,,,,,,,,,,,,,,,,,,,,,,,,,,,,,94,148246,21,Female,1,2024/03/15_12:54:45,YZ,None,
,,,,,,practice,0,10,3,583,13,F,0,right,0.6718847420124803,1,0,,,,,,,,,,,,,,,,,,,,,1,,,,,,,,,,,,,,,,,,,,,,,,,,,,,,,,,,,,,,,,,,,,,,94,148246,21,Female,1,2024/03/15_12:54:45,YZ,None,
,,,,,,practice,0,10,3,583,14,N,1,right,0.5123812800156884,0,0,,,,,,,,,,,,,,,,,,,,,1,,,,,,,,,,,,,,,,,,,,,,,,,,,,,,,,,,,,,,,,,,,,,,94,148246,21,Female,1,2024/03/15_12:54:45,YZ,None,
,,,,,,practice,0,10,3,583,15,J,1,right,0.9360831390076783,0,0,,,,,,,,,,,,,,,,,,,,,1,,,,,,,,,,,,,,,,,,,,,,,,,,,,,,,,,,,,,,,,,,,,,,94,148246,21,Female,1,2024/03/15_12:54:45,YZ,None,
,,,,,,practice,0,10,3,583,,,,,,,,0.6988636363636364,0.25,0.09090909090909091,0.9090909090909091,0.0,0.9090909090909091,0.6187393628623492,1,1,0,0,0,10,11,4,11,0,,,,1,,,,,,,,,,,,,,,,,,,,,,,,,,,,,,,,,,,,,,,,,,,,,,94,148246,21,Female,1,2024/03/15_12:54:45,YZ,None,
,,,,,,practice,0,29,3,583,1,S,0,right,0.42854359198827296,1,0,,,,,,,,,,,,,,,,,,,,,1,,,,,,,,,,,,,,,,,,,,,,,,,,,,,,,,,,,,,,,,,,,,,,94,148246,21,Female,1,2024/03/15_12:54:45,YZ,None,
,,,,,,practice,0,29,3,583,2,N,0,right,0.37629840199952014,1,0,,,,,,,,,,,,,,,,,,,,,1,,,,,,,,,,,,,,,,,,,,,,,,,,,,,,,,,,,,,,,,,,,,,,94,148246,21,Female,1,2024/03/15_12:54:45,YZ,None,
,,,,,,practice,0,29,3,583,3,N,0,right,1.0104491439997219,1,0,,,,,,,,,,,,,,,,,,,,,1,,,,,,,,,,,,,,,,,,,,,,,,,,,,,,,,,,,,,,,,,,,,,,94,148246,21,Female,1,2024/03/15_12:54:45,YZ,None,
,,,,,,practice,0,29,3,583,4,J,0,right,1.4368609230150469,1,0,,,,,,,,,,,,,,,,,,,,,1,,,,,,,,,,,,,,,,,,,,,,,,,,,,,,,,,,,,,,,,,,,,,,94,148246,21,Female,1,2024/03/15_12:54:45,YZ,None,
,,,,,,practice,0,29,3,583,5,N,1,left,0.8005954739928711,1,0,,,,,,,,,,,,,,,,,,,,,1,,,,,,,,,,,,,,,,,,,,,,,,,,,,,,,,,,,,,,,,,,,,,,94,148246,21,Female,1,2024/03/15_12:54:45,YZ,None,
,,,,,,practice,0,29,3,583,6,N,1,right,0.4360732510103844,0,0,,,,,,,,,,,,,,,,,,,,,1,,,,,,,,,,,,,,,,,,,,,,,,,,,,,,,,,,,,,,,,,,,,,,94,148246,21,Female,1,2024/03/15_12:54:45,YZ,None,
,,,,,,practice,0,29,3,583,7,X,0,left,0.48100717799388804,0,0,,,,,,,,,,,,,,,,,,,,,1,,,,,,,,,,,,,,,,,,,,,,,,,,,,,,,,,,,,,,,,,,,,,,94,148246,21,Female,1,2024/03/15_12:54:45,YZ,None,
,,,,,,practice,0,29,3,583,8,X,0,right,1.5088077030086424,1,0,,,,,,,,,,,,,,,,,,,,,1,,,,,,,,,,,,,,,,,,,,,,,,,,,,,,,,,,,,,,,,,,,,,,94,148246,21,Female,1,2024/03/15_12:54:45,YZ,None,
,,,,,,practice,0,29,3,583,9,N,1,left,0.9880739670188632,1,0,,,,,,,,,,,,,,,,,,,,,1,,,,,,,,,,,,,,,,,,,,,,,,,,,,,,,,,,,,,,,,,,,,,,94,148246,21,Female,1,2024/03/15_12:54:45,YZ,None,
,,,,,,practice,0,29,3,583,10,Q,0,right,0.5170832379953936,1,0,,,,,,,,,,,,,,,,,,,,,1,,,,,,,,,,,,,,,,,,,,,,,,,,,,,,,,,,,,,,,,,,,,,,94,148246,21,Female,1,2024/03/15_12:54:45,YZ,None,
,,,,,,practice,0,29,3,583,11,Q,0,right,0.7886255670164246,1,0,,,,,,,,,,,,,,,,,,,,,1,,,,,,,,,,,,,,,,,,,,,,,,,,,,,,,,,,,,,,,,,,,,,,94,148246,21,Female,1,2024/03/15_12:54:45,YZ,None,
,,,,,,practice,0,29,3,583,12,F,0,right,0.6086473540053703,1,0,,,,,,,,,,,,,,,,,,,,,1,,,,,,,,,,,,,,,,,,,,,,,,,,,,,,,,,,,,,,,,,,,,,,94,148246,21,Female,1,2024/03/15_12:54:45,YZ,None,
,,,,,,practice,0,29,3,583,13,N,0,left,0.920704984018812,0,0,,,,,,,,,,,,,,,,,,,,,1,,,,,,,,,,,,,,,,,,,,,,,,,,,,,,,,,,,,,,,,,,,,,,94,148246,21,Female,1,2024/03/15_12:54:45,YZ,None,
,,,,,,practice,0,29,3,583,14,N,0,right,1.255110649013659,1,0,,,,,,,,,,,,,,,,,,,,,1,,,,,,,,,,,,,,,,,,,,,,,,,,,,,,,,,,,,,,,,,,,,,,94,148246,21,Female,1,2024/03/15_12:54:45,YZ,None,
,,,,,,practice,0,29,3,583,15,F,1,right,1.1123033850162756,0,0,,,,,,,,,,,,,,,,,,,,,1,,,,,,,,,,,,,,,,,,,,,,,,,,,,,,,,,,,,,,,,,,,,,,94,148246,21,Female,1,2024/03/15_12:54:45,YZ,None,
,,,,,,practice,0,29,3,583,,,,,,,,0.7386363636363636,0.5,0.18181818181818182,0.8181818181818182,0.0,0.8181818181818181,0.8446123207395431,2,2,0,0,0,9,11,4,11,0,,,,1,,,,,,,,,,,,,,,,,,,,,,,,,,,,,,,,,,,,,,,,,,,,,,94,148246,21,Female,1,2024/03/15_12:54:45,YZ,None,
1,./instructions/inst_redo_3/Slide47.png,right,0.20043483201880008,637.2715799929865,637.4720148250053,,,,,,,,,,,,,,,,,,,,,,,,,,,,,,,,,1,,,,,,,,,,,,,,,,,,,,,,,,,,,,,,,,,,,,,,,,,,,,,,94,148246,21,Female,1,2024/03/15_12:54:45,YZ,None,
,,,,,,practice,0,23,3,583,1,C,0,right,0.8022744519985281,1,0,,,,,,,,,,,,,,,,,,,,,1,,,,,,,,,,,,,,,,,,,,,,,,,,,,,,,,,,,,,,,,,,,,,,94,148246,21,Female,1,2024/03/15_12:54:45,YZ,None,
,,,,,,practice,0,23,3,583,2,N,0,right,0.5932585200062022,1,0,,,,,,,,,,,,,,,,,,,,,1,,,,,,,,,,,,,,,,,,,,,,,,,,,,,,,,,,,,,,,,,,,,,,94,148246,21,Female,1,2024/03/15_12:54:45,YZ,None,
,,,,,,practice,0,23,3,583,3,F,0,right,0.6002414250106085,1,0,,,,,,,,,,,,,,,,,,,,,1,,,,,,,,,,,,,,,,,,,,,,,,,,,,,,,,,,,,,,,,,,,,,,94,148246,21,Female,1,2024/03/15_12:54:45,YZ,None,
,,,,,,practice,0,23,3,583,4,X,0,right,0.6960236250015441,1,0,,,,,,,,,,,,,,,,,,,,,1,,,,,,,,,,,,,,,,,,,,,,,,,,,,,,,,,,,,,,,,,,,,,,94,148246,21,Female,1,2024/03/15_12:54:45,YZ,None,
,,,,,,practice,0,23,3,583,5,J,0,right,0.6599157080054283,1,0,,,,,,,,,,,,,,,,,,,,,1,,,,,,,,,,,,,,,,,,,,,,,,,,,,,,,,,,,,,,,,,,,,,,94,148246,21,Female,1,2024/03/15_12:54:45,YZ,None,
,,,,,,practice,0,23,3,583,6,Q,0,right,1.0287349820137024,1,0,,,,,,,,,,,,,,,,,,,,,1,,,,,,,,,,,,,,,,,,,,,,,,,,,,,,,,,,,,,,,,,,,,,,94,148246,21,Female,1,2024/03/15_12:54:45,YZ,None,
,,,,,,practice,0,23,3,583,7,V,0,right,0.6848235529905651,1,0,,,,,,,,,,,,,,,,,,,,,1,,,,,,,,,,,,,,,,,,,,,,,,,,,,,,,,,,,,,,,,,,,,,,94,148246,21,Female,1,2024/03/15_12:54:45,YZ,None,
,,,,,,practice,0,23,3,583,8,X,0,left,0.7441300809732638,0,0,,,,,,,,,,,,,,,,,,,,,1,,,,,,,,,,,,,,,,,,,,,,,,,,,,,,,,,,,,,,,,,,,,,,94,148246,21,Female,1,2024/03/15_12:54:45,YZ,None,
,,,,,,practice,0,23,3,583,9,Q,1,right,0.5043532150157262,0,0,,,,,,,,,,,,,,,,,,,,,1,,,,,,,,,,,,,,,,,,,,,,,,,,,,,,,,,,,,,,,,,,,,,,94,148246,21,Female,1,2024/03/15_12:54:45,YZ,None,
,,,,,,practice,0,23,3,583,10,N,0,right,0.503716217004694,1,0,,,,,,,,,,,,,,,,,,,,,1,,,,,,,,,,,,,,,,,,,,,,,,,,,,,,,,,,,,,,,,,,,,,,94,148246,21,Female,1,2024/03/15_12:54:45,YZ,None,
,,,,,,practice,0,23,3,583,11,Q,0,left,0.5522709010110702,0,0,,,,,,,,,,,,,,,,,,,,,1,,,,,,,,,,,,,,,,,,,,,,,,,,,,,,,,,,,,,,,,,,,,,,94,148246,21,Female,1,2024/03/15_12:54:45,YZ,None,
,,,,,,practice,0,23,3,583,12,Q,1,left,1.6426891470036935,1,0,,,,,,,,,,,,,,,,,,,,,1,,,,,,,,,,,,,,,,,,,,,,,,,,,,,,,,,,,,,,,,,,,,,,94,148246,21,Female,1,2024/03/15_12:54:45,YZ,None,
,,,,,,practice,0,23,3,583,13,S,0,right,0.508606535004219,1,0,,,,,,,,,,,,,,,,,,,,,1,,,,,,,,,,,,,,,,,,,,,,,,,,,,,,,,,,,,,,,,,,,,,,94,148246,21,Female,1,2024/03/15_12:54:45,YZ,None,
,,,,,,practice,0,23,3,583,14,Q,1,right,1.6367844369960949,0,0,,,,,,,,,,,,,,,,,,,,,1,,,,,,,,,,,,,,,,,,,,,,,,,,,,,,,,,,,,,,,,,,,,,,94,148246,21,Female,1,2024/03/15_12:54:45,YZ,None,
,,,,,,practice,0,23,3,583,15,Q,1,left,1.151941434975015,1,0,,,,,,,,,,,,,,,,,,,,,1,,,,,,,,,,,,,,,,,,,,,,,,,,,,,,,,,,,,,,,,,,,,,,94,148246,21,Female,1,2024/03/15_12:54:45,YZ,None,
,,,,,,practice,0,23,3,583,,,,,,,,0.7386363636363636,0.5,0.18181818181818182,0.8181818181818182,0.0,0.8181818181818181,0.820650948867357,2,2,0,0,0,9,11,4,11,0,,,,1,,,,,,,,,,,,,,,,,,,,,,,,,,,,,,,,,,,,,,,,,,,,,,94,148246,21,Female,1,2024/03/15_12:54:45,YZ,None,
1,./instructions/inst_redo_3/Slide47.png,right,2.937844040017808,658.7011147179874,661.6389587580052,,,,,,,,,,,,,,,,,,,,,,,,,,,,,,,,,1,,,,,,,,,,,,,,,,,,,,,,,,,,,,,,,,,,,,,,,,,,,,,,94,148246,21,Female,1,2024/03/15_12:54:45,YZ,None,
,,,,,,practice,0,28,3,583,1,F,0,right,1.0276486600050703,1,0,,,,,,,,,,,,,,,,,,,,,1,,,,,,,,,,,,,,,,,,,,,,,,,,,,,,,,,,,,,,,,,,,,,,94,148246,21,Female,1,2024/03/15_12:54:45,YZ,None,
,,,,,,practice,0,28,3,583,2,F,0,right,0.5842978699947707,1,0,,,,,,,,,,,,,,,,,,,,,1,,,,,,,,,,,,,,,,,,,,,,,,,,,,,,,,,,,,,,,,,,,,,,94,148246,21,Female,1,2024/03/15_12:54:45,YZ,None,
,,,,,,practice,0,28,3,583,3,J,0,right,0.679967549018329,1,0,,,,,,,,,,,,,,,,,,,,,1,,,,,,,,,,,,,,,,,,,,,,,,,,,,,,,,,,,,,,,,,,,,,,94,148246,21,Female,1,2024/03/15_12:54:45,YZ,None,
,,,,,,practice,0,28,3,583,4,F,1,left,0.7223307180101983,1,0,,,,,,,,,,,,,,,,,,,,,1,,,,,,,,,,,,,,,,,,,,,,,,,,,,,,,,,,,,,,,,,,,,,,94,148246,21,Female,1,2024/03/15_12:54:45,YZ,None,
,,,,,,practice,0,28,3,583,5,F,1,left,1.3768621100171003,1,0,,,,,,,,,,,,,,,,,,,,,1,,,,,,,,,,,,,,,,,,,,,,,,,,,,,,,,,,,,,,,,,,,,,,94,148246,21,Female,1,2024/03/15_12:54:45,YZ,None,
,,,,,,practice,0,28,3,583,6,X,0,right,0.612417825992452,1,0,,,,,,,,,,,,,,,,,,,,,1,,,,,,,,,,,,,,,,,,,,,,,,,,,,,,,,,,,,,,,,,,,,,,94,148246,21,Female,1,2024/03/15_12:54:45,YZ,None,
,,,,,,practice,0,28,3,583,7,Q,0,right,0.7877938080055173,1,0,,,,,,,,,,,,,,,,,,,,,1,,,,,,,,,,,,,,,,,,,,,,,,,,,,,,,,,,,,,,,,,,,,,,94,148246,21,Female,1,2024/03/15_12:54:45,YZ,None,
,,,,,,practice,0,28,3,583,8,J,0,right,0.8879051120020449,1,0,,,,,,,,,,,,,,,,,,,,,1,,,,,,,,,,,,,,,,,,,,,,,,,,,,,,,,,,,,,,,,,,,,,,94,148246,21,Female,1,2024/03/15_12:54:45,YZ,None,
,,,,,,practice,0,28,3,583,9,X,1,left,1.1761327660060488,1,0,,,,,,,,,,,,,,,,,,,,,1,,,,,,,,,,,,,,,,,,,,,,,,,,,,,,,,,,,,,,,,,,,,,,94,148246,21,Female,1,2024/03/15_12:54:45,YZ,None,
,,,,,,practice,0,28,3,583,10,S,0,right,0.5085490549972747,1,0,,,,,,,,,,,,,,,,,,,,,1,,,,,,,,,,,,,,,,,,,,,,,,,,,,,,,,,,,,,,,,,,,,,,94,148246,21,Female,1,2024/03/15_12:54:45,YZ,None,
,,,,,,practice,0,28,3,583,11,F,0,right,1.2646805550029967,1,0,,,,,,,,,,,,,,,,,,,,,1,,,,,,,,,,,,,,,,,,,,,,,,,,,,,,,,,,,,,,,,,,,,,,94,148246,21,Female,1,2024/03/15_12:54:45,YZ,None,
,,,,,,practice,0,28,3,583,12,V,0,right,1.4045991820166819,1,0,,,,,,,,,,,,,,,,,,,,,1,,,,,,,,,,,,,,,,,,,,,,,,,,,,,,,,,,,,,,,,,,,,,,94,148246,21,Female,1,2024/03/15_12:54:45,YZ,None,
,,,,,,practice,0,28,3,583,13,F,0,left,0.8476505709986668,0,0,,,,,,,,,,,,,,,,,,,,,1,,,,,,,,,,,,,,,,,,,,,,,,,,,,,,,,,,,,,,,,,,,,,,94,148246,21,Female,1,2024/03/15_12:54:45,YZ,None,
,,,,,,practice,0,28,3,583,14,F,1,right,1.2846607250103261,0,0,,,,,,,,,,,,,,,,,,,,,1,,,,,,,,,,,,,,,,,,,,,,,,,,,,,,,,,,,,,,,,,,,,,,94,148246,21,Female,1,2024/03/15_12:54:45,YZ,None,
,,,,,,practice,0,28,3,583,15,V,1,right,2.6158212320005987,0,0,,,,,,,,,,,,,,,,,,,,,1,,,,,,,,,,,,,,,,,,,,,,,,,,,,,,,,,,,,,,,,,,,,,,94,148246,21,Female,1,2024/03/15_12:54:45,YZ,None,
,,,,,,practice,0,28,3,583,,,,,,,,0.835,0.6,0.1,0.9,0.0,0.9,1.0520878492718717,3,1,0,0,0,9,12,5,10,0,,,,1,,,,,,,,,,,,,,,,,,,,,,,,,,,,,,,,,,,,,,,,,,,,,,94,148246,21,Female,1,2024/03/15_12:54:45,YZ,None,
1,./instructions/inst_prac_main/Slide51.png,right,1.6137636089988519,687.8731897069956,689.4869533159945,,,,,,,,,,,,,,,,,,,,,,,,,,,,,,,,,1,,,,,,,,,,,,,,,,,,,,,,,,,,,,,,,,,,,,,,,,,,,,,,94,148246,21,Female,1,2024/03/15_12:54:45,YZ,None,
2,./instructions/inst_prac_main/Slide52.png,right,7.99535268600448,689.5156193029834,697.5109719889879,,,,,,,,,,,,,,,,,,,,,,,,,,,,,,,,,1,,,,,,,,,,,,,,,,,,,,,,,,,,,,,,,,,,,,,,,,,,,,,,94,148246,21,Female,1,2024/03/15_12:54:45,YZ,None,
3,./instructions/inst_prac_main/Slide53.png,right,2.723046915984014,697.5398685160035,700.2629154319875,,,,,,,,,,,,,,,,,,,,,,,,,,,,,,,,,1,,,,,,,,,,,,,,,,,,,,,,,,,,,,,,,,,,,,,,,,,,,,,,94,148246,21,Female,1,2024/03/15_12:54:45,YZ,None,
4,./instructions/inst_prac_main/Slide54.png,right,2.746845729998313,700.2920053509879,703.0388510809862,,,,,,,,,,,,,,,,,,,,,,,,,,,,,,,,,1,,,,,,,,,,,,,,,,,,,,,,,,,,,,,,,,,,,,,,,,,,,,,,94,148246,21,Female,1,2024/03/15_12:54:45,YZ,None,
,,,,,,practice_main,0,1,3,583,1,C,0,right,1.1787213999778032,1,0,,,,,,,,,,,,,,,,,,,,,1,,,,,,,,,,,,,,,,,,,,,,,,,,,,,,,,,,,,,,,,,,,,,,94,148246,21,Female,1,2024/03/15_12:54:45,YZ,None,
,,,,,,practice_main,0,1,3,583,2,F,0,right,0.4866818060108926,1,0,,,,,,,,,,,,,,,,,,,,,1,,,,,,,,,,,,,,,,,,,,,,,,,,,,,,,,,,,,,,,,,,,,,,94,148246,21,Female,1,2024/03/15_12:54:45,YZ,None,
,,,,,,practice_main,0,1,3,583,3,J,0,right,0.366857022017939,1,0,,,,,,,,,,,,,,,,,,,,,1,,,,,,,,,,,,,,,,,,,,,,,,,,,,,,,,,,,,,,,,,,,,,,94,148246,21,Female,1,2024/03/15_12:54:45,YZ,None,
,,,,,,practice_main,0,1,3,583,4,Q,0,right,0.43396931199822575,1,0,,,,,,,,,,,,,,,,,,,,,1,,,,,,,,,,,,,,,,,,,,,,,,,,,,,,,,,,,,,,,,,,,,,,94,148246,21,Female,1,2024/03/15_12:54:45,YZ,None,
,,,,,,practice_main,0,1,3,583,5,F,1,left,0.7245006139855832,1,0,,,,,,,,,,,,,,,,,,,,,1,,,,,,,,,,,,,,,,,,,,,,,,,,,,,,,,,,,,,,,,,,,,,,94,148246,21,Female,1,2024/03/15_12:54:45,YZ,None,
,,,,,,practice_main,0,1,3,583,6,J,1,right,0.4204547239933163,0,0,,,,,,,,,,,,,,,,,,,,,1,,,,,,,,,,,,,,,,,,,,,,,,,,,,,,,,,,,,,,,,,,,,,,94,148246,21,Female,1,2024/03/15_12:54:45,YZ,None,
,,,,,,practice_main,0,1,3,583,7,X,0,right,0.4484943659917917,1,0,,,,,,,,,,,,,,,,,,,,,1,,,,,,,,,,,,,,,,,,,,,,,,,,,,,,,,,,,,,,,,,,,,,,94,148246,21,Female,1,2024/03/15_12:54:45,YZ,None,
,,,,,,practice_main,0,1,3,583,8,F,1,right,0.5446205609769095,0,0,,,,,,,,,,,,,,,,,,,,,1,,,,,,,,,,,,,,,,,,,,,,,,,,,,,,,,,,,,,,,,,,,,,,94,148246,21,Female,1,2024/03/15_12:54:45,YZ,None,
,,,,,,practice_main,0,1,3,583,9,J,1,right,0.5477673950081225,0,0,,,,,,,,,,,,,,,,,,,,,1,,,,,,,,,,,,,,,,,,,,,,,,,,,,,,,,,,,,,,,,,,,,,,94,148246,21,Female,1,2024/03/15_12:54:45,YZ,None,
,,,,,,practice_main,0,1,3,583,10,J,0,left,0.4956012360053137,0,0,,,,,,,,,,,,,,,,,,,,,1,,,,,,,,,,,,,,,,,,,,,,,,,,,,,,,,,,,,,,,,,,,,,,94,148246,21,Female,1,2024/03/15_12:54:45,YZ,None,
,,,,,,practice_main,0,1,3,583,11,C,0,right,0.3962596630153712,1,0,,,,,,,,,,,,,,,,,,,,,1,,,,,,,,,,,,,,,,,,,,,,,,,,,,,,,,,,,,,,,,,,,,,,94,148246,21,Female,1,2024/03/15_12:54:45,YZ,None,
,,,,,,practice_main,0,1,3,583,12,V,0,right,0.4336739430145826,1,0,,,,,,,,,,,,,,,,,,,,,1,,,,,,,,,,,,,,,,,,,,,,,,,,,,,,,,,,,,,,,,,,,,,,94,148246,21,Female,1,2024/03/15_12:54:45,YZ,None,
,,,,,,practice_main,0,1,3,583,13,N,0,right,0.5121616240066942,1,0,,,,,,,,,,,,,,,,,,,,,1,,,,,,,,,,,,,,,,,,,,,,,,,,,,,,,,,,,,,,,,,,,,,,94,148246,21,Female,1,2024/03/15_12:54:45,YZ,None,
,,,,,,practice_main,0,1,3,583,14,J,0,left,0.6812033540045377,0,0,,,,,,,,,,,,,,,,,,,,,1,,,,,,,,,,,,,,,,,,,,,,,,,,,,,,,,,,,,,,,,,,,,,,94,148246,21,Female,1,2024/03/15_12:54:45,YZ,None,
,,,,,,practice_main,0,1,3,583,15,X,0,right,0.12530476300162263,1,0,,,,,,,,,,,,,,,,,,,,,1,,,,,,,,,,,,,,,,,,,,,,,,,,,,,,,,,,,,,,,,,,,,,,94,148246,21,Female,1,2024/03/15_12:54:45,YZ,None,
,,,,,,practice_main,0,1,3,583,,,,,,,,0.5852272727272727,0.25,0.18181818181818182,0.8181818181818182,0.0,0.8181818181818181,0.5197514522005804,1,2,0,0,0,9,10,4,11,0,,,,1,,,,,,,,,,,,,,,,,,,,,,,,,,,,,,,,,,,,,,,,,,,,,,94,148246,21,Female,1,2024/03/15_12:54:45,YZ,None,
,,,,,240315_131920,PRACTICE,0,1,3,583,,,,,,,,,,,,,,,,,,,,,,,,,,,,1,31,2,1,cue1.png,hard,B,43,1.0362352580123115,0,714.1536147430015,715.2045782599889,,,,,,,,,,,,,,,,,,,,,,,,,,,,,,,,,,,94,148246,21,Female,1,2024/03/15_12:54:45,YZ,None,
,,,,,,practice_main,0,2,3,583,1,J,0,right,0.5988513359916396,1,0,,,,,,,,,,,,,,,,,,,,,1,,,,,,,,,,,,,,,,,,,,,,,,,,,,,,,,,,,,,,,,,,,,,,94,148246,21,Female,1,2024/03/15_12:54:45,YZ,None,
,,,,,,practice_main,0,2,3,583,2,X,0,right,0.37295540998457,1,0,,,,,,,,,,,,,,,,,,,,,1,,,,,,,,,,,,,,,,,,,,,,,,,,,,,,,,,,,,,,,,,,,,,,94,148246,21,Female,1,2024/03/15_12:54:45,YZ,None,
,,,,,,practice_main,0,2,3,583,3,N,0,right,0.6082257679954637,1,0,,,,,,,,,,,,,,,,,,,,,1,,,,,,,,,,,,,,,,,,,,,,,,,,,,,,,,,,,,,,,,,,,,,,94,148246,21,Female,1,2024/03/15_12:54:45,YZ,None,
,,,,,,practice_main,0,2,3,583,4,Q,0,right,0.48755736998282373,1,0,,,,,,,,,,,,,,,,,,,,,1,,,,,,,,,,,,,,,,,,,,,,,,,,,,,,,,,,,,,,,,,,,,,,94,148246,21,Female,1,2024/03/15_12:54:45,YZ,None,
,,,,,,practice_main,0,2,3,583,5,V,0,right,0.4734696859959513,1,0,,,,,,,,,,,,,,,,,,,,,1,,,,,,,,,,,,,,,,,,,,,,,,,,,,,,,,,,,,,,,,,,,,,,94,148246,21,Female,1,2024/03/15_12:54:45,YZ,None,
,,,,,,practice_main,0,2,3,583,6,N,1,left,0.960112922010012,1,0,,,,,,,,,,,,,,,,,,,,,1,,,,,,,,,,,,,,,,,,,,,,,,,,,,,,,,,,,,,,,,,,,,,,94,148246,21,Female,1,2024/03/15_12:54:45,YZ,None,
,,,,,,practice_main,0,2,3,583,7,F,0,right,0.4950663610070478,1,0,,,,,,,,,,,,,,,,,,,,,1,,,,,,,,,,,,,,,,,,,,,,,,,,,,,,,,,,,,,,,,,,,,,,94,148246,21,Female,1,2024/03/15_12:54:45,YZ,None,
,,,,,,practice_main,0,2,3,583,8,Q,0,left,0.9809541889990214,0,0,,,,,,,,,,,,,,,,,,,,,1,,,,,,,,,,,,,,,,,,,,,,,,,,,,,,,,,,,,,,,,,,,,,,94,148246,21,Female,1,2024/03/15_12:54:45,YZ,None,
,,,,,,practice_main,0,2,3,583,9,V,0,right,0.0743794110021554,1,0,,,,,,,,,,,,,,,,,,,,,1,,,,,,,,,,,,,,,,,,,,,,,,,,,,,,,,,,,,,,,,,,,,,,94,148246,21,Female,1,2024/03/15_12:54:45,YZ,None,
,,,,,,practice_main,0,2,3,583,10,F,1,right,0.692992017022334,0,0,,,,,,,,,,,,,,,,,,,,,1,,,,,,,,,,,,,,,,,,,,,,,,,,,,,,,,,,,,,,,,,,,,,,94,148246,21,Female,1,2024/03/15_12:54:45,YZ,None,
,,,,,,practice_main,0,2,3,583,11,Q,1,left,0.6084417560196016,1,0,,,,,,,,,,,,,,,,,,,,,1,,,,,,,,,,,,,,,,,,,,,,,,,,,,,,,,,,,,,,,,,,,,,,94,148246,21,Female,1,2024/03/15_12:54:45,YZ,None,
,,,,,,practice_main,0,2,3,583,12,J,0,right,0.7081891819834709,1,0,,,,,,,,,,,,,,,,,,,,,1,,,,,,,,,,,,,,,,,,,,,,,,,,,,,,,,,,,,,,,,,,,,,,94,148246,21,Female,1,2024/03/15_12:54:45,YZ,None,
,,,,,,practice_main,0,2,3,583,13,S,0,right,0.6404626379953697,1,0,,,,,,,,,,,,,,,,,,,,,1,,,,,,,,,,,,,,,,,,,,,,,,,,,,,,,,,,,,,,,,,,,,,,94,148246,21,Female,1,2024/03/15_12:54:45,YZ,None,
,,,,,,practice_main,0,2,3,583,14,J,0,left,0.8073321160045452,0,0,,,,,,,,,,,,,,,,,,,,,1,,,,,,,,,,,,,,,,,,,,,,,,,,,,,,,,,,,,,,,,,,,,,,94,148246,21,Female,1,2024/03/15_12:54:45,YZ,None,
,,,,,,practice_main,0,2,3,583,15,J,1,right,1.1591161639953498,0,0,,,,,,,,,,,,,,,,,,,,,1,,,,,,,,,,,,,,,,,,,,,,,,,,,,,,,,,,,,,,,,,,,,,,94,148246,21,Female,1,2024/03/15_12:54:45,YZ,None,
,,,,,,practice_main,0,2,3,583,,,,,,,,0.7386363636363636,0.5,0.18181818181818182,0.8181818181818182,0.0,0.8181818181818181,0.6445404217326237,2,2,0,0,0,9,11,4,11,0,,,,1,,,,,,,,,,,,,,,,,,,,,,,,,,,,,,,,,,,,,,,,,,,,,,94,148246,21,Female,1,2024/03/15_12:54:45,YZ,None,
,,,,,240315_131948,PRACTICE,0,2,3,583,,,,,,,,,,,,,,,,,,,,,,,,,,,,1,39,3,2,cue1.png,hard,B,32,1.473063343000831,0,740.0323463910026,741.5309016719984,,,,,,,,,,,,,,,,,,,,,,,,,,,,,,,,,,,94,148246,21,Female,1,2024/03/15_12:54:45,YZ,None,
,,,,,,practice_main,0,3,3,583,1,N,0,left,1.0092264409759082,0,0,,,,,,,,,,,,,,,,,,,,,1,,,,,,,,,,,,,,,,,,,,,,,,,,,,,,,,,,,,,,,,,,,,,,94,148246,21,Female,1,2024/03/15_12:54:45,YZ,None,
,,,,,,practice_main,0,3,3,583,2,X,0,right,0.5426391889923252,1,0,,,,,,,,,,,,,,,,,,,,,1,,,,,,,,,,,,,,,,,,,,,,,,,,,,,,,,,,,,,,,,,,,,,,94,148246,21,Female,1,2024/03/15_12:54:45,YZ,None,
,,,,,,practice_main,0,3,3,583,3,F,0,right,0.6092066860001069,1,0,,,,,,,,,,,,,,,,,,,,,1,,,,,,,,,,,,,,,,,,,,,,,,,,,,,,,,,,,,,,,,,,,,,,94,148246,21,Female,1,2024/03/15_12:54:45,YZ,None,
,,,,,,practice_main,0,3,3,583,4,N,1,left,0.6194235649891198,1,0,,,,,,,,,,,,,,,,,,,,,1,,,,,,,,,,,,,,,,,,,,,,,,,,,,,,,,,,,,,,,,,,,,,,94,148246,21,Female,1,2024/03/15_12:54:45,YZ,None,
,,,,,,practice_main,0,3,3,583,5,S,0,right,0.5701409640023485,1,0,,,,,,,,,,,,,,,,,,,,,1,,,,,,,,,,,,,,,,,,,,,,,,,,,,,,,,,,,,,,,,,,,,,,94,148246,21,Female,1,2024/03/15_12:54:45,YZ,None,
,,,,,,practice_main,0,3,3,583,6,F,1,right,0.48232071599341,0,0,,,,,,,,,,,,,,,,,,,,,1,,,,,,,,,,,,,,,,,,,,,,,,,,,,,,,,,,,,,,,,,,,,,,94,148246,21,Female,1,2024/03/15_12:54:45,YZ,None,
,,,,,,practice_main,0,3,3,583,7,F,0,right,0.7804295460227877,1,0,,,,,,,,,,,,,,,,,,,,,1,,,,,,,,,,,,,,,,,,,,,,,,,,,,,,,,,,,,,,,,,,,,,,94,148246,21,Female,1,2024/03/15_12:54:45,YZ,None,
,,,,,,practice_main,0,3,3,583,8,X,0,left,0.7861442230059765,0,0,,,,,,,,,,,,,,,,,,,,,1,,,,,,,,,,,,,,,,,,,,,,,,,,,,,,,,,,,,,,,,,,,,,,94,148246,21,Female,1,2024/03/15_12:54:45,YZ,None,
,,,,,,practice_main,0,3,3,583,9,F,1,left,0.8716243750241119,1,0,,,,,,,,,,,,,,,,,,,,,1,,,,,,,,,,,,,,,,,,,,,,,,,,,,,,,,,,,,,,,,,,,,,,94,148246,21,Female,1,2024/03/15_12:54:45,YZ,None,
,,,,,,practice_main,0,3,3,583,10,V,0,right,0.3654235070280265,1,0,,,,,,,,,,,,,,,,,,,,,1,,,,,,,,,,,,,,,,,,,,,,,,,,,,,,,,,,,,,,,,,,,,,,94,148246,21,Female,1,2024/03/15_12:54:45,YZ,None,
,,,,,,practice_main,0,3,3,583,11,X,1,right,1.9879837000044063,0,0,,,,,,,,,,,,,,,,,,,,,1,,,,,,,,,,,,,,,,,,,,,,,,,,,,,,,,,,,,,,,,,,,,,,94,148246,21,Female,1,2024/03/15_12:54:45,YZ,None,
,,,,,,practice_main,0,3,3,583,12,N,0,left,0.858166259014979,0,0,,,,,,,,,,,,,,,,,,,,,1,,,,,,,,,,,,,,,,,,,,,,,,,,,,,,,,,,,,,,,,,,,,,,94,148246,21,Female,1,2024/03/15_12:54:45,YZ,None,
,,,,,,practice_main,0,3,3,583,13,Q,0,right,0.7116617680003401,1,0,,,,,,,,,,,,,,,,,,,,,1,,,,,,,,,,,,,,,,,,,,,,,,,,,,,,,,,,,,,,,,,,,,,,94,148246,21,Female,1,2024/03/15_12:54:45,YZ,None,
,,,,,,practice_main,0,3,3,583,14,X,1,right,0.7158606539887842,0,0,,,,,,,,,,,,,,,,,,,,,1,,,,,,,,,,,,,,,,,,,,,,,,,,,,,,,,,,,,,,,,,,,,,,94,148246,21,Female,1,2024/03/15_12:54:45,YZ,None,
,,,,,,practice_main,0,3,3,583,15,F,0,right,0.5419871250051074,1,0,,,,,,,,,,,,,,,,,,,,,1,,,,,,,,,,,,,,,,,,,,,,,,,,,,,,,,,,,,,,,,,,,,,,94,148246,21,Female,1,2024/03/15_12:54:45,YZ,None,
,,,,,,practice_main,0,3,3,583,,,,,,,,0.5875,0.4,0.3,0.7,0.0,0.7,0.7634825812031826,2,3,0,0,0,7,9,5,10,0,,,,1,,,,,,,,,,,,,,,,,,,,,,,,,,,,,,,,,,,,,,,,,,,,,,94,148246,21,Female,1,2024/03/15_12:54:45,YZ,None,
,,,,,240315_132017,PRACTICE,0,3,3,583,,,,,,,,,,,,,,,,,,,,,,,,,,,,1,17,4,3,cue1.png,hard,B,58,0.6476632499834523,0,768.2415191959881,768.9087895609846,,,,,,,,,,,,,,,,,,,,,,,,,,,,,,,,,,,94,148246,21,Female,1,2024/03/15_12:54:45,YZ,None,
-1,./instructions/inst_prac_end/Slide56.png,left,22.705851601000177,795.9333012010029,818.6391528020031,,,,,,,,,,,,,,,,,,,,,,,,,,,,,,,,,1,,,,,,,,,,,,,,,,,,,,,,,,,,,,,,,,,,,,,,,,,,,,,,94,148246,21,Female,1,2024/03/15_12:54:45,YZ,None,
1,./instructions/inst_test/Slide57.png,right,35.30849794897949,818.6663820770045,853.974880025984,,,,,,,,,,,,,,,,,,,,,,,,,,,,,,,,,1,,,,,,,,,,,,,,,,,,,,,,,,,,,,,,,,,,,,,,,,,,,,,,94,148246,21,Female,1,2024/03/15_12:54:45,YZ,None,
,,,,,,test,1,1,1,583,1,X,0,left,0.9855534800153691,0,0,,,,,,,,,,,,,,,,,,,,,1,,,,,,,,,,,,,,,,,,,,,,,,,,,,,,,,,,,,,,,,,,,,,,94,148246,21,Female,1,2024/03/15_12:54:45,YZ,None,
,,,,,,test,1,1,1,583,2,X,1,right,0.5817975710087921,0,0,,,,,,,,,,,,,,,,,,,,,1,,,,,,,,,,,,,,,,,,,,,,,,,,,,,,,,,,,,,,,,,,,,,,94,148246,21,Female,1,2024/03/15_12:54:45,YZ,None,
,,,,,,test,1,1,1,583,3,J,0,right,1.1481248649943154,1,0,,,,,,,,,,,,,,,,,,,,,1,,,,,,,,,,,,,,,,,,,,,,,,,,,,,,,,,,,,,,,,,,,,,,94,148246,21,Female,1,2024/03/15_12:54:45,YZ,None,
,,,,,,test,1,1,1,583,4,X,0,left,0.8584251129941549,0,0,,,,,,,,,,,,,,,,,,,,,1,,,,,,,,,,,,,,,,,,,,,,,,,,,,,,,,,,,,,,,,,,,,,,94,148246,21,Female,1,2024/03/15_12:54:45,YZ,None,
,,,,,,test,1,1,1,583,5,Q,0,right,0.432911587995477,1,0,,,,,,,,,,,,,,,,,,,,,1,,,,,,,,,,,,,,,,,,,,,,,,,,,,,,,,,,,,,,,,,,,,,,94,148246,21,Female,1,2024/03/15_12:54:45,YZ,None,
,,,,,,test,1,1,1,583,6,Q,1,left,0.8673945329792332,1,0,,,,,,,,,,,,,,,,,,,,,1,,,,,,,,,,,,,,,,,,,,,,,,,,,,,,,,,,,,,,,,,,,,,,94,148246,21,Female,1,2024/03/15_12:54:45,YZ,None,
,,,,,,test,1,1,1,583,7,N,0,right,0.5408295660163276,1,0,,,,,,,,,,,,,,,,,,,,,1,,,,,,,,,,,,,,,,,,,,,,,,,,,,,,,,,,,,,,,,,,,,,,94,148246,21,Female,1,2024/03/15_12:54:45,YZ,None,
,,,,,,test,1,1,1,583,8,S,0,right,0.49413139501120895,1,0,,,,,,,,,,,,,,,,,,,,,1,,,,,,,,,,,,,,,,,,,,,,,,,,,,,,,,,,,,,,,,,,,,,,94,148246,21,Female,1,2024/03/15_12:54:45,YZ,None,
,,,,,,test,1,1,1,583,9,N,0,right,0.9593771289801225,1,0,,,,,,,,,,,,,,,,,,,,,1,,,,,,,,,,,,,,,,,,,,,,,,,,,,,,,,,,,,,,,,,,,,,,94,148246,21,Female,1,2024/03/15_12:54:45,YZ,None,
,,,,,,test,1,1,1,583,10,S,0,right,0.8564495499886107,1,0,,,,,,,,,,,,,,,,,,,,,1,,,,,,,,,,,,,,,,,,,,,,,,,,,,,,,,,,,,,,,,,,,,,,94,148246,21,Female,1,2024/03/15_12:54:45,YZ,None,
,,,,,,test,1,1,1,583,11,S,1,left,0.6608418409887236,1,0,,,,,,,,,,,,,,,,,,,,,1,,,,,,,,,,,,,,,,,,,,,,,,,,,,,,,,,,,,,,,,,,,,,,94,148246,21,Female,1,2024/03/15_12:54:45,YZ,None,
,,,,,,test,1,1,1,583,12,Q,0,right,0.3341489619924687,1,0,,,,,,,,,,,,,,,,,,,,,1,,,,,,,,,,,,,,,,,,,,,,,,,,,,,,,,,,,,,,,,,,,,,,94,148246,21,Female,1,2024/03/15_12:54:45,YZ,None,
,,,,,,test,1,1,1,583,13,F,0,right,0.36736685899086297,1,0,,,,,,,,,,,,,,,,,,,,,1,,,,,,,,,,,,,,,,,,,,,,,,,,,,,,,,,,,,,,,,,,,,,,94,148246,21,Female,1,2024/03/15_12:54:45,YZ,None,
,,,,,,test,1,1,1,583,14,C,0,right,0.492007035005372,1,0,,,,,,,,,,,,,,,,,,,,,1,,,,,,,,,,,,,,,,,,,,,,,,,,,,,,,,,,,,,,,,,,,,,,94,148246,21,Female,1,2024/03/15_12:54:45,YZ,None,
,,,,,,test,1,1,1,583,15,C,1,left,0.5581724009825848,1,0,,,,,,,,,,,,,,,,,,,,,1,,,,,,,,,,,,,,,,,,,,,,,,,,,,,,,,,,,,,,,,,,,,,,94,148246,21,Female,1,2024/03/15_12:54:45,YZ,None,
,,,,,,Test,1,1,1,583,,,,,,,,0.8465909090909092,0.75,0.18181818181818182,0.8181818181818182,0.0,0.8181818181818181,0.6758354591962416,3,2,0,0,0,9,12,4,11,0,,,,1,,,,,,,,,,,,,,,,,,,,,,,,,,,,,,,,,,,,,,,,,,,,,,94,148246,21,Female,1,2024/03/15_12:54:45,YZ,None,
,,,,,240315_132147,TEST,1,1,1,583,,,,,,,,,,,,,,,,,,,,,,,,,,,,1,1,1,1,cue2.png,easy,B,15,1.0513962779950816,0,859.0257267020061,860.0934613900026,,,,,,,,,,,,,,,,,,,,,,,,,,,,,,,,,,,94,148246,21,Female,1,2024/03/15_12:54:45,YZ,None,
,,,,,,test,1,2,3,583,1,V,0,left,1.0301916569878813,0,0,,,,,,,,,,,,,,,,,,,,,1,,,,,,,,,,,,,,,,,,,,,,,,,,,,,,,,,,,,,,,,,,,,,,94,148246,21,Female,1,2024/03/15_12:54:45,YZ,None,
,,,,,,test,1,2,3,583,2,V,0,right,0.5784877800033428,1,0,,,,,,,,,,,,,,,,,,,,,1,,,,,,,,,,,,,,,,,,,,,,,,,,,,,,,,,,,,,,,,,,,,,,94,148246,21,Female,1,2024/03/15_12:54:45,YZ,None,
,,,,,,test,1,2,3,583,3,J,0,right,1.326198775001103,1,0,,,,,,,,,,,,,,,,,,,,,1,,,,,,,,,,,,,,,,,,,,,,,,,,,,,,,,,,,,,,,,,,,,,,94,148246,21,Female,1,2024/03/15_12:54:45,YZ,None,
,,,,,,test,1,2,3,583,4,V,1,right,0.8595132670016028,0,0,,,,,,,,,,,,,,,,,,,,,1,,,,,,,,,,,,,,,,,,,,,,,,,,,,,,,,,,,,,,,,,,,,,,94,148246,21,Female,1,2024/03/15_12:54:45,YZ,None,
,,,,,,test,1,2,3,583,5,X,0,right,0.63140227200347,1,0,,,,,,,,,,,,,,,,,,,,,1,,,,,,,,,,,,,,,,,,,,,,,,,,,,,,,,,,,,,,,,,,,,,,94,148246,21,Female,1,2024/03/15_12:54:45,YZ,None,
,,,,,,test,1,2,3,583,6,S,0,right,0.4877015429956373,1,0,,,,,,,,,,,,,,,,,,,,,1,,,,,,,,,,,,,,,,,,,,,,,,,,,,,,,,,,,,,,,,,,,,,,94,148246,21,Female,1,2024/03/15_12:54:45,YZ,None,
,,,,,,test,1,2,3,583,7,F,0,right,0.4561544519965537,1,0,,,,,,,,,,,,,,,,,,,,,1,,,,,,,,,,,,,,,,,,,,,,,,,,,,,,,,,,,,,,,,,,,,,,94,148246,21,Female,1,2024/03/15_12:54:45,YZ,None,
,,,,,,test,1,2,3,583,8,X,1,right,0.5607133990270086,0,0,,,,,,,,,,,,,,,,,,,,,1,,,,,,,,,,,,,,,,,,,,,,,,,,,,,,,,,,,,,,,,,,,,,,94,148246,21,Female,1,2024/03/15_12:54:45,YZ,None,
,,,,,,test,1,2,3,583,9,S,1,right,0.44692695001140237,0,0,,,,,,,,,,,,,,,,,,,,,1,,,,,,,,,,,,,,,,,,,,,,,,,,,,,,,,,,,,,,,,,,,,,,94,148246,21,Female,1,2024/03/15_12:54:45,YZ,None,
,,,,,,test,1,2,3,583,10,S,0,left,0.5648989320034161,0,0,,,,,,,,,,,,,,,,,,,,,1,,,,,,,,,,,,,,,,,,,,,,,,,,,,,,,,,,,,,,,,,,,,,,94,148246,21,Female,1,2024/03/15_12:54:45,YZ,None,
,,,,,,test,1,2,3,583,11,X,1,right,0.49988117400789633,0,0,,,,,,,,,,,,,,,,,,,,,1,,,,,,,,,,,,,,,,,,,,,,,,,,,,,,,,,,,,,,,,,,,,,,94,148246,21,Female,1,2024/03/15_12:54:45,YZ,None,
,,,,,,test,1,2,3,583,12,C,0,right,0.4007158429885749,1,0,,,,,,,,,,,,,,,,,,,,,1,,,,,,,,,,,,,,,,,,,,,,,,,,,,,,,,,,,,,,,,,,,,,,94,148246,21,Female,1,2024/03/15_12:54:45,YZ,None,
,,,,,,test,1,2,3,583,13,V,0,right,0.4849008570017759,1,0,,,,,,,,,,,,,,,,,,,,,1,,,,,,,,,,,,,,,,,,,,,,,,,,,,,,,,,,,,,,,,,,,,,,94,148246,21,Female,1,2024/03/15_12:54:45,YZ,None,
,,,,,,test,1,2,3,583,14,C,0,right,0.697083159990143,1,0,,,,,,,,,,,,,,,,,,,,,1,,,,,,,,,,,,,,,,,,,,,,,,,,,,,,,,,,,,,,,,,,,,,,94,148246,21,Female,1,2024/03/15_12:54:45,YZ,None,
,,,,,,test,1,2,3,583,15,J,0,right,0.4730045689793769,1,0,,,,,,,,,,,,,,,,,,,,,1,,,,,,,,,,,,,,,,,,,,,,,,,,,,,,,,,,,,,,,,,,,,,,94,148246,21,Female,1,2024/03/15_12:54:45,YZ,None,
,,,,,,Test,1,2,3,583,,,,,,,,0.20454545454545453,0.0,0.18181818181818182,0.8181818181818182,0.0,0.8181818181818181,0.633184975333279,0,2,0,0,0,9,9,4,11,0,,,,1,,,,,,,,,,,,,,,,,,,,,,,,,,,,,,,,,,,,,,,,,,,,,,94,148246,21,Female,1,2024/03/15_12:54:45,YZ,None,
,,,,,240315_132214,TEST,1,2,3,583,,,,,,,,,,,,,,,,,,,,,,,,,,,,1,2,2,2,cue1.png,hard,B,71,0.9350357880175579,0,887.2949740010081,888.2465714009886,,,,,,,,,,,,,,,,,,,,,,,,,,,,,,,,,,,94,148246,21,Female,1,2024/03/15_12:54:45,YZ,None,
,,,,,,test,1,3,3,583,1,N,0,left,0.7589083919883706,0,0,,,,,,,,,,,,,,,,,,,,,1,,,,,,,,,,,,,,,,,,,,,,,,,,,,,,,,,,,,,,,,,,,,,,94,148246,21,Female,1,2024/03/15_12:54:45,YZ,None,
,,,,,,test,1,3,3,583,2,X,0,right,0.16223467799136415,1,0,,,,,,,,,,,,,,,,,,,,,1,,,,,,,,,,,,,,,,,,,,,,,,,,,,,,,,,,,,,,,,,,,,,,94,148246,21,Female,1,2024/03/15_12:54:45,YZ,None,
,,,,,,test,1,3,3,583,3,C,0,right,0.37651030099368654,1,0,,,,,,,,,,,,,,,,,,,,,1,,,,,,,,,,,,,,,,,,,,,,,,,,,,,,,,,,,,,,,,,,,,,,94,148246,21,Female,1,2024/03/15_12:54:45,YZ,None,
,,,,,,test,1,3,3,583,4,V,0,right,0.3279304440075066,1,0,,,,,,,,,,,,,,,,,,,,,1,,,,,,,,,,,,,,,,,,,,,,,,,,,,,,,,,,,,,,,,,,,,,,94,148246,21,Female,1,2024/03/15_12:54:45,YZ,None,
,,,,,,test,1,3,3,583,5,S,0,right,0.30887991600320674,1,0,,,,,,,,,,,,,,,,,,,,,1,,,,,,,,,,,,,,,,,,,,,,,,,,,,,,,,,,,,,,,,,,,,,,94,148246,21,Female,1,2024/03/15_12:54:45,YZ,None,
,,,,,,test,1,3,3,583,6,C,1,right,0.37038553101592697,0,0,,,,,,,,,,,,,,,,,,,,,1,,,,,,,,,,,,,,,,,,,,,,,,,,,,,,,,,,,,,,,,,,,,,,94,148246,21,Female,1,2024/03/15_12:54:45,YZ,None,
,,,,,,test,1,3,3,583,7,V,1,right,0.44007983899791725,0,0,,,,,,,,,,,,,,,,,,,,,1,,,,,,,,,,,,,,,,,,,,,,,,,,,,,,,,,,,,,,,,,,,,,,94,148246,21,Female,1,2024/03/15_12:54:45,YZ,None,
,,,,,,test,1,3,3,583,8,V,0,left,0.6336437129939441,0,0,,,,,,,,,,,,,,,,,,,,,1,,,,,,,,,,,,,,,,,,,,,,,,,,,,,,,,,,,,,,,,,,,,,,94,148246,21,Female,1,2024/03/15_12:54:45,YZ,None,
,,,,,,test,1,3,3,583,9,F,0,right,0.2549943189951591,1,0,,,,,,,,,,,,,,,,,,,,,1,,,,,,,,,,,,,,,,,,,,,,,,,,,,,,,,,,,,,,,,,,,,,,94,148246,21,Female,1,2024/03/15_12:54:45,YZ,None,
,,,,,,test,1,3,3,583,10,V,1,right,0.32907559399609454,0,0,,,,,,,,,,,,,,,,,,,,,1,,,,,,,,,,,,,,,,,,,,,,,,,,,,,,,,,,,,,,,,,,,,,,94,148246,21,Female,1,2024/03/15_12:54:45,YZ,None,
,,,,,,test,1,3,3,583,11,V,1,left,0.541242676001275,1,0,,,,,,,,,,,,,,,,,,,,,1,,,,,,,,,,,,,,,,,,,,,,,,,,,,,,,,,,,,,,,,,,,,,,94,148246,21,Female,1,2024/03/15_12:54:45,YZ,None,
