Instruction,Stimulus,Key,RT,START,END,Phase,Block,TrialN,NbackLevel,ISI,LetterN,Letter,Letter_isSame,Letter_Resp,Letter_RT,Letter_Accuracy,Letter_Timeout,Trial_A_measure,Trial_HR,Trial_FAR,Trial_CDR,Trial_MSR,Trial_ACC,Trial_RT,Trial_HitsCount,Trial_FAsCount,Trial_SameNoRespCount,Trial_DiffNoRespCount,Trial_NoRespCount,Trial_CDsCount,Trial_CorrectRespCount,Trial_SameLetterCount,Trial_DiffLetterCount,Trial_InvalidLetterCount,TrialCountCali,CaliEnd_A_measure,ISI_calibrated,Run,TrialIndex,TrialNumber_total,TrialNumber_valid,CueLearning,TrialDemandLearning,CueMapping,OnlineRating,OnlineRatingRT,OnlineRatingTimeOut,CueSTART,RatingSTART,OfflineRatingTimePoint,OfflineRatingQuesIndex,CueFigure,TrialDemand,OfflineRating,OfflineRatingRT,CueStart,OfflineRatingStart,PhaseType,CueLeft,CueDemandLeft,CueRight,CueDemandRight,Choice,ChoiceDemand,TaskDemand,ChoiceRT,ChoiceTimeOut,ChoiceSTART,CueCheck,CueDemandCheck,CorrectAnswer,Answer,AnswerDemand,AnswerRT,AnswerACC,AnswerTimeOut,CheckSTART,DemandRatingQuesIndex,QuesTLX,DemandLevel,DemandRating,DemandRatingRT,QuesStart,PID,SONA,Age,Gender,Run,TIME,EXPERIMENTER,frameRate,
-1,./instructions/inst_begin/Slide2.png,left,22.24762074399041,0.12544804401113652,22.373068788001547,,,,,,,,,,,,,,,,,,,,,,,,,,,,,,,,,1,,,,,,,,,,,,,,,,,,,,,,,,,,,,,,,,,,,,,,,,,,,,,,88,150133,21,Female,1,2024/03/14_08:50:01,YZ,None,
-2,./instructions/inst_begin/Slide4.png,left,10.226299971996923,22.402495614005602,32.628795586002525,,,,,,,,,,,,,,,,,,,,,,,,,,,,,,,,,1,,,,,,,,,,,,,,,,,,,,,,,,,,,,,,,,,,,,,,,,,,,,,,88,150133,21,Female,1,2024/03/14_08:50:01,YZ,None,
-3,./instructions/inst_begin/Slide3.png,left,5.882677745990804,32.65825874800794,38.54093649399874,,,,,,,,,,,,,,,,,,,,,,,,,,,,,,,,,1,,,,,,,,,,,,,,,,,,,,,,,,,,,,,,,,,,,,,,,,,,,,,,88,150133,21,Female,1,2024/03/14_08:50:01,YZ,None,
-1,./instructions/inst_prac_2/Slide6.png,left,18.328576130996225,38.57245600900205,56.90103213999828,,,,,,,,,,,,,,,,,,,,,,,,,,,,,,,,,1,,,,,,,,,,,,,,,,,,,,,,,,,,,,,,,,,,,,,,,,,,,,,,88,150133,21,Female,1,2024/03/14_08:50:01,YZ,None,
-2,./instructions/inst_prac_2/Slide15.png,left,27.664590432003024,56.92455421500199,84.58914464700501,,,,,,,,,,,,,,,,,,,,,,,,,,,,,,,,,1,,,,,,,,,,,,,,,,,,,,,,,,,,,,,,,,,,,,,,,,,,,,,,88,150133,21,Female,1,2024/03/14_08:50:01,YZ,None,
-3,./instructions/inst_prac_2/Slide14.png,left,11.985026889000437,84.61197640901082,96.59700329801126,,,,,,,,,,,,,,,,,,,,,,,,,,,,,,,,,1,,,,,,,,,,,,,,,,,,,,,,,,,,,,,,,,,,,,,,,,,,,,,,88,150133,21,Female,1,2024/03/14_08:50:01,YZ,None,
-2,./instructions/inst_prac_2/Slide13.png,right,6.402947779992246,96.626010692009,103.02895847200125,,,,,,,,,,,,,,,,,,,,,,,,,,,,,,,,,1,,,,,,,,,,,,,,,,,,,,,,,,,,,,,,,,,,,,,,,,,,,,,,88,150133,21,Female,1,2024/03/14_08:50:01,YZ,None,
-3,./instructions/inst_prac_2/Slide14.png,left,5.259071639011381,103.05798341899936,108.31705505801074,,,,,,,,,,,,,,,,,,,,,,,,,,,,,,,,,1,,,,,,,,,,,,,,,,,,,,,,,,,,,,,,,,,,,,,,,,,,,,,,88,150133,21,Female,1,2024/03/14_08:50:01,YZ,None,
-4,./instructions/inst_prac_2/Slide13.png,left,5.106797776999883,108.3461867490114,113.45298452601128,,,,,,,,,,,,,,,,,,,,,,,,,,,,,,,,,1,,,,,,,,,,,,,,,,,,,,,,,,,,,,,,,,,,,,,,,,,,,,,,88,150133,21,Female,1,2024/03/14_08:50:01,YZ,None,
-3,./instructions/inst_prac_2/Slide12.png,right,3.193208084994694,113.47559373300464,116.66880181799934,,,,,,,,,,,,,,,,,,,,,,,,,,,,,,,,,1,,,,,,,,,,,,,,,,,,,,,,,,,,,,,,,,,,,,,,,,,,,,,,88,150133,21,Female,1,2024/03/14_08:50:01,YZ,None,
-4,./instructions/inst_prac_2/Slide13.png,left,1.709939210995799,116.69500652300485,118.40494573400065,,,,,,,,,,,,,,,,,,,,,,,,,,,,,,,,,1,,,,,,,,,,,,,,,,,,,,,,,,,,,,,,,,,,,,,,,,,,,,,,88,150133,21,Female,1,2024/03/14_08:50:01,YZ,None,
-3,./instructions/inst_prac_2/Slide12.png,right,1.4725043549988186,118.4282625670021,119.90076692200091,,,,,,,,,,,,,,,,,,,,,,,,,,,,,,,,,1,,,,,,,,,,,,,,,,,,,,,,,,,,,,,,,,,,,,,,,,,,,,,,88,150133,21,Female,1,2024/03/14_08:50:01,YZ,None,
-4,./instructions/inst_prac_2/Slide13.png,left,1.091629999995348,119.9293865130021,121.02101651299745,,,,,,,,,,,,,,,,,,,,,,,,,,,,,,,,,1,,,,,,,,,,,,,,,,,,,,,,,,,,,,,,,,,,,,,,,,,,,,,,88,150133,21,Female,1,2024/03/14_08:50:01,YZ,None,
-3,./instructions/inst_prac_2/Slide12.png,right,0.9170710739999777,121.04781797999749,121.96488905399747,,,,,,,,,,,,,,,,,,,,,,,,,,,,,,,,,1,,,,,,,,,,,,,,,,,,,,,,,,,,,,,,,,,,,,,,,,,,,,,,88,150133,21,Female,1,2024/03/14_08:50:01,YZ,None,
-4,./instructions/inst_prac_2/Slide13.png,left,1.1072112539986847,121.99379006600066,123.10100131999934,,,,,,,,,,,,,,,,,,,,,,,,,,,,,,,,,1,,,,,,,,,,,,,,,,,,,,,,,,,,,,,,,,,,,,,,,,,,,,,,88,150133,21,Female,1,2024/03/14_08:50:01,YZ,None,
-3,./instructions/inst_prac_2/Slide12.png,right,1.2269734820001759,123.12984189701092,124.3568153790111,,,,,,,,,,,,,,,,,,,,,,,,,,,,,,,,,1,,,,,,,,,,,,,,,,,,,,,,,,,,,,,,,,,,,,,,,,,,,,,,88,150133,21,Female,1,2024/03/14_08:50:01,YZ,None,
-4,./instructions/inst_prac_2/Slide13.png,left,1.4852031290065497,124.38382617100433,125.86902930001088,,,,,,,,,,,,,,,,,,,,,,,,,,,,,,,,,1,,,,,,,,,,,,,,,,,,,,,,,,,,,,,,,,,,,,,,,,,,,,,,88,150133,21,Female,1,2024/03/14_08:50:01,YZ,None,
-3,./instructions/inst_prac_2/Slide12.png,right,1.5452680210000835,125.8915721020021,127.43684012300218,,,,,,,,,,,,,,,,,,,,,,,,,,,,,,,,,1,,,,,,,,,,,,,,,,,,,,,,,,,,,,,,,,,,,,,,,,,,,,,,88,150133,21,Female,1,2024/03/14_08:50:01,YZ,None,
-4,./instructions/inst_prac_2/Slide13.png,left,1.5302301839983556,127.46672271800344,128.9969529020018,,,,,,,,,,,,,,,,,,,,,,,,,,,,,,,,,1,,,,,,,,,,,,,,,,,,,,,,,,,,,,,,,,,,,,,,,,,,,,,,88,150133,21,Female,1,2024/03/14_08:50:01,YZ,None,
-3,./instructions/inst_prac_2/Slide12.png,right,0.9546695520111825,129.026194045,129.9808635970112,,,,,,,,,,,,,,,,,,,,,,,,,,,,,,,,,1,,,,,,,,,,,,,,,,,,,,,,,,,,,,,,,,,,,,,,,,,,,,,,88,150133,21,Female,1,2024/03/14_08:50:01,YZ,None,
-4,./instructions/inst_prac_2/Slide13.png,left,0.8347795820009196,130.01019103500585,130.84497061700677,,,,,,,,,,,,,,,,,,,,,,,,,,,,,,,,,1,,,,,,,,,,,,,,,,,,,,,,,,,,,,,,,,,,,,,,,,,,,,,,88,150133,21,Female,1,2024/03/14_08:50:01,YZ,None,
-3,./instructions/inst_prac_2/Slide12.png,right,1.5174491610086989,130.8715142220026,132.3889633830113,,,,,,,,,,,,,,,,,,,,,,,,,,,,,,,,,1,,,,,,,,,,,,,,,,,,,,,,,,,,,,,,,,,,,,,,,,,,,,,,88,150133,21,Female,1,2024/03/14_08:50:01,YZ,None,
-4,./instructions/inst_prac_2/Slide13.png,left,0.8819598730042344,132.41899317300704,133.30095304601127,,,,,,,,,,,,,,,,,,,,,,,,,,,,,,,,,1,,,,,,,,,,,,,,,,,,,,,,,,,,,,,,,,,,,,,,,,,,,,,,88,150133,21,Female,1,2024/03/14_08:50:01,YZ,None,
-3,./instructions/inst_prac_2/Slide12.png,right,1.0829140020068735,133.32993313099723,134.4128471330041,,,,,,,,,,,,,,,,,,,,,,,,,,,,,,,,,1,,,,,,,,,,,,,,,,,,,,,,,,,,,,,,,,,,,,,,,,,,,,,,88,150133,21,Female,1,2024/03/14_08:50:01,YZ,None,
-4,./instructions/inst_prac_2/Slide13.png,left,0.7963537519972306,134.44051095801115,135.23686471000838,,,,,,,,,,,,,,,,,,,,,,,,,,,,,,,,,1,,,,,,,,,,,,,,,,,,,,,,,,,,,,,,,,,,,,,,,,,,,,,,88,150133,21,Female,1,2024/03/14_08:50:01,YZ,None,
-3,./instructions/inst_prac_2/Slide12.png,right,0.7948921579954913,135.2658817610063,136.0607739190018,,,,,,,,,,,,,,,,,,,,,,,,,,,,,,,,,1,,,,,,,,,,,,,,,,,,,,,,,,,,,,,,,,,,,,,,,,,,,,,,88,150133,21,Female,1,2024/03/14_08:50:01,YZ,None,
-4,./instructions/inst_prac_2/Slide13.png,left,1.5786607280024327,136.0902372970013,137.66889802500373,,,,,,,,,,,,,,,,,,,,,,,,,,,,,,,,,1,,,,,,,,,,,,,,,,,,,,,,,,,,,,,,,,,,,,,,,,,,,,,,88,150133,21,Female,1,2024/03/14_08:50:01,YZ,None,
-3,./instructions/inst_prac_2/Slide12.png,right,1.2571834510017652,137.6916671240033,138.94885057500505,,,,,,,,,,,,,,,,,,,,,,,,,,,,,,,,,1,,,,,,,,,,,,,,,,,,,,,,,,,,,,,,,,,,,,,,,,,,,,,,88,150133,21,Female,1,2024/03/14_08:50:01,YZ,None,
-4,./instructions/inst_prac_2/Slide13.png,left,1.4276882810081588,138.9772888419975,140.40497712300566,,,,,,,,,,,,,,,,,,,,,,,,,,,,,,,,,1,,,,,,,,,,,,,,,,,,,,,,,,,,,,,,,,,,,,,,,,,,,,,,88,150133,21,Female,1,2024/03/14_08:50:01,YZ,None,
-3,./instructions/inst_prac_2/Slide12.png,right,0.9070597489917418,140.43382808601018,141.34088783500192,,,,,,,,,,,,,,,,,,,,,,,,,,,,,,,,,1,,,,,,,,,,,,,,,,,,,,,,,,,,,,,,,,,,,,,,,,,,,,,,88,150133,21,Female,1,2024/03/14_08:50:01,YZ,None,
-4,./instructions/inst_prac_2/Slide13.png,left,0.7058767959970282,141.37109915100154,142.07697594699857,,,,,,,,,,,,,,,,,,,,,,,,,,,,,,,,,1,,,,,,,,,,,,,,,,,,,,,,,,,,,,,,,,,,,,,,,,,,,,,,88,150133,21,Female,1,2024/03/14_08:50:01,YZ,None,
-3,./instructions/inst_prac_2/Slide12.png,right,0.5552098709886195,142.105617239009,142.66082710999763,,,,,,,,,,,,,,,,,,,,,,,,,,,,,,,,,1,,,,,,,,,,,,,,,,,,,,,,,,,,,,,,,,,,,,,,,,,,,,,,88,150133,21,Female,1,2024/03/14_08:50:01,YZ,None,
-2,./instructions/inst_prac_2/Slide13.png,right,0.20046456099953502,142.68973342500976,142.8901979860093,,,,,,,,,,,,,,,,,,,,,,,,,,,,,,,,,1,,,,,,,,,,,,,,,,,,,,,,,,,,,,,,,,,,,,,,,,,,,,,,88,150133,21,Female,1,2024/03/14_08:50:01,YZ,None,
-3,./instructions/inst_prac_2/Slide14.png,left,2.931895803005318,142.91311387700262,145.84500968000793,,,,,,,,,,,,,,,,,,,,,,,,,,,,,,,,,1,,,,,,,,,,,,,,,,,,,,,,,,,,,,,,,,,,,,,,,,,,,,,,88,150133,21,Female,1,2024/03/14_08:50:01,YZ,None,
-4,./instructions/inst_prac_2/Slide13.png,left,1.41742243799672,145.86752929800423,147.28495173600095,,,,,,,,,,,,,,,,,,,,,,,,,,,,,,,,,1,,,,,,,,,,,,,,,,,,,,,,,,,,,,,,,,,,,,,,,,,,,,,,88,150133,21,Female,1,2024/03/14_08:50:01,YZ,None,
-3,./instructions/inst_prac_2/Slide12.png,right,0.6251654899970163,147.3075226110086,147.93268810100562,,,,,,,,,,,,,,,,,,,,,,,,,,,,,,,,,1,,,,,,,,,,,,,,,,,,,,,,,,,,,,,,,,,,,,,,,,,,,,,,88,150133,21,Female,1,2024/03/14_08:50:01,YZ,None,
-4,./instructions/inst_prac_2/Slide13.png,left,0.5394354149902938,147.96146614701138,148.50090156200167,,,,,,,,,,,,,,,,,,,,,,,,,,,,,,,,,1,,,,,,,,,,,,,,,,,,,,,,,,,,,,,,,,,,,,,,,,,,,,,,88,150133,21,Female,1,2024/03/14_08:50:01,YZ,None,
-3,./instructions/inst_prac_2/Slide12.png,right,0.6266386820061598,148.53025752000394,149.1568962020101,,,,,,,,,,,,,,,,,,,,,,,,,,,,,,,,,1,,,,,,,,,,,,,,,,,,,,,,,,,,,,,,,,,,,,,,,,,,,,,,88,150133,21,Female,1,2024/03/14_08:50:01,YZ,None,
-4,./instructions/inst_prac_2/Slide13.png,left,0.5243857599998591,149.1845498430048,149.70893560300465,,,,,,,,,,,,,,,,,,,,,,,,,,,,,,,,,1,,,,,,,,,,,,,,,,,,,,,,,,,,,,,,,,,,,,,,,,,,,,,,88,150133,21,Female,1,2024/03/14_08:50:01,YZ,None,
-3,./instructions/inst_prac_2/Slide12.png,right,0.5977046500047436,149.735295683,150.33300033300475,,,,,,,,,,,,,,,,,,,,,,,,,,,,,,,,,1,,,,,,,,,,,,,,,,,,,,,,,,,,,,,,,,,,,,,,,,,,,,,,88,150133,21,Female,1,2024/03/14_08:50:01,YZ,None,
-4,./instructions/inst_prac_2/Slide13.png,left,0.4829458649910521,150.36196042700612,150.84490629199718,,,,,,,,,,,,,,,,,,,,,,,,,,,,,,,,,1,,,,,,,,,,,,,,,,,,,,,,,,,,,,,,,,,,,,,,,,,,,,,,88,150133,21,Female,1,2024/03/14_08:50:01,YZ,None,
-3,./instructions/inst_prac_2/Slide12.png,right,0.5904160260106437,150.870436874,151.46085290001065,,,,,,,,,,,,,,,,,,,,,,,,,,,,,,,,,1,,,,,,,,,,,,,,,,,,,,,,,,,,,,,,,,,,,,,,,,,,,,,,88,150133,21,Female,1,2024/03/14_08:50:01,YZ,None,
-4,./instructions/inst_prac_2/Slide13.png,left,0.5256879629887408,151.48732802300947,152.0130159859982,,,,,,,,,,,,,,,,,,,,,,,,,,,,,,,,,1,,,,,,,,,,,,,,,,,,,,,,,,,,,,,,,,,,,,,,,,,,,,,,88,150133,21,Female,1,2024/03/14_08:50:01,YZ,None,
-3,./instructions/inst_prac_2/Slide12.png,right,0.48651117699046154,152.03842027801147,152.52493145500193,,,,,,,,,,,,,,,,,,,,,,,,,,,,,,,,,1,,,,,,,,,,,,,,,,,,,,,,,,,,,,,,,,,,,,,,,,,,,,,,88,150133,21,Female,1,2024/03/14_08:50:01,YZ,None,
-4,./instructions/inst_prac_2/Slide13.png,left,0.507560377009213,152.55339438800002,153.06095476500923,,,,,,,,,,,,,,,,,,,,,,,,,,,,,,,,,1,,,,,,,,,,,,,,,,,,,,,,,,,,,,,,,,,,,,,,,,,,,,,,88,150133,21,Female,1,2024/03/14_08:50:01,YZ,None,
-3,./instructions/inst_prac_2/Slide12.png,right,0.541010026994627,153.08778299301048,153.6287930200051,,,,,,,,,,,,,,,,,,,,,,,,,,,,,,,,,1,,,,,,,,,,,,,,,,,,,,,,,,,,,,,,,,,,,,,,,,,,,,,,88,150133,21,Female,1,2024/03/14_08:50:01,YZ,None,
-4,./instructions/inst_prac_2/Slide13.png,left,0.7098937470000237,153.65506890900724,154.36496265600726,,,,,,,,,,,,,,,,,,,,,,,,,,,,,,,,,1,,,,,,,,,,,,,,,,,,,,,,,,,,,,,,,,,,,,,,,,,,,,,,88,150133,21,Female,1,2024/03/14_08:50:01,YZ,None,
-3,./instructions/inst_prac_2/Slide12.png,right,0.44671869900776073,154.39013128299848,154.83684998200624,,,,,,,,,,,,,,,,,,,,,,,,,,,,,,,,,1,,,,,,,,,,,,,,,,,,,,,,,,,,,,,,,,,,,,,,,,,,,,,,88,150133,21,Female,1,2024/03/14_08:50:01,YZ,None,
-4,./instructions/inst_prac_2/Slide13.png,left,0.4832485480001196,154.86569962200883,155.34894817000895,,,,,,,,,,,,,,,,,,,,,,,,,,,,,,,,,1,,,,,,,,,,,,,,,,,,,,,,,,,,,,,,,,,,,,,,,,,,,,,,88,150133,21,Female,1,2024/03/14_08:50:01,YZ,None,
-3,./instructions/inst_prac_2/Slide12.png,right,0.5504422509984579,155.37435365600686,155.92479590700532,,,,,,,,,,,,,,,,,,,,,,,,,,,,,,,,,1,,,,,,,,,,,,,,,,,,,,,,,,,,,,,,,,,,,,,,,,,,,,,,88,150133,21,Female,1,2024/03/14_08:50:01,YZ,None,
-4,./instructions/inst_prac_2/Slide13.png,left,0.6034486779972212,155.95351016400673,156.55695884200395,,,,,,,,,,,,,,,,,,,,,,,,,,,,,,,,,1,,,,,,,,,,,,,,,,,,,,,,,,,,,,,,,,,,,,,,,,,,,,,,88,150133,21,Female,1,2024/03/14_08:50:01,YZ,None,
-3,./instructions/inst_prac_2/Slide12.png,right,0.6591016689926619,156.5857129040087,157.24481457300135,,,,,,,,,,,,,,,,,,,,,,,,,,,,,,,,,1,,,,,,,,,,,,,,,,,,,,,,,,,,,,,,,,,,,,,,,,,,,,,,88,150133,21,Female,1,2024/03/14_08:50:01,YZ,None,
-4,./instructions/inst_prac_2/Slide13.png,left,0.5392828279873356,157.27359138301108,157.81287421099842,,,,,,,,,,,,,,,,,,,,,,,,,,,,,,,,,1,,,,,,,,,,,,,,,,,,,,,,,,,,,,,,,,,,,,,,,,,,,,,,88,150133,21,Female,1,2024/03/14_08:50:01,YZ,None,
-3,./instructions/inst_prac_2/Slide12.png,right,0.652150570997037,157.84068849000323,158.49283906100027,,,,,,,,,,,,,,,,,,,,,,,,,,,,,,,,,1,,,,,,,,,,,,,,,,,,,,,,,,,,,,,,,,,,,,,,,,,,,,,,88,150133,21,Female,1,2024/03/14_08:50:01,YZ,None,
-4,./instructions/inst_prac_2/Slide13.png,left,0.49892096999974456,158.52205122901069,159.02097219901043,,,,,,,,,,,,,,,,,,,,,,,,,,,,,,,,,1,,,,,,,,,,,,,,,,,,,,,,,,,,,,,,,,,,,,,,,,,,,,,,88,150133,21,Female,1,2024/03/14_08:50:01,YZ,None,
-3,./instructions/inst_prac_2/Slide12.png,right,0.5550538430106826,159.04983550599718,159.60488934900786,,,,,,,,,,,,,,,,,,,,,,,,,,,,,,,,,1,,,,,,,,,,,,,,,,,,,,,,,,,,,,,,,,,,,,,,,,,,,,,,88,150133,21,Female,1,2024/03/14_08:50:01,YZ,None,
-4,./instructions/inst_prac_2/Slide13.png,left,0.5390126690035686,159.63385116000427,160.17286382900784,,,,,,,,,,,,,,,,,,,,,,,,,,,,,,,,,1,,,,,,,,,,,,,,,,,,,,,,,,,,,,,,,,,,,,,,,,,,,,,,88,150133,21,Female,1,2024/03/14_08:50:01,YZ,None,
-3,./instructions/inst_prac_2/Slide12.png,right,0.5472502030024771,160.20155126199825,160.74880146500072,,,,,,,,,,,,,,,,,,,,,,,,,,,,,,,,,1,,,,,,,,,,,,,,,,,,,,,,,,,,,,,,,,,,,,,,,,,,,,,,88,150133,21,Female,1,2024/03/14_08:50:01,YZ,None,
-4,./instructions/inst_prac_2/Slide13.png,left,0.5568340969912242,160.77620079500775,161.33303489199898,,,,,,,,,,,,,,,,,,,,,,,,,,,,,,,,,1,,,,,,,,,,,,,,,,,,,,,,,,,,,,,,,,,,,,,,,,,,,,,,88,150133,21,Female,1,2024/03/14_08:50:01,YZ,None,
-3,./instructions/inst_prac_2/Slide12.png,right,0.5487070490053156,161.36022355800378,161.9089306070091,,,,,,,,,,,,,,,,,,,,,,,,,,,,,,,,,1,,,,,,,,,,,,,,,,,,,,,,,,,,,,,,,,,,,,,,,,,,,,,,88,150133,21,Female,1,2024/03/14_08:50:01,YZ,None,
-4,./instructions/inst_prac_2/Slide13.png,left,0.5074673869967228,161.93755693400453,162.44502432100126,,,,,,,,,,,,,,,,,,,,,,,,,,,,,,,,,1,,,,,,,,,,,,,,,,,,,,,,,,,,,,,,,,,,,,,,,,,,,,,,88,150133,21,Female,1,2024/03/14_08:50:01,YZ,None,
-3,./instructions/inst_prac_2/Slide12.png,right,0.5230616059998283,162.4738469520089,162.99690855800873,,,,,,,,,,,,,,,,,,,,,,,,,,,,,,,,,1,,,,,,,,,,,,,,,,,,,,,,,,,,,,,,,,,,,,,,,,,,,,,,88,150133,21,Female,1,2024/03/14_08:50:01,YZ,None,
-4,./instructions/inst_prac_2/Slide13.png,left,0.4991956830053823,163.0257218600018,163.52491754300718,,,,,,,,,,,,,,,,,,,,,,,,,,,,,,,,,1,,,,,,,,,,,,,,,,,,,,,,,,,,,,,,,,,,,,,,,,,,,,,,88,150133,21,Female,1,2024/03/14_08:50:01,YZ,None,
-3,./instructions/inst_prac_2/Slide12.png,right,0.5149442119873129,163.5537886860111,164.06873289799842,,,,,,,,,,,,,,,,,,,,,,,,,,,,,,,,,1,,,,,,,,,,,,,,,,,,,,,,,,,,,,,,,,,,,,,,,,,,,,,,88,150133,21,Female,1,2024/03/14_08:50:01,YZ,None,
-4,./instructions/inst_prac_2/Slide13.png,left,0.44520344700140413,164.0955163269973,164.54071977399872,,,,,,,,,,,,,,,,,,,,,,,,,,,,,,,,,1,,,,,,,,,,,,,,,,,,,,,,,,,,,,,,,,,,,,,,,,,,,,,,88,150133,21,Female,1,2024/03/14_08:50:01,YZ,None,
-3,./instructions/inst_prac_2/Slide12.png,right,0.49933832201350015,164.5695141269971,165.0688524490106,,,,,,,,,,,,,,,,,,,,,,,,,,,,,,,,,1,,,,,,,,,,,,,,,,,,,,,,,,,,,,,,,,,,,,,,,,,,,,,,88,150133,21,Female,1,2024/03/14_08:50:01,YZ,None,
-4,./instructions/inst_prac_2/Slide13.png,left,0.43669739899632987,165.09629923501052,165.53299663400685,,,,,,,,,,,,,,,,,,,,,,,,,,,,,,,,,1,,,,,,,,,,,,,,,,,,,,,,,,,,,,,,,,,,,,,,,,,,,,,,88,150133,21,Female,1,2024/03/14_08:50:01,YZ,None,
-3,./instructions/inst_prac_2/Slide12.png,right,0.49808166100410745,165.5628151819983,166.0608968430024,,,,,,,,,,,,,,,,,,,,,,,,,,,,,,,,,1,,,,,,,,,,,,,,,,,,,,,,,,,,,,,,,,,,,,,,,,,,,,,,88,150133,21,Female,1,2024/03/14_08:50:01,YZ,None,
-4,./instructions/inst_prac_2/Slide13.png,left,0.45810700400033966,166.09053053701064,166.54863754101098,,,,,,,,,,,,,,,,,,,,,,,,,,,,,,,,,1,,,,,,,,,,,,,,,,,,,,,,,,,,,,,,,,,,,,,,,,,,,,,,88,150133,21,Female,1,2024/03/14_08:50:01,YZ,None,
-3,./instructions/inst_prac_2/Slide12.png,right,0.49122946900024544,166.57767378800781,167.06890325700806,,,,,,,,,,,,,,,,,,,,,,,,,,,,,,,,,1,,,,,,,,,,,,,,,,,,,,,,,,,,,,,,,,,,,,,,,,,,,,,,88,150133,21,Female,1,2024/03/14_08:50:01,YZ,None,
-4,./instructions/inst_prac_2/Slide13.png,left,0.41954110500228126,167.09731452800042,167.5168556330027,,,,,,,,,,,,,,,,,,,,,,,,,,,,,,,,,1,,,,,,,,,,,,,,,,,,,,,,,,,,,,,,,,,,,,,,,,,,,,,,88,150133,21,Female,1,2024/03/14_08:50:01,YZ,None,
-3,./instructions/inst_prac_2/Slide12.png,right,0.5391437810030766,167.54569962900132,168.0848434100044,,,,,,,,,,,,,,,,,,,,,,,,,,,,,,,,,1,,,,,,,,,,,,,,,,,,,,,,,,,,,,,,,,,,,,,,,,,,,,,,88,150133,21,Female,1,2024/03/14_08:50:01,YZ,None,
-4,./instructions/inst_prac_2/Slide13.png,left,0.4750206570024602,168.11383818800095,168.58885884500341,,,,,,,,,,,,,,,,,,,,,,,,,,,,,,,,,1,,,,,,,,,,,,,,,,,,,,,,,,,,,,,,,,,,,,,,,,,,,,,,88,150133,21,Female,1,2024/03/14_08:50:01,YZ,None,
-3,./instructions/inst_prac_2/Slide12.png,right,0.5171739020006498,168.61566561499785,169.1328395169985,,,,,,,,,,,,,,,,,,,,,,,,,,,,,,,,,1,,,,,,,,,,,,,,,,,,,,,,,,,,,,,,,,,,,,,,,,,,,,,,88,150133,21,Female,1,2024/03/14_08:50:01,YZ,None,
-4,./instructions/inst_prac_2/Slide13.png,left,0.47519589100556914,169.16180536900356,169.63700126000913,,,,,,,,,,,,,,,,,,,,,,,,,,,,,,,,,1,,,,,,,,,,,,,,,,,,,,,,,,,,,,,,,,,,,,,,,,,,,,,,88,150133,21,Female,1,2024/03/14_08:50:01,YZ,None,
-3,./instructions/inst_prac_2/Slide12.png,right,0.49924984299286734,169.66568137001013,170.164931213003,,,,,,,,,,,,,,,,,,,,,,,,,,,,,,,,,1,,,,,,,,,,,,,,,,,,,,,,,,,,,,,,,,,,,,,,,,,,,,,,88,150133,21,Female,1,2024/03/14_08:50:01,YZ,None,
-4,./instructions/inst_prac_2/Slide13.png,left,0.4905199330096366,170.19443074800074,170.68495068101038,,,,,,,,,,,,,,,,,,,,,,,,,,,,,,,,,1,,,,,,,,,,,,,,,,,,,,,,,,,,,,,,,,,,,,,,,,,,,,,,88,150133,21,Female,1,2024/03/14_08:50:01,YZ,None,
-3,./instructions/inst_prac_2/Slide12.png,right,0.4589756710047368,170.71374767000088,171.17272334100562,,,,,,,,,,,,,,,,,,,,,,,,,,,,,,,,,1,,,,,,,,,,,,,,,,,,,,,,,,,,,,,,,,,,,,,,,,,,,,,,88,150133,21,Female,1,2024/03/14_08:50:01,YZ,None,
-4,./instructions/inst_prac_2/Slide13.png,left,0.4604912479990162,171.20035103400005,171.66084228199907,,,,,,,,,,,,,,,,,,,,,,,,,,,,,,,,,1,,,,,,,,,,,,,,,,,,,,,,,,,,,,,,,,,,,,,,,,,,,,,,88,150133,21,Female,1,2024/03/14_08:50:01,YZ,None,
-3,./instructions/inst_prac_2/Slide12.png,right,0.5507284969935426,171.68624388500757,172.2369723820011,,,,,,,,,,,,,,,,,,,,,,,,,,,,,,,,,1,,,,,,,,,,,,,,,,,,,,,,,,,,,,,,,,,,,,,,,,,,,,,,88,150133,21,Female,1,2024/03/14_08:50:01,YZ,None,
-4,./instructions/inst_prac_2/Slide13.png,left,0.46718574399710633,172.26573653300875,172.73292227700585,,,,,,,,,,,,,,,,,,,,,,,,,,,,,,,,,1,,,,,,,,,,,,,,,,,,,,,,,,,,,,,,,,,,,,,,,,,,,,,,88,150133,21,Female,1,2024/03/14_08:50:01,YZ,None,
-3,./instructions/inst_prac_2/Slide12.png,right,0.42656877599074505,172.76218890601012,173.18875768200087,,,,,,,,,,,,,,,,,,,,,,,,,,,,,,,,,1,,,,,,,,,,,,,,,,,,,,,,,,,,,,,,,,,,,,,,,,,,,,,,88,150133,21,Female,1,2024/03/14_08:50:01,YZ,None,
-4,./instructions/inst_prac_2/Slide13.png,left,0.4435008759901393,173.2173117830098,173.66081265899993,,,,,,,,,,,,,,,,,,,,,,,,,,,,,,,,,1,,,,,,,,,,,,,,,,,,,,,,,,,,,,,,,,,,,,,,,,,,,,,,88,150133,21,Female,1,2024/03/14_08:50:01,YZ,None,
-5,./instructions/inst_prac_2/Slide12.png,left,0.3183254949981347,173.68663983300212,174.00496532800025,,,,,,,,,,,,,,,,,,,,,,,,,,,,,,,,,1,,,,,,,,,,,,,,,,,,,,,,,,,,,,,,,,,,,,,,,,,,,,,,88,150133,21,Female,1,2024/03/14_08:50:01,YZ,None,
-6,./instructions/inst_prac_2/Slide11.png,left,0.20042624800407793,174.03380061000644,174.23422685801052,,,,,,,,,,,,,,,,,,,,,,,,,,,,,,,,,1,,,,,,,,,,,,,,,,,,,,,,,,,,,,,,,,,,,,,,,,,,,,,,88,150133,21,Female,1,2024/03/14_08:50:01,YZ,None,
-5,./instructions/inst_prac_2/Slide10.png,right,0.2003889799962053,174.25665976200253,174.45704874199873,,,,,,,,,,,,,,,,,,,,,,,,,,,,,,,,,1,,,,,,,,,,,,,,,,,,,,,,,,,,,,,,,,,,,,,,,,,,,,,,88,150133,21,Female,1,2024/03/14_08:50:01,YZ,None,
-4,./instructions/inst_prac_2/Slide11.png,right,1.2130022089986596,174.4797332080052,175.69273541700386,,,,,,,,,,,,,,,,,,,,,,,,,,,,,,,,,1,,,,,,,,,,,,,,,,,,,,,,,,,,,,,,,,,,,,,,,,,,,,,,88,150133,21,Female,1,2024/03/14_08:50:01,YZ,None,
-3,./instructions/inst_prac_2/Slide12.png,right,0.9084472910035402,175.7203389750066,176.62878626601014,,,,,,,,,,,,,,,,,,,,,,,,,,,,,,,,,1,,,,,,,,,,,,,,,,,,,,,,,,,,,,,,,,,,,,,,,,,,,,,,88,150133,21,Female,1,2024/03/14_08:50:01,YZ,None,
-4,./instructions/inst_prac_2/Slide13.png,left,0.8379010720091173,176.65504609300115,177.49294716501026,,,,,,,,,,,,,,,,,,,,,,,,,,,,,,,,,1,,,,,,,,,,,,,,,,,,,,,,,,,,,,,,,,,,,,,,,,,,,,,,88,150133,21,Female,1,2024/03/14_08:50:01,YZ,None,
-3,./instructions/inst_prac_2/Slide12.png,right,0.5450574349961244,177.51575157701154,178.06080901200767,,,,,,,,,,,,,,,,,,,,,,,,,,,,,,,,,1,,,,,,,,,,,,,,,,,,,,,,,,,,,,,,,,,,,,,,,,,,,,,,88,150133,21,Female,1,2024/03/14_08:50:01,YZ,None,
-4,./instructions/inst_prac_2/Slide13.png,left,0.8441532699944219,178.08887819600932,178.93303146600374,,,,,,,,,,,,,,,,,,,,,,,,,,,,,,,,,1,,,,,,,,,,,,,,,,,,,,,,,,,,,,,,,,,,,,,,,,,,,,,,88,150133,21,Female,1,2024/03/14_08:50:01,YZ,None,
-3,./instructions/inst_prac_2/Slide12.png,right,1.062967933001346,178.95782844100904,180.0207963740104,,,,,,,,,,,,,,,,,,,,,,,,,,,,,,,,,1,,,,,,,,,,,,,,,,,,,,,,,,,,,,,,,,,,,,,,,,,,,,,,88,150133,21,Female,1,2024/03/14_08:50:01,YZ,None,
-4,./instructions/inst_prac_2/Slide13.png,left,1.0356351759983227,180.04937061600504,181.08500579200336,,,,,,,,,,,,,,,,,,,,,,,,,,,,,,,,,1,,,,,,,,,,,,,,,,,,,,,,,,,,,,,,,,,,,,,,,,,,,,,,88,150133,21,Female,1,2024/03/14_08:50:01,YZ,None,
-3,./instructions/inst_prac_2/Slide12.png,right,0.7948879870091332,181.11386193199723,181.90874991900637,,,,,,,,,,,,,,,,,,,,,,,,,,,,,,,,,1,,,,,,,,,,,,,,,,,,,,,,,,,,,,,,,,,,,,,,,,,,,,,,88,150133,21,Female,1,2024/03/14_08:50:01,YZ,None,
-4,./instructions/inst_prac_2/Slide13.png,left,0.8035158359998604,181.9373546850111,182.74087052101095,,,,,,,,,,,,,,,,,,,,,,,,,,,,,,,,,1,,,,,,,,,,,,,,,,,,,,,,,,,,,,,,,,,,,,,,,,,,,,,,88,150133,21,Female,1,2024/03/14_08:50:01,YZ,None,
-3,./instructions/inst_prac_2/Slide12.png,right,0.7554953900107648,182.76936851500068,183.52486390501144,,,,,,,,,,,,,,,,,,,,,,,,,,,,,,,,,1,,,,,,,,,,,,,,,,,,,,,,,,,,,,,,,,,,,,,,,,,,,,,,88,150133,21,Female,1,2024/03/14_08:50:01,YZ,None,
-4,./instructions/inst_prac_2/Slide13.png,left,0.5795289319939911,183.5534888520051,184.1330177839991,,,,,,,,,,,,,,,,,,,,,,,,,,,,,,,,,1,,,,,,,,,,,,,,,,,,,,,,,,,,,,,,,,,,,,,,,,,,,,,,88,150133,21,Female,1,2024/03/14_08:50:01,YZ,None,
-3,./instructions/inst_prac_2/Slide12.png,right,0.6846154959930573,184.16005289100576,184.84466838699882,,,,,,,,,,,,,,,,,,,,,,,,,,,,,,,,,1,,,,,,,,,,,,,,,,,,,,,,,,,,,,,,,,,,,,,,,,,,,,,,88,150133,21,Female,1,2024/03/14_08:50:01,YZ,None,
-2,./instructions/inst_prac_2/Slide13.png,right,0.923602534996462,184.87331436001114,185.7969168950076,,,,,,,,,,,,,,,,,,,,,,,,,,,,,,,,,1,,,,,,,,,,,,,,,,,,,,,,,,,,,,,,,,,,,,,,,,,,,,,,88,150133,21,Female,1,2024/03/14_08:50:01,YZ,None,
-1,./instructions/inst_prac_2/Slide14.png,right,6.115353022003546,185.82566426300036,191.9410172850039,,,,,,,,,,,,,,,,,,,,,,,,,,,,,,,,,1,,,,,,,,,,,,,,,,,,,,,,,,,,,,,,,,,,,,,,,,,,,,,,88,150133,21,Female,1,2024/03/14_08:50:01,YZ,None,
0,./instructions/inst_prac_2/Slide15.png,right,44.525342142995214,191.9673621480033,236.49270429099852,,,,,,,,,,,,,,,,,,,,,,,,,,,,,,,,,1,,,,,,,,,,,,,,,,,,,,,,,,,,,,,,,,,,,,,,,,,,,,,,88,150133,21,Female,1,2024/03/14_08:50:01,YZ,None,
1,./instructions/inst_prac_2/Slide6.png,right,6.010861363000004,236.52204479499778,242.5329061579978,,,,,,,,,,,,,,,,,,,,,,,,,,,,,,,,,1,,,,,,,,,,,,,,,,,,,,,,,,,,,,,,,,,,,,,,,,,,,,,,88,150133,21,Female,1,2024/03/14_08:50:01,YZ,None,
2,./instructions/inst_prac_2/Slide7.png,right,1.68291701299313,242.5618497060059,244.24476671899902,,,,,,,,,,,,,,,,,,,,,,,,,,,,,,,,,1,,,,,,,,,,,,,,,,,,,,,,,,,,,,,,,,,,,,,,,,,,,,,,88,150133,21,Female,1,2024/03/14_08:50:01,YZ,None,
3,./instructions/inst_prac_2/Slide8.png,right,12.109720011998434,244.2711755700002,256.38089558199863,,,,,,,,,,,,,,,,,,,,,,,,,,,,,,,,,1,,,,,,,,,,,,,,,,,,,,,,,,,,,,,,,,,,,,,,,,,,,,,,88,150133,21,Female,1,2024/03/14_08:50:01,YZ,None,
4,./instructions/inst_prac_2/Slide9.png,right,4.162915624998277,256.40996533900034,260.5728809639986,,,,,,,,,,,,,,,,,,,,,,,,,,,,,,,,,1,,,,,,,,,,,,,,,,,,,,,,,,,,,,,,,,,,,,,,,,,,,,,,88,150133,21,Female,1,2024/03/14_08:50:01,YZ,None,
5,./instructions/inst_prac_2/Slide10.png,right,3.717455540012452,260.59934225599864,264.3167977960111,,,,,,,,,,,,,,,,,,,,,,,,,,,,,,,,,1,,,,,,,,,,,,,,,,,,,,,,,,,,,,,,,,,,,,,,,,,,,,,,88,150133,21,Female,1,2024/03/14_08:50:01,YZ,None,
6,./instructions/inst_prac_2/Slide11.png,right,6.707622286005062,264.34531869999773,271.0529409860028,,,,,,,,,,,,,,,,,,,,,,,,,,,,,,,,,1,,,,,,,,,,,,,,,,,,,,,,,,,,,,,,,,,,,,,,,,,,,,,,88,150133,21,Female,1,2024/03/14_08:50:01,YZ,None,
7,./instructions/inst_prac_2/Slide12.png,right,3.2747226920037065,271.0821516709984,274.35687436300213,,,,,,,,,,,,,,,,,,,,,,,,,,,,,,,,,1,,,,,,,,,,,,,,,,,,,,,,,,,,,,,,,,,,,,,,,,,,,,,,88,150133,21,Female,1,2024/03/14_08:50:01,YZ,None,
6,./instructions/inst_prac_2/Slide13.png,left,2.9868516999995336,274.38639731300646,277.373249013006,,,,,,,,,,,,,,,,,,,,,,,,,,,,,,,,,1,,,,,,,,,,,,,,,,,,,,,,,,,,,,,,,,,,,,,,,,,,,,,,88,150133,21,Female,1,2024/03/14_08:50:01,YZ,None,
7,./instructions/inst_prac_2/Slide12.png,right,1.706874126000912,277.40188583500276,279.10875996100367,,,,,,,,,,,,,,,,,,,,,,,,,,,,,,,,,1,,,,,,,,,,,,,,,,,,,,,,,,,,,,,,,,,,,,,,,,,,,,,,88,150133,21,Female,1,2024/03/14_08:50:01,YZ,None,
6,./instructions/inst_prac_2/Slide13.png,left,1.2593971290043555,279.1375177279988,280.39691485700314,,,,,,,,,,,,,,,,,,,,,,,,,,,,,,,,,1,,,,,,,,,,,,,,,,,,,,,,,,,,,,,,,,,,,,,,,,,,,,,,88,150133,21,Female,1,2024/03/14_08:50:01,YZ,None,
7,./instructions/inst_prac_2/Slide12.png,right,1.3953475190064637,280.42548415099736,281.8208316700038,,,,,,,,,,,,,,,,,,,,,,,,,,,,,,,,,1,,,,,,,,,,,,,,,,,,,,,,,,,,,,,,,,,,,,,,,,,,,,,,88,150133,21,Female,1,2024/03/14_08:50:01,YZ,None,
6,./instructions/inst_prac_2/Slide13.png,left,0.6685506149951834,281.84840510301,282.5169557180052,,,,,,,,,,,,,,,,,,,,,,,,,,,,,,,,,1,,,,,,,,,,,,,,,,,,,,,,,,,,,,,,,,,,,,,,,,,,,,,,88,150133,21,Female,1,2024/03/14_08:50:01,YZ,None,
7,./instructions/inst_prac_2/Slide12.png,right,1.027269559999695,282.54553801000293,283.5728075700026,,,,,,,,,,,,,,,,,,,,,,,,,,,,,,,,,1,,,,,,,,,,,,,,,,,,,,,,,,,,,,,,,,,,,,,,,,,,,,,,88,150133,21,Female,1,2024/03/14_08:50:01,YZ,None,
6,./instructions/inst_prac_2/Slide13.png,left,0.8214500960020814,283.5995665340015,284.4210166300036,,,,,,,,,,,,,,,,,,,,,,,,,,,,,,,,,1,,,,,,,,,,,,,,,,,,,,,,,,,,,,,,,,,,,,,,,,,,,,,,88,150133,21,Female,1,2024/03/14_08:50:01,YZ,None,
7,./instructions/inst_prac_2/Slide12.png,right,0.8833329009939916,284.44946873500885,285.33280163600284,,,,,,,,,,,,,,,,,,,,,,,,,,,,,,,,,1,,,,,,,,,,,,,,,,,,,,,,,,,,,,,,,,,,,,,,,,,,,,,,88,150133,21,Female,1,2024/03/14_08:50:01,YZ,None,
6,./instructions/inst_prac_2/Slide13.png,left,0.8277292800048599,285.36123552100617,286.188964801011,,,,,,,,,,,,,,,,,,,,,,,,,,,,,,,,,1,,,,,,,,,,,,,,,,,,,,,,,,,,,,,,,,,,,,,,,,,,,,,,88,150133,21,Female,1,2024/03/14_08:50:01,YZ,None,
7,./instructions/inst_prac_2/Slide12.png,right,0.8113028049992863,286.2173990700103,287.0287018750096,,,,,,,,,,,,,,,,,,,,,,,,,,,,,,,,,1,,,,,,,,,,,,,,,,,,,,,,,,,,,,,,,,,,,,,,,,,,,,,,88,150133,21,Female,1,2024/03/14_08:50:01,YZ,None,
6,./instructions/inst_prac_2/Slide13.png,left,0.8791386719967704,287.0537708480115,287.93290952000825,,,,,,,,,,,,,,,,,,,,,,,,,,,,,,,,,1,,,,,,,,,,,,,,,,,,,,,,,,,,,,,,,,,,,,,,,,,,,,,,88,150133,21,Female,1,2024/03/14_08:50:01,YZ,None,
7,./instructions/inst_prac_2/Slide12.png,right,0.723272174000158,287.96155108400853,288.6848232580087,,,,,,,,,,,,,,,,,,,,,,,,,,,,,,,,,1,,,,,,,,,,,,,,,,,,,,,,,,,,,,,,,,,,,,,,,,,,,,,,88,150133,21,Female,1,2024/03/14_08:50:01,YZ,None,
6,./instructions/inst_prac_2/Slide13.png,left,0.6915019009902608,288.71335033900687,289.4048522399971,,,,,,,,,,,,,,,,,,,,,,,,,,,,,,,,,1,,,,,,,,,,,,,,,,,,,,,,,,,,,,,,,,,,,,,,,,,,,,,,88,150133,21,Female,1,2024/03/14_08:50:01,YZ,None,
7,./instructions/inst_prac_2/Slide12.png,right,0.6435556369979167,289.43324483300967,290.0768004700076,,,,,,,,,,,,,,,,,,,,,,,,,,,,,,,,,1,,,,,,,,,,,,,,,,,,,,,,,,,,,,,,,,,,,,,,,,,,,,,,88,150133,21,Female,1,2024/03/14_08:50:01,YZ,None,
6,./instructions/inst_prac_2/Slide13.png,left,0.6929514239891432,290.10397807000845,290.7969294939976,,,,,,,,,,,,,,,,,,,,,,,,,,,,,,,,,1,,,,,,,,,,,,,,,,,,,,,,,,,,,,,,,,,,,,,,,,,,,,,,88,150133,21,Female,1,2024/03/14_08:50:01,YZ,None,
7,./instructions/inst_prac_2/Slide12.png,right,0.6542657750105718,290.8226345419971,291.4769003170077,,,,,,,,,,,,,,,,,,,,,,,,,,,,,,,,,1,,,,,,,,,,,,,,,,,,,,,,,,,,,,,,,,,,,,,,,,,,,,,,88,150133,21,Female,1,2024/03/14_08:50:01,YZ,None,
6,./instructions/inst_prac_2/Slide13.png,left,0.5717931959952693,291.50514710100833,292.0769402970036,,,,,,,,,,,,,,,,,,,,,,,,,,,,,,,,,1,,,,,,,,,,,,,,,,,,,,,,,,,,,,,,,,,,,,,,,,,,,,,,88,150133,21,Female,1,2024/03/14_08:50:01,YZ,None,
7,./instructions/inst_prac_2/Slide12.png,right,0.7315604640025413,292.1053019030078,292.8368623670103,,,,,,,,,,,,,,,,,,,,,,,,,,,,,,,,,1,,,,,,,,,,,,,,,,,,,,,,,,,,,,,,,,,,,,,,,,,,,,,,88,150133,21,Female,1,2024/03/14_08:50:01,YZ,None,
6,./instructions/inst_prac_2/Slide13.png,left,0.9237825580057688,292.86539226600144,293.7891748240072,,,,,,,,,,,,,,,,,,,,,,,,,,,,,,,,,1,,,,,,,,,,,,,,,,,,,,,,,,,,,,,,,,,,,,,,,,,,,,,,88,150133,21,Female,1,2024/03/14_08:50:01,YZ,None,
7,./instructions/inst_prac_2/Slide12.png,right,0.843125803003204,293.817700849002,294.6608266520052,,,,,,,,,,,,,,,,,,,,,,,,,,,,,,,,,1,,,,,,,,,,,,,,,,,,,,,,,,,,,,,,,,,,,,,,,,,,,,,,88,150133,21,Female,1,2024/03/14_08:50:01,YZ,None,
6,./instructions/inst_prac_2/Slide13.png,left,0.6273354129953077,294.689552655007,295.3168880680023,,,,,,,,,,,,,,,,,,,,,,,,,,,,,,,,,1,,,,,,,,,,,,,,,,,,,,,,,,,,,,,,,,,,,,,,,,,,,,,,88,150133,21,Female,1,2024/03/14_08:50:01,YZ,None,
7,./instructions/inst_prac_2/Slide12.png,right,0.6544637820043135,295.3423647140007,295.99682849600504,,,,,,,,,,,,,,,,,,,,,,,,,,,,,,,,,1,,,,,,,,,,,,,,,,,,,,,,,,,,,,,,,,,,,,,,,,,,,,,,88,150133,21,Female,1,2024/03/14_08:50:01,YZ,None,
6,./instructions/inst_prac_2/Slide13.png,left,0.6441909669956658,296.02475556700665,296.6689465340023,,,,,,,,,,,,,,,,,,,,,,,,,,,,,,,,,1,,,,,,,,,,,,,,,,,,,,,,,,,,,,,,,,,,,,,,,,,,,,,,88,150133,21,Female,1,2024/03/14_08:50:01,YZ,None,
7,./instructions/inst_prac_2/Slide12.png,right,0.6307563919981476,296.6940230730106,297.32477946500876,,,,,,,,,,,,,,,,,,,,,,,,,,,,,,,,,1,,,,,,,,,,,,,,,,,,,,,,,,,,,,,,,,,,,,,,,,,,,,,,88,150133,21,Female,1,2024/03/14_08:50:01,YZ,None,
6,./instructions/inst_prac_2/Slide13.png,left,0.6597484139929293,297.3532679050113,298.01301631900424,,,,,,,,,,,,,,,,,,,,,,,,,,,,,,,,,1,,,,,,,,,,,,,,,,,,,,,,,,,,,,,,,,,,,,,,,,,,,,,,88,150133,21,Female,1,2024/03/14_08:50:01,YZ,None,
7,./instructions/inst_prac_2/Slide12.png,right,0.9871682590019191,298.0416724829993,299.0288407420012,,,,,,,,,,,,,,,,,,,,,,,,,,,,,,,,,1,,,,,,,,,,,,,,,,,,,,,,,,,,,,,,,,,,,,,,,,,,,,,,88,150133,21,Female,1,2024/03/14_08:50:01,YZ,None,
6,./instructions/inst_prac_2/Slide13.png,left,0.5795038520009257,299.0574636780075,299.6369675300084,,,,,,,,,,,,,,,,,,,,,,,,,,,,,,,,,1,,,,,,,,,,,,,,,,,,,,,,,,,,,,,,,,,,,,,,,,,,,,,,88,150133,21,Female,1,2024/03/14_08:50:01,YZ,None,
7,./instructions/inst_prac_2/Slide12.png,right,0.7824383310071426,299.6623418329982,300.44478016400535,,,,,,,,,,,,,,,,,,,,,,,,,,,,,,,,,1,,,,,,,,,,,,,,,,,,,,,,,,,,,,,,,,,,,,,,,,,,,,,,88,150133,21,Female,1,2024/03/14_08:50:01,YZ,None,
6,./instructions/inst_prac_2/Slide13.png,left,0.5234830249974038,300.4735287660005,300.99701179099793,,,,,,,,,,,,,,,,,,,,,,,,,,,,,,,,,1,,,,,,,,,,,,,,,,,,,,,,,,,,,,,,,,,,,,,,,,,,,,,,88,150133,21,Female,1,2024/03/14_08:50:01,YZ,None,
7,./instructions/inst_prac_2/Slide12.png,right,0.6352641459961887,301.0255091630097,301.6607733090059,,,,,,,,,,,,,,,,,,,,,,,,,,,,,,,,,1,,,,,,,,,,,,,,,,,,,,,,,,,,,,,,,,,,,,,,,,,,,,,,88,150133,21,Female,1,2024/03/14_08:50:01,YZ,None,
6,./instructions/inst_prac_2/Slide13.png,left,0.5472675349883502,301.68968943601067,302.236956970999,,,,,,,,,,,,,,,,,,,,,,,,,,,,,,,,,1,,,,,,,,,,,,,,,,,,,,,,,,,,,,,,,,,,,,,,,,,,,,,,88,150133,21,Female,1,2024/03/14_08:50:01,YZ,None,
7,./instructions/inst_prac_2/Slide12.png,right,0.7496582829917315,302.2632807550108,303.0129390380025,,,,,,,,,,,,,,,,,,,,,,,,,,,,,,,,,1,,,,,,,,,,,,,,,,,,,,,,,,,,,,,,,,,,,,,,,,,,,,,,88,150133,21,Female,1,2024/03/14_08:50:01,YZ,None,
6,./instructions/inst_prac_2/Slide13.png,left,0.5392731699976139,303.0417291949998,303.5810023649974,,,,,,,,,,,,,,,,,,,,,,,,,,,,,,,,,1,,,,,,,,,,,,,,,,,,,,,,,,,,,,,,,,,,,,,,,,,,,,,,88,150133,21,Female,1,2024/03/14_08:50:01,YZ,None,
7,./instructions/inst_prac_2/Slide12.png,right,0.6272985530085862,303.6094809299975,304.2367794830061,,,,,,,,,,,,,,,,,,,,,,,,,,,,,,,,,1,,,,,,,,,,,,,,,,,,,,,,,,,,,,,,,,,,,,,,,,,,,,,,88,150133,21,Female,1,2024/03/14_08:50:01,YZ,None,
6,./instructions/inst_prac_2/Slide13.png,left,0.5405592719907872,304.2643487010064,304.80490797299717,,,,,,,,,,,,,,,,,,,,,,,,,,,,,,,,,1,,,,,,,,,,,,,,,,,,,,,,,,,,,,,,,,,,,,,,,,,,,,,,88,150133,21,Female,1,2024/03/14_08:50:01,YZ,None,
7,./instructions/inst_prac_2/Slide12.png,right,0.5574355749995448,304.83153237400984,305.3889679490094,,,,,,,,,,,,,,,,,,,,,,,,,,,,,,,,,1,,,,,,,,,,,,,,,,,,,,,,,,,,,,,,,,,,,,,,,,,,,,,,88,150133,21,Female,1,2024/03/14_08:50:01,YZ,None,
6,./instructions/inst_prac_2/Slide13.png,left,0.4934503130061785,305.41574427600426,305.90919458901044,,,,,,,,,,,,,,,,,,,,,,,,,,,,,,,,,1,,,,,,,,,,,,,,,,,,,,,,,,,,,,,,,,,,,,,,,,,,,,,,88,150133,21,Female,1,2024/03/14_08:50:01,YZ,None,
7,./instructions/inst_prac_2/Slide12.png,right,0.5026341530028731,305.9343295190047,306.43696367200755,,,,,,,,,,,,,,,,,,,,,,,,,,,,,,,,,1,,,,,,,,,,,,,,,,,,,,,,,,,,,,,,,,,,,,,,,,,,,,,,88,150133,21,Female,1,2024/03/14_08:50:01,YZ,None,
6,./instructions/inst_prac_2/Slide13.png,left,0.49153600200952496,306.4655649839988,306.9571009860083,,,,,,,,,,,,,,,,,,,,,,,,,,,,,,,,,1,,,,,,,,,,,,,,,,,,,,,,,,,,,,,,,,,,,,,,,,,,,,,,88,150133,21,Female,1,2024/03/14_08:50:01,YZ,None,
7,./instructions/inst_prac_2/Slide12.png,right,0.5494738289999077,306.98346260000835,307.53293642900826,,,,,,,,,,,,,,,,,,,,,,,,,,,,,,,,,1,,,,,,,,,,,,,,,,,,,,,,,,,,,,,,,,,,,,,,,,,,,,,,88,150133,21,Female,1,2024/03/14_08:50:01,YZ,None,
6,./instructions/inst_prac_2/Slide13.png,left,0.5233562380017247,307.5615383940021,308.08489463200385,,,,,,,,,,,,,,,,,,,,,,,,,,,,,,,,,1,,,,,,,,,,,,,,,,,,,,,,,,,,,,,,,,,,,,,,,,,,,,,,88,150133,21,Female,1,2024/03/14_08:50:01,YZ,None,
7,./instructions/inst_prac_2/Slide12.png,right,0.5153422220028006,308.1134586810076,308.6288009030104,,,,,,,,,,,,,,,,,,,,,,,,,,,,,,,,,1,,,,,,,,,,,,,,,,,,,,,,,,,,,,,,,,,,,,,,,,,,,,,,88,150133,21,Female,1,2024/03/14_08:50:01,YZ,None,
6,./instructions/inst_prac_2/Slide13.png,left,0.5147537419979926,308.65814354900795,309.17289729100594,,,,,,,,,,,,,,,,,,,,,,,,,,,,,,,,,1,,,,,,,,,,,,,,,,,,,,,,,,,,,,,,,,,,,,,,,,,,,,,,88,150133,21,Female,1,2024/03/14_08:50:01,YZ,None,
7,./instructions/inst_prac_2/Slide12.png,right,0.5959987590031233,309.2009051920031,309.79690395100624,,,,,,,,,,,,,,,,,,,,,,,,,,,,,,,,,1,,,,,,,,,,,,,,,,,,,,,,,,,,,,,,,,,,,,,,,,,,,,,,88,150133,21,Female,1,2024/03/14_08:50:01,YZ,None,
6,./instructions/inst_prac_2/Slide13.png,left,0.5475768039905233,309.8254060830077,310.3729828869982,,,,,,,,,,,,,,,,,,,,,,,,,,,,,,,,,1,,,,,,,,,,,,,,,,,,,,,,,,,,,,,,,,,,,,,,,,,,,,,,88,150133,21,Female,1,2024/03/14_08:50:01,YZ,None,
7,./instructions/inst_prac_2/Slide12.png,right,0.5389870469953166,310.40183748700656,310.9408245340019,,,,,,,,,,,,,,,,,,,,,,,,,,,,,,,,,1,,,,,,,,,,,,,,,,,,,,,,,,,,,,,,,,,,,,,,,,,,,,,,88,150133,21,Female,1,2024/03/14_08:50:01,YZ,None,
6,./instructions/inst_prac_2/Slide13.png,left,0.49193992000073195,310.9689236210106,311.46086354101135,,,,,,,,,,,,,,,,,,,,,,,,,,,,,,,,,1,,,,,,,,,,,,,,,,,,,,,,,,,,,,,,,,,,,,,,,,,,,,,,88,150133,21,Female,1,2024/03/14_08:50:01,YZ,None,
7,./instructions/inst_prac_2/Slide12.png,right,0.6295095609966666,311.48720248900645,312.1167120500031,,,,,,,,,,,,,,,,,,,,,,,,,,,,,,,,,1,,,,,,,,,,,,,,,,,,,,,,,,,,,,,,,,,,,,,,,,,,,,,,88,150133,21,Female,1,2024/03/14_08:50:01,YZ,None,
6,./instructions/inst_prac_2/Slide13.png,left,0.4353942679881584,312.1454153930099,312.58080966099806,,,,,,,,,,,,,,,,,,,,,,,,,,,,,,,,,1,,,,,,,,,,,,,,,,,,,,,,,,,,,,,,,,,,,,,,,,,,,,,,88,150133,21,Female,1,2024/03/14_08:50:01,YZ,None,
7,./instructions/inst_prac_2/Slide12.png,right,0.5190072379919002,312.60585003200686,313.12485726999876,,,,,,,,,,,,,,,,,,,,,,,,,,,,,,,,,1,,,,,,,,,,,,,,,,,,,,,,,,,,,,,,,,,,,,,,,,,,,,,,88,150133,21,Female,1,2024/03/14_08:50:01,YZ,None,
6,./instructions/inst_prac_2/Slide13.png,left,0.4676403530029347,313.1534217980079,313.62106215101085,,,,,,,,,,,,,,,,,,,,,,,,,,,,,,,,,1,,,,,,,,,,,,,,,,,,,,,,,,,,,,,,,,,,,,,,,,,,,,,,88,150133,21,Female,1,2024/03/14_08:50:01,YZ,None,
7,./instructions/inst_prac_2/Slide12.png,right,0.4675141820043791,313.6493727960042,314.11688697800855,,,,,,,,,,,,,,,,,,,,,,,,,,,,,,,,,1,,,,,,,,,,,,,,,,,,,,,,,,,,,,,,,,,,,,,,,,,,,,,,88,150133,21,Female,1,2024/03/14_08:50:01,YZ,None,
6,./instructions/inst_prac_2/Slide13.png,left,0.4908441940060584,314.14597373599827,314.6368179300043,,,,,,,,,,,,,,,,,,,,,,,,,,,,,,,,,1,,,,,,,,,,,,,,,,,,,,,,,,,,,,,,,,,,,,,,,,,,,,,,88,150133,21,Female,1,2024/03/14_08:50:01,YZ,None,
7,./instructions/inst_prac_2/Slide12.png,right,0.47541125399584416,314.66529642000387,315.1407076739997,,,,,,,,,,,,,,,,,,,,,,,,,,,,,,,,,1,,,,,,,,,,,,,,,,,,,,,,,,,,,,,,,,,,,,,,,,,,,,,,88,150133,21,Female,1,2024/03/14_08:50:01,YZ,None,
6,./instructions/inst_prac_2/Slide13.png,left,0.4915462899953127,315.16934889501135,315.66089518500667,,,,,,,,,,,,,,,,,,,,,,,,,,,,,,,,,1,,,,,,,,,,,,,,,,,,,,,,,,,,,,,,,,,,,,,,,,,,,,,,88,150133,21,Female,1,2024/03/14_08:50:01,YZ,None,
7,./instructions/inst_prac_2/Slide12.png,right,0.5077454650017899,315.6890273470053,316.1967728120071,,,,,,,,,,,,,,,,,,,,,,,,,,,,,,,,,1,,,,,,,,,,,,,,,,,,,,,,,,,,,,,,,,,,,,,,,,,,,,,,88,150133,21,Female,1,2024/03/14_08:50:01,YZ,None,
6,./instructions/inst_prac_2/Slide13.png,left,0.5095532270061085,316.2234266489977,316.7329798760038,,,,,,,,,,,,,,,,,,,,,,,,,,,,,,,,,1,,,,,,,,,,,,,,,,,,,,,,,,,,,,,,,,,,,,,,,,,,,,,,88,150133,21,Female,1,2024/03/14_08:50:01,YZ,None,
7,./instructions/inst_prac_2/Slide12.png,right,0.5024014049995458,316.75836920800793,317.2607706130075,,,,,,,,,,,,,,,,,,,,,,,,,,,,,,,,,1,,,,,,,,,,,,,,,,,,,,,,,,,,,,,,,,,,,,,,,,,,,,,,88,150133,21,Female,1,2024/03/14_08:50:01,YZ,None,
6,./instructions/inst_prac_2/Slide13.png,left,0.4996022879931843,317.2893035770103,317.78890586500347,,,,,,,,,,,,,,,,,,,,,,,,,,,,,,,,,1,,,,,,,,,,,,,,,,,,,,,,,,,,,,,,,,,,,,,,,,,,,,,,88,150133,21,Female,1,2024/03/14_08:50:01,YZ,None,
7,./instructions/inst_prac_2/Slide12.png,right,0.4516299219976645,317.8172639050026,318.2688938270003,,,,,,,,,,,,,,,,,,,,,,,,,,,,,,,,,1,,,,,,,,,,,,,,,,,,,,,,,,,,,,,,,,,,,,,,,,,,,,,,88,150133,21,Female,1,2024/03/14_08:50:01,YZ,None,
6,./instructions/inst_prac_2/Slide13.png,left,0.5077474700083258,318.29743336699903,318.80518083700736,,,,,,,,,,,,,,,,,,,,,,,,,,,,,,,,,1,,,,,,,,,,,,,,,,,,,,,,,,,,,,,,,,,,,,,,,,,,,,,,88,150133,21,Female,1,2024/03/14_08:50:01,YZ,None,
7,./instructions/inst_prac_2/Slide12.png,right,0.48295817100733984,318.8338657639979,319.31682393500523,,,,,,,,,,,,,,,,,,,,,,,,,,,,,,,,,1,,,,,,,,,,,,,,,,,,,,,,,,,,,,,,,,,,,,,,,,,,,,,,88,150133,21,Female,1,2024/03/14_08:50:01,YZ,None,
8,./instructions/inst_prac_2/Slide13.png,right,0.5261855449934956,319.34268580400385,319.86887134899735,,,,,,,,,,,,,,,,,,,,,,,,,,,,,,,,,1,,,,,,,,,,,,,,,,,,,,,,,,,,,,,,,,,,,,,,,,,,,,,,88,150133,21,Female,1,2024/03/14_08:50:01,YZ,None,
9,./instructions/inst_prac_2/Slide14.png,right,1.7667868540011114,319.8940996720048,321.6608865260059,,,,,,,,,,,,,,,,,,,,,,,,,,,,,,,,,1,,,,,,,,,,,,,,,,,,,,,,,,,,,,,,,,,,,,,,,,,,,,,,88,150133,21,Female,1,2024/03/14_08:50:01,YZ,None,
10,./instructions/inst_prac_2/Slide15.png,right,1.0827254409960005,321.69002528300916,322.77275072400516,,,,,,,,,,,,,,,,,,,,,,,,,,,,,,,,,1,,,,,,,,,,,,,,,,,,,,,,,,,,,,,,,,,,,,,,,,,,,,,,88,150133,21,Female,1,2024/03/14_08:50:01,YZ,None,
,,,,,,practice,0,31,2,2583,1,J,0,right,5.9140144499979215,1,0,,,,,,,,,,,,,,,,,,,,,1,,,,,,,,,,,,,,,,,,,,,,,,,,,,,,,,,,,,,,,,,,,,,,88,150133,21,Female,1,2024/03/14_08:50:01,YZ,None,
,,,,,,practice,0,31,2,2583,2,S,0,right,1.6346726190095069,1,0,,,,,,,,,,,,,,,,,,,,,1,,,,,,,,,,,,,,,,,,,,,,,,,,,,,,,,,,,,,,,,,,,,,,88,150133,21,Female,1,2024/03/14_08:50:01,YZ,None,
,,,,,,practice,0,31,2,2583,3,X,0,right,1.4113593609945383,1,0,,,,,,,,,,,,,,,,,,,,,1,,,,,,,,,,,,,,,,,,,,,,,,,,,,,,,,,,,,,,,,,,,,,,88,150133,21,Female,1,2024/03/14_08:50:01,YZ,None,
,,,,,,practice,0,31,2,2583,4,J,0,right,1.4090951050020522,1,0,,,,,,,,,,,,,,,,,,,,,1,,,,,,,,,,,,,,,,,,,,,,,,,,,,,,,,,,,,,,,,,,,,,,88,150133,21,Female,1,2024/03/14_08:50:01,YZ,None,
,,,,,,practice,0,31,2,2583,5,X,1,left,0.8364615110040177,1,0,,,,,,,,,,,,,,,,,,,,,1,,,,,,,,,,,,,,,,,,,,,,,,,,,,,,,,,,,,,,,,,,,,,,88,150133,21,Female,1,2024/03/14_08:50:01,YZ,None,
,,,,,,practice,0,31,2,2583,6,J,1,left,0.9394205849966966,1,0,,,,,,,,,,,,,,,,,,,,,1,,,,,,,,,,,,,,,,,,,,,,,,,,,,,,,,,,,,,,,,,,,,,,88,150133,21,Female,1,2024/03/14_08:50:01,YZ,None,
,,,,,,practice,0,31,2,2583,,,,,,,,1.0,1.0,0.0,1.0,0.0,1.0,2.0241706051674555,2,0,0,0,0,4,6,2,4,0,,,,1,,,,,,,,,,,,,,,,,,,,,,,,,,,,,,,,,,,,,,,,,,,,,,88,150133,21,Female,1,2024/03/14_08:50:01,YZ,None,
1,./instructions/inst_to_cali/Slide20.png,right,1.912817492004251,341.27601125399815,343.1888287460024,,,,,,,,,,,,,,,,,,,,,,,,,,,,,,,,,1,,,,,,,,,,,,,,,,,,,,,,,,,,,,,,,,,,,,,,,,,,,,,,88,150133,21,Female,1,2024/03/14_08:50:01,YZ,None,
1,./instructions/inst_cali/Slide22.png,right,1.1308313379995525,343.2260222390032,344.35685357700277,,,,,,,,,,,,,,,,,,,,,,,,,,,,,,,,,1,,,,,,,,,,,,,,,,,,,,,,,,,,,,,,,,,,,,,,,,,,,,,,88,150133,21,Female,1,2024/03/14_08:50:01,YZ,None,
,,,,,,calibration,0,7,2,583,1,S,0,right,0.7552402000001166,1,0,,,,,,,,,,,,,,,,,,,,,1,,,,,,,,,,,,,,,,,,,,,,,,,,,,,,,,,,,,,,,,,,,,,,88,150133,21,Female,1,2024/03/14_08:50:01,YZ,None,
,,,,,,calibration,0,7,2,583,2,N,0,right,0.4683700010064058,1,0,,,,,,,,,,,,,,,,,,,,,1,,,,,,,,,,,,,,,,,,,,,,,,,,,,,,,,,,,,,,,,,,,,,,88,150133,21,Female,1,2024/03/14_08:50:01,YZ,None,
,,,,,,calibration,0,7,2,583,3,J,0,right,0.568895436997991,1,0,,,,,,,,,,,,,,,,,,,,,1,,,,,,,,,,,,,,,,,,,,,,,,,,,,,,,,,,,,,,,,,,,,,,88,150133,21,Female,1,2024/03/14_08:50:01,YZ,None,
,,,,,,calibration,0,7,2,583,4,N,1,right,0.5577751840028213,0,0,,,,,,,,,,,,,,,,,,,,,1,,,,,,,,,,,,,,,,,,,,,,,,,,,,,,,,,,,,,,,,,,,,,,88,150133,21,Female,1,2024/03/14_08:50:01,YZ,None,
,,,,,,calibration,0,7,2,583,5,V,0,right,0.4439967079961207,1,0,,,,,,,,,,,,,,,,,,,,,1,,,,,,,,,,,,,,,,,,,,,,,,,,,,,,,,,,,,,,,,,,,,,,88,150133,21,Female,1,2024/03/14_08:50:01,YZ,None,
,,,,,,calibration,0,7,2,583,6,N,1,right,0.4718990870023845,0,0,,,,,,,,,,,,,,,,,,,,,1,,,,,,,,,,,,,,,,,,,,,,,,,,,,,,,,,,,,,,,,,,,,,,88,150133,21,Female,1,2024/03/14_08:50:01,YZ,None,
,,,,,,calibration,0,7,2,583,7,V,1,right,0.37615271800314076,0,0,,,,,,,,,,,,,,,,,,,,,1,,,,,,,,,,,,,,,,,,,,,,,,,,,,,,,,,,,,,,,,,,,,,,88,150133,21,Female,1,2024/03/14_08:50:01,YZ,None,
,,,,,,calibration,0,7,2,583,8,Q,0,right,0.6602139010065002,1,0,,,,,,,,,,,,,,,,,,,,,1,,,,,,,,,,,,,,,,,,,,,,,,,,,,,,,,,,,,,,,,,,,,,,88,150133,21,Female,1,2024/03/14_08:50:01,YZ,None,
,,,,,,calibration,0,7,2,583,9,N,0,right,0.376895480992971,1,0,,,,,,,,,,,,,,,,,,,,,1,,,,,,,,,,,,,,,,,,,,,,,,,,,,,,,,,,,,,,,,,,,,,,88,150133,21,Female,1,2024/03/14_08:50:01,YZ,None,
,,,,,,calibration,0,7,2,583,10,Q,1,right,0.3935481500084279,0,0,,,,,,,,,,,,,,,,,,,,,1,,,,,,,,,,,,,,,,,,,,,,,,,,,,,,,,,,,,,,,,,,,,,,88,150133,21,Female,1,2024/03/14_08:50:01,YZ,None,
,,,,,,calibration,0,7,2,583,11,X,0,left,0.8352802279987372,0,0,,,,,,,,,,,,,,,,,,,,,1,,,,,,,,,,,,,,,,,,,,,,,,,,,,,,,,,,,,,,,,,,,,,,88,150133,21,Female,1,2024/03/14_08:50:01,YZ,None,
,,,,,,calibration,0,7,2,583,12,J,0,right,0.29143828399537597,1,0,,,,,,,,,,,,,,,,,,,,,1,,,,,,,,,,,,,,,,,,,,,,,,,,,,,,,,,,,,,,,,,,,,,,88,150133,21,Female,1,2024/03/14_08:50:01,YZ,None,
,,,,,,calibration,0,7,2,583,13,S,0,right,0.7651289159985026,1,0,,,,,,,,,,,,,,,,,,,,,1,,,,,,,,,,,,,,,,,,,,,,,,,,,,,,,,,,,,,,,,,,,,,,88,150133,21,Female,1,2024/03/14_08:50:01,YZ,None,
,,,,,,calibration,0,7,2,583,14,J,1,right,1.341764720986248,0,0,,,,,,,,,,,,,,,,,,,,,1,,,,,,,,,,,,,,,,,,,,,,,,,,,,,,,,,,,,,,,,,,,,,,88,150133,21,Female,1,2024/03/14_08:50:01,YZ,None,
,,,,,,calibration,0,7,2,583,15,Q,0,right,0.5266402929992182,1,0,,,,,,,,,,,,,,,,,,,,,1,,,,,,,,,,,,,,,,,,,,,,,,,,,,,,,,,,,,,,,,,,,,,,88,150133,21,Female,1,2024/03/14_08:50:01,YZ,None,
,,,,,,calibration,0,7,2,583,,,,,,,,0.225,0.0,0.1,0.9,0.0,0.9,0.5888826205996641,0,1,0,0,0,9,9,5,10,0,,,,1,,,,,,,,,,,,,,,,,,,,,,,,,,,,,,,,,,,,,,,,,,,,,,88,150133,21,Female,1,2024/03/14_08:50:01,YZ,None,
,,,,,,Calibration,0,,2,583,,,,,,,,,,,,,,,,,,,,,,,,,1,,,1,,,,,,,,,,,,,,,,,,,,,,,,,,,,,,,,,,,,,,,,,,,,,,88,150133,21,Female,1,2024/03/14_08:50:01,YZ,None,
,,,,,,calibration,0,33,2,679,1,S,0,right,0.36906173899478745,1,0,,,,,,,,,,,,,,,,,,,,,1,,,,,,,,,,,,,,,,,,,,,,,,,,,,,,,,,,,,,,,,,,,,,,88,150133,21,Female,1,2024/03/14_08:50:01,YZ,None,
,,,,,,calibration,0,33,2,679,2,S,0,right,0.41286568201030605,1,0,,,,,,,,,,,,,,,,,,,,,1,,,,,,,,,,,,,,,,,,,,,,,,,,,,,,,,,,,,,,,,,,,,,,88,150133,21,Female,1,2024/03/14_08:50:01,YZ,None,
,,,,,,calibration,0,33,2,679,3,S,1,right,nan,0,1,,,,,,,,,,,,,,,,,,,,,1,,,,,,,,,,,,,,,,,,,,,,,,,,,,,,,,,,,,,,,,,,,,,,88,150133,21,Female,1,2024/03/14_08:50:01,YZ,None,
,,,,,,calibration,0,33,2,679,4,J,0,right,nan,0,1,,,,,,,,,,,,,,,,,,,,,1,,,,,,,,,,,,,,,,,,,,,,,,,,,,,,,,,,,,,,,,,,,,,,88,150133,21,Female,1,2024/03/14_08:50:01,YZ,None,
,,,,,,calibration,0,33,2,679,5,X,0,right,nan,0,1,,,,,,,,,,,,,,,,,,,,,1,,,,,,,,,,,,,,,,,,,,,,,,,,,,,,,,,,,,,,,,,,,,,,88,150133,21,Female,1,2024/03/14_08:50:01,YZ,None,
,,,,,,calibration,0,33,2,679,6,N,0,right,nan,0,1,,,,,,,,,,,,,,,,,,,,,1,,,,,,,,,,,,,,,,,,,,,,,,,,,,,,,,,,,,,,,,,,,,,,88,150133,21,Female,1,2024/03/14_08:50:01,YZ,None,
,,,,,,calibration,0,33,2,679,7,S,0,right,1.4093181229982292,1,0,,,,,,,,,,,,,,,,,,,,,1,,,,,,,,,,,,,,,,,,,,,,,,,,,,,,,,,,,,,,,,,,,,,,88,150133,21,Female,1,2024/03/14_08:50:01,YZ,None,
,,,,,,calibration,0,33,2,679,8,N,1,right,nan,0,1,,,,,,,,,,,,,,,,,,,,,1,,,,,,,,,,,,,,,,,,,,,,,,,,,,,,,,,,,,,,,,,,,,,,88,150133,21,Female,1,2024/03/14_08:50:01,YZ,None,
,,,,,,calibration,0,33,2,679,9,X,0,right,1.8431389250035863,1,0,,,,,,,,,,,,,,,,,,,,,1,,,,,,,,,,,,,,,,,,,,,,,,,,,,,,,,,,,,,,,,,,,,,,88,150133,21,Female,1,2024/03/14_08:50:01,YZ,None,
,,,,,,calibration,0,33,2,679,10,F,0,left,1.066263077998883,0,0,,,,,,,,,,,,,,,,,,,,,1,,,,,,,,,,,,,,,,,,,,,,,,,,,,,,,,,,,,,,,,,,,,,,88,150133,21,Female,1,2024/03/14_08:50:01,YZ,None,
,,,,,,calibration,0,33,2,679,11,X,1,right,0.26973082100448664,0,0,,,,,,,,,,,,,,,,,,,,,1,,,,,,,,,,,,,,,,,,,,,,,,,,,,,,,,,,,,,,,,,,,,,,88,150133,21,Female,1,2024/03/14_08:50:01,YZ,None,
,,,,,,calibration,0,33,2,679,12,Q,0,left,0.4085615080111893,0,0,,,,,,,,,,,,,,,,,,,,,1,,,,,,,,,,,,,,,,,,,,,,,,,,,,,,,,,,,,,,,,,,,,,,88,150133,21,Female,1,2024/03/14_08:50:01,YZ,None,
,,,,,,calibration,0,33,2,679,13,X,1,right,1.2820755680004368,0,0,,,,,,,,,,,,,,,,,,,,,1,,,,,,,,,,,,,,,,,,,,,,,,,,,,,,,,,,,,,,,,,,,,,,88,150133,21,Female,1,2024/03/14_08:50:01,YZ,None,
,,,,,,calibration,0,33,2,679,14,C,0,right,1.5646606179943774,1,0,,,,,,,,,,,,,,,,,,,,,1,,,,,,,,,,,,,,,,,,,,,,,,,,,,,,,,,,,,,,,,,,,,,,88,150133,21,Female,1,2024/03/14_08:50:01,YZ,None,
,,,,,,calibration,0,33,2,679,,,,,,,,0.2,0.0,0.2,0.7142857142857143,0.35714285714285715,0.4428571428571429,0.9584084513351425,0,2,2,3,5,5,5,4,10,0,,,,1,,,,,,,,,,,,,,,,,,,,,,,,,,,,,,,,,,,,,,,,,,,,,,88,150133,21,Female,1,2024/03/14_08:50:01,YZ,None,
,,,,,,Calibration,0,,2,679,,,,,,,,,,,,,,,,,,,,,,,,,2,,,1,,,,,,,,,,,,,,,,,,,,,,,,,,,,,,,,,,,,,,,,,,,,,,88,150133,21,Female,1,2024/03/14_08:50:01,YZ,None,
,,,,,,calibration,0,20,2,788,1,C,0,None,nan,0,1,,,,,,,,,,,,,,,,,,,,,1,,,,,,,,,,,,,,,,,,,,,,,,,,,,,,,,,,,,,,,,,,,,,,88,150133,21,Female,1,2024/03/14_08:50:01,YZ,None,
,,,,,,calibration,0,20,2,788,2,J,0,None,nan,0,1,,,,,,,,,,,,,,,,,,,,,1,,,,,,,,,,,,,,,,,,,,,,,,,,,,,,,,,,,,,,,,,,,,,,88,150133,21,Female,1,2024/03/14_08:50:01,YZ,None,
,,,,,,calibration,0,20,2,788,3,Q,0,None,nan,0,1,,,,,,,,,,,,,,,,,,,,,1,,,,,,,,,,,,,,,,,,,,,,,,,,,,,,,,,,,,,,,,,,,,,,88,150133,21,Female,1,2024/03/14_08:50:01,YZ,None,
,,,,,,calibration,0,20,2,788,4,J,1,None,nan,0,1,,,,,,,,,,,,,,,,,,,,,1,,,,,,,,,,,,,,,,,,,,,,,,,,,,,,,,,,,,,,,,,,,,,,88,150133,21,Female,1,2024/03/14_08:50:01,YZ,None,
,,,,,,calibration,0,20,2,788,5,Q,1,None,nan,0,1,,,,,,,,,,,,,,,,,,,,,1,,,,,,,,,,,,,,,,,,,,,,,,,,,,,,,,,,,,,,,,,,,,,,88,150133,21,Female,1,2024/03/14_08:50:01,YZ,None,
,,,,,,calibration,0,20,2,788,6,F,0,None,nan,0,1,,,,,,,,,,,,,,,,,,,,,1,,,,,,,,,,,,,,,,,,,,,,,,,,,,,,,,,,,,,,,,,,,,,,88,150133,21,Female,1,2024/03/14_08:50:01,YZ,None,
,,,,,,calibration,0,20,2,788,7,V,0,right,0.0,1,0,,,,,,,,,,,,,,,,,,,,,1,,,,,,,,,,,,,,,,,,,,,,,,,,,,,,,,,,,,,,,,,,,,,,88,150133,21,Female,1,2024/03/14_08:50:01,YZ,None,
,,,,,,calibration,0,20,2,788,8,N,0,left,0.3771708130079787,0,0,,,,,,,,,,,,,,,,,,,,,1,,,,,,,,,,,,,,,,,,,,,,,,,,,,,,,,,,,,,,,,,,,,,,88,150133,21,Female,1,2024/03/14_08:50:01,YZ,None,
,,,,,,calibration,0,20,2,788,9,X,0,right,0.5246053010050673,1,0,,,,,,,,,,,,,,,,,,,,,1,,,,,,,,,,,,,,,,,,,,,,,,,,,,,,,,,,,,,,,,,,,,,,88,150133,21,Female,1,2024/03/14_08:50:01,YZ,None,
,,,,,,calibration,0,20,2,788,10,S,0,left,0.2350034230039455,0,0,,,,,,,,,,,,,,,,,,,,,1,,,,,,,,,,,,,,,,,,,,,,,,,,,,,,,,,,,,,,,,,,,,,,88,150133,21,Female,1,2024/03/14_08:50:01,YZ,None,
,,,,,,calibration,0,20,2,788,11,X,1,left,0.6193541149987141,1,0,,,,,,,,,,,,,,,,,,,,,1,,,,,,,,,,,,,,,,,,,,,,,,,,,,,,,,,,,,,,,,,,,,,,88,150133,21,Female,1,2024/03/14_08:50:01,YZ,None,
,,,,,,calibration,0,20,2,788,12,J,0,left,0.5916553379938705,0,0,,,,,,,,,,,,,,,,,,,,,1,,,,,,,,,,,,,,,,,,,,,,,,,,,,,,,,,,,,,,,,,,,,,,88,150133,21,Female,1,2024/03/14_08:50:01,YZ,None,
,,,,,,calibration,0,20,2,788,13,X,1,right,0.442585130003863,0,0,,,,,,,,,,,,,,,,,,,,,1,,,,,,,,,,,,,,,,,,,,,,,,,,,,,,,,,,,,,,,,,,,,,,88,150133,21,Female,1,2024/03/14_08:50:01,YZ,None,
,,,,,,calibration,0,20,2,788,,,,,,,,0.041666666666666685,0.25,0.3333333333333333,0.4,0.46153846153846156,0.20512820512820518,0.39862487428763416,1,3,2,4,6,2,3,4,9,0,,,,1,,,,,,,,,,,,,,,,,,,,,,,,,,,,,,,,,,,,,,,,,,,,,,88,150133,21,Female,1,2024/03/14_08:50:01,YZ,None,
,,,,,,Calibration,0,,2,788,,,,,,,,,,,,,,,,,,,,,,,,,3,,,1,,,,,,,,,,,,,,,,,,,,,,,,,,,,,,,,,,,,,,,,,,,,,,88,150133,21,Female,1,2024/03/14_08:50:01,YZ,None,
,,,,,,calibration,0,35,2,917,1,S,0,None,nan,0,1,,,,,,,,,,,,,,,,,,,,,1,,,,,,,,,,,,,,,,,,,,,,,,,,,,,,,,,,,,,,,,,,,,,,88,150133,21,Female,1,2024/03/14_08:50:01,YZ,None,
,,,,,,calibration,0,35,2,917,2,V,0,right,0.39468457699695136,1,0,,,,,,,,,,,,,,,,,,,,,1,,,,,,,,,,,,,,,,,,,,,,,,,,,,,,,,,,,,,,,,,,,,,,88,150133,21,Female,1,2024/03/14_08:50:01,YZ,None,
,,,,,,calibration,0,35,2,917,3,F,0,right,1.5753088170022238,1,0,,,,,,,,,,,,,,,,,,,,,1,,,,,,,,,,,,,,,,,,,,,,,,,,,,,,,,,,,,,,,,,,,,,,88,150133,21,Female,1,2024/03/14_08:50:01,YZ,None,
,,,,,,calibration,0,35,2,917,4,Q,0,left,1.1029609810066177,0,0,,,,,,,,,,,,,,,,,,,,,1,,,,,,,,,,,,,,,,,,,,,,,,,,,,,,,,,,,,,,,,,,,,,,88,150133,21,Female,1,2024/03/14_08:50:01,YZ,None,
,,,,,,calibration,0,35,2,917,5,N,0,left,1.1357208609988447,0,0,,,,,,,,,,,,,,,,,,,,,1,,,,,,,,,,,,,,,,,,,,,,,,,,,,,,,,,,,,,,,,,,,,,,88,150133,21,Female,1,2024/03/14_08:50:01,YZ,None,
,,,,,,calibration,0,35,2,917,6,Q,1,right,1.7896167440048885,0,0,,,,,,,,,,,,,,,,,,,,,1,,,,,,,,,,,,,,,,,,,,,,,,,,,,,,,,,,,,,,,,,,,,,,88,150133,21,Female,1,2024/03/14_08:50:01,YZ,None,
,,,,,,calibration,0,35,2,917,7,S,0,right,0.9360080369951902,1,0,,,,,,,,,,,,,,,,,,,,,1,,,,,,,,,,,,,,,,,,,,,,,,,,,,,,,,,,,,,,,,,,,,,,88,150133,21,Female,1,2024/03/14_08:50:01,YZ,None,
,,,,,,calibration,0,35,2,917,8,Q,1,right,nan,0,1,,,,,,,,,,,,,,,,,,,,,1,,,,,,,,,,,,,,,,,,,,,,,,,,,,,,,,,,,,,,,,,,,,,,88,150133,21,Female,1,2024/03/14_08:50:01,YZ,None,
,,,,,,calibration,0,35,2,917,9,X,0,right,0.04834311798913404,1,0,,,,,,,,,,,,,,,,,,,,,1,,,,,,,,,,,,,,,,,,,,,,,,,,,,,,,,,,,,,,,,,,,,,,88,150133,21,Female,1,2024/03/14_08:50:01,YZ,None,
,,,,,,calibration,0,35,2,917,10,Q,1,right,0.8673963940091198,0,0,,,,,,,,,,,,,,,,,,,,,1,,,,,,,,,,,,,,,,,,,,,,,,,,,,,,,,,,,,,,,,,,,,,,88,150133,21,Female,1,2024/03/14_08:50:01,YZ,None,
,,,,,,calibration,0,35,2,917,11,C,0,right,nan,0,1,,,,,,,,,,,,,,,,,,,,,1,,,,,,,,,,,,,,,,,,,,,,,,,,,,,,,,,,,,,,,,,,,,,,88,150133,21,Female,1,2024/03/14_08:50:01,YZ,None,
,,,,,,calibration,0,35,2,917,12,F,0,right,0.04896668900619261,1,0,,,,,,,,,,,,,,,,,,,,,1,,,,,,,,,,,,,,,,,,,,,,,,,,,,,,,,,,,,,,,,,,,,,,88,150133,21,Female,1,2024/03/14_08:50:01,YZ,None,
,,,,,,calibration,0,35,2,917,,,,,,,,0.19444444444444445,0.0,0.2222222222222222,0.7142857142857143,0.25,0.5277777777777778,0.8776673575565737,0,2,1,2,3,5,5,3,9,0,,,,1,,,,,,,,,,,,,,,,,,,,,,,,,,,,,,,,,,,,,,,,,,,,,,88,150133,21,Female,1,2024/03/14_08:50:01,YZ,None,
,,,,,,Calibration,0,,2,917,,,,,,,,,,,,,,,,,,,,,,,,,4,,,1,,,,,,,,,,,,,,,,,,,,,,,,,,,,,,,,,,,,,,,,,,,,,,88,150133,21,Female,1,2024/03/14_08:50:01,YZ,None,
,,,,,,calibration,0,9,2,1068,1,S,0,right,0.2988387349905679,1,0,,,,,,,,,,,,,,,,,,,,,1,,,,,,,,,,,,,,,,,,,,,,,,,,,,,,,,,,,,,,,,,,,,,,88,150133,21,Female,1,2024/03/14_08:50:01,YZ,None,
,,,,,,calibration,0,9,2,1068,2,Q,0,right,0.5392604780063266,1,0,,,,,,,,,,,,,,,,,,,,,1,,,,,,,,,,,,,,,,,,,,,,,,,,,,,,,,,,,,,,,,,,,,,,88,150133,21,Female,1,2024/03/14_08:50:01,YZ,None,
,,,,,,calibration,0,9,2,1068,3,X,0,right,0.3099025459960103,1,0,,,,,,,,,,,,,,,,,,,,,1,,,,,,,,,,,,,,,,,,,,,,,,,,,,,,,,,,,,,,,,,,,,,,88,150133,21,Female,1,2024/03/14_08:50:01,YZ,None,
,,,,,,calibration,0,9,2,1068,4,V,0,right,0.2927455449971603,1,0,,,,,,,,,,,,,,,,,,,,,1,,,,,,,,,,,,,,,,,,,,,,,,,,,,,,,,,,,,,,,,,,,,,,88,150133,21,Female,1,2024/03/14_08:50:01,YZ,None,
,,,,,,calibration,0,9,2,1068,5,Q,0,right,0.2344292299967492,1,0,,,,,,,,,,,,,,,,,,,,,1,,,,,,,,,,,,,,,,,,,,,,,,,,,,,,,,,,,,,,,,,,,,,,88,150133,21,Female,1,2024/03/14_08:50:01,YZ,None,
,,,,,,calibration,0,9,2,1068,6,X,0,right,0.27967614399676677,1,0,,,,,,,,,,,,,,,,,,,,,1,,,,,,,,,,,,,,,,,,,,,,,,,,,,,,,,,,,,,,,,,,,,,,88,150133,21,Female,1,2024/03/14_08:50:01,YZ,None,
,,,,,,calibration,0,9,2,1068,7,Q,1,right,0.19862589999684133,0,0,,,,,,,,,,,,,,,,,,,,,1,,,,,,,,,,,,,,,,,,,,,,,,,,,,,,,,,,,,,,,,,,,,,,88,150133,21,Female,1,2024/03/14_08:50:01,YZ,None,
,,,,,,calibration,0,9,2,1068,8,V,0,right,0.10044258600100875,1,0,,,,,,,,,,,,,,,,,,,,,1,,,,,,,,,,,,,,,,,,,,,,,,,,,,,,,,,,,,,,,,,,,,,,88,150133,21,Female,1,2024/03/14_08:50:01,YZ,None,
,,,,,,calibration,0,9,2,1068,9,Q,1,right,0.08768174699798692,0,0,,,,,,,,,,,,,,,,,,,,,1,,,,,,,,,,,,,,,,,,,,,,,,,,,,,,,,,,,,,,,,,,,,,,88,150133,21,Female,1,2024/03/14_08:50:01,YZ,None,
,,,,,,calibration,0,9,2,1068,10,X,0,right,0.04822984599741176,1,0,,,,,,,,,,,,,,,,,,,,,1,,,,,,,,,,,,,,,,,,,,,,,,,,,,,,,,,,,,,,,,,,,,,,88,150133,21,Female,1,2024/03/14_08:50:01,YZ,None,
,,,,,,calibration,0,9,2,1068,11,Q,1,left,0.45272585899510887,1,0,,,,,,,,,,,,,,,,,,,,,1,,,,,,,,,,,,,,,,,,,,,,,,,,,,,,,,,,,,,,,,,,,,,,88,150133,21,Female,1,2024/03/14_08:50:01,YZ,None,
,,,,,,calibration,0,9,2,1068,,,,,,,,0.8333333333333334,0.3333333333333333,0.0,1.0,0.0,1.0,0.2584144196338126,1,0,0,0,0,8,9,3,8,0,,,,1,,,,,,,,,,,,,,,,,,,,,,,,,,,,,,,,,,,,,,,,,,,,,,88,150133,21,Female,1,2024/03/14_08:50:01,YZ,None,
,,,,,,Calibration,0,,2,1068,,,,,,,,,,,,,,,,,,,,,,,,,5,,,1,,,,,,,,,,,,,,,,,,,,,,,,,,,,,,,,,,,,,,,,,,,,,,88,150133,21,Female,1,2024/03/14_08:50:01,YZ,None,
,,,,,,calibration,0,7,2,1068,1,N,0,right,0.2343449280015193,1,0,,,,,,,,,,,,,,,,,,,,,1,,,,,,,,,,,,,,,,,,,,,,,,,,,,,,,,,,,,,,,,,,,,,,88,150133,21,Female,1,2024/03/14_08:50:01,YZ,None,
,,,,,,calibration,0,7,2,1068,2,V,0,right,0.2553952429880155,1,0,,,,,,,,,,,,,,,,,,,,,1,,,,,,,,,,,,,,,,,,,,,,,,,,,,,,,,,,,,,,,,,,,,,,88,150133,21,Female,1,2024/03/14_08:50:01,YZ,None,
,,,,,,calibration,0,7,2,1068,3,N,1,right,0.31168452100246213,0,0,,,,,,,,,,,,,,,,,,,,,1,,,,,,,,,,,,,,,,,,,,,,,,,,,,,,,,,,,,,,,,,,,,,,88,150133,21,Female,1,2024/03/14_08:50:01,YZ,None,
,,,,,,calibration,0,7,2,1068,4,Q,0,right,0.5126600350049557,1,0,,,,,,,,,,,,,,,,,,,,,1,,,,,,,,,,,,,,,,,,,,,,,,,,,,,,,,,,,,,,,,,,,,,,88,150133,21,Female,1,2024/03/14_08:50:01,YZ,None,
,,,,,,calibration,0,7,2,1068,5,F,0,right,0.3380523509986233,1,0,,,,,,,,,,,,,,,,,,,,,1,,,,,,,,,,,,,,,,,,,,,,,,,,,,,,,,,,,,,,,,,,,,,,88,150133,21,Female,1,2024/03/14_08:50:01,YZ,None,
,,,,,,calibration,0,7,2,1068,6,Q,1,left,0.6923551170038991,1,0,,,,,,,,,,,,,,,,,,,,,1,,,,,,,,,,,,,,,,,,,,,,,,,,,,,,,,,,,,,,,,,,,,,,88,150133,21,Female,1,2024/03/14_08:50:01,YZ,None,
,,,,,,calibration,0,7,2,1068,7,F,1,right,0.32989682600600645,0,0,,,,,,,,,,,,,,,,,,,,,1,,,,,,,,,,,,,,,,,,,,,,,,,,,,,,,,,,,,,,,,,,,,,,88,150133,21,Female,1,2024/03/14_08:50:01,YZ,None,
,,,,,,calibration,0,7,2,1068,8,X,0,left,0.35327825500280596,0,0,,,,,,,,,,,,,,,,,,,,,1,,,,,,,,,,,,,,,,,,,,,,,,,,,,,,,,,,,,,,,,,,,,,,88,150133,21,Female,1,2024/03/14_08:50:01,YZ,None,
,,,,,,calibration,0,7,2,1068,9,S,0,left,0.47637878700334113,0,0,,,,,,,,,,,,,,,,,,,,,1,,,,,,,,,,,,,,,,,,,,,,,,,,,,,,,,,,,,,,,,,,,,,,88,150133,21,Female,1,2024/03/14_08:50:01,YZ,None,
,,,,,,calibration,0,7,2,1068,10,C,0,right,0.4447030200099107,1,0,,,,,,,,,,,,,,,,,,,,,1,,,,,,,,,,,,,,,,,,,,,,,,,,,,,,,,,,,,,,,,,,,,,,88,150133,21,Female,1,2024/03/14_08:50:01,YZ,None,
,,,,,,calibration,0,7,2,1068,11,X,0,left,0.8128567309904611,0,0,,,,,,,,,,,,,,,,,,,,,1,,,,,,,,,,,,,,,,,,,,,,,,,,,,,,,,,,,,,,,,,,,,,,88,150133,21,Female,1,2024/03/14_08:50:01,YZ,None,
,,,,,,calibration,0,7,2,1068,,,,,,,,0.017361111111111105,0.3333333333333333,0.375,0.625,0.0,0.625,0.4328732558192728,1,3,0,0,0,5,6,3,8,0,,,,1,,,,,,,,,,,,,,,,,,,,,,,,,,,,,,,,,,,,,,,,,,,,,,88,150133,21,Female,1,2024/03/14_08:50:01,YZ,None,
,,,,,,Calibration,0,,2,1068,,,,,,,,,,,,,,,,,,,,,,,,,6,,,1,,,,,,,,,,,,,,,,,,,,,,,,,,,,,,,,,,,,,,,,,,,,,,88,150133,21,Female,1,2024/03/14_08:50:01,YZ,None,
,,,,,,calibration,0,18,2,1250,1,C,0,right,0.43617147600161843,1,0,,,,,,,,,,,,,,,,,,,,,1,,,,,,,,,,,,,,,,,,,,,,,,,,,,,,,,,,,,,,,,,,,,,,88,150133,21,Female,1,2024/03/14_08:50:01,YZ,None,
,,,,,,calibration,0,18,2,1250,2,S,0,right,0.49865067400969565,1,0,,,,,,,,,,,,,,,,,,,,,1,,,,,,,,,,,,,,,,,,,,,,,,,,,,,,,,,,,,,,,,,,,,,,88,150133,21,Female,1,2024/03/14_08:50:01,YZ,None,
,,,,,,calibration,0,18,2,1250,3,C,1,right,0.8674528409901541,0,0,,,,,,,,,,,,,,,,,,,,,1,,,,,,,,,,,,,,,,,,,,,,,,,,,,,,,,,,,,,,,,,,,,,,88,150133,21,Female,1,2024/03/14_08:50:01,YZ,None,
,,,,,,calibration,0,18,2,1250,4,N,0,right,0.857836576004047,1,0,,,,,,,,,,,,,,,,,,,,,1,,,,,,,,,,,,,,,,,,,,,,,,,,,,,,,,,,,,,,,,,,,,,,88,150133,21,Female,1,2024/03/14_08:50:01,YZ,None,
,,,,,,calibration,0,18,2,1250,5,X,0,left,0.44729536100931,0,0,,,,,,,,,,,,,,,,,,,,,1,,,,,,,,,,,,,,,,,,,,,,,,,,,,,,,,,,,,,,,,,,,,,,88,150133,21,Female,1,2024/03/14_08:50:01,YZ,None,
,,,,,,calibration,0,18,2,1250,6,N,1,right,0.6938861660019029,0,0,,,,,,,,,,,,,,,,,,,,,1,,,,,,,,,,,,,,,,,,,,,,,,,,,,,,,,,,,,,,,,,,,,,,88,150133,21,Female,1,2024/03/14_08:50:01,YZ,None,
,,,,,,calibration,0,18,2,1250,7,X,1,right,0.9133419069985393,0,0,,,,,,,,,,,,,,,,,,,,,1,,,,,,,,,,,,,,,,,,,,,,,,,,,,,,,,,,,,,,,,,,,,,,88,150133,21,Female,1,2024/03/14_08:50:01,YZ,None,
,,,,,,calibration,0,18,2,1250,8,Q,0,right,nan,0,1,,,,,,,,,,,,,,,,,,,,,1,,,,,,,,,,,,,,,,,,,,,,,,,,,,,,,,,,,,,,,,,,,,,,88,150133,21,Female,1,2024/03/14_08:50:01,YZ,None,
,,,,,,calibration,0,18,2,1250,9,S,0,right,0.3527676369994879,1,0,,,,,,,,,,,,,,,,,,,,,1,,,,,,,,,,,,,,,,,,,,,,,,,,,,,,,,,,,,,,,,,,,,,,88,150133,21,Female,1,2024/03/14_08:50:01,YZ,None,
,,,,,,calibration,0,18,2,1250,10,V,0,right,0.6508262220013421,1,0,,,,,,,,,,,,,,,,,,,,,1,,,,,,,,,,,,,,,,,,,,,,,,,,,,,,,,,,,,,,,,,,,,,,88,150133,21,Female,1,2024/03/14_08:50:01,YZ,None,
,,,,,,calibration,0,18,2,1250,,,,,,,,0.2142857142857143,0.0,0.14285714285714285,0.8333333333333334,0.1,0.7571428571428572,0.6353587622240108,0,1,0,1,1,5,5,3,7,0,,,,1,,,,,,,,,,,,,,,,,,,,,,,,,,,,,,,,,,,,,,,,,,,,,,88,150133,21,Female,1,2024/03/14_08:50:01,YZ,None,
,,,,,,Calibration,0,,2,1250,,,,,,,,,,,,,,,,,,,,,,,,,7,,,1,,,,,,,,,,,,,,,,,,,,,,,,,,,,,,,,,,,,,,,,,,,,,,88,150133,21,Female,1,2024/03/14_08:50:01,YZ,None,
,,,,,,calibration,0,18,2,1472,1,Q,0,right,0.28259596100542694,1,0,,,,,,,,,,,,,,,,,,,,,1,,,,,,,,,,,,,,,,,,,,,,,,,,,,,,,,,,,,,,,,,,,,,,88,150133,21,Female,1,2024/03/14_08:50:01,YZ,None,
,,,,,,calibration,0,18,2,1472,2,V,0,right,0.3809314100071788,1,0,,,,,,,,,,,,,,,,,,,,,1,,,,,,,,,,,,,,,,,,,,,,,,,,,,,,,,,,,,,,,,,,,,,,88,150133,21,Female,1,2024/03/14_08:50:01,YZ,None,
,,,,,,calibration,0,18,2,1472,3,J,0,right,0.8186182059871498,1,0,,,,,,,,,,,,,,,,,,,,,1,,,,,,,,,,,,,,,,,,,,,,,,,,,,,,,,,,,,,,,,,,,,,,88,150133,21,Female,1,2024/03/14_08:50:01,YZ,None,
,,,,,,calibration,0,18,2,1472,4,V,1,left,0.7084690460033016,1,0,,,,,,,,,,,,,,,,,,,,,1,,,,,,,,,,,,,,,,,,,,,,,,,,,,,,,,,,,,,,,,,,,,,,88,150133,21,Female,1,2024/03/14_08:50:01,YZ,None,
,,,,,,calibration,0,18,2,1472,5,J,1,right,1.058295883005485,0,0,,,,,,,,,,,,,,,,,,,,,1,,,,,,,,,,,,,,,,,,,,,,,,,,,,,,,,,,,,,,,,,,,,,,88,150133,21,Female,1,2024/03/14_08:50:01,YZ,None,
,,,,,,calibration,0,18,2,1472,6,X,0,left,0.13036931199894752,0,0,,,,,,,,,,,,,,,,,,,,,1,,,,,,,,,,,,,,,,,,,,,,,,,,,,,,,,,,,,,,,,,,,,,,88,150133,21,Female,1,2024/03/14_08:50:01,YZ,None,
,,,,,,calibration,0,18,2,1472,7,J,1,right,0.41552066200529225,0,0,,,,,,,,,,,,,,,,,,,,,1,,,,,,,,,,,,,,,,,,,,,,,,,,,,,,,,,,,,,,,,,,,,,,88,150133,21,Female,1,2024/03/14_08:50:01,YZ,None,
,,,,,,calibration,0,18,2,1472,8,S,0,left,0.5308224690088537,0,0,,,,,,,,,,,,,,,,,,,,,1,,,,,,,,,,,,,,,,,,,,,,,,,,,,,,,,,,,,,,,,,,,,,,88,150133,21,Female,1,2024/03/14_08:50:01,YZ,None,
,,,,,,calibration,0,18,2,1472,9,C,0,right,0.3447043250052957,1,0,,,,,,,,,,,,,,,,,,,,,1,,,,,,,,,,,,,,,,,,,,,,,,,,,,,,,,,,,,,,,,,,,,,,88,150133,21,Female,1,2024/03/14_08:50:01,YZ,None,
,,,,,,calibration,0,18,2,1472,,,,,,,,0.5,0.3333333333333333,0.3333333333333333,0.6666666666666666,0.0,0.6666666666666667,0.518925252669659,1,2,0,0,0,4,5,3,6,0,,,,1,,,,,,,,,,,,,,,,,,,,,,,,,,,,,,,,,,,,,,,,,,,,,,88,150133,21,Female,1,2024/03/14_08:50:01,YZ,None,
,,,,,,Calibration,0,,2,1472,,,,,,,,,,,,,,,,,,,,,,,,,8,,,1,,,,,,,,,,,,,,,,,,,,,,,,,,,,,,,,,,,,,,,,,,,,,,88,150133,21,Female,1,2024/03/14_08:50:01,YZ,None,
,,,,,,calibration,0,24,2,1750,1,N,0,right,0.3105970909964526,1,0,,,,,,,,,,,,,,,,,,,,,1,,,,,,,,,,,,,,,,,,,,,,,,,,,,,,,,,,,,,,,,,,,,,,88,150133,21,Female,1,2024/03/14_08:50:01,YZ,None,
,,,,,,calibration,0,24,2,1750,2,X,0,right,0.47667980499682017,1,0,,,,,,,,,,,,,,,,,,,,,1,,,,,,,,,,,,,,,,,,,,,,,,,,,,,,,,,,,,,,,,,,,,,,88,150133,21,Female,1,2024/03/14_08:50:01,YZ,None,
,,,,,,calibration,0,24,2,1750,3,N,1,left,0.8984191920026205,1,0,,,,,,,,,,,,,,,,,,,,,1,,,,,,,,,,,,,,,,,,,,,,,,,,,,,,,,,,,,,,,,,,,,,,88,150133,21,Female,1,2024/03/14_08:50:01,YZ,None,
,,,,,,calibration,0,24,2,1750,4,F,0,right,0.7141862330026925,1,0,,,,,,,,,,,,,,,,,,,,,1,,,,,,,,,,,,,,,,,,,,,,,,,,,,,,,,,,,,,,,,,,,,,,88,150133,21,Female,1,2024/03/14_08:50:01,YZ,None,
,,,,,,calibration,0,24,2,1750,5,C,0,right,0.7070589950017165,1,0,,,,,,,,,,,,,,,,,,,,,1,,,,,,,,,,,,,,,,,,,,,,,,,,,,,,,,,,,,,,,,,,,,,,88,150133,21,Female,1,2024/03/14_08:50:01,YZ,None,
,,,,,,calibration,0,24,2,1750,6,V,0,left,0.27634368000144605,0,0,,,,,,,,,,,,,,,,,,,,,1,,,,,,,,,,,,,,,,,,,,,,,,,,,,,,,,,,,,,,,,,,,,,,88,150133,21,Female,1,2024/03/14_08:50:01,YZ,None,
,,,,,,calibration,0,24,2,1750,7,J,0,right,0.4360912260017358,1,0,,,,,,,,,,,,,,,,,,,,,1,,,,,,,,,,,,,,,,,,,,,,,,,,,,,,,,,,,,,,,,,,,,,,88,150133,21,Female,1,2024/03/14_08:50:01,YZ,None,
,,,,,,calibration,0,24,2,1750,8,V,1,left,0.43287646099634003,1,0,,,,,,,,,,,,,,,,,,,,,1,,,,,,,,,,,,,,,,,,,,,,,,,,,,,,,,,,,,,,,,,,,,,,88,150133,21,Female,1,2024/03/14_08:50:01,YZ,None,
,,,,,,calibration,0,24,2,1750,,,,,,,,0.9583333333333334,1.0,0.16666666666666666,0.8333333333333334,0.0,0.8333333333333334,0.531531585374978,2,1,0,0,0,5,7,2,6,0,,,,1,,,,,,,,,,,,,,,,,,,,,,,,,,,,,,,,,,,,,,,,,,,,,,88,150133,21,Female,1,2024/03/14_08:50:01,YZ,None,
,,,,,,Calibration,0,,2,1750,,,,,,,,,,,,,,,,,,,,,,,,,9,,,1,,,,,,,,,,,,,,,,,,,,,,,,,,,,,,,,,,,,,,,,,,,,,,88,150133,21,Female,1,2024/03/14_08:50:01,YZ,None,
,,,,,,calibration,0,3,2,1472,1,X,0,right,0.31252179699367844,1,0,,,,,,,,,,,,,,,,,,,,,1,,,,,,,,,,,,,,,,,,,,,,,,,,,,,,,,,,,,,,,,,,,,,,88,150133,21,Female,1,2024/03/14_08:50:01,YZ,None,
,,,,,,calibration,0,3,2,1472,2,S,0,right,0.27698982899892144,1,0,,,,,,,,,,,,,,,,,,,,,1,,,,,,,,,,,,,,,,,,,,,,,,,,,,,,,,,,,,,,,,,,,,,,88,150133,21,Female,1,2024/03/14_08:50:01,YZ,None,
,,,,,,calibration,0,3,2,1472,3,X,1,right,0.372902912000427,0,0,,,,,,,,,,,,,,,,,,,,,1,,,,,,,,,,,,,,,,,,,,,,,,,,,,,,,,,,,,,,,,,,,,,,88,150133,21,Female,1,2024/03/14_08:50:01,YZ,None,
,,,,,,calibration,0,3,2,1472,4,J,0,left,0.15297437299159355,0,0,,,,,,,,,,,,,,,,,,,,,1,,,,,,,,,,,,,,,,,,,,,,,,,,,,,,,,,,,,,,,,,,,,,,88,150133,21,Female,1,2024/03/14_08:50:01,YZ,None,
,,,,,,calibration,0,3,2,1472,5,C,0,right,0.43933185999048874,1,0,,,,,,,,,,,,,,,,,,,,,1,,,,,,,,,,,,,,,,,,,,,,,,,,,,,,,,,,,,,,,,,,,,,,88,150133,21,Female,1,2024/03/14_08:50:01,YZ,None,
,,,,,,calibration,0,3,2,1472,6,J,1,right,nan,0,1,,,,,,,,,,,,,,,,,,,,,1,,,,,,,,,,,,,,,,,,,,,,,,,,,,,,,,,,,,,,,,,,,,,,88,150133,21,Female,1,2024/03/14_08:50:01,YZ,None,
,,,,,,calibration,0,3,2,1472,7,F,0,right,0.3756760959950043,1,0,,,,,,,,,,,,,,,,,,,,,1,,,,,,,,,,,,,,,,,,,,,,,,,,,,,,,,,,,,,,,,,,,,,,88,150133,21,Female,1,2024/03/14_08:50:01,YZ,None,
,,,,,,calibration,0,3,2,1472,8,N,0,right,0.34565959600149654,1,0,,,,,,,,,,,,,,,,,,,,,1,,,,,,,,,,,,,,,,,,,,,,,,,,,,,,,,,,,,,,,,,,,,,,88,150133,21,Female,1,2024/03/14_08:50:01,YZ,None,
,,,,,,calibration,0,3,2,1472,9,F,1,right,0.2553898920014035,0,0,,,,,,,,,,,,,,,,,,,,,1,,,,,,,,,,,,,,,,,,,,,,,,,,,,,,,,,,,,,,,,,,,,,,88,150133,21,Female,1,2024/03/14_08:50:01,YZ,None,
,,,,,,calibration,0,3,2,1472,,,,,,,,0.20833333333333334,0.0,0.16666666666666666,0.8333333333333334,0.1111111111111111,0.7222222222222223,0.3164307943716267,0,1,1,0,1,5,5,3,6,0,,,,1,,,,,,,,,,,,,,,,,,,,,,,,,,,,,,,,,,,,,,,,,,,,,,88,150133,21,Female,1,2024/03/14_08:50:01,YZ,None,
,,,,,,Calibration,0,,2,1472,,,,,,,,,,,,,,,,,,,,,,,,,10,,,1,,,,,,,,,,,,,,,,,,,,,,,,,,,,,,,,,,,,,,,,,,,,,,88,150133,21,Female,1,2024/03/14_08:50:01,YZ,None,
,,,,,,calibration,0,11,2,1750,1,F,0,right,0.39841941799386404,1,0,,,,,,,,,,,,,,,,,,,,,1,,,,,,,,,,,,,,,,,,,,,,,,,,,,,,,,,,,,,,,,,,,,,,88,150133,21,Female,1,2024/03/14_08:50:01,YZ,None,
,,,,,,calibration,0,11,2,1750,2,X,0,left,1.9099524420016678,0,0,,,,,,,,,,,,,,,,,,,,,1,,,,,,,,,,,,,,,,,,,,,,,,,,,,,,,,,,,,,,,,,,,,,,88,150133,21,Female,1,2024/03/14_08:50:01,YZ,None,
,,,,,,calibration,0,11,2,1750,3,S,0,right,0.6847604159993352,1,0,,,,,,,,,,,,,,,,,,,,,1,,,,,,,,,,,,,,,,,,,,,,,,,,,,,,,,,,,,,,,,,,,,,,88,150133,21,Female,1,2024/03/14_08:50:01,YZ,None,
,,,,,,calibration,0,11,2,1750,4,J,0,right,nan,0,1,,,,,,,,,,,,,,,,,,,,,1,,,,,,,,,,,,,,,,,,,,,,,,,,,,,,,,,,,,,,,,,,,,,,88,150133,21,Female,1,2024/03/14_08:50:01,YZ,None,
,,,,,,calibration,0,11,2,1750,5,N,0,right,0.42827977100387216,1,0,,,,,,,,,,,,,,,,,,,,,1,,,,,,,,,,,,,,,,,,,,,,,,,,,,,,,,,,,,,,,,,,,,,,88,150133,21,Female,1,2024/03/14_08:50:01,YZ,None,
,,,,,,calibration,0,11,2,1750,6,J,1,left,0.8639340579975396,1,0,,,,,,,,,,,,,,,,,,,,,1,,,,,,,,,,,,,,,,,,,,,,,,,,,,,,,,,,,,,,,,,,,,,,88,150133,21,Female,1,2024/03/14_08:50:01,YZ,None,
,,,,,,calibration,0,11,2,1750,7,N,1,right,0.43693301900930237,0,0,,,,,,,,,,,,,,,,,,,,,1,,,,,,,,,,,,,,,,,,,,,,,,,,,,,,,,,,,,,,,,,,,,,,88,150133,21,Female,1,2024/03/14_08:50:01,YZ,None,
,,,,,,calibration,0,11,2,1750,8,C,0,left,0.6422814399993513,0,0,,,,,,,,,,,,,,,,,,,,,1,,,,,,,,,,,,,,,,,,,,,,,,,,,,,,,,,,,,,,,,,,,,,,88,150133,21,Female,1,2024/03/14_08:50:01,YZ,None,
,,,,,,calibration,0,11,2,1750,,,,,,,,0.625,0.5,0.3333333333333333,0.6,0.125,0.5416666666666667,0.7663657948578475,1,2,0,1,1,3,4,2,6,0,,,,1,,,,,,,,,,,,,,,,,,,,,,,,,,,,,,,,,,,,,,,,,,,,,,88,150133,21,Female,1,2024/03/14_08:50:01,YZ,None,
,,,,,,Calibration,0,,2,1750,,,,,,,,,,,,,,,,,,,,,,,,,11,,,1,,,,,,,,,,,,,,,,,,,,,,,,,,,,,,,,,,,,,,,,,,,,,,88,150133,21,Female,1,2024/03/14_08:50:01,YZ,None,
,,,,,,calibration,0,6,2,2107,1,Q,0,right,0.2976147189910989,1,0,,,,,,,,,,,,,,,,,,,,,1,,,,,,,,,,,,,,,,,,,,,,,,,,,,,,,,,,,,,,,,,,,,,,88,150133,21,Female,1,2024/03/14_08:50:01,YZ,None,
,,,,,,calibration,0,6,2,2107,2,Q,0,right,0.50061499599542,1,0,,,,,,,,,,,,,,,,,,,,,1,,,,,,,,,,,,,,,,,,,,,,,,,,,,,,,,,,,,,,,,,,,,,,88,150133,21,Female,1,2024/03/14_08:50:01,YZ,None,
,,,,,,calibration,0,6,2,2107,3,C,0,right,0.5664721959910821,1,0,,,,,,,,,,,,,,,,,,,,,1,,,,,,,,,,,,,,,,,,,,,,,,,,,,,,,,,,,,,,,,,,,,,,88,150133,21,Female,1,2024/03/14_08:50:01,YZ,None,
,,,,,,calibration,0,6,2,2107,4,Q,1,left,0.5920688540063566,1,0,,,,,,,,,,,,,,,,,,,,,1,,,,,,,,,,,,,,,,,,,,,,,,,,,,,,,,,,,,,,,,,,,,,,88,150133,21,Female,1,2024/03/14_08:50:01,YZ,None,
,,,,,,calibration,0,6,2,2107,5,C,1,left,0.8415082599967718,1,0,,,,,,,,,,,,,,,,,,,,,1,,,,,,,,,,,,,,,,,,,,,,,,,,,,,,,,,,,,,,,,,,,,,,88,150133,21,Female,1,2024/03/14_08:50:01,YZ,None,
,,,,,,calibration,0,6,2,2107,6,S,0,right,0.8574468500009971,1,0,,,,,,,,,,,,,,,,,,,,,1,,,,,,,,,,,,,,,,,,,,,,,,,,,,,,,,,,,,,,,,,,,,,,88,150133,21,Female,1,2024/03/14_08:50:01,YZ,None,
,,,,,,calibration,0,6,2,2107,7,Q,0,right,0.6068534990045009,1,0,,,,,,,,,,,,,,,,,,,,,1,,,,,,,,,,,,,,,,,,,,,,,,,,,,,,,,,,,,,,,,,,,,,,88,150133,21,Female,1,2024/03/14_08:50:01,YZ,None,
,,,,,,calibration,0,6,2,2107,,,,,,,,1.0,1.0,0.0,1.0,0.0,1.0,0.6089399105694611,2,0,0,0,0,5,7,2,5,0,,,,1,,,,,,,,,,,,,,,,,,,,,,,,,,,,,,,,,,,,,,,,,,,,,,88,150133,21,Female,1,2024/03/14_08:50:01,YZ,None,
,,,,,,Calibration,0,,2,2107,,,,,,,,,,,,,,,,,,,,,,,,,12,,,1,,,,,,,,,,,,,,,,,,,,,,,,,,,,,,,,,,,,,,,,,,,,,,88,150133,21,Female,1,2024/03/14_08:50:01,YZ,None,
,,,,,,calibration,0,26,2,1750,1,F,0,right,0.706980005998048,1,0,,,,,,,,,,,,,,,,,,,,,1,,,,,,,,,,,,,,,,,,,,,,,,,,,,,,,,,,,,,,,,,,,,,,88,150133,21,Female,1,2024/03/14_08:50:01,YZ,None,
,,,,,,calibration,0,26,2,1750,2,F,0,right,0.4142419910058379,1,0,,,,,,,,,,,,,,,,,,,,,1,,,,,,,,,,,,,,,,,,,,,,,,,,,,,,,,,,,,,,,,,,,,,,88,150133,21,Female,1,2024/03/14_08:50:01,YZ,None,
,,,,,,calibration,0,26,2,1750,3,S,0,right,0.6160845999984303,1,0,,,,,,,,,,,,,,,,,,,,,1,,,,,,,,,,,,,,,,,,,,,,,,,,,,,,,,,,,,,,,,,,,,,,88,150133,21,Female,1,2024/03/14_08:50:01,YZ,None,
,,,,,,calibration,0,26,2,1750,4,F,1,left,1.3874696849961765,1,0,,,,,,,,,,,,,,,,,,,,,1,,,,,,,,,,,,,,,,,,,,,,,,,,,,,,,,,,,,,,,,,,,,,,88,150133,21,Female,1,2024/03/14_08:50:01,YZ,None,
,,,,,,calibration,0,26,2,1750,5,Q,0,left,1.1048529219988268,0,0,,,,,,,,,,,,,,,,,,,,,1,,,,,,,,,,,,,,,,,,,,,,,,,,,,,,,,,,,,,,,,,,,,,,88,150133,21,Female,1,2024/03/14_08:50:01,YZ,None,
,,,,,,calibration,0,26,2,1750,6,F,1,right,0.47385543400014285,0,0,,,,,,,,,,,,,,,,,,,,,1,,,,,,,,,,,,,,,,,,,,,,,,,,,,,,,,,,,,,,,,,,,,,,88,150133,21,Female,1,2024/03/14_08:50:01,YZ,None,
,,,,,,calibration,0,26,2,1750,7,X,0,left,0.6149108599929605,0,0,,,,,,,,,,,,,,,,,,,,,1,,,,,,,,,,,,,,,,,,,,,,,,,,,,,,,,,,,,,,,,,,,,,,88,150133,21,Female,1,2024/03/14_08:50:01,YZ,None,
,,,,,,calibration,0,26,2,1750,8,S,0,left,0.8648305090027861,0,0,,,,,,,,,,,,,,,,,,,,,1,,,,,,,,,,,,,,,,,,,,,,,,,,,,,,,,,,,,,,,,,,,,,,88,150133,21,Female,1,2024/03/14_08:50:01,YZ,None,
,,,,,,calibration,0,26,2,1750,,,,,,,,0.5,0.5,0.5,0.5,0.0,0.5,0.7729032508741511,1,3,0,0,0,3,4,2,6,0,,,,1,,,,,,,,,,,,,,,,,,,,,,,,,,,,,,,,,,,,,,,,,,,,,,88,150133,21,Female,1,2024/03/14_08:50:01,YZ,None,
,,,,,,Calibration,0,,2,1750,,,,,,,,,,,,,,,,,,,,,,,,,13,,,1,,,,,,,,,,,,,,,,,,,,,,,,,,,,,,,,,,,,,,,,,,,,,,88,150133,21,Female,1,2024/03/14_08:50:01,YZ,None,
,,,,,,calibration,0,25,2,2107,1,F,0,right,0.6628263500024332,1,0,,,,,,,,,,,,,,,,,,,,,1,,,,,,,,,,,,,,,,,,,,,,,,,,,,,,,,,,,,,,,,,,,,,,88,150133,21,Female,1,2024/03/14_08:50:01,YZ,None,
,,,,,,calibration,0,25,2,2107,2,N,0,right,0.5781801749981241,1,0,,,,,,,,,,,,,,,,,,,,,1,,,,,,,,,,,,,,,,,,,,,,,,,,,,,,,,,,,,,,,,,,,,,,88,150133,21,Female,1,2024/03/14_08:50:01,YZ,None,
,,,,,,calibration,0,25,2,2107,3,F,1,right,0.34095981299469713,0,0,,,,,,,,,,,,,,,,,,,,,1,,,,,,,,,,,,,,,,,,,,,,,,,,,,,,,,,,,,,,,,,,,,,,88,150133,21,Female,1,2024/03/14_08:50:01,YZ,None,
,,,,,,calibration,0,25,2,2107,4,Q,0,right,0.3696576240035938,1,0,,,,,,,,,,,,,,,,,,,,,1,,,,,,,,,,,,,,,,,,,,,,,,,,,,,,,,,,,,,,,,,,,,,,88,150133,21,Female,1,2024/03/14_08:50:01,YZ,None,
,,,,,,calibration,0,25,2,2107,5,C,0,right,0.635677037993446,1,0,,,,,,,,,,,,,,,,,,,,,1,,,,,,,,,,,,,,,,,,,,,,,,,,,,,,,,,,,,,,,,,,,,,,88,150133,21,Female,1,2024/03/14_08:50:01,YZ,None,
,,,,,,calibration,0,25,2,2107,6,Q,1,right,0.5123048660025233,0,0,,,,,,,,,,,,,,,,,,,,,1,,,,,,,,,,,,,,,,,,,,,,,,,,,,,,,,,,,,,,,,,,,,,,88,150133,21,Female,1,2024/03/14_08:50:01,YZ,None,
,,,,,,calibration,0,25,2,2107,7,N,0,left,0.09912180600804277,0,0,,,,,,,,,,,,,,,,,,,,,1,,,,,,,,,,,,,,,,,,,,,,,,,,,,,,,,,,,,,,,,,,,,,,88,150133,21,Female,1,2024/03/14_08:50:01,YZ,None,
,,,,,,calibration,0,25,2,2107,,,,,,,,0.2,0.0,0.2,0.8,0.0,0.8,0.45696109600040863,0,1,0,0,0,4,4,2,5,0,,,,1,,,,,,,,,,,,,,,,,,,,,,,,,,,,,,,,,,,,,,,,,,,,,,88,150133,21,Female,1,2024/03/14_08:50:01,YZ,None,
,,,,,,Calibration,0,,2,2107,,,,,,,,,,,,,,,,,,,,,,,,,14,,,1,,,,,,,,,,,,,,,,,,,,,,,,,,,,,,,,,,,,,,,,,,,,,,88,150133,21,Female,1,2024/03/14_08:50:01,YZ,None,
,,,,,,calibration,0,14,2,2583,1,X,0,None,nan,0,1,,,,,,,,,,,,,,,,,,,,,1,,,,,,,,,,,,,,,,,,,,,,,,,,,,,,,,,,,,,,,,,,,,,,88,150133,21,Female,1,2024/03/14_08:50:01,YZ,None,
,,,,,,calibration,0,14,2,2583,2,X,0,None,nan,0,1,,,,,,,,,,,,,,,,,,,,,1,,,,,,,,,,,,,,,,,,,,,,,,,,,,,,,,,,,,,,,,,,,,,,88,150133,21,Female,1,2024/03/14_08:50:01,YZ,None,
,,,,,,calibration,0,14,2,2583,3,X,1,None,nan,0,1,,,,,,,,,,,,,,,,,,,,,1,,,,,,,,,,,,,,,,,,,,,,,,,,,,,,,,,,,,,,,,,,,,,,88,150133,21,Female,1,2024/03/14_08:50:01,YZ,None,
,,,,,,calibration,0,14,2,2583,4,X,1,None,nan,0,1,,,,,,,,,,,,,,,,,,,,,1,,,,,,,,,,,,,,,,,,,,,,,,,,,,,,,,,,,,,,,,,,,,,,88,150133,21,Female,1,2024/03/14_08:50:01,YZ,None,
,,,,,,calibration,0,14,2,2583,5,Q,0,None,nan,0,1,,,,,,,,,,,,,,,,,,,,,1,,,,,,,,,,,,,,,,,,,,,,,,,,,,,,,,,,,,,,,,,,,,,,88,150133,21,Female,1,2024/03/14_08:50:01,YZ,None,
,,,,,,calibration,0,14,2,2583,6,J,0,None,nan,0,1,,,,,,,,,,,,,,,,,,,,,1,,,,,,,,,,,,,,,,,,,,,,,,,,,,,,,,,,,,,,,,,,,,,,88,150133,21,Female,1,2024/03/14_08:50:01,YZ,None,
,,,,,,calibration,0,14,2,2583,,,,,,,,nan,0.0,nan,nan,1.0,nan,nan,0,0,2,4,6,0,0,2,4,0,,,,1,,,,,,,,,,,,,,,,,,,,,,,,,,,,,,,,,,,,,,,,,,,,,,88,150133,21,Female,1,2024/03/14_08:50:01,YZ,None,
,,,,,,Calibration,0,,2,2583,,,,,,,,,,,,,,,,,,,,,,,,,15,,,1,,,,,,,,,,,,,,,,,,,,,,,,,,,,,,,,,,,,,,,,,,,,,,88,150133,21,Female,1,2024/03/14_08:50:01,YZ,None,
,,,,,,CALIBRATION,0,,,,,,,,,,,,,,,,,,,,,,,,,,,,15,nan,2583,1,,,,,,,,,,,,,,,,,,,,,,,,,,,,,,,,,,,,,,,,,,,,,,88,150133,21,Female,1,2024/03/14_08:50:01,YZ,None,
1,./instructions/inst_prac_1/Slide24.png,right,20.911167692000163,593.7255556890013,614.6367233810015,,,,,,,,,,,,,,,,,,,,,,,,,,,,,,,,,1,,,,,,,,,,,,,,,,,,,,,,,,,,,,,,,,,,,,,,,,,,,,,,88,150133,21,Female,1,2024/03/14_08:50:01,YZ,None,
2,./instructions/inst_prac_1/Slide25.png,right,3.698560318996897,614.6661741610005,618.3647344799974,,,,,,,,,,,,,,,,,,,,,,,,,,,,,,,,,1,,,,,,,,,,,,,,,,,,,,,,,,,,,,,,,,,,,,,,,,,,,,,,88,150133,21,Female,1,2024/03/14_08:50:01,YZ,None,
3,./instructions/inst_prac_1/Slide26.png,right,0.49161126899707597,618.393183061009,618.8847943300061,,,,,,,,,,,,,,,,,,,,,,,,,,,,,,,,,1,,,,,,,,,,,,,,,,,,,,,,,,,,,,,,,,,,,,,,,,,,,,,,88,150133,21,Female,1,2024/03/14_08:50:01,YZ,None,
4,./instructions/inst_prac_1/Slide27.png,right,1.1017722149990732,618.9110151659988,620.0127873809979,,,,,,,,,,,,,,,,,,,,,,,,,,,,,,,,,1,,,,,,,,,,,,,,,,,,,,,,,,,,,,,,,,,,,,,,,,,,,,,,88,150133,21,Female,1,2024/03/14_08:50:01,YZ,None,
3,./instructions/inst_prac_1/Slide28.png,left,2.5554401250119554,620.0415055699996,622.5969456950115,,,,,,,,,,,,,,,,,,,,,,,,,,,,,,,,,1,,,,,,,,,,,,,,,,,,,,,,,,,,,,,,,,,,,,,,,,,,,,,,88,150133,21,Female,1,2024/03/14_08:50:01,YZ,None,
4,./instructions/inst_prac_1/Slide27.png,right,1.755165174996364,622.6257023630023,624.3808675379987,,,,,,,,,,,,,,,,,,,,,,,,,,,,,,,,,1,,,,,,,,,,,,,,,,,,,,,,,,,,,,,,,,,,,,,,,,,,,,,,88,150133,21,Female,1,2024/03/14_08:50:01,YZ,None,
3,./instructions/inst_prac_1/Slide28.png,left,1.419283467999776,624.4098263500055,625.8291098180052,,,,,,,,,,,,,,,,,,,,,,,,,,,,,,,,,1,,,,,,,,,,,,,,,,,,,,,,,,,,,,,,,,,,,,,,,,,,,,,,88,150133,21,Female,1,2024/03/14_08:50:01,YZ,None,
4,./instructions/inst_prac_1/Slide27.png,right,1.506892583987792,625.8579060190095,627.3647986029973,,,,,,,,,,,,,,,,,,,,,,,,,,,,,,,,,1,,,,,,,,,,,,,,,,,,,,,,,,,,,,,,,,,,,,,,,,,,,,,,88,150133,21,Female,1,2024/03/14_08:50:01,YZ,None,
3,./instructions/inst_prac_1/Slide28.png,left,0.8830794690002222,627.3938738430006,628.2769533120008,,,,,,,,,,,,,,,,,,,,,,,,,,,,,,,,,1,,,,,,,,,,,,,,,,,,,,,,,,,,,,,,,,,,,,,,,,,,,,,,88,150133,21,Female,1,2024/03/14_08:50:01,YZ,None,
4,./instructions/inst_prac_1/Slide27.png,right,1.083011377006187,628.3058775730024,629.3888889500085,,,,,,,,,,,,,,,,,,,,,,,,,,,,,,,,,1,,,,,,,,,,,,,,,,,,,,,,,,,,,,,,,,,,,,,,,,,,,,,,88,150133,21,Female,1,2024/03/14_08:50:01,YZ,None,
3,./instructions/inst_prac_1/Slide28.png,left,0.7951489109982504,629.4178544390015,630.2130033499998,,,,,,,,,,,,,,,,,,,,,,,,,,,,,,,,,1,,,,,,,,,,,,,,,,,,,,,,,,,,,,,,,,,,,,,,,,,,,,,,88,150133,21,Female,1,2024/03/14_08:50:01,YZ,None,
4,./instructions/inst_prac_1/Slide27.png,right,0.6829228270071326,630.2418717179971,630.9247945450043,,,,,,,,,,,,,,,,,,,,,,,,,,,,,,,,,1,,,,,,,,,,,,,,,,,,,,,,,,,,,,,,,,,,,,,,,,,,,,,,88,150133,21,Female,1,2024/03/14_08:50:01,YZ,None,
3,./instructions/inst_prac_1/Slide28.png,left,0.6763156759989215,630.9525810250052,631.6288967010041,,,,,,,,,,,,,,,,,,,,,,,,,,,,,,,,,1,,,,,,,,,,,,,,,,,,,,,,,,,,,,,,,,,,,,,,,,,,,,,,88,150133,21,Female,1,2024/03/14_08:50:01,YZ,None,
2,./instructions/inst_prac_1/Slide27.png,left,0.5582103479973739,631.6545733820094,632.2127837300068,,,,,,,,,,,,,,,,,,,,,,,,,,,,,,,,,1,,,,,,,,,,,,,,,,,,,,,,,,,,,,,,,,,,,,,,,,,,,,,,88,150133,21,Female,1,2024/03/14_08:50:01,YZ,None,
3,./instructions/inst_prac_1/Slide26.png,right,2.3185939219983993,632.2383366610011,634.5569305829995,,,,,,,,,,,,,,,,,,,,,,,,,,,,,,,,,1,,,,,,,,,,,,,,,,,,,,,,,,,,,,,,,,,,,,,,,,,,,,,,88,150133,21,Female,1,2024/03/14_08:50:01,YZ,None,
4,./instructions/inst_prac_1/Slide27.png,right,1.1948177140002372,634.5859632549982,635.7807809689984,,,,,,,,,,,,,,,,,,,,,,,,,,,,,,,,,1,,,,,,,,,,,,,,,,,,,,,,,,,,,,,,,,,,,,,,,,,,,,,,88,150133,21,Female,1,2024/03/14_08:50:01,YZ,None,
3,./instructions/inst_prac_1/Slide28.png,left,1.0940015319938539,635.8069725810055,636.9009741129994,,,,,,,,,,,,,,,,,,,,,,,,,,,,,,,,,1,,,,,,,,,,,,,,,,,,,,,,,,,,,,,,,,,,,,,,,,,,,,,,88,150133,21,Female,1,2024/03/14_08:50:01,YZ,None,
4,./instructions/inst_prac_1/Slide27.png,right,1.3535350719903363,636.9232280490105,638.2767631210008,,,,,,,,,,,,,,,,,,,,,,,,,,,,,,,,,1,,,,,,,,,,,,,,,,,,,,,,,,,,,,,,,,,,,,,,,,,,,,,,88,150133,21,Female,1,2024/03/14_08:50:01,YZ,None,
3,./instructions/inst_prac_1/Slide28.png,left,0.9874498029967071,638.3056266990025,639.2930765019992,,,,,,,,,,,,,,,,,,,,,,,,,,,,,,,,,1,,,,,,,,,,,,,,,,,,,,,,,,,,,,,,,,,,,,,,,,,,,,,,88,150133,21,Female,1,2024/03/14_08:50:01,YZ,None,
4,./instructions/inst_prac_1/Slide27.png,right,1.0412461499945493,639.3155526430055,640.356798793,,,,,,,,,,,,,,,,,,,,,,,,,,,,,,,,,1,,,,,,,,,,,,,,,,,,,,,,,,,,,,,,,,,,,,,,,,,,,,,,88,150133,21,Female,1,2024/03/14_08:50:01,YZ,None,
3,./instructions/inst_prac_1/Slide28.png,left,0.954405696989852,640.3866081880115,641.3410138850013,,,,,,,,,,,,,,,,,,,,,,,,,,,,,,,,,1,,,,,,,,,,,,,,,,,,,,,,,,,,,,,,,,,,,,,,,,,,,,,,88,150133,21,Female,1,2024/03/14_08:50:01,YZ,None,
4,./instructions/inst_prac_1/Slide27.png,right,0.7214017029909883,641.3635796160088,642.0849813189998,,,,,,,,,,,,,,,,,,,,,,,,,,,,,,,,,1,,,,,,,,,,,,,,,,,,,,,,,,,,,,,,,,,,,,,,,,,,,,,,88,150133,21,Female,1,2024/03/14_08:50:01,YZ,None,
3,./instructions/inst_prac_1/Slide28.png,left,0.5096259879937861,642.1113368810038,642.6209628689976,,,,,,,,,,,,,,,,,,,,,,,,,,,,,,,,,1,,,,,,,,,,,,,,,,,,,,,,,,,,,,,,,,,,,,,,,,,,,,,,88,150133,21,Female,1,2024/03/14_08:50:01,YZ,None,
4,./instructions/inst_prac_1/Slide27.png,right,0.5151229780021822,642.649819822007,643.1649428000092,,,,,,,,,,,,,,,,,,,,,,,,,,,,,,,,,1,,,,,,,,,,,,,,,,,,,,,,,,,,,,,,,,,,,,,,,,,,,,,,88,150133,21,Female,1,2024/03/14_08:50:01,YZ,None,
3,./instructions/inst_prac_1/Slide28.png,left,0.6430800880043535,643.1939221520006,643.837002240005,,,,,,,,,,,,,,,,,,,,,,,,,,,,,,,,,1,,,,,,,,,,,,,,,,,,,,,,,,,,,,,,,,,,,,,,,,,,,,,,88,150133,21,Female,1,2024/03/14_08:50:01,YZ,None,
4,./instructions/inst_prac_1/Slide27.png,right,0.5338463680091081,643.8629089530004,644.3967553210096,,,,,,,,,,,,,,,,,,,,,,,,,,,,,,,,,1,,,,,,,,,,,,,,,,,,,,,,,,,,,,,,,,,,,,,,,,,,,,,,88,150133,21,Female,1,2024/03/14_08:50:01,YZ,None,
3,./instructions/inst_prac_1/Slide28.png,left,0.6190984660061076,644.4258257680049,645.044924234011,,,,,,,,,,,,,,,,,,,,,,,,,,,,,,,,,1,,,,,,,,,,,,,,,,,,,,,,,,,,,,,,,,,,,,,,,,,,,,,,88,150133,21,Female,1,2024/03/14_08:50:01,YZ,None,
4,./instructions/inst_prac_1/Slide27.png,right,0.579124383002636,645.0737013580074,645.65282574101,,,,,,,,,,,,,,,,,,,,,,,,,,,,,,,,,1,,,,,,,,,,,,,,,,,,,,,,,,,,,,,,,,,,,,,,,,,,,,,,88,150133,21,Female,1,2024/03/14_08:50:01,YZ,None,
3,./instructions/inst_prac_1/Slide28.png,left,0.5250419469957706,645.6800102800044,646.2050522270001,,,,,,,,,,,,,,,,,,,,,,,,,,,,,,,,,1,,,,,,,,,,,,,,,,,,,,,,,,,,,,,,,,,,,,,,,,,,,,,,88,150133,21,Female,1,2024/03/14_08:50:01,YZ,None,
4,./instructions/inst_prac_1/Slide27.png,right,0.6456432760023745,646.231125367005,646.8767686430074,,,,,,,,,,,,,,,,,,,,,,,,,,,,,,,,,1,,,,,,,,,,,,,,,,,,,,,,,,,,,,,,,,,,,,,,,,,,,,,,88,150133,21,Female,1,2024/03/14_08:50:01,YZ,None,
3,./instructions/inst_prac_1/Slide28.png,left,0.5151618719974067,646.9058445370028,647.4210064090003,,,,,,,,,,,,,,,,,,,,,,,,,,,,,,,,,1,,,,,,,,,,,,,,,,,,,,,,,,,,,,,,,,,,,,,,,,,,,,,,88,150133,21,Female,1,2024/03/14_08:50:01,YZ,None,
4,./instructions/inst_prac_1/Slide27.png,right,0.6368361269996967,647.4479876960104,648.0848238230101,,,,,,,,,,,,,,,,,,,,,,,,,,,,,,,,,1,,,,,,,,,,,,,,,,,,,,,,,,,,,,,,,,,,,,,,,,,,,,,,88,150133,21,Female,1,2024/03/14_08:50:01,YZ,None,
3,./instructions/inst_prac_1/Slide28.png,left,0.5952061079879059,648.1137909110112,648.7089970189991,,,,,,,,,,,,,,,,,,,,,,,,,,,,,,,,,1,,,,,,,,,,,,,,,,,,,,,,,,,,,,,,,,,,,,,,,,,,,,,,88,150133,21,Female,1,2024/03/14_08:50:01,YZ,None,
4,./instructions/inst_prac_1/Slide27.png,right,22.062791670003207,648.7340652770072,670.7968569470104,,,,,,,,,,,,,,,,,,,,,,,,,,,,,,,,,1,,,,,,,,,,,,,,,,,,,,,,,,,,,,,,,,,,,,,,,,,,,,,,88,150133,21,Female,1,2024/03/14_08:50:01,YZ,None,
3,./instructions/inst_prac_1/Slide28.png,left,0.770861947996309,670.8259769230062,671.5968388710025,,,,,,,,,,,,,,,,,,,,,,,,,,,,,,,,,1,,,,,,,,,,,,,,,,,,,,,,,,,,,,,,,,,,,,,,,,,,,,,,88,150133,21,Female,1,2024/03/14_08:50:01,YZ,None,
4,./instructions/inst_prac_1/Slide27.png,right,0.6112264109979151,671.6255569790083,672.2367833900062,,,,,,,,,,,,,,,,,,,,,,,,,,,,,,,,,1,,,,,,,,,,,,,,,,,,,,,,,,,,,,,,,,,,,,,,,,,,,,,,88,150133,21,Female,1,2024/03/14_08:50:01,YZ,None,
3,./instructions/inst_prac_1/Slide28.png,left,0.899468171002809,672.2656182689971,673.1650864399999,,,,,,,,,,,,,,,,,,,,,,,,,,,,,,,,,1,,,,,,,,,,,,,,,,,,,,,,,,,,,,,,,,,,,,,,,,,,,,,,88,150133,21,Female,1,2024/03/14_08:50:01,YZ,None,
4,./instructions/inst_prac_1/Slide27.png,right,0.41886243599583395,673.1939454200037,673.6128078559996,,,,,,,,,,,,,,,,,,,,,,,,,,,,,,,,,1,,,,,,,,,,,,,,,,,,,,,,,,,,,,,,,,,,,,,,,,,,,,,,88,150133,21,Female,1,2024/03/14_08:50:01,YZ,None,
3,./instructions/inst_prac_1/Slide28.png,left,0.49130820199206937,673.6416862550104,674.1329944570025,,,,,,,,,,,,,,,,,,,,,,,,,,,,,,,,,1,,,,,,,,,,,,,,,,,,,,,,,,,,,,,,,,,,,,,,,,,,,,,,88,150133,21,Female,1,2024/03/14_08:50:01,YZ,None,
4,./instructions/inst_prac_1/Slide27.png,right,0.4190054620121373,674.1618137269979,674.5808191890101,,,,,,,,,,,,,,,,,,,,,,,,,,,,,,,,,1,,,,,,,,,,,,,,,,,,,,,,,,,,,,,,,,,,,,,,,,,,,,,,88,150133,21,Female,1,2024/03/14_08:50:01,YZ,None,
3,./instructions/inst_prac_1/Slide28.png,left,0.4511934540059883,674.6097493179986,675.0609427720046,,,,,,,,,,,,,,,,,,,,,,,,,,,,,,,,,1,,,,,,,,,,,,,,,,,,,,,,,,,,,,,,,,,,,,,,,,,,,,,,88,150133,21,Female,1,2024/03/14_08:50:01,YZ,None,
4,./instructions/inst_prac_1/Slide27.png,right,0.4304532330133952,675.0863409239973,675.5167941570107,,,,,,,,,,,,,,,,,,,,,,,,,,,,,,,,,1,,,,,,,,,,,,,,,,,,,,,,,,,,,,,,,,,,,,,,,,,,,,,,88,150133,21,Female,1,2024/03/14_08:50:01,YZ,None,
3,./instructions/inst_prac_1/Slide28.png,left,0.419324891990982,675.545526922011,675.964851814002,,,,,,,,,,,,,,,,,,,,,,,,,,,,,,,,,1,,,,,,,,,,,,,,,,,,,,,,,,,,,,,,,,,,,,,,,,,,,,,,88,150133,21,Female,1,2024/03/14_08:50:01,YZ,None,
4,./instructions/inst_prac_1/Slide27.png,right,0.4672159439942334,675.9936271570041,676.4608431009983,,,,,,,,,,,,,,,,,,,,,,,,,,,,,,,,,1,,,,,,,,,,,,,,,,,,,,,,,,,,,,,,,,,,,,,,,,,,,,,,88,150133,21,Female,1,2024/03/14_08:50:01,YZ,None,
3,./instructions/inst_prac_1/Slide28.png,left,0.42993141600163653,676.4869743120071,676.9169057280087,,,,,,,,,,,,,,,,,,,,,,,,,,,,,,,,,1,,,,,,,,,,,,,,,,,,,,,,,,,,,,,,,,,,,,,,,,,,,,,,88,150133,21,Female,1,2024/03/14_08:50:01,YZ,None,
4,./instructions/inst_prac_1/Slide27.png,right,0.3869951500091702,676.9458689250023,677.3328640750115,,,,,,,,,,,,,,,,,,,,,,,,,,,,,,,,,1,,,,,,,,,,,,,,,,,,,,,,,,,,,,,,,,,,,,,,,,,,,,,,88,150133,21,Female,1,2024/03/14_08:50:01,YZ,None,
3,./instructions/inst_prac_1/Slide28.png,left,0.3868302990013035,677.3619066200044,677.7487369190058,,,,,,,,,,,,,,,,,,,,,,,,,,,,,,,,,1,,,,,,,,,,,,,,,,,,,,,,,,,,,,,,,,,,,,,,,,,,,,,,88,150133,21,Female,1,2024/03/14_08:50:01,YZ,None,
4,./instructions/inst_prac_1/Slide27.png,right,0.37918389300466515,677.7775592520047,678.1567431450094,,,,,,,,,,,,,,,,,,,,,,,,,,,,,,,,,1,,,,,,,,,,,,,,,,,,,,,,,,,,,,,,,,,,,,,,,,,,,,,,88,150133,21,Female,1,2024/03/14_08:50:01,YZ,None,
5,./instructions/inst_prac_1/Slide28.png,right,0.2003894099907484,678.1856481520081,678.3860375619988,,,,,,,,,,,,,,,,,,,,,,,,,,,,,,,,,1,,,,,,,,,,,,,,,,,,,,,,,,,,,,,,,,,,,,,,,,,,,,,,88,150133,21,Female,1,2024/03/14_08:50:01,YZ,None,
4,./instructions/inst_prac_1/Slide29.png,left,0.20072293998964597,678.4090506220091,678.6097735619987,,,,,,,,,,,,,,,,,,,,,,,,,,,,,,,,,1,,,,,,,,,,,,,,,,,,,,,,,,,,,,,,,,,,,,,,,,,,,,,,88,150133,21,Female,1,2024/03/14_08:50:01,YZ,None,
3,./instructions/inst_prac_1/Slide28.png,left,1.5569798959913896,678.6321592580061,680.1891391539975,,,,,,,,,,,,,,,,,,,,,,,,,,,,,,,,,1,,,,,,,,,,,,,,,,,,,,,,,,,,,,,,,,,,,,,,,,,,,,,,88,150133,21,Female,1,2024/03/14_08:50:01,YZ,None,
4,./instructions/inst_prac_1/Slide27.png,right,1.0012471389927668,680.2115592730115,681.2128064120043,,,,,,,,,,,,,,,,,,,,,,,,,,,,,,,,,1,,,,,,,,,,,,,,,,,,,,,,,,,,,,,,,,,,,,,,,,,,,,,,88,150133,21,Female,1,2024/03/14_08:50:01,YZ,None,
3,./instructions/inst_prac_1/Slide28.png,left,0.5253922400006559,681.2393994550075,681.7647916950082,,,,,,,,,,,,,,,,,,,,,,,,,,,,,,,,,1,,,,,,,,,,,,,,,,,,,,,,,,,,,,,,,,,,,,,,,,,,,,,,88,150133,21,Female,1,2024/03/14_08:50:01,YZ,None,
4,./instructions/inst_prac_1/Slide27.png,right,0.5502423989964882,681.7906845160032,682.3409269149997,,,,,,,,,,,,,,,,,,,,,,,,,,,,,,,,,1,,,,,,,,,,,,,,,,,,,,,,,,,,,,,,,,,,,,,,,,,,,,,,88,150133,21,Female,1,2024/03/14_08:50:01,YZ,None,
3,./instructions/inst_prac_1/Slide28.png,left,0.5073081189912045,682.3697507230099,682.8770588420011,,,,,,,,,,,,,,,,,,,,,,,,,,,,,,,,,1,,,,,,,,,,,,,,,,,,,,,,,,,,,,,,,,,,,,,,,,,,,,,,88,150133,21,Female,1,2024/03/14_08:50:01,YZ,None,
4,./instructions/inst_prac_1/Slide27.png,right,0.4348903380014235,682.905916653006,683.3408069910074,,,,,,,,,,,,,,,,,,,,,,,,,,,,,,,,,1,,,,,,,,,,,,,,,,,,,,,,,,,,,,,,,,,,,,,,,,,,,,,,88,150133,21,Female,1,2024/03/14_08:50:01,YZ,None,
3,./instructions/inst_prac_1/Slide28.png,left,0.5064988540107151,683.3704598240001,683.8769586780109,,,,,,,,,,,,,,,,,,,,,,,,,,,,,,,,,1,,,,,,,,,,,,,,,,,,,,,,,,,,,,,,,,,,,,,,,,,,,,,,88,150133,21,Female,1,2024/03/14_08:50:01,YZ,None,
4,./instructions/inst_prac_1/Slide27.png,right,0.4751285719976295,683.9057162430108,684.3808448150085,,,,,,,,,,,,,,,,,,,,,,,,,,,,,,,,,1,,,,,,,,,,,,,,,,,,,,,,,,,,,,,,,,,,,,,,,,,,,,,,88,150133,21,Female,1,2024/03/14_08:50:01,YZ,None,
3,./instructions/inst_prac_1/Slide28.png,left,0.4765464219963178,684.4083930690103,684.8849394910067,,,,,,,,,,,,,,,,,,,,,,,,,,,,,,,,,1,,,,,,,,,,,,,,,,,,,,,,,,,,,,,,,,,,,,,,,,,,,,,,88,150133,21,Female,1,2024/03/14_08:50:01,YZ,None,
4,./instructions/inst_prac_1/Slide27.png,right,0.502615439996589,684.9101982010034,685.412813641,,,,,,,,,,,,,,,,,,,,,,,,,,,,,,,,,1,,,,,,,,,,,,,,,,,,,,,,,,,,,,,,,,,,,,,,,,,,,,,,88,150133,21,Female,1,2024/03/14_08:50:01,YZ,None,
3,./instructions/inst_prac_1/Slide28.png,left,0.5073630340048112,685.4416601580015,685.9490231920063,,,,,,,,,,,,,,,,,,,,,,,,,,,,,,,,,1,,,,,,,,,,,,,,,,,,,,,,,,,,,,,,,,,,,,,,,,,,,,,,88,150133,21,Female,1,2024/03/14_08:50:01,YZ,None,
4,./instructions/inst_prac_1/Slide27.png,right,1.6526901140023256,685.9762780570018,687.6289681710041,,,,,,,,,,,,,,,,,,,,,,,,,,,,,,,,,1,,,,,,,,,,,,,,,,,,,,,,,,,,,,,,,,,,,,,,,,,,,,,,88,150133,21,Female,1,2024/03/14_08:50:01,YZ,None,
3,./instructions/inst_prac_1/Slide28.png,left,0.7711231330031296,687.6578687459987,688.4289918790018,,,,,,,,,,,,,,,,,,,,,,,,,,,,,,,,,1,,,,,,,,,,,,,,,,,,,,,,,,,,,,,,,,,,,,,,,,,,,,,,88,150133,21,Female,1,2024/03/14_08:50:01,YZ,None,
4,./instructions/inst_prac_1/Slide27.png,right,0.7310605350066908,688.4577170300036,689.1887775650102,,,,,,,,,,,,,,,,,,,,,,,,,,,,,,,,,1,,,,,,,,,,,,,,,,,,,,,,,,,,,,,,,,,,,,,,,,,,,,,,88,150133,21,Female,1,2024/03/14_08:50:01,YZ,None,
3,./instructions/inst_prac_1/Slide28.png,left,0.4914185290108435,689.2175975249993,689.7090160540101,,,,,,,,,,,,,,,,,,,,,,,,,,,,,,,,,1,,,,,,,,,,,,,,,,,,,,,,,,,,,,,,,,,,,,,,,,,,,,,,88,150133,21,Female,1,2024/03/14_08:50:01,YZ,None,
4,./instructions/inst_prac_1/Slide27.png,right,0.5221875550050754,689.7385922300018,690.2607797850069,,,,,,,,,,,,,,,,,,,,,,,,,,,,,,,,,1,,,,,,,,,,,,,,,,,,,,,,,,,,,,,,,,,,,,,,,,,,,,,,88,150133,21,Female,1,2024/03/14_08:50:01,YZ,None,
3,./instructions/inst_prac_1/Slide28.png,left,0.48300338799890596,690.2897419140063,690.7727453020052,,,,,,,,,,,,,,,,,,,,,,,,,,,,,,,,,1,,,,,,,,,,,,,,,,,,,,,,,,,,,,,,,,,,,,,,,,,,,,,,88,150133,21,Female,1,2024/03/14_08:50:01,YZ,None,
4,./instructions/inst_prac_1/Slide27.png,right,0.4669514079869259,690.801816354011,691.2687677619979,,,,,,,,,,,,,,,,,,,,,,,,,,,,,,,,,1,,,,,,,,,,,,,,,,,,,,,,,,,,,,,,,,,,,,,,,,,,,,,,88,150133,21,Female,1,2024/03/14_08:50:01,YZ,None,
3,./instructions/inst_prac_1/Slide28.png,left,2.9006243589974474,691.2963975760067,694.1970219350042,,,,,,,,,,,,,,,,,,,,,,,,,,,,,,,,,1,,,,,,,,,,,,,,,,,,,,,,,,,,,,,,,,,,,,,,,,,,,,,,88,150133,21,Female,1,2024/03/14_08:50:01,YZ,None,
2,./instructions/inst_prac_1/Slide27.png,left,0.2004367280023871,694.2196286380058,694.4200653660082,,,,,,,,,,,,,,,,,,,,,,,,,,,,,,,,,1,,,,,,,,,,,,,,,,,,,,,,,,,,,,,,,,,,,,,,,,,,,,,,88,150133,21,Female,1,2024/03/14_08:50:01,YZ,None,
3,./instructions/inst_prac_1/Slide26.png,right,2.146000715001719,694.4427710720047,696.5887717870064,,,,,,,,,,,,,,,,,,,,,,,,,,,,,,,,,1,,,,,,,,,,,,,,,,,,,,,,,,,,,,,,,,,,,,,,,,,,,,,,88,150133,21,Female,1,2024/03/14_08:50:01,YZ,None,
4,./instructions/inst_prac_1/Slide27.png,right,1.507930045001558,696.6169427170098,698.1248727620114,,,,,,,,,,,,,,,,,,,,,,,,,,,,,,,,,1,,,,,,,,,,,,,,,,,,,,,,,,,,,,,,,,,,,,,,,,,,,,,,88,150133,21,Female,1,2024/03/14_08:50:01,YZ,None,
3,./instructions/inst_prac_1/Slide28.png,left,2.573246363986982,698.1517715220107,700.7250178859977,,,,,,,,,,,,,,,,,,,,,,,,,,,,,,,,,1,,,,,,,,,,,,,,,,,,,,,,,,,,,,,,,,,,,,,,,,,,,,,,88,150133,21,Female,1,2024/03/14_08:50:01,YZ,None,
4,./instructions/inst_prac_1/Slide27.png,right,1.8092409980017692,700.7475617800083,702.55680277801,,,,,,,,,,,,,,,,,,,,,,,,,,,,,,,,,1,,,,,,,,,,,,,,,,,,,,,,,,,,,,,,,,,,,,,,,,,,,,,,88,150133,21,Female,1,2024/03/14_08:50:01,YZ,None,
5,./instructions/inst_prac_1/Slide28.png,right,0.2003982320020441,702.5854811809986,702.7858794130007,,,,,,,,,,,,,,,,,,,,,,,,,,,,,,,,,1,,,,,,,,,,,,,,,,,,,,,,,,,,,,,,,,,,,,,,,,,,,,,,88,150133,21,Female,1,2024/03/14_08:50:01,YZ,None,
4,./instructions/inst_prac_1/Slide29.png,left,0.3566240090003703,702.8082502720063,703.1648742810066,,,,,,,,,,,,,,,,,,,,,,,,,,,,,,,,,1,,,,,,,,,,,,,,,,,,,,,,,,,,,,,,,,,,,,,,,,,,,,,,88,150133,21,Female,1,2024/03/14_08:50:01,YZ,None,
3,./instructions/inst_prac_1/Slide28.png,left,1.4497523350000847,703.1872878550057,704.6370401900058,,,,,,,,,,,,,,,,,,,,,,,,,,,,,,,,,1,,,,,,,,,,,,,,,,,,,,,,,,,,,,,,,,,,,,,,,,,,,,,,88,150133,21,Female,1,2024/03/14_08:50:01,YZ,None,
4,./instructions/inst_prac_1/Slide27.png,right,0.7934023599955253,704.6594135370106,705.4528158970061,,,,,,,,,,,,,,,,,,,,,,,,,,,,,,,,,1,,,,,,,,,,,,,,,,,,,,,,,,,,,,,,,,,,,,,,,,,,,,,,88,150133,21,Female,1,2024/03/14_08:50:01,YZ,None,
3,./instructions/inst_prac_1/Slide28.png,left,0.8272945049975533,705.4816491640086,706.3089436690061,,,,,,,,,,,,,,,,,,,,,,,,,,,,,,,,,1,,,,,,,,,,,,,,,,,,,,,,,,,,,,,,,,,,,,,,,,,,,,,,88,150133,21,Female,1,2024/03/14_08:50:01,YZ,None,
4,./instructions/inst_prac_1/Slide27.png,right,0.5471131609956501,706.3375425740087,706.8846557350043,,,,,,,,,,,,,,,,,,,,,,,,,,,,,,,,,1,,,,,,,,,,,,,,,,,,,,,,,,,,,,,,,,,,,,,,,,,,,,,,88,150133,21,Female,1,2024/03/14_08:50:01,YZ,None,
3,./instructions/inst_prac_1/Slide28.png,left,0.6072208230034448,706.9098174789979,707.5170383020013,,,,,,,,,,,,,,,,,,,,,,,,,,,,,,,,,1,,,,,,,,,,,,,,,,,,,,,,,,,,,,,,,,,,,,,,,,,,,,,,88,150133,21,Female,1,2024/03/14_08:50:01,YZ,None,
4,./instructions/inst_prac_1/Slide27.png,right,0.5340096739964793,707.542918844003,708.0769285179995,,,,,,,,,,,,,,,,,,,,,,,,,,,,,,,,,1,,,,,,,,,,,,,,,,,,,,,,,,,,,,,,,,,,,,,,,,,,,,,,88,150133,21,Female,1,2024/03/14_08:50:01,YZ,None,
3,./instructions/inst_prac_1/Slide28.png,left,0.5874865509977099,708.1057288750017,708.6932154259994,,,,,,,,,,,,,,,,,,,,,,,,,,,,,,,,,1,,,,,,,,,,,,,,,,,,,,,,,,,,,,,,,,,,,,,,,,,,,,,,88,150133,21,Female,1,2024/03/14_08:50:01,YZ,None,
4,./instructions/inst_prac_1/Slide27.png,right,0.5627660789905349,708.7220108410111,709.2847769200016,,,,,,,,,,,,,,,,,,,,,,,,,,,,,,,,,1,,,,,,,,,,,,,,,,,,,,,,,,,,,,,,,,,,,,,,,,,,,,,,88,150133,21,Female,1,2024/03/14_08:50:01,YZ,None,
3,./instructions/inst_prac_1/Slide28.png,left,0.5501032600004692,709.3107791460061,709.8608824060066,,,,,,,,,,,,,,,,,,,,,,,,,,,,,,,,,1,,,,,,,,,,,,,,,,,,,,,,,,,,,,,,,,,,,,,,,,,,,,,,88,150133,21,Female,1,2024/03/14_08:50:01,YZ,None,
4,./instructions/inst_prac_1/Slide27.png,right,0.5229927259933902,709.8898755810078,710.4128683070012,,,,,,,,,,,,,,,,,,,,,,,,,,,,,,,,,1,,,,,,,,,,,,,,,,,,,,,,,,,,,,,,,,,,,,,,,,,,,,,,88,150133,21,Female,1,2024/03/14_08:50:01,YZ,None,
3,./instructions/inst_prac_1/Slide28.png,left,0.4909439070033841,710.4420409610029,710.9329848680063,,,,,,,,,,,,,,,,,,,,,,,,,,,,,,,,,1,,,,,,,,,,,,,,,,,,,,,,,,,,,,,,,,,,,,,,,,,,,,,,88,150133,21,Female,1,2024/03/14_08:50:01,YZ,None,
4,./instructions/inst_prac_1/Slide27.png,right,0.5080969620030373,710.9606758610025,711.4687728230056,,,,,,,,,,,,,,,,,,,,,,,,,,,,,,,,,1,,,,,,,,,,,,,,,,,,,,,,,,,,,,,,,,,,,,,,,,,,,,,,88,150133,21,Female,1,2024/03/14_08:50:01,YZ,None,
3,./instructions/inst_prac_1/Slide28.png,left,0.4939453459955985,711.4951423620078,711.9890877080034,,,,,,,,,,,,,,,,,,,,,,,,,,,,,,,,,1,,,,,,,,,,,,,,,,,,,,,,,,,,,,,,,,,,,,,,,,,,,,,,88,150133,21,Female,1,2024/03/14_08:50:01,YZ,None,
4,./instructions/inst_prac_1/Slide27.png,right,0.546983749998617,712.0178572050063,712.5648409550049,,,,,,,,,,,,,,,,,,,,,,,,,,,,,,,,,1,,,,,,,,,,,,,,,,,,,,,,,,,,,,,,,,,,,,,,,,,,,,,,88,150133,21,Female,1,2024/03/14_08:50:01,YZ,None,
3,./instructions/inst_prac_1/Slide28.png,left,0.5391077520034742,712.5937570660026,713.132864818006,,,,,,,,,,,,,,,,,,,,,,,,,,,,,,,,,1,,,,,,,,,,,,,,,,,,,,,,,,,,,,,,,,,,,,,,,,,,,,,,88,150133,21,Female,1,2024/03/14_08:50:01,YZ,None,
4,./instructions/inst_prac_1/Slide27.png,right,1.4591813709994312,713.1616165550076,714.6207979260071,,,,,,,,,,,,,,,,,,,,,,,,,,,,,,,,,1,,,,,,,,,,,,,,,,,,,,,,,,,,,,,,,,,,,,,,,,,,,,,,88,150133,21,Female,1,2024/03/14_08:50:01,YZ,None,
3,./instructions/inst_prac_1/Slide28.png,left,0.5254882389999693,714.647607966006,715.173096205006,,,,,,,,,,,,,,,,,,,,,,,,,,,,,,,,,1,,,,,,,,,,,,,,,,,,,,,,,,,,,,,,,,,,,,,,,,,,,,,,88,150133,21,Female,1,2024/03/14_08:50:01,YZ,None,
4,./instructions/inst_prac_1/Slide27.png,right,0.5102646449959138,715.1986387070065,715.7089033520024,,,,,,,,,,,,,,,,,,,,,,,,,,,,,,,,,1,,,,,,,,,,,,,,,,,,,,,,,,,,,,,,,,,,,,,,,,,,,,,,88,150133,21,Female,1,2024/03/14_08:50:01,YZ,None,
3,./instructions/inst_prac_1/Slide28.png,left,0.5233867680071853,715.7376779960032,716.2610647640104,,,,,,,,,,,,,,,,,,,,,,,,,,,,,,,,,1,,,,,,,,,,,,,,,,,,,,,,,,,,,,,,,,,,,,,,,,,,,,,,88,150133,21,Female,1,2024/03/14_08:50:01,YZ,None,
4,./instructions/inst_prac_1/Slide27.png,right,0.5228357299929485,716.2898325980059,716.8126683279988,,,,,,,,,,,,,,,,,,,,,,,,,,,,,,,,,1,,,,,,,,,,,,,,,,,,,,,,,,,,,,,,,,,,,,,,,,,,,,,,88,150133,21,Female,1,2024/03/14_08:50:01,YZ,None,
3,./instructions/inst_prac_1/Slide28.png,left,0.5796329440054251,716.8412848610024,717.4209178050078,,,,,,,,,,,,,,,,,,,,,,,,,,,,,,,,,1,,,,,,,,,,,,,,,,,,,,,,,,,,,,,,,,,,,,,,,,,,,,,,88,150133,21,Female,1,2024/03/14_08:50:01,YZ,None,
4,./instructions/inst_prac_1/Slide27.png,right,0.764085836999584,717.4488519029983,718.2129377399979,,,,,,,,,,,,,,,,,,,,,,,,,,,,,,,,,1,,,,,,,,,,,,,,,,,,,,,,,,,,,,,,,,,,,,,,,,,,,,,,88,150133,21,Female,1,2024/03/14_08:50:01,YZ,None,
3,./instructions/inst_prac_1/Slide28.png,left,0.6430085800093366,718.2419805149984,718.8849890950078,,,,,,,,,,,,,,,,,,,,,,,,,,,,,,,,,1,,,,,,,,,,,,,,,,,,,,,,,,,,,,,,,,,,,,,,,,,,,,,,88,150133,21,Female,1,2024/03/14_08:50:01,YZ,None,
4,./instructions/inst_prac_1/Slide27.png,right,0.5793041769939009,718.9135382880049,719.4928424649988,,,,,,,,,,,,,,,,,,,,,,,,,,,,,,,,,1,,,,,,,,,,,,,,,,,,,,,,,,,,,,,,,,,,,,,,,,,,,,,,88,150133,21,Female,1,2024/03/14_08:50:01,YZ,None,
3,./instructions/inst_prac_1/Slide28.png,left,0.5104495330015197,719.5185053440073,720.0289548770088,,,,,,,,,,,,,,,,,,,,,,,,,,,,,,,,,1,,,,,,,,,,,,,,,,,,,,,,,,,,,,,,,,,,,,,,,,,,,,,,88,150133,21,Female,1,2024/03/14_08:50:01,YZ,None,
4,./instructions/inst_prac_1/Slide27.png,right,0.5786193589883624,720.0581985340104,720.6368178929988,,,,,,,,,,,,,,,,,,,,,,,,,,,,,,,,,1,,,,,,,,,,,,,,,,,,,,,,,,,,,,,,,,,,,,,,,,,,,,,,88,150133,21,Female,1,2024/03/14_08:50:01,YZ,None,
3,./instructions/inst_prac_1/Slide28.png,left,0.5636667950020637,720.6655377410061,721.2292045360082,,,,,,,,,,,,,,,,,,,,,,,,,,,,,,,,,1,,,,,,,,,,,,,,,,,,,,,,,,,,,,,,,,,,,,,,,,,,,,,,88,150133,21,Female,1,2024/03/14_08:50:01,YZ,None,
4,./instructions/inst_prac_1/Slide27.png,right,0.6188071090000449,721.2580213559995,721.8768284649996,,,,,,,,,,,,,,,,,,,,,,,,,,,,,,,,,1,,,,,,,,,,,,,,,,,,,,,,,,,,,,,,,,,,,,,,,,,,,,,,88,150133,21,Female,1,2024/03/14_08:50:01,YZ,None,
